"trial_type","trial_index","time_elapsed","internal_node_id","subject_id","task","startTime","totalTime","view_history","rt","event","trial","time","trialtype","success","stimulus","key_press","sureOffer","riskyOffer","riskyLeft","sureAmt","riskyAmt","chosen"
"pavlovia","0","2","0.0-0.0","fertuck1","bdp_rd","Sun Feb 26 2023 12:55:38 GMT-0500 (Eastern Standard Time)","209890","","","","","","","","","","","","","","",""
"instructions","1","1893","0.0-1.0","fertuck1","bdp_rd","Sun Feb 26 2023 12:55:38 GMT-0500 (Eastern Standard Time)","209890","[{""page_index"":0,""viewing_time"":1891}]","1891","","","","","","","","","","","","",""
"","","","","fertuck1","bdp_rd","Sun Feb 26 2023 12:55:38 GMT-0500 (Eastern Standard Time)","209890","","","fullscreenenter","2","3264","fullscreenenter","","","","","","","","",""
"fullscreen","2","4259","0.0-2.0","fertuck1","bdp_rd","Sun Feb 26 2023 12:55:38 GMT-0500 (Eastern Standard Time)","209890","","","","","","","true","","","","","","","",""
"instructions","3","28121","0.0-4.0","fertuck1","bdp_rd","Sun Feb 26 2023 12:55:38 GMT-0500 (Eastern Standard Time)","209890","[{""page_index"":0,""viewing_time"":14293},{""page_index"":1,""viewing_time"":6707},{""page_index"":2,""viewing_time"":2859}]","23860","","","","","","","","","","","","",""
"html-keyboard-response","4","28627","0.0-5.0-1.0","fertuck1","bdp_rd","Sun Feb 26 2023 12:55:38 GMT-0500 (Eastern Standard Time)","209890","","null","","","","FIX","","<div class='trialBorder'><div class='vertical-center'><img style='vertical-align:center; align:center' src=img/fixation3.jpg></div></div>","null","","","","","",""
"html-keyboard-response","5","31062","0.0-5.0-2.0","fertuck1","bdp_rd","Sun Feb 26 2023 12:55:38 GMT-0500 (Eastern Standard Time)","209890","","2433","","","","offer","","<div class='trialBorder'><div class='vertical-center'><img style='vertical-align:center; align:center' src=img/fixation3.jpg></div><div class='cl'><div class='vertical-center'>$2<br>for<br>sure</div></div><div class='cr'><div class='vertical-center'>$64<br>with a<br>50% chance</div></div><div class='respDivL'><div class='vertical-center'>(E)</div></div><div class='respDivR'><div class='vertical-center'>(I)</div></div></div>","I","$2","$64","0","2","64","RISKY"
"html-keyboard-response","6","31316","0.0-5.0-3.0","fertuck1","bdp_rd","Sun Feb 26 2023 12:55:38 GMT-0500 (Eastern Standard Time)","209890","","null","","","","offer","","<div class='trialBorder'><div class='vertical-center'><img style='vertical-align:center; align:center' src=img/fixation3.jpg></div><div class='cl'><div class='vertical-center'>$2<br>for<br>sure</div></div><div class='cr'><div class='vertical-center'><font style='color:orange'>$64<br>with a<br>50% chance</font></div></div><div class='respDivL'><div class='vertical-center'>(E)</div></div><div class='respDivR'><div class='vertical-center'><font style='color:orange'>(I)</font></div></div></div>","null","$2","$64","0","2","64",""
"html-keyboard-response","7","31823","0.0-5.0-1.1","fertuck1","bdp_rd","Sun Feb 26 2023 12:55:38 GMT-0500 (Eastern Standard Time)","209890","","null","","","","FIX","","<div class='trialBorder'><div class='vertical-center'><img style='vertical-align:center; align:center' src=img/fixation3.jpg></div></div>","null","","","","","",""
"html-keyboard-response","8","37047","0.0-5.0-2.1","fertuck1","bdp_rd","Sun Feb 26 2023 12:55:38 GMT-0500 (Eastern Standard Time)","209890","","5222","","","","offer","","<div class='trialBorder'><div class='vertical-center'><img style='vertical-align:center; align:center' src=img/fixation3.jpg></div><div class='cl'><div class='vertical-center'>$62<br>with a<br>50% chance</div></div><div class='cr'><div class='vertical-center'>$11<br>for<br>sure</div></div><div class='respDivL'><div class='vertical-center'>(E)</div></div><div class='respDivR'><div class='vertical-center'>(I)</div></div></div>","E","$11","$62","1","11","62","RISKY"
"html-keyboard-response","9","37300","0.0-5.0-3.1","fertuck1","bdp_rd","Sun Feb 26 2023 12:55:38 GMT-0500 (Eastern Standard Time)","209890","","null","","","","offer","","<div class='trialBorder'><div class='vertical-center'><img style='vertical-align:center; align:center' src=img/fixation3.jpg></div><div class='cl'><div class='vertical-center'><font style='color:orange'>$62<br>with a<br>50% chance</font></div></div><div class='cr'><div class='vertical-center'>$11<br>for<br>sure</div></div><div class='respDivL'><div class='vertical-center'><font style='color:orange'>(E)</font></div></div><div class='respDivR'><div class='vertical-center'>(I)</div></div></div>","null","$11","$62","1","11","62",""
"html-keyboard-response","10","37801","0.0-5.0-1.2","fertuck1","bdp_rd","Sun Feb 26 2023 12:55:38 GMT-0500 (Eastern Standard Time)","209890","","null","","","","FIX","","<div class='trialBorder'><div class='vertical-center'><img style='vertical-align:center; align:center' src=img/fixation3.jpg></div></div>","null","","","","","",""
"html-keyboard-response","11","42387","0.0-5.0-2.2","fertuck1","bdp_rd","Sun Feb 26 2023 12:55:38 GMT-0500 (Eastern Standard Time)","209890","","4584","","","","offer","","<div class='trialBorder'><div class='vertical-center'><img style='vertical-align:center; align:center' src=img/fixation3.jpg></div><div class='cl'><div class='vertical-center'>$4<br>for<br>sure</div></div><div class='cr'><div class='vertical-center'>$11<br>with a<br>50% chance</div></div><div class='respDivL'><div class='vertical-center'>(E)</div></div><div class='respDivR'><div class='vertical-center'>(I)</div></div></div>","E","$4","$11","0","4","11","SURE"
"html-keyboard-response","12","42640","0.0-5.0-3.2","fertuck1","bdp_rd","Sun Feb 26 2023 12:55:38 GMT-0500 (Eastern Standard Time)","209890","","null","","","","offer","","<div class='trialBorder'><div class='vertical-center'><img style='vertical-align:center; align:center' src=img/fixation3.jpg></div><div class='cl'><div class='vertical-center'><font style='color:orange'>$4<br>for<br>sure</font></div></div><div class='cr'><div class='vertical-center'>$11<br>with a<br>50% chance</div></div><div class='respDivL'><div class='vertical-center'><font style='color:orange'>(E)</font></div></div><div class='respDivR'><div class='vertical-center'>(I)</div></div></div>","null","$4","$11","0","4","11",""
"html-keyboard-response","13","43145","0.0-5.0-1.3","fertuck1","bdp_rd","Sun Feb 26 2023 12:55:38 GMT-0500 (Eastern Standard Time)","209890","","null","","","","FIX","","<div class='trialBorder'><div class='vertical-center'><img style='vertical-align:center; align:center' src=img/fixation3.jpg></div></div>","null","","","","","",""
"html-keyboard-response","14","46049","0.0-5.0-2.3","fertuck1","bdp_rd","Sun Feb 26 2023 12:55:38 GMT-0500 (Eastern Standard Time)","209890","","2902","","","","offer","","<div class='trialBorder'><div class='vertical-center'><img style='vertical-align:center; align:center' src=img/fixation3.jpg></div><div class='cl'><div class='vertical-center'>$24<br>with a<br>50% chance</div></div><div class='cr'><div class='vertical-center'>$13<br>for<br>sure</div></div><div class='respDivL'><div class='vertical-center'>(E)</div></div><div class='respDivR'><div class='vertical-center'>(I)</div></div></div>","I","$13","$24","1","13","24","SURE"
"html-keyboard-response","15","46302","0.0-5.0-3.3","fertuck1","bdp_rd","Sun Feb 26 2023 12:55:38 GMT-0500 (Eastern Standard Time)","209890","","null","","","","offer","","<div class='trialBorder'><div class='vertical-center'><img style='vertical-align:center; align:center' src=img/fixation3.jpg></div><div class='cl'><div class='vertical-center'>$24<br>with a<br>50% chance</div></div><div class='cr'><div class='vertical-center'><font style='color:orange'>$13<br>for<br>sure</font></div></div><div class='respDivL'><div class='vertical-center'>(E)</div></div><div class='respDivR'><div class='vertical-center'><font style='color:orange'>(I)</font></div></div></div>","null","$13","$24","1","13","24",""
"html-keyboard-response","16","46809","0.0-5.0-1.4","fertuck1","bdp_rd","Sun Feb 26 2023 12:55:38 GMT-0500 (Eastern Standard Time)","209890","","null","","","","FIX","","<div class='trialBorder'><div class='vertical-center'><img style='vertical-align:center; align:center' src=img/fixation3.jpg></div></div>","null","","","","","",""
"html-keyboard-response","17","51749","0.0-5.0-2.4","fertuck1","bdp_rd","Sun Feb 26 2023 12:55:38 GMT-0500 (Eastern Standard Time)","209890","","4938","","","","offer","","<div class='trialBorder'><div class='vertical-center'><img style='vertical-align:center; align:center' src=img/fixation3.jpg></div><div class='cl'><div class='vertical-center'>$6<br>for<br>sure</div></div><div class='cr'><div class='vertical-center'>$13<br>with a<br>50% chance</div></div><div class='respDivL'><div class='vertical-center'>(E)</div></div><div class='respDivR'><div class='vertical-center'>(I)</div></div></div>","E","$6","$13","0","6","13","SURE"
"html-keyboard-response","18","52003","0.0-5.0-3.4","fertuck1","bdp_rd","Sun Feb 26 2023 12:55:38 GMT-0500 (Eastern Standard Time)","209890","","null","","","","offer","","<div class='trialBorder'><div class='vertical-center'><img style='vertical-align:center; align:center' src=img/fixation3.jpg></div><div class='cl'><div class='vertical-center'><font style='color:orange'>$6<br>for<br>sure</font></div></div><div class='cr'><div class='vertical-center'>$13<br>with a<br>50% chance</div></div><div class='respDivL'><div class='vertical-center'><font style='color:orange'>(E)</font></div></div><div class='respDivR'><div class='vertical-center'>(I)</div></div></div>","null","$6","$13","0","6","13",""
"html-keyboard-response","19","52510","0.0-5.0-1.5","fertuck1","bdp_rd","Sun Feb 26 2023 12:55:38 GMT-0500 (Eastern Standard Time)","209890","","null","","","","FIX","","<div class='trialBorder'><div class='vertical-center'><img style='vertical-align:center; align:center' src=img/fixation3.jpg></div></div>","null","","","","","",""
"html-keyboard-response","20","55357","0.0-5.0-2.5","fertuck1","bdp_rd","Sun Feb 26 2023 12:55:38 GMT-0500 (Eastern Standard Time)","209890","","2845","","","","offer","","<div class='trialBorder'><div class='vertical-center'><img style='vertical-align:center; align:center' src=img/fixation3.jpg></div><div class='cl'><div class='vertical-center'>$21<br>for<br>sure</div></div><div class='cr'><div class='vertical-center'>$25<br>with a<br>50% chance</div></div><div class='respDivL'><div class='vertical-center'>(E)</div></div><div class='respDivR'><div class='vertical-center'>(I)</div></div></div>","E","$21","$25","0","21","25","SURE"
"html-keyboard-response","21","55614","0.0-5.0-3.5","fertuck1","bdp_rd","Sun Feb 26 2023 12:55:38 GMT-0500 (Eastern Standard Time)","209890","","null","","","","offer","","<div class='trialBorder'><div class='vertical-center'><img style='vertical-align:center; align:center' src=img/fixation3.jpg></div><div class='cl'><div class='vertical-center'><font style='color:orange'>$21<br>for<br>sure</font></div></div><div class='cr'><div class='vertical-center'>$25<br>with a<br>50% chance</div></div><div class='respDivL'><div class='vertical-center'><font style='color:orange'>(E)</font></div></div><div class='respDivR'><div class='vertical-center'>(I)</div></div></div>","null","$21","$25","0","21","25",""
"html-keyboard-response","22","56120","0.0-5.0-1.6","fertuck1","bdp_rd","Sun Feb 26 2023 12:55:38 GMT-0500 (Eastern Standard Time)","209890","","null","","","","FIX","","<div class='trialBorder'><div class='vertical-center'><img style='vertical-align:center; align:center' src=img/fixation3.jpg></div></div>","null","","","","","",""
"html-keyboard-response","23","60800","0.0-5.0-2.6","fertuck1","bdp_rd","Sun Feb 26 2023 12:55:38 GMT-0500 (Eastern Standard Time)","209890","","4678","","","","offer","","<div class='trialBorder'><div class='vertical-center'><img style='vertical-align:center; align:center' src=img/fixation3.jpg></div><div class='cl'><div class='vertical-center'>$45<br>with a<br>50% chance</div></div><div class='cr'><div class='vertical-center'>$8<br>for<br>sure</div></div><div class='respDivL'><div class='vertical-center'>(E)</div></div><div class='respDivR'><div class='vertical-center'>(I)</div></div></div>","E","$8","$45","1","8","45","RISKY"
"html-keyboard-response","24","61053","0.0-5.0-3.6","fertuck1","bdp_rd","Sun Feb 26 2023 12:55:38 GMT-0500 (Eastern Standard Time)","209890","","null","","","","offer","","<div class='trialBorder'><div class='vertical-center'><img style='vertical-align:center; align:center' src=img/fixation3.jpg></div><div class='cl'><div class='vertical-center'><font style='color:orange'>$45<br>with a<br>50% chance</font></div></div><div class='cr'><div class='vertical-center'>$8<br>for<br>sure</div></div><div class='respDivL'><div class='vertical-center'><font style='color:orange'>(E)</font></div></div><div class='respDivR'><div class='vertical-center'>(I)</div></div></div>","null","$8","$45","1","8","45",""
"html-keyboard-response","25","61560","0.0-5.0-1.7","fertuck1","bdp_rd","Sun Feb 26 2023 12:55:38 GMT-0500 (Eastern Standard Time)","209890","","null","","","","FIX","","<div class='trialBorder'><div class='vertical-center'><img style='vertical-align:center; align:center' src=img/fixation3.jpg></div></div>","null","","","","","",""
"html-keyboard-response","26","63556","0.0-5.0-2.7","fertuck1","bdp_rd","Sun Feb 26 2023 12:55:38 GMT-0500 (Eastern Standard Time)","209890","","1995","","","","offer","","<div class='trialBorder'><div class='vertical-center'><img style='vertical-align:center; align:center' src=img/fixation3.jpg></div><div class='cl'><div class='vertical-center'>$54<br>with a<br>50% chance</div></div><div class='cr'><div class='vertical-center'>$25<br>for<br>sure</div></div><div class='respDivL'><div class='vertical-center'>(E)</div></div><div class='respDivR'><div class='vertical-center'>(I)</div></div></div>","I","$25","$54","1","25","54","SURE"
"html-keyboard-response","27","63809","0.0-5.0-3.7","fertuck1","bdp_rd","Sun Feb 26 2023 12:55:38 GMT-0500 (Eastern Standard Time)","209890","","null","","","","offer","","<div class='trialBorder'><div class='vertical-center'><img style='vertical-align:center; align:center' src=img/fixation3.jpg></div><div class='cl'><div class='vertical-center'>$54<br>with a<br>50% chance</div></div><div class='cr'><div class='vertical-center'><font style='color:orange'>$25<br>for<br>sure</font></div></div><div class='respDivL'><div class='vertical-center'>(E)</div></div><div class='respDivR'><div class='vertical-center'><font style='color:orange'>(I)</font></div></div></div>","null","$25","$54","1","25","54",""
"html-keyboard-response","28","64312","0.0-5.0-1.8","fertuck1","bdp_rd","Sun Feb 26 2023 12:55:38 GMT-0500 (Eastern Standard Time)","209890","","null","","","","FIX","","<div class='trialBorder'><div class='vertical-center'><img style='vertical-align:center; align:center' src=img/fixation3.jpg></div></div>","null","","","","","",""
"html-keyboard-response","29","66893","0.0-5.0-2.8","fertuck1","bdp_rd","Sun Feb 26 2023 12:55:38 GMT-0500 (Eastern Standard Time)","209890","","2580","","","","offer","","<div class='trialBorder'><div class='vertical-center'><img style='vertical-align:center; align:center' src=img/fixation3.jpg></div><div class='cl'><div class='vertical-center'>$12<br>for<br>sure</div></div><div class='cr'><div class='vertical-center'>$35<br>with a<br>50% chance</div></div><div class='respDivL'><div class='vertical-center'>(E)</div></div><div class='respDivR'><div class='vertical-center'>(I)</div></div></div>","E","$12","$35","0","12","35","SURE"
"html-keyboard-response","30","67147","0.0-5.0-3.8","fertuck1","bdp_rd","Sun Feb 26 2023 12:55:38 GMT-0500 (Eastern Standard Time)","209890","","null","","","","offer","","<div class='trialBorder'><div class='vertical-center'><img style='vertical-align:center; align:center' src=img/fixation3.jpg></div><div class='cl'><div class='vertical-center'><font style='color:orange'>$12<br>for<br>sure</font></div></div><div class='cr'><div class='vertical-center'>$35<br>with a<br>50% chance</div></div><div class='respDivL'><div class='vertical-center'><font style='color:orange'>(E)</font></div></div><div class='respDivR'><div class='vertical-center'>(I)</div></div></div>","null","$12","$35","0","12","35",""
"html-keyboard-response","31","67650","0.0-5.0-1.9","fertuck1","bdp_rd","Sun Feb 26 2023 12:55:38 GMT-0500 (Eastern Standard Time)","209890","","null","","","","FIX","","<div class='trialBorder'><div class='vertical-center'><img style='vertical-align:center; align:center' src=img/fixation3.jpg></div></div>","null","","","","","",""
"html-keyboard-response","32","72528","0.0-5.0-2.9","fertuck1","bdp_rd","Sun Feb 26 2023 12:55:38 GMT-0500 (Eastern Standard Time)","209890","","4876","","","","offer","","<div class='trialBorder'><div class='vertical-center'><img style='vertical-align:center; align:center' src=img/fixation3.jpg></div><div class='cl'><div class='vertical-center'>$6<br>for<br>sure</div></div><div class='cr'><div class='vertical-center'>$15<br>with a<br>50% chance</div></div><div class='respDivL'><div class='vertical-center'>(E)</div></div><div class='respDivR'><div class='vertical-center'>(I)</div></div></div>","E","$6","$15","0","6","15","SURE"
"html-keyboard-response","33","72781","0.0-5.0-3.9","fertuck1","bdp_rd","Sun Feb 26 2023 12:55:38 GMT-0500 (Eastern Standard Time)","209890","","null","","","","offer","","<div class='trialBorder'><div class='vertical-center'><img style='vertical-align:center; align:center' src=img/fixation3.jpg></div><div class='cl'><div class='vertical-center'><font style='color:orange'>$6<br>for<br>sure</font></div></div><div class='cr'><div class='vertical-center'>$15<br>with a<br>50% chance</div></div><div class='respDivL'><div class='vertical-center'><font style='color:orange'>(E)</font></div></div><div class='respDivR'><div class='vertical-center'>(I)</div></div></div>","null","$6","$15","0","6","15",""
"html-keyboard-response","34","73288","0.0-5.0-1.10","fertuck1","bdp_rd","Sun Feb 26 2023 12:55:38 GMT-0500 (Eastern Standard Time)","209890","","null","","","","FIX","","<div class='trialBorder'><div class='vertical-center'><img style='vertical-align:center; align:center' src=img/fixation3.jpg></div></div>","null","","","","","",""
"html-keyboard-response","35","77702","0.0-5.0-2.10","fertuck1","bdp_rd","Sun Feb 26 2023 12:55:38 GMT-0500 (Eastern Standard Time)","209890","","4413","","","","offer","","<div class='trialBorder'><div class='vertical-center'><img style='vertical-align:center; align:center' src=img/fixation3.jpg></div><div class='cl'><div class='vertical-center'>$47<br>with a<br>50% chance</div></div><div class='cr'><div class='vertical-center'>$27<br>for<br>sure</div></div><div class='respDivL'><div class='vertical-center'>(E)</div></div><div class='respDivR'><div class='vertical-center'>(I)</div></div></div>","I","$27","$47","1","27","47","SURE"
"html-keyboard-response","36","77959","0.0-5.0-3.10","fertuck1","bdp_rd","Sun Feb 26 2023 12:55:38 GMT-0500 (Eastern Standard Time)","209890","","null","","","","offer","","<div class='trialBorder'><div class='vertical-center'><img style='vertical-align:center; align:center' src=img/fixation3.jpg></div><div class='cl'><div class='vertical-center'>$47<br>with a<br>50% chance</div></div><div class='cr'><div class='vertical-center'><font style='color:orange'>$27<br>for<br>sure</font></div></div><div class='respDivL'><div class='vertical-center'>(E)</div></div><div class='respDivR'><div class='vertical-center'><font style='color:orange'>(I)</font></div></div></div>","null","$27","$47","1","27","47",""
"html-keyboard-response","37","78461","0.0-5.0-1.11","fertuck1","bdp_rd","Sun Feb 26 2023 12:55:38 GMT-0500 (Eastern Standard Time)","209890","","null","","","","FIX","","<div class='trialBorder'><div class='vertical-center'><img style='vertical-align:center; align:center' src=img/fixation3.jpg></div></div>","null","","","","","",""
"html-keyboard-response","38","80753","0.0-5.0-2.11","fertuck1","bdp_rd","Sun Feb 26 2023 12:55:38 GMT-0500 (Eastern Standard Time)","209890","","2291","","","","offer","","<div class='trialBorder'><div class='vertical-center'><img style='vertical-align:center; align:center' src=img/fixation3.jpg></div><div class='cl'><div class='vertical-center'>$30<br>with a<br>50% chance</div></div><div class='cr'><div class='vertical-center'>$1<br>for<br>sure</div></div><div class='respDivL'><div class='vertical-center'>(E)</div></div><div class='respDivR'><div class='vertical-center'>(I)</div></div></div>","E","$1","$30","1","1","30","RISKY"
"html-keyboard-response","39","81010","0.0-5.0-3.11","fertuck1","bdp_rd","Sun Feb 26 2023 12:55:38 GMT-0500 (Eastern Standard Time)","209890","","null","","","","offer","","<div class='trialBorder'><div class='vertical-center'><img style='vertical-align:center; align:center' src=img/fixation3.jpg></div><div class='cl'><div class='vertical-center'><font style='color:orange'>$30<br>with a<br>50% chance</font></div></div><div class='cr'><div class='vertical-center'>$1<br>for<br>sure</div></div><div class='respDivL'><div class='vertical-center'><font style='color:orange'>(E)</font></div></div><div class='respDivR'><div class='vertical-center'>(I)</div></div></div>","null","$1","$30","1","1","30",""
"html-keyboard-response","40","81516","0.0-5.0-1.12","fertuck1","bdp_rd","Sun Feb 26 2023 12:55:38 GMT-0500 (Eastern Standard Time)","209890","","null","","","","FIX","","<div class='trialBorder'><div class='vertical-center'><img style='vertical-align:center; align:center' src=img/fixation3.jpg></div></div>","null","","","","","",""
"html-keyboard-response","41","86325","0.0-5.0-2.12","fertuck1","bdp_rd","Sun Feb 26 2023 12:55:38 GMT-0500 (Eastern Standard Time)","209890","","4807","","","","offer","","<div class='trialBorder'><div class='vertical-center'><img style='vertical-align:center; align:center' src=img/fixation3.jpg></div><div class='cl'><div class='vertical-center'>$10<br>with a<br>50% chance</div></div><div class='cr'><div class='vertical-center'>$7<br>for<br>sure</div></div><div class='respDivL'><div class='vertical-center'>(E)</div></div><div class='respDivR'><div class='vertical-center'>(I)</div></div></div>","I","$7","$10","1","7","10","SURE"
"html-keyboard-response","42","86578","0.0-5.0-3.12","fertuck1","bdp_rd","Sun Feb 26 2023 12:55:38 GMT-0500 (Eastern Standard Time)","209890","","null","","","","offer","","<div class='trialBorder'><div class='vertical-center'><img style='vertical-align:center; align:center' src=img/fixation3.jpg></div><div class='cl'><div class='vertical-center'>$10<br>with a<br>50% chance</div></div><div class='cr'><div class='vertical-center'><font style='color:orange'>$7<br>for<br>sure</font></div></div><div class='respDivL'><div class='vertical-center'>(E)</div></div><div class='respDivR'><div class='vertical-center'><font style='color:orange'>(I)</font></div></div></div>","null","$7","$10","1","7","10",""
"html-keyboard-response","43","87084","0.0-5.0-1.13","fertuck1","bdp_rd","Sun Feb 26 2023 12:55:38 GMT-0500 (Eastern Standard Time)","209890","","null","","","","FIX","","<div class='trialBorder'><div class='vertical-center'><img style='vertical-align:center; align:center' src=img/fixation3.jpg></div></div>","null","","","","","",""
"html-keyboard-response","44","92614","0.0-5.0-2.13","fertuck1","bdp_rd","Sun Feb 26 2023 12:55:38 GMT-0500 (Eastern Standard Time)","209890","","5527","","","","offer","","<div class='trialBorder'><div class='vertical-center'><img style='vertical-align:center; align:center' src=img/fixation3.jpg></div><div class='cl'><div class='vertical-center'>$32<br>with a<br>50% chance</div></div><div class='cr'><div class='vertical-center'>$9<br>for<br>sure</div></div><div class='respDivL'><div class='vertical-center'>(E)</div></div><div class='respDivR'><div class='vertical-center'>(I)</div></div></div>","E","$9","$32","1","9","32","RISKY"
"html-keyboard-response","45","92871","0.0-5.0-3.13","fertuck1","bdp_rd","Sun Feb 26 2023 12:55:38 GMT-0500 (Eastern Standard Time)","209890","","null","","","","offer","","<div class='trialBorder'><div class='vertical-center'><img style='vertical-align:center; align:center' src=img/fixation3.jpg></div><div class='cl'><div class='vertical-center'><font style='color:orange'>$32<br>with a<br>50% chance</font></div></div><div class='cr'><div class='vertical-center'>$9<br>for<br>sure</div></div><div class='respDivL'><div class='vertical-center'><font style='color:orange'>(E)</font></div></div><div class='respDivR'><div class='vertical-center'>(I)</div></div></div>","null","$9","$32","1","9","32",""
"html-keyboard-response","46","93377","0.0-5.0-1.14","fertuck1","bdp_rd","Sun Feb 26 2023 12:55:38 GMT-0500 (Eastern Standard Time)","209890","","null","","","","FIX","","<div class='trialBorder'><div class='vertical-center'><img style='vertical-align:center; align:center' src=img/fixation3.jpg></div></div>","null","","","","","",""
"html-keyboard-response","47","95370","0.0-5.0-2.14","fertuck1","bdp_rd","Sun Feb 26 2023 12:55:38 GMT-0500 (Eastern Standard Time)","209890","","1991","","","","offer","","<div class='trialBorder'><div class='vertical-center'><img style='vertical-align:center; align:center' src=img/fixation3.jpg></div><div class='cl'><div class='vertical-center'>$15<br>for<br>sure</div></div><div class='cr'><div class='vertical-center'>$34<br>with a<br>50% chance</div></div><div class='respDivL'><div class='vertical-center'>(E)</div></div><div class='respDivR'><div class='vertical-center'>(I)</div></div></div>","E","$15","$34","0","15","34","SURE"
"html-keyboard-response","48","95623","0.0-5.0-3.14","fertuck1","bdp_rd","Sun Feb 26 2023 12:55:38 GMT-0500 (Eastern Standard Time)","209890","","null","","","","offer","","<div class='trialBorder'><div class='vertical-center'><img style='vertical-align:center; align:center' src=img/fixation3.jpg></div><div class='cl'><div class='vertical-center'><font style='color:orange'>$15<br>for<br>sure</font></div></div><div class='cr'><div class='vertical-center'>$34<br>with a<br>50% chance</div></div><div class='respDivL'><div class='vertical-center'><font style='color:orange'>(E)</font></div></div><div class='respDivR'><div class='vertical-center'>(I)</div></div></div>","null","$15","$34","0","15","34",""
"html-keyboard-response","49","96129","0.0-5.0-1.15","fertuck1","bdp_rd","Sun Feb 26 2023 12:55:38 GMT-0500 (Eastern Standard Time)","209890","","null","","","","FIX","","<div class='trialBorder'><div class='vertical-center'><img style='vertical-align:center; align:center' src=img/fixation3.jpg></div></div>","null","","","","","",""
"html-keyboard-response","50","97962","0.0-5.0-2.15","fertuck1","bdp_rd","Sun Feb 26 2023 12:55:38 GMT-0500 (Eastern Standard Time)","209890","","1830","","","","offer","","<div class='trialBorder'><div class='vertical-center'><img style='vertical-align:center; align:center' src=img/fixation3.jpg></div><div class='cl'><div class='vertical-center'>$12<br>for<br>sure</div></div><div class='cr'><div class='vertical-center'>$27<br>with a<br>50% chance</div></div><div class='respDivL'><div class='vertical-center'>(E)</div></div><div class='respDivR'><div class='vertical-center'>(I)</div></div></div>","E","$12","$27","0","12","27","SURE"
"html-keyboard-response","51","98215","0.0-5.0-3.15","fertuck1","bdp_rd","Sun Feb 26 2023 12:55:38 GMT-0500 (Eastern Standard Time)","209890","","null","","","","offer","","<div class='trialBorder'><div class='vertical-center'><img style='vertical-align:center; align:center' src=img/fixation3.jpg></div><div class='cl'><div class='vertical-center'><font style='color:orange'>$12<br>for<br>sure</font></div></div><div class='cr'><div class='vertical-center'>$27<br>with a<br>50% chance</div></div><div class='respDivL'><div class='vertical-center'><font style='color:orange'>(E)</font></div></div><div class='respDivR'><div class='vertical-center'>(I)</div></div></div>","null","$12","$27","0","12","27",""
"html-keyboard-response","52","98720","0.0-5.0-1.16","fertuck1","bdp_rd","Sun Feb 26 2023 12:55:38 GMT-0500 (Eastern Standard Time)","209890","","null","","","","FIX","","<div class='trialBorder'><div class='vertical-center'><img style='vertical-align:center; align:center' src=img/fixation3.jpg></div></div>","null","","","","","",""
"html-keyboard-response","53","100689","0.0-5.0-2.16","fertuck1","bdp_rd","Sun Feb 26 2023 12:55:38 GMT-0500 (Eastern Standard Time)","209890","","1967","","","","offer","","<div class='trialBorder'><div class='vertical-center'><img style='vertical-align:center; align:center' src=img/fixation3.jpg></div><div class='cl'><div class='vertical-center'>$37<br>for<br>sure</div></div><div class='cr'><div class='vertical-center'>$44<br>with a<br>50% chance</div></div><div class='respDivL'><div class='vertical-center'>(E)</div></div><div class='respDivR'><div class='vertical-center'>(I)</div></div></div>","E","$37","$44","0","37","44","SURE"
"html-keyboard-response","54","100945","0.0-5.0-3.16","fertuck1","bdp_rd","Sun Feb 26 2023 12:55:38 GMT-0500 (Eastern Standard Time)","209890","","null","","","","offer","","<div class='trialBorder'><div class='vertical-center'><img style='vertical-align:center; align:center' src=img/fixation3.jpg></div><div class='cl'><div class='vertical-center'><font style='color:orange'>$37<br>for<br>sure</font></div></div><div class='cr'><div class='vertical-center'>$44<br>with a<br>50% chance</div></div><div class='respDivL'><div class='vertical-center'><font style='color:orange'>(E)</font></div></div><div class='respDivR'><div class='vertical-center'>(I)</div></div></div>","null","$37","$44","0","37","44",""
"html-keyboard-response","55","101452","0.0-5.0-1.17","fertuck1","bdp_rd","Sun Feb 26 2023 12:55:38 GMT-0500 (Eastern Standard Time)","209890","","null","","","","FIX","","<div class='trialBorder'><div class='vertical-center'><img style='vertical-align:center; align:center' src=img/fixation3.jpg></div></div>","null","","","","","",""
"html-keyboard-response","56","102328","0.0-5.0-2.17","fertuck1","bdp_rd","Sun Feb 26 2023 12:55:38 GMT-0500 (Eastern Standard Time)","209890","","875","","","","offer","","<div class='trialBorder'><div class='vertical-center'><img style='vertical-align:center; align:center' src=img/fixation3.jpg></div><div class='cl'><div class='vertical-center'>$22<br>for<br>sure</div></div><div class='cr'><div class='vertical-center'>$42<br>with a<br>50% chance</div></div><div class='respDivL'><div class='vertical-center'>(E)</div></div><div class='respDivR'><div class='vertical-center'>(I)</div></div></div>","E","$22","$42","0","22","42","SURE"
"html-keyboard-response","57","102584","0.0-5.0-3.17","fertuck1","bdp_rd","Sun Feb 26 2023 12:55:38 GMT-0500 (Eastern Standard Time)","209890","","null","","","","offer","","<div class='trialBorder'><div class='vertical-center'><img style='vertical-align:center; align:center' src=img/fixation3.jpg></div><div class='cl'><div class='vertical-center'><font style='color:orange'>$22<br>for<br>sure</font></div></div><div class='cr'><div class='vertical-center'>$42<br>with a<br>50% chance</div></div><div class='respDivL'><div class='vertical-center'><font style='color:orange'>(E)</font></div></div><div class='respDivR'><div class='vertical-center'>(I)</div></div></div>","null","$22","$42","0","22","42",""
"html-keyboard-response","58","103089","0.0-5.0-1.18","fertuck1","bdp_rd","Sun Feb 26 2023 12:55:38 GMT-0500 (Eastern Standard Time)","209890","","null","","","","FIX","","<div class='trialBorder'><div class='vertical-center'><img style='vertical-align:center; align:center' src=img/fixation3.jpg></div></div>","null","","","","","",""
"html-keyboard-response","59","105130","0.0-5.0-2.18","fertuck1","bdp_rd","Sun Feb 26 2023 12:55:38 GMT-0500 (Eastern Standard Time)","209890","","2038","","","","offer","","<div class='trialBorder'><div class='vertical-center'><img style='vertical-align:center; align:center' src=img/fixation3.jpg></div><div class='cl'><div class='vertical-center'>$12<br>with a<br>50% chance</div></div><div class='cr'><div class='vertical-center'>$3<br>for<br>sure</div></div><div class='respDivL'><div class='vertical-center'>(E)</div></div><div class='respDivR'><div class='vertical-center'>(I)</div></div></div>","E","$3","$12","1","3","12","RISKY"
"html-keyboard-response","60","105382","0.0-5.0-3.18","fertuck1","bdp_rd","Sun Feb 26 2023 12:55:38 GMT-0500 (Eastern Standard Time)","209890","","null","","","","offer","","<div class='trialBorder'><div class='vertical-center'><img style='vertical-align:center; align:center' src=img/fixation3.jpg></div><div class='cl'><div class='vertical-center'><font style='color:orange'>$12<br>with a<br>50% chance</font></div></div><div class='cr'><div class='vertical-center'>$3<br>for<br>sure</div></div><div class='respDivL'><div class='vertical-center'><font style='color:orange'>(E)</font></div></div><div class='respDivR'><div class='vertical-center'>(I)</div></div></div>","null","$3","$12","1","3","12",""
"html-keyboard-response","61","105889","0.0-5.0-1.19","fertuck1","bdp_rd","Sun Feb 26 2023 12:55:38 GMT-0500 (Eastern Standard Time)","209890","","null","","","","FIX","","<div class='trialBorder'><div class='vertical-center'><img style='vertical-align:center; align:center' src=img/fixation3.jpg></div></div>","null","","","","","",""
"html-keyboard-response","62","108832","0.0-5.0-2.19","fertuck1","bdp_rd","Sun Feb 26 2023 12:55:38 GMT-0500 (Eastern Standard Time)","209890","","2941","","","","offer","","<div class='trialBorder'><div class='vertical-center'><img style='vertical-align:center; align:center' src=img/fixation3.jpg></div><div class='cl'><div class='vertical-center'>$98<br>with a<br>50% chance</div></div><div class='cr'><div class='vertical-center'>$53<br>for<br>sure</div></div><div class='respDivL'><div class='vertical-center'>(E)</div></div><div class='respDivR'><div class='vertical-center'>(I)</div></div></div>","I","$53","$98","1","53","98","SURE"
"html-keyboard-response","63","109084","0.0-5.0-3.19","fertuck1","bdp_rd","Sun Feb 26 2023 12:55:38 GMT-0500 (Eastern Standard Time)","209890","","null","","","","offer","","<div class='trialBorder'><div class='vertical-center'><img style='vertical-align:center; align:center' src=img/fixation3.jpg></div><div class='cl'><div class='vertical-center'>$98<br>with a<br>50% chance</div></div><div class='cr'><div class='vertical-center'><font style='color:orange'>$53<br>for<br>sure</font></div></div><div class='respDivL'><div class='vertical-center'>(E)</div></div><div class='respDivR'><div class='vertical-center'><font style='color:orange'>(I)</font></div></div></div>","null","$53","$98","1","53","98",""
"html-keyboard-response","64","109590","0.0-5.0-1.20","fertuck1","bdp_rd","Sun Feb 26 2023 12:55:38 GMT-0500 (Eastern Standard Time)","209890","","null","","","","FIX","","<div class='trialBorder'><div class='vertical-center'><img style='vertical-align:center; align:center' src=img/fixation3.jpg></div></div>","null","","","","","",""
"html-keyboard-response","65","112801","0.0-5.0-2.20","fertuck1","bdp_rd","Sun Feb 26 2023 12:55:38 GMT-0500 (Eastern Standard Time)","209890","","3209","","","","offer","","<div class='trialBorder'><div class='vertical-center'><img style='vertical-align:center; align:center' src=img/fixation3.jpg></div><div class='cl'><div class='vertical-center'>$50<br>with a<br>50% chance</div></div><div class='cr'><div class='vertical-center'>$5<br>for<br>sure</div></div><div class='respDivL'><div class='vertical-center'>(E)</div></div><div class='respDivR'><div class='vertical-center'>(I)</div></div></div>","E","$5","$50","1","5","50","RISKY"
"html-keyboard-response","66","113057","0.0-5.0-3.20","fertuck1","bdp_rd","Sun Feb 26 2023 12:55:38 GMT-0500 (Eastern Standard Time)","209890","","null","","","","offer","","<div class='trialBorder'><div class='vertical-center'><img style='vertical-align:center; align:center' src=img/fixation3.jpg></div><div class='cl'><div class='vertical-center'><font style='color:orange'>$50<br>with a<br>50% chance</font></div></div><div class='cr'><div class='vertical-center'>$5<br>for<br>sure</div></div><div class='respDivL'><div class='vertical-center'><font style='color:orange'>(E)</font></div></div><div class='respDivR'><div class='vertical-center'>(I)</div></div></div>","null","$5","$50","1","5","50",""
"html-keyboard-response","67","113558","0.0-5.0-1.21","fertuck1","bdp_rd","Sun Feb 26 2023 12:55:38 GMT-0500 (Eastern Standard Time)","209890","","null","","","","FIX","","<div class='trialBorder'><div class='vertical-center'><img style='vertical-align:center; align:center' src=img/fixation3.jpg></div></div>","null","","","","","",""
"html-keyboard-response","68","116353","0.0-5.0-2.21","fertuck1","bdp_rd","Sun Feb 26 2023 12:55:38 GMT-0500 (Eastern Standard Time)","209890","","2793","","","","offer","","<div class='trialBorder'><div class='vertical-center'><img style='vertical-align:center; align:center' src=img/fixation3.jpg></div><div class='cl'><div class='vertical-center'>$63<br>for<br>sure</div></div><div class='cr'><div class='vertical-center'>$100<br>with a<br>50% chance</div></div><div class='respDivL'><div class='vertical-center'>(E)</div></div><div class='respDivR'><div class='vertical-center'>(I)</div></div></div>","E","$63","$100","0","63","10","SURE"
"html-keyboard-response","69","116608","0.0-5.0-3.21","fertuck1","bdp_rd","Sun Feb 26 2023 12:55:38 GMT-0500 (Eastern Standard Time)","209890","","null","","","","offer","","<div class='trialBorder'><div class='vertical-center'><img style='vertical-align:center; align:center' src=img/fixation3.jpg></div><div class='cl'><div class='vertical-center'><font style='color:orange'>$63<br>for<br>sure</font></div></div><div class='cr'><div class='vertical-center'>$100<br>with a<br>50% chance</div></div><div class='respDivL'><div class='vertical-center'><font style='color:orange'>(E)</font></div></div><div class='respDivR'><div class='vertical-center'>(I)</div></div></div>","null","$63","$100","0","63","10",""
"html-keyboard-response","70","117115","0.0-5.0-1.22","fertuck1","bdp_rd","Sun Feb 26 2023 12:55:38 GMT-0500 (Eastern Standard Time)","209890","","null","","","","FIX","","<div class='trialBorder'><div class='vertical-center'><img style='vertical-align:center; align:center' src=img/fixation3.jpg></div></div>","null","","","","","",""
"html-keyboard-response","71","118600","0.0-5.0-2.22","fertuck1","bdp_rd","Sun Feb 26 2023 12:55:38 GMT-0500 (Eastern Standard Time)","209890","","1484","","","","offer","","<div class='trialBorder'><div class='vertical-center'><img style='vertical-align:center; align:center' src=img/fixation3.jpg></div><div class='cl'><div class='vertical-center'>$15<br>for<br>sure</div></div><div class='cr'><div class='vertical-center'>$31<br>with a<br>50% chance</div></div><div class='respDivL'><div class='vertical-center'>(E)</div></div><div class='respDivR'><div class='vertical-center'>(I)</div></div></div>","E","$15","$31","0","15","31","SURE"
"html-keyboard-response","72","118854","0.0-5.0-3.22","fertuck1","bdp_rd","Sun Feb 26 2023 12:55:38 GMT-0500 (Eastern Standard Time)","209890","","null","","","","offer","","<div class='trialBorder'><div class='vertical-center'><img style='vertical-align:center; align:center' src=img/fixation3.jpg></div><div class='cl'><div class='vertical-center'><font style='color:orange'>$15<br>for<br>sure</font></div></div><div class='cr'><div class='vertical-center'>$31<br>with a<br>50% chance</div></div><div class='respDivL'><div class='vertical-center'><font style='color:orange'>(E)</font></div></div><div class='respDivR'><div class='vertical-center'>(I)</div></div></div>","null","$15","$31","0","15","31",""
"html-keyboard-response","73","119357","0.0-5.0-1.23","fertuck1","bdp_rd","Sun Feb 26 2023 12:55:38 GMT-0500 (Eastern Standard Time)","209890","","null","","","","FIX","","<div class='trialBorder'><div class='vertical-center'><img style='vertical-align:center; align:center' src=img/fixation3.jpg></div></div>","null","","","","","",""
"html-keyboard-response","74","121393","0.0-5.0-2.23","fertuck1","bdp_rd","Sun Feb 26 2023 12:55:38 GMT-0500 (Eastern Standard Time)","209890","","2034","","","","offer","","<div class='trialBorder'><div class='vertical-center'><img style='vertical-align:center; align:center' src=img/fixation3.jpg></div><div class='cl'><div class='vertical-center'>$10<br>for<br>sure</div></div><div class='cr'><div class='vertical-center'>$19<br>with a<br>50% chance</div></div><div class='respDivL'><div class='vertical-center'>(E)</div></div><div class='respDivR'><div class='vertical-center'>(I)</div></div></div>","E","$10","$19","0","10","19","SURE"
"html-keyboard-response","75","121645","0.0-5.0-3.23","fertuck1","bdp_rd","Sun Feb 26 2023 12:55:38 GMT-0500 (Eastern Standard Time)","209890","","null","","","","offer","","<div class='trialBorder'><div class='vertical-center'><img style='vertical-align:center; align:center' src=img/fixation3.jpg></div><div class='cl'><div class='vertical-center'><font style='color:orange'>$10<br>for<br>sure</font></div></div><div class='cr'><div class='vertical-center'>$19<br>with a<br>50% chance</div></div><div class='respDivL'><div class='vertical-center'><font style='color:orange'>(E)</font></div></div><div class='respDivR'><div class='vertical-center'>(I)</div></div></div>","null","$10","$19","0","10","19",""
"html-keyboard-response","76","122150","0.0-5.0-1.24","fertuck1","bdp_rd","Sun Feb 26 2023 12:55:38 GMT-0500 (Eastern Standard Time)","209890","","null","","","","FIX","","<div class='trialBorder'><div class='vertical-center'><img style='vertical-align:center; align:center' src=img/fixation3.jpg></div></div>","null","","","","","",""
"html-keyboard-response","77","123674","0.0-5.0-2.24","fertuck1","bdp_rd","Sun Feb 26 2023 12:55:38 GMT-0500 (Eastern Standard Time)","209890","","1523","","","","offer","","<div class='trialBorder'><div class='vertical-center'><img style='vertical-align:center; align:center' src=img/fixation3.jpg></div><div class='cl'><div class='vertical-center'>$24<br>for<br>sure</div></div><div class='cr'><div class='vertical-center'>$70<br>with a<br>50% chance</div></div><div class='respDivL'><div class='vertical-center'>(E)</div></div><div class='respDivR'><div class='vertical-center'>(I)</div></div></div>","E","$24","$70","0","24","70","SURE"
"html-keyboard-response","78","123931","0.0-5.0-3.24","fertuck1","bdp_rd","Sun Feb 26 2023 12:55:38 GMT-0500 (Eastern Standard Time)","209890","","null","","","","offer","","<div class='trialBorder'><div class='vertical-center'><img style='vertical-align:center; align:center' src=img/fixation3.jpg></div><div class='cl'><div class='vertical-center'><font style='color:orange'>$24<br>for<br>sure</font></div></div><div class='cr'><div class='vertical-center'>$70<br>with a<br>50% chance</div></div><div class='respDivL'><div class='vertical-center'><font style='color:orange'>(E)</font></div></div><div class='respDivR'><div class='vertical-center'>(I)</div></div></div>","null","$24","$70","0","24","70",""
"html-keyboard-response","79","124432","0.0-5.0-1.25","fertuck1","bdp_rd","Sun Feb 26 2023 12:55:38 GMT-0500 (Eastern Standard Time)","209890","","null","","","","FIX","","<div class='trialBorder'><div class='vertical-center'><img style='vertical-align:center; align:center' src=img/fixation3.jpg></div></div>","null","","","","","",""
"html-keyboard-response","80","126448","0.0-5.0-2.25","fertuck1","bdp_rd","Sun Feb 26 2023 12:55:38 GMT-0500 (Eastern Standard Time)","209890","","2014","","","","offer","","<div class='trialBorder'><div class='vertical-center'><img style='vertical-align:center; align:center' src=img/fixation3.jpg></div><div class='cl'><div class='vertical-center'>$30<br>for<br>sure</div></div><div class='cr'><div class='vertical-center'>$68<br>with a<br>50% chance</div></div><div class='respDivL'><div class='vertical-center'>(E)</div></div><div class='respDivR'><div class='vertical-center'>(I)</div></div></div>","E","$30","$68","0","30","68","SURE"
"html-keyboard-response","81","126704","0.0-5.0-3.25","fertuck1","bdp_rd","Sun Feb 26 2023 12:55:38 GMT-0500 (Eastern Standard Time)","209890","","null","","","","offer","","<div class='trialBorder'><div class='vertical-center'><img style='vertical-align:center; align:center' src=img/fixation3.jpg></div><div class='cl'><div class='vertical-center'><font style='color:orange'>$30<br>for<br>sure</font></div></div><div class='cr'><div class='vertical-center'>$68<br>with a<br>50% chance</div></div><div class='respDivL'><div class='vertical-center'><font style='color:orange'>(E)</font></div></div><div class='respDivR'><div class='vertical-center'>(I)</div></div></div>","null","$30","$68","0","30","68",""
"html-keyboard-response","82","127211","0.0-5.0-1.26","fertuck1","bdp_rd","Sun Feb 26 2023 12:55:38 GMT-0500 (Eastern Standard Time)","209890","","null","","","","FIX","","<div class='trialBorder'><div class='vertical-center'><img style='vertical-align:center; align:center' src=img/fixation3.jpg></div></div>","null","","","","","",""
"html-keyboard-response","83","128341","0.0-5.0-2.26","fertuck1","bdp_rd","Sun Feb 26 2023 12:55:38 GMT-0500 (Eastern Standard Time)","209890","","1129","","","","offer","","<div class='trialBorder'><div class='vertical-center'><img style='vertical-align:center; align:center' src=img/fixation3.jpg></div><div class='cl'><div class='vertical-center'>$81<br>with a<br>50% chance</div></div><div class='cr'><div class='vertical-center'>$39<br>for<br>sure</div></div><div class='respDivL'><div class='vertical-center'>(E)</div></div><div class='respDivR'><div class='vertical-center'>(I)</div></div></div>","I","$39","$81","1","39","81","SURE"
"html-keyboard-response","84","128598","0.0-5.0-3.26","fertuck1","bdp_rd","Sun Feb 26 2023 12:55:38 GMT-0500 (Eastern Standard Time)","209890","","null","","","","offer","","<div class='trialBorder'><div class='vertical-center'><img style='vertical-align:center; align:center' src=img/fixation3.jpg></div><div class='cl'><div class='vertical-center'>$81<br>with a<br>50% chance</div></div><div class='cr'><div class='vertical-center'><font style='color:orange'>$39<br>for<br>sure</font></div></div><div class='respDivL'><div class='vertical-center'>(E)</div></div><div class='respDivR'><div class='vertical-center'><font style='color:orange'>(I)</font></div></div></div>","null","$39","$81","1","39","81",""
"html-keyboard-response","85","129104","0.0-5.0-1.27","fertuck1","bdp_rd","Sun Feb 26 2023 12:55:38 GMT-0500 (Eastern Standard Time)","209890","","null","","","","FIX","","<div class='trialBorder'><div class='vertical-center'><img style='vertical-align:center; align:center' src=img/fixation3.jpg></div></div>","null","","","","","",""
"html-keyboard-response","86","129769","0.0-5.0-2.27","fertuck1","bdp_rd","Sun Feb 26 2023 12:55:38 GMT-0500 (Eastern Standard Time)","209890","","664","","","","offer","","<div class='trialBorder'><div class='vertical-center'><img style='vertical-align:center; align:center' src=img/fixation3.jpg></div><div class='cl'><div class='vertical-center'>$22<br>for<br>sure</div></div><div class='cr'><div class='vertical-center'>$59<br>with a<br>50% chance</div></div><div class='respDivL'><div class='vertical-center'>(E)</div></div><div class='respDivR'><div class='vertical-center'>(I)</div></div></div>","E","$22","$59","0","22","59","SURE"
"html-keyboard-response","87","130022","0.0-5.0-3.27","fertuck1","bdp_rd","Sun Feb 26 2023 12:55:38 GMT-0500 (Eastern Standard Time)","209890","","null","","","","offer","","<div class='trialBorder'><div class='vertical-center'><img style='vertical-align:center; align:center' src=img/fixation3.jpg></div><div class='cl'><div class='vertical-center'><font style='color:orange'>$22<br>for<br>sure</font></div></div><div class='cr'><div class='vertical-center'>$59<br>with a<br>50% chance</div></div><div class='respDivL'><div class='vertical-center'><font style='color:orange'>(E)</font></div></div><div class='respDivR'><div class='vertical-center'>(I)</div></div></div>","null","$22","$59","0","22","59",""
"html-keyboard-response","88","130528","0.0-5.0-1.28","fertuck1","bdp_rd","Sun Feb 26 2023 12:55:38 GMT-0500 (Eastern Standard Time)","209890","","null","","","","FIX","","<div class='trialBorder'><div class='vertical-center'><img style='vertical-align:center; align:center' src=img/fixation3.jpg></div></div>","null","","","","","",""
"html-keyboard-response","89","131304","0.0-5.0-2.28","fertuck1","bdp_rd","Sun Feb 26 2023 12:55:38 GMT-0500 (Eastern Standard Time)","209890","","774","","","","offer","","<div class='trialBorder'><div class='vertical-center'><img style='vertical-align:center; align:center' src=img/fixation3.jpg></div><div class='cl'><div class='vertical-center'>$16<br>for<br>sure</div></div><div class='cr'><div class='vertical-center'>$38<br>with a<br>50% chance</div></div><div class='respDivL'><div class='vertical-center'>(E)</div></div><div class='respDivR'><div class='vertical-center'>(I)</div></div></div>","E","$16","$38","0","16","38","SURE"
"html-keyboard-response","90","131557","0.0-5.0-3.28","fertuck1","bdp_rd","Sun Feb 26 2023 12:55:38 GMT-0500 (Eastern Standard Time)","209890","","null","","","","offer","","<div class='trialBorder'><div class='vertical-center'><img style='vertical-align:center; align:center' src=img/fixation3.jpg></div><div class='cl'><div class='vertical-center'><font style='color:orange'>$16<br>for<br>sure</font></div></div><div class='cr'><div class='vertical-center'>$38<br>with a<br>50% chance</div></div><div class='respDivL'><div class='vertical-center'><font style='color:orange'>(E)</font></div></div><div class='respDivR'><div class='vertical-center'>(I)</div></div></div>","null","$16","$38","0","16","38",""
"html-keyboard-response","91","132064","0.0-5.0-1.29","fertuck1","bdp_rd","Sun Feb 26 2023 12:55:38 GMT-0500 (Eastern Standard Time)","209890","","null","","","","FIX","","<div class='trialBorder'><div class='vertical-center'><img style='vertical-align:center; align:center' src=img/fixation3.jpg></div></div>","null","","","","","",""
"html-keyboard-response","92","134188","0.0-5.0-2.29","fertuck1","bdp_rd","Sun Feb 26 2023 12:55:38 GMT-0500 (Eastern Standard Time)","209890","","2121","","","","offer","","<div class='trialBorder'><div class='vertical-center'><img style='vertical-align:center; align:center' src=img/fixation3.jpg></div><div class='cl'><div class='vertical-center'>$71<br>with a<br>50% chance</div></div><div class='cr'><div class='vertical-center'>$7<br>for<br>sure</div></div><div class='respDivL'><div class='vertical-center'>(E)</div></div><div class='respDivR'><div class='vertical-center'>(I)</div></div></div>","E","$7","$71","1","7","71","RISKY"
"html-keyboard-response","93","134442","0.0-5.0-3.29","fertuck1","bdp_rd","Sun Feb 26 2023 12:55:38 GMT-0500 (Eastern Standard Time)","209890","","null","","","","offer","","<div class='trialBorder'><div class='vertical-center'><img style='vertical-align:center; align:center' src=img/fixation3.jpg></div><div class='cl'><div class='vertical-center'><font style='color:orange'>$71<br>with a<br>50% chance</font></div></div><div class='cr'><div class='vertical-center'>$7<br>for<br>sure</div></div><div class='respDivL'><div class='vertical-center'><font style='color:orange'>(E)</font></div></div><div class='respDivR'><div class='vertical-center'>(I)</div></div></div>","null","$7","$71","1","7","71",""
"html-keyboard-response","94","134944","0.0-5.0-1.30","fertuck1","bdp_rd","Sun Feb 26 2023 12:55:38 GMT-0500 (Eastern Standard Time)","209890","","null","","","","FIX","","<div class='trialBorder'><div class='vertical-center'><img style='vertical-align:center; align:center' src=img/fixation3.jpg></div></div>","null","","","","","",""
"html-keyboard-response","95","137958","0.0-5.0-2.30","fertuck1","bdp_rd","Sun Feb 26 2023 12:55:38 GMT-0500 (Eastern Standard Time)","209890","","3013","","","","offer","","<div class='trialBorder'><div class='vertical-center'><img style='vertical-align:center; align:center' src=img/fixation3.jpg></div><div class='cl'><div class='vertical-center'>$9<br>for<br>sure</div></div><div class='cr'><div class='vertical-center'>$18<br>with a<br>50% chance</div></div><div class='respDivL'><div class='vertical-center'>(E)</div></div><div class='respDivR'><div class='vertical-center'>(I)</div></div></div>","E","$9","$18","0","9","18","SURE"
"html-keyboard-response","96","138213","0.0-5.0-3.30","fertuck1","bdp_rd","Sun Feb 26 2023 12:55:38 GMT-0500 (Eastern Standard Time)","209890","","null","","","","offer","","<div class='trialBorder'><div class='vertical-center'><img style='vertical-align:center; align:center' src=img/fixation3.jpg></div><div class='cl'><div class='vertical-center'><font style='color:orange'>$9<br>for<br>sure</font></div></div><div class='cr'><div class='vertical-center'>$18<br>with a<br>50% chance</div></div><div class='respDivL'><div class='vertical-center'><font style='color:orange'>(E)</font></div></div><div class='respDivR'><div class='vertical-center'>(I)</div></div></div>","null","$9","$18","0","9","18",""
"html-keyboard-response","97","138720","0.0-5.0-1.31","fertuck1","bdp_rd","Sun Feb 26 2023 12:55:38 GMT-0500 (Eastern Standard Time)","209890","","null","","","","FIX","","<div class='trialBorder'><div class='vertical-center'><img style='vertical-align:center; align:center' src=img/fixation3.jpg></div></div>","null","","","","","",""
"html-keyboard-response","98","140432","0.0-5.0-2.31","fertuck1","bdp_rd","Sun Feb 26 2023 12:55:38 GMT-0500 (Eastern Standard Time)","209890","","1711","","","","offer","","<div class='trialBorder'><div class='vertical-center'><img style='vertical-align:center; align:center' src=img/fixation3.jpg></div><div class='cl'><div class='vertical-center'>$37<br>with a<br>50% chance</div></div><div class='cr'><div class='vertical-center'>$20<br>for<br>sure</div></div><div class='respDivL'><div class='vertical-center'>(E)</div></div><div class='respDivR'><div class='vertical-center'>(I)</div></div></div>","I","$20","$37","1","20","37","SURE"
"html-keyboard-response","99","140685","0.0-5.0-3.31","fertuck1","bdp_rd","Sun Feb 26 2023 12:55:38 GMT-0500 (Eastern Standard Time)","209890","","null","","","","offer","","<div class='trialBorder'><div class='vertical-center'><img style='vertical-align:center; align:center' src=img/fixation3.jpg></div><div class='cl'><div class='vertical-center'>$37<br>with a<br>50% chance</div></div><div class='cr'><div class='vertical-center'><font style='color:orange'>$20<br>for<br>sure</font></div></div><div class='respDivL'><div class='vertical-center'>(E)</div></div><div class='respDivR'><div class='vertical-center'><font style='color:orange'>(I)</font></div></div></div>","null","$20","$37","1","20","37",""
"html-keyboard-response","100","141190","0.0-5.0-1.32","fertuck1","bdp_rd","Sun Feb 26 2023 12:55:38 GMT-0500 (Eastern Standard Time)","209890","","null","","","","FIX","","<div class='trialBorder'><div class='vertical-center'><img style='vertical-align:center; align:center' src=img/fixation3.jpg></div></div>","null","","","","","",""
"html-keyboard-response","101","142311","0.0-5.0-2.32","fertuck1","bdp_rd","Sun Feb 26 2023 12:55:38 GMT-0500 (Eastern Standard Time)","209890","","1120","","","","offer","","<div class='trialBorder'><div class='vertical-center'><img style='vertical-align:center; align:center' src=img/fixation3.jpg></div><div class='cl'><div class='vertical-center'>$11<br>for<br>sure</div></div><div class='cr'><div class='vertical-center'>$26<br>with a<br>50% chance</div></div><div class='respDivL'><div class='vertical-center'>(E)</div></div><div class='respDivR'><div class='vertical-center'>(I)</div></div></div>","E","$11","$26","0","11","26","SURE"
"html-keyboard-response","102","142567","0.0-5.0-3.32","fertuck1","bdp_rd","Sun Feb 26 2023 12:55:38 GMT-0500 (Eastern Standard Time)","209890","","null","","","","offer","","<div class='trialBorder'><div class='vertical-center'><img style='vertical-align:center; align:center' src=img/fixation3.jpg></div><div class='cl'><div class='vertical-center'><font style='color:orange'>$11<br>for<br>sure</font></div></div><div class='cr'><div class='vertical-center'>$26<br>with a<br>50% chance</div></div><div class='respDivL'><div class='vertical-center'><font style='color:orange'>(E)</font></div></div><div class='respDivR'><div class='vertical-center'>(I)</div></div></div>","null","$11","$26","0","11","26",""
"html-keyboard-response","103","143073","0.0-5.0-1.33","fertuck1","bdp_rd","Sun Feb 26 2023 12:55:38 GMT-0500 (Eastern Standard Time)","209890","","null","","","","FIX","","<div class='trialBorder'><div class='vertical-center'><img style='vertical-align:center; align:center' src=img/fixation3.jpg></div></div>","null","","","","","",""
"html-keyboard-response","104","145188","0.0-5.0-2.33","fertuck1","bdp_rd","Sun Feb 26 2023 12:55:38 GMT-0500 (Eastern Standard Time)","209890","","2114","","","","offer","","<div class='trialBorder'><div class='vertical-center'><img style='vertical-align:center; align:center' src=img/fixation3.jpg></div><div class='cl'><div class='vertical-center'>$17<br>with a<br>50% chance</div></div><div class='cr'><div class='vertical-center'>$3<br>for<br>sure</div></div><div class='respDivL'><div class='vertical-center'>(E)</div></div><div class='respDivR'><div class='vertical-center'>(I)</div></div></div>","E","$3","$17","1","3","17","RISKY"
"html-keyboard-response","105","145445","0.0-5.0-3.33","fertuck1","bdp_rd","Sun Feb 26 2023 12:55:38 GMT-0500 (Eastern Standard Time)","209890","","null","","","","offer","","<div class='trialBorder'><div class='vertical-center'><img style='vertical-align:center; align:center' src=img/fixation3.jpg></div><div class='cl'><div class='vertical-center'><font style='color:orange'>$17<br>with a<br>50% chance</font></div></div><div class='cr'><div class='vertical-center'>$3<br>for<br>sure</div></div><div class='respDivL'><div class='vertical-center'><font style='color:orange'>(E)</font></div></div><div class='respDivR'><div class='vertical-center'>(I)</div></div></div>","null","$3","$17","1","3","17",""
"html-keyboard-response","106","145948","0.0-5.0-1.34","fertuck1","bdp_rd","Sun Feb 26 2023 12:55:38 GMT-0500 (Eastern Standard Time)","209890","","null","","","","FIX","","<div class='trialBorder'><div class='vertical-center'><img style='vertical-align:center; align:center' src=img/fixation3.jpg></div></div>","null","","","","","",""
"html-keyboard-response","107","146931","0.0-5.0-2.34","fertuck1","bdp_rd","Sun Feb 26 2023 12:55:38 GMT-0500 (Eastern Standard Time)","209890","","981","","","","offer","","<div class='trialBorder'><div class='vertical-center'><img style='vertical-align:center; align:center' src=img/fixation3.jpg></div><div class='cl'><div class='vertical-center'>$16<br>for<br>sure</div></div><div class='cr'><div class='vertical-center'>$28<br>with a<br>50% chance</div></div><div class='respDivL'><div class='vertical-center'>(E)</div></div><div class='respDivR'><div class='vertical-center'>(I)</div></div></div>","E","$16","$28","0","16","28","SURE"
"html-keyboard-response","108","147184","0.0-5.0-3.34","fertuck1","bdp_rd","Sun Feb 26 2023 12:55:38 GMT-0500 (Eastern Standard Time)","209890","","null","","","","offer","","<div class='trialBorder'><div class='vertical-center'><img style='vertical-align:center; align:center' src=img/fixation3.jpg></div><div class='cl'><div class='vertical-center'><font style='color:orange'>$16<br>for<br>sure</font></div></div><div class='cr'><div class='vertical-center'>$28<br>with a<br>50% chance</div></div><div class='respDivL'><div class='vertical-center'><font style='color:orange'>(E)</font></div></div><div class='respDivR'><div class='vertical-center'>(I)</div></div></div>","null","$16","$28","0","16","28",""
"html-keyboard-response","109","147690","0.0-5.0-1.35","fertuck1","bdp_rd","Sun Feb 26 2023 12:55:38 GMT-0500 (Eastern Standard Time)","209890","","null","","","","FIX","","<div class='trialBorder'><div class='vertical-center'><img style='vertical-align:center; align:center' src=img/fixation3.jpg></div></div>","null","","","","","",""
"html-keyboard-response","110","148530","0.0-5.0-2.35","fertuck1","bdp_rd","Sun Feb 26 2023 12:55:38 GMT-0500 (Eastern Standard Time)","209890","","839","","","","offer","","<div class='trialBorder'><div class='vertical-center'><img style='vertical-align:center; align:center' src=img/fixation3.jpg></div><div class='cl'><div class='vertical-center'>$14<br>for<br>sure</div></div><div class='cr'><div class='vertical-center'>$22<br>with a<br>50% chance</div></div><div class='respDivL'><div class='vertical-center'>(E)</div></div><div class='respDivR'><div class='vertical-center'>(I)</div></div></div>","E","$14","$22","0","14","22","SURE"
"html-keyboard-response","111","148785","0.0-5.0-3.35","fertuck1","bdp_rd","Sun Feb 26 2023 12:55:38 GMT-0500 (Eastern Standard Time)","209890","","null","","","","offer","","<div class='trialBorder'><div class='vertical-center'><img style='vertical-align:center; align:center' src=img/fixation3.jpg></div><div class='cl'><div class='vertical-center'><font style='color:orange'>$14<br>for<br>sure</font></div></div><div class='cr'><div class='vertical-center'>$22<br>with a<br>50% chance</div></div><div class='respDivL'><div class='vertical-center'><font style='color:orange'>(E)</font></div></div><div class='respDivR'><div class='vertical-center'>(I)</div></div></div>","null","$14","$22","0","14","22",""
"html-keyboard-response","112","149290","0.0-5.0-1.36","fertuck1","bdp_rd","Sun Feb 26 2023 12:55:38 GMT-0500 (Eastern Standard Time)","209890","","null","","","","FIX","","<div class='trialBorder'><div class='vertical-center'><img style='vertical-align:center; align:center' src=img/fixation3.jpg></div></div>","null","","","","","",""
"html-keyboard-response","113","151101","0.0-5.0-2.36","fertuck1","bdp_rd","Sun Feb 26 2023 12:55:38 GMT-0500 (Eastern Standard Time)","209890","","1809","","","","offer","","<div class='trialBorder'><div class='vertical-center'><img style='vertical-align:center; align:center' src=img/fixation3.jpg></div><div class='cl'><div class='vertical-center'>$14<br>with a<br>50% chance</div></div><div class='cr'><div class='vertical-center'>$4<br>for<br>sure</div></div><div class='respDivL'><div class='vertical-center'>(E)</div></div><div class='respDivR'><div class='vertical-center'>(I)</div></div></div>","E","$4","$14","1","4","14","RISKY"
"html-keyboard-response","114","151354","0.0-5.0-3.36","fertuck1","bdp_rd","Sun Feb 26 2023 12:55:38 GMT-0500 (Eastern Standard Time)","209890","","null","","","","offer","","<div class='trialBorder'><div class='vertical-center'><img style='vertical-align:center; align:center' src=img/fixation3.jpg></div><div class='cl'><div class='vertical-center'><font style='color:orange'>$14<br>with a<br>50% chance</font></div></div><div class='cr'><div class='vertical-center'>$4<br>for<br>sure</div></div><div class='respDivL'><div class='vertical-center'><font style='color:orange'>(E)</font></div></div><div class='respDivR'><div class='vertical-center'>(I)</div></div></div>","null","$4","$14","1","4","14",""
"html-keyboard-response","115","151859","0.0-5.0-1.37","fertuck1","bdp_rd","Sun Feb 26 2023 12:55:38 GMT-0500 (Eastern Standard Time)","209890","","null","","","","FIX","","<div class='trialBorder'><div class='vertical-center'><img style='vertical-align:center; align:center' src=img/fixation3.jpg></div></div>","null","","","","","",""
"html-keyboard-response","116","155600","0.0-5.0-2.37","fertuck1","bdp_rd","Sun Feb 26 2023 12:55:38 GMT-0500 (Eastern Standard Time)","209890","","3738","","","","offer","","<div class='trialBorder'><div class='vertical-center'><img style='vertical-align:center; align:center' src=img/fixation3.jpg></div><div class='cl'><div class='vertical-center'>$65<br>with a<br>50% chance</div></div><div class='cr'><div class='vertical-center'>$46<br>for<br>sure</div></div><div class='respDivL'><div class='vertical-center'>(E)</div></div><div class='respDivR'><div class='vertical-center'>(I)</div></div></div>","I","$46","$65","1","46","65","SURE"
"html-keyboard-response","117","155855","0.0-5.0-3.37","fertuck1","bdp_rd","Sun Feb 26 2023 12:55:38 GMT-0500 (Eastern Standard Time)","209890","","null","","","","offer","","<div class='trialBorder'><div class='vertical-center'><img style='vertical-align:center; align:center' src=img/fixation3.jpg></div><div class='cl'><div class='vertical-center'>$65<br>with a<br>50% chance</div></div><div class='cr'><div class='vertical-center'><font style='color:orange'>$46<br>for<br>sure</font></div></div><div class='respDivL'><div class='vertical-center'>(E)</div></div><div class='respDivR'><div class='vertical-center'><font style='color:orange'>(I)</font></div></div></div>","null","$46","$65","1","46","65",""
"html-keyboard-response","118","156362","0.0-5.0-1.38","fertuck1","bdp_rd","Sun Feb 26 2023 12:55:38 GMT-0500 (Eastern Standard Time)","209890","","null","","","","FIX","","<div class='trialBorder'><div class='vertical-center'><img style='vertical-align:center; align:center' src=img/fixation3.jpg></div></div>","null","","","","","",""
"html-keyboard-response","119","157821","0.0-5.0-2.38","fertuck1","bdp_rd","Sun Feb 26 2023 12:55:38 GMT-0500 (Eastern Standard Time)","209890","","1458","","","","offer","","<div class='trialBorder'><div class='vertical-center'><img style='vertical-align:center; align:center' src=img/fixation3.jpg></div><div class='cl'><div class='vertical-center'>$48<br>with a<br>50% chance</div></div><div class='cr'><div class='vertical-center'>$34<br>for<br>sure</div></div><div class='respDivL'><div class='vertical-center'>(E)</div></div><div class='respDivR'><div class='vertical-center'>(I)</div></div></div>","I","$34","$48","1","34","48","SURE"
"html-keyboard-response","120","158074","0.0-5.0-3.38","fertuck1","bdp_rd","Sun Feb 26 2023 12:55:38 GMT-0500 (Eastern Standard Time)","209890","","null","","","","offer","","<div class='trialBorder'><div class='vertical-center'><img style='vertical-align:center; align:center' src=img/fixation3.jpg></div><div class='cl'><div class='vertical-center'>$48<br>with a<br>50% chance</div></div><div class='cr'><div class='vertical-center'><font style='color:orange'>$34<br>for<br>sure</font></div></div><div class='respDivL'><div class='vertical-center'>(E)</div></div><div class='respDivR'><div class='vertical-center'><font style='color:orange'>(I)</font></div></div></div>","null","$34","$48","1","34","48",""
"html-keyboard-response","121","158580","0.0-5.0-1.39","fertuck1","bdp_rd","Sun Feb 26 2023 12:55:38 GMT-0500 (Eastern Standard Time)","209890","","null","","","","FIX","","<div class='trialBorder'><div class='vertical-center'><img style='vertical-align:center; align:center' src=img/fixation3.jpg></div></div>","null","","","","","",""
"html-keyboard-response","122","159423","0.0-5.0-2.39","fertuck1","bdp_rd","Sun Feb 26 2023 12:55:38 GMT-0500 (Eastern Standard Time)","209890","","841","","","","offer","","<div class='trialBorder'><div class='vertical-center'><img style='vertical-align:center; align:center' src=img/fixation3.jpg></div><div class='cl'><div class='vertical-center'>$28<br>for<br>sure</div></div><div class='cr'><div class='vertical-center'>$89<br>with a<br>50% chance</div></div><div class='respDivL'><div class='vertical-center'>(E)</div></div><div class='respDivR'><div class='vertical-center'>(I)</div></div></div>","E","$28","$89","0","28","89","SURE"
"html-keyboard-response","123","159679","0.0-5.0-3.39","fertuck1","bdp_rd","Sun Feb 26 2023 12:55:38 GMT-0500 (Eastern Standard Time)","209890","","null","","","","offer","","<div class='trialBorder'><div class='vertical-center'><img style='vertical-align:center; align:center' src=img/fixation3.jpg></div><div class='cl'><div class='vertical-center'><font style='color:orange'>$28<br>for<br>sure</font></div></div><div class='cr'><div class='vertical-center'>$89<br>with a<br>50% chance</div></div><div class='respDivL'><div class='vertical-center'><font style='color:orange'>(E)</font></div></div><div class='respDivR'><div class='vertical-center'>(I)</div></div></div>","null","$28","$89","0","28","89",""
"html-keyboard-response","124","160186","0.0-5.0-1.40","fertuck1","bdp_rd","Sun Feb 26 2023 12:55:38 GMT-0500 (Eastern Standard Time)","209890","","null","","","","FIX","","<div class='trialBorder'><div class='vertical-center'><img style='vertical-align:center; align:center' src=img/fixation3.jpg></div></div>","null","","","","","",""
"html-keyboard-response","125","161964","0.0-5.0-2.40","fertuck1","bdp_rd","Sun Feb 26 2023 12:55:38 GMT-0500 (Eastern Standard Time)","209890","","1776","","","","offer","","<div class='trialBorder'><div class='vertical-center'><img style='vertical-align:center; align:center' src=img/fixation3.jpg></div><div class='cl'><div class='vertical-center'>$39<br>with a<br>50% chance</div></div><div class='cr'><div class='vertical-center'>$18<br>for<br>sure</div></div><div class='respDivL'><div class='vertical-center'>(E)</div></div><div class='respDivR'><div class='vertical-center'>(I)</div></div></div>","I","$18","$39","1","18","39","SURE"
"html-keyboard-response","126","162218","0.0-5.0-3.40","fertuck1","bdp_rd","Sun Feb 26 2023 12:55:38 GMT-0500 (Eastern Standard Time)","209890","","null","","","","offer","","<div class='trialBorder'><div class='vertical-center'><img style='vertical-align:center; align:center' src=img/fixation3.jpg></div><div class='cl'><div class='vertical-center'>$39<br>with a<br>50% chance</div></div><div class='cr'><div class='vertical-center'><font style='color:orange'>$18<br>for<br>sure</font></div></div><div class='respDivL'><div class='vertical-center'>(E)</div></div><div class='respDivR'><div class='vertical-center'><font style='color:orange'>(I)</font></div></div></div>","null","$18","$39","1","18","39",""
"html-keyboard-response","127","162724","0.0-5.0-1.41","fertuck1","bdp_rd","Sun Feb 26 2023 12:55:38 GMT-0500 (Eastern Standard Time)","209890","","null","","","","FIX","","<div class='trialBorder'><div class='vertical-center'><img style='vertical-align:center; align:center' src=img/fixation3.jpg></div></div>","null","","","","","",""
"html-keyboard-response","128","164117","0.0-5.0-2.41","fertuck1","bdp_rd","Sun Feb 26 2023 12:55:38 GMT-0500 (Eastern Standard Time)","209890","","1391","","","","offer","","<div class='trialBorder'><div class='vertical-center'><img style='vertical-align:center; align:center' src=img/fixation3.jpg></div><div class='cl'><div class='vertical-center'>$80<br>with a<br>50% chance</div></div><div class='cr'><div class='vertical-center'>$20<br>for<br>sure</div></div><div class='respDivL'><div class='vertical-center'>(E)</div></div><div class='respDivR'><div class='vertical-center'>(I)</div></div></div>","I","$20","$80","1","20","80","SURE"
"html-keyboard-response","129","164372","0.0-5.0-3.41","fertuck1","bdp_rd","Sun Feb 26 2023 12:55:38 GMT-0500 (Eastern Standard Time)","209890","","null","","","","offer","","<div class='trialBorder'><div class='vertical-center'><img style='vertical-align:center; align:center' src=img/fixation3.jpg></div><div class='cl'><div class='vertical-center'>$80<br>with a<br>50% chance</div></div><div class='cr'><div class='vertical-center'><font style='color:orange'>$20<br>for<br>sure</font></div></div><div class='respDivL'><div class='vertical-center'>(E)</div></div><div class='respDivR'><div class='vertical-center'><font style='color:orange'>(I)</font></div></div></div>","null","$20","$80","1","20","80",""
"html-keyboard-response","130","164879","0.0-5.0-1.42","fertuck1","bdp_rd","Sun Feb 26 2023 12:55:38 GMT-0500 (Eastern Standard Time)","209890","","null","","","","FIX","","<div class='trialBorder'><div class='vertical-center'><img style='vertical-align:center; align:center' src=img/fixation3.jpg></div></div>","null","","","","","",""
"html-keyboard-response","131","168032","0.0-5.0-2.42","fertuck1","bdp_rd","Sun Feb 26 2023 12:55:38 GMT-0500 (Eastern Standard Time)","209890","","3151","","","","offer","","<div class='trialBorder'><div class='vertical-center'><img style='vertical-align:center; align:center' src=img/fixation3.jpg></div><div class='cl'><div class='vertical-center'>$23<br>with a<br>50% chance</div></div><div class='cr'><div class='vertical-center'>$8<br>for<br>sure</div></div><div class='respDivL'><div class='vertical-center'>(E)</div></div><div class='respDivR'><div class='vertical-center'>(I)</div></div></div>","E","$8","$23","1","8","23","RISKY"
"html-keyboard-response","132","168287","0.0-5.0-3.42","fertuck1","bdp_rd","Sun Feb 26 2023 12:55:38 GMT-0500 (Eastern Standard Time)","209890","","null","","","","offer","","<div class='trialBorder'><div class='vertical-center'><img style='vertical-align:center; align:center' src=img/fixation3.jpg></div><div class='cl'><div class='vertical-center'><font style='color:orange'>$23<br>with a<br>50% chance</font></div></div><div class='cr'><div class='vertical-center'>$8<br>for<br>sure</div></div><div class='respDivL'><div class='vertical-center'><font style='color:orange'>(E)</font></div></div><div class='respDivR'><div class='vertical-center'>(I)</div></div></div>","null","$8","$23","1","8","23",""
"html-keyboard-response","133","168789","0.0-5.0-1.43","fertuck1","bdp_rd","Sun Feb 26 2023 12:55:38 GMT-0500 (Eastern Standard Time)","209890","","null","","","","FIX","","<div class='trialBorder'><div class='vertical-center'><img style='vertical-align:center; align:center' src=img/fixation3.jpg></div></div>","null","","","","","",""
"html-keyboard-response","134","169866","0.0-5.0-2.43","fertuck1","bdp_rd","Sun Feb 26 2023 12:55:38 GMT-0500 (Eastern Standard Time)","209890","","1074","","","","offer","","<div class='trialBorder'><div class='vertical-center'><img style='vertical-align:center; align:center' src=img/fixation3.jpg></div><div class='cl'><div class='vertical-center'>$58<br>for<br>sure</div></div><div class='cr'><div class='vertical-center'>$69<br>with a<br>50% chance</div></div><div class='respDivL'><div class='vertical-center'>(E)</div></div><div class='respDivR'><div class='vertical-center'>(I)</div></div></div>","E","$58","$69","0","58","69","SURE"
"html-keyboard-response","135","170121","0.0-5.0-3.43","fertuck1","bdp_rd","Sun Feb 26 2023 12:55:38 GMT-0500 (Eastern Standard Time)","209890","","null","","","","offer","","<div class='trialBorder'><div class='vertical-center'><img style='vertical-align:center; align:center' src=img/fixation3.jpg></div><div class='cl'><div class='vertical-center'><font style='color:orange'>$58<br>for<br>sure</font></div></div><div class='cr'><div class='vertical-center'>$69<br>with a<br>50% chance</div></div><div class='respDivL'><div class='vertical-center'><font style='color:orange'>(E)</font></div></div><div class='respDivR'><div class='vertical-center'>(I)</div></div></div>","null","$58","$69","0","58","69",""
"html-keyboard-response","136","170628","0.0-5.0-1.44","fertuck1","bdp_rd","Sun Feb 26 2023 12:55:38 GMT-0500 (Eastern Standard Time)","209890","","null","","","","FIX","","<div class='trialBorder'><div class='vertical-center'><img style='vertical-align:center; align:center' src=img/fixation3.jpg></div></div>","null","","","","","",""
"html-keyboard-response","137","171890","0.0-5.0-2.44","fertuck1","bdp_rd","Sun Feb 26 2023 12:55:38 GMT-0500 (Eastern Standard Time)","209890","","1261","","","","offer","","<div class='trialBorder'><div class='vertical-center'><img style='vertical-align:center; align:center' src=img/fixation3.jpg></div><div class='cl'><div class='vertical-center'>$45<br>for<br>sure</div></div><div class='cr'><div class='vertical-center'>$86<br>with a<br>50% chance</div></div><div class='respDivL'><div class='vertical-center'>(E)</div></div><div class='respDivR'><div class='vertical-center'>(I)</div></div></div>","E","$45","$86","0","45","86","SURE"
"html-keyboard-response","138","172143","0.0-5.0-3.44","fertuck1","bdp_rd","Sun Feb 26 2023 12:55:38 GMT-0500 (Eastern Standard Time)","209890","","null","","","","offer","","<div class='trialBorder'><div class='vertical-center'><img style='vertical-align:center; align:center' src=img/fixation3.jpg></div><div class='cl'><div class='vertical-center'><font style='color:orange'>$45<br>for<br>sure</font></div></div><div class='cr'><div class='vertical-center'>$86<br>with a<br>50% chance</div></div><div class='respDivL'><div class='vertical-center'><font style='color:orange'>(E)</font></div></div><div class='respDivR'><div class='vertical-center'>(I)</div></div></div>","null","$45","$86","0","45","86",""
"html-keyboard-response","139","172649","0.0-5.0-1.45","fertuck1","bdp_rd","Sun Feb 26 2023 12:55:38 GMT-0500 (Eastern Standard Time)","209890","","null","","","","FIX","","<div class='trialBorder'><div class='vertical-center'><img style='vertical-align:center; align:center' src=img/fixation3.jpg></div></div>","null","","","","","",""
"html-keyboard-response","140","175453","0.0-5.0-2.45","fertuck1","bdp_rd","Sun Feb 26 2023 12:55:38 GMT-0500 (Eastern Standard Time)","209890","","2801","","","","offer","","<div class='trialBorder'><div class='vertical-center'><img style='vertical-align:center; align:center' src=img/fixation3.jpg></div><div class='cl'><div class='vertical-center'>$33<br>with a<br>50% chance</div></div><div class='cr'><div class='vertical-center'>$1<br>for<br>sure</div></div><div class='respDivL'><div class='vertical-center'>(E)</div></div><div class='respDivR'><div class='vertical-center'>(I)</div></div></div>","E","$1","$33","1","1","33","RISKY"
"html-keyboard-response","141","175705","0.0-5.0-3.45","fertuck1","bdp_rd","Sun Feb 26 2023 12:55:38 GMT-0500 (Eastern Standard Time)","209890","","null","","","","offer","","<div class='trialBorder'><div class='vertical-center'><img style='vertical-align:center; align:center' src=img/fixation3.jpg></div><div class='cl'><div class='vertical-center'><font style='color:orange'>$33<br>with a<br>50% chance</font></div></div><div class='cr'><div class='vertical-center'>$1<br>for<br>sure</div></div><div class='respDivL'><div class='vertical-center'><font style='color:orange'>(E)</font></div></div><div class='respDivR'><div class='vertical-center'>(I)</div></div></div>","null","$1","$33","1","1","33",""
"html-keyboard-response","142","176212","0.0-5.0-1.46","fertuck1","bdp_rd","Sun Feb 26 2023 12:55:38 GMT-0500 (Eastern Standard Time)","209890","","null","","","","FIX","","<div class='trialBorder'><div class='vertical-center'><img style='vertical-align:center; align:center' src=img/fixation3.jpg></div></div>","null","","","","","",""
"html-keyboard-response","143","177447","0.0-5.0-2.46","fertuck1","bdp_rd","Sun Feb 26 2023 12:55:38 GMT-0500 (Eastern Standard Time)","209890","","1234","","","","offer","","<div class='trialBorder'><div class='vertical-center'><img style='vertical-align:center; align:center' src=img/fixation3.jpg></div><div class='cl'><div class='vertical-center'>$29<br>with a<br>50% chance</div></div><div class='cr'><div class='vertical-center'>$14<br>for<br>sure</div></div><div class='respDivL'><div class='vertical-center'>(E)</div></div><div class='respDivR'><div class='vertical-center'>(I)</div></div></div>","I","$14","$29","1","14","29","SURE"
"html-keyboard-response","144","177700","0.0-5.0-3.46","fertuck1","bdp_rd","Sun Feb 26 2023 12:55:38 GMT-0500 (Eastern Standard Time)","209890","","null","","","","offer","","<div class='trialBorder'><div class='vertical-center'><img style='vertical-align:center; align:center' src=img/fixation3.jpg></div><div class='cl'><div class='vertical-center'>$29<br>with a<br>50% chance</div></div><div class='cr'><div class='vertical-center'><font style='color:orange'>$14<br>for<br>sure</font></div></div><div class='respDivL'><div class='vertical-center'>(E)</div></div><div class='respDivR'><div class='vertical-center'><font style='color:orange'>(I)</font></div></div></div>","null","$14","$29","1","14","29",""
"html-keyboard-response","145","178206","0.0-5.0-1.47","fertuck1","bdp_rd","Sun Feb 26 2023 12:55:38 GMT-0500 (Eastern Standard Time)","209890","","null","","","","FIX","","<div class='trialBorder'><div class='vertical-center'><img style='vertical-align:center; align:center' src=img/fixation3.jpg></div></div>","null","","","","","",""
"html-keyboard-response","146","179434","0.0-5.0-2.47","fertuck1","bdp_rd","Sun Feb 26 2023 12:55:38 GMT-0500 (Eastern Standard Time)","209890","","1225","","","","offer","","<div class='trialBorder'><div class='vertical-center'><img style='vertical-align:center; align:center' src=img/fixation3.jpg></div><div class='cl'><div class='vertical-center'>$43<br>with a<br>50% chance</div></div><div class='cr'><div class='vertical-center'>$17<br>for<br>sure</div></div><div class='respDivL'><div class='vertical-center'>(E)</div></div><div class='respDivR'><div class='vertical-center'>(I)</div></div></div>","I","$17","$43","1","17","43","SURE"
"html-keyboard-response","147","179689","0.0-5.0-3.47","fertuck1","bdp_rd","Sun Feb 26 2023 12:55:38 GMT-0500 (Eastern Standard Time)","209890","","null","","","","offer","","<div class='trialBorder'><div class='vertical-center'><img style='vertical-align:center; align:center' src=img/fixation3.jpg></div><div class='cl'><div class='vertical-center'>$43<br>with a<br>50% chance</div></div><div class='cr'><div class='vertical-center'><font style='color:orange'>$17<br>for<br>sure</font></div></div><div class='respDivL'><div class='vertical-center'>(E)</div></div><div class='respDivR'><div class='vertical-center'><font style='color:orange'>(I)</font></div></div></div>","null","$17","$43","1","17","43",""
"html-keyboard-response","148","180196","0.0-5.0-1.48","fertuck1","bdp_rd","Sun Feb 26 2023 12:55:38 GMT-0500 (Eastern Standard Time)","209890","","null","","","","FIX","","<div class='trialBorder'><div class='vertical-center'><img style='vertical-align:center; align:center' src=img/fixation3.jpg></div></div>","null","","","","","",""
"html-keyboard-response","149","181219","0.0-5.0-2.48","fertuck1","bdp_rd","Sun Feb 26 2023 12:55:38 GMT-0500 (Eastern Standard Time)","209890","","1021","","","","offer","","<div class='trialBorder'><div class='vertical-center'><img style='vertical-align:center; align:center' src=img/fixation3.jpg></div><div class='cl'><div class='vertical-center'>$33<br>for<br>sure</div></div><div class='cr'><div class='vertical-center'>$66<br>with a<br>50% chance</div></div><div class='respDivL'><div class='vertical-center'>(E)</div></div><div class='respDivR'><div class='vertical-center'>(I)</div></div></div>","E","$33","$66","0","33","66","SURE"
"html-keyboard-response","150","181476","0.0-5.0-3.48","fertuck1","bdp_rd","Sun Feb 26 2023 12:55:38 GMT-0500 (Eastern Standard Time)","209890","","null","","","","offer","","<div class='trialBorder'><div class='vertical-center'><img style='vertical-align:center; align:center' src=img/fixation3.jpg></div><div class='cl'><div class='vertical-center'><font style='color:orange'>$33<br>for<br>sure</font></div></div><div class='cr'><div class='vertical-center'>$66<br>with a<br>50% chance</div></div><div class='respDivL'><div class='vertical-center'><font style='color:orange'>(E)</font></div></div><div class='respDivR'><div class='vertical-center'>(I)</div></div></div>","null","$33","$66","0","33","66",""
"html-keyboard-response","151","181982","0.0-5.0-1.49","fertuck1","bdp_rd","Sun Feb 26 2023 12:55:38 GMT-0500 (Eastern Standard Time)","209890","","null","","","","FIX","","<div class='trialBorder'><div class='vertical-center'><img style='vertical-align:center; align:center' src=img/fixation3.jpg></div></div>","null","","","","","",""
"html-keyboard-response","152","185772","0.0-5.0-2.49","fertuck1","bdp_rd","Sun Feb 26 2023 12:55:38 GMT-0500 (Eastern Standard Time)","209890","","3788","","","","offer","","<div class='trialBorder'><div class='vertical-center'><img style='vertical-align:center; align:center' src=img/fixation3.jpg></div><div class='cl'><div class='vertical-center'>$2<br>for<br>sure</div></div><div class='cr'><div class='vertical-center'>$21<br>with a<br>50% chance</div></div><div class='respDivL'><div class='vertical-center'>(E)</div></div><div class='respDivR'><div class='vertical-center'>(I)</div></div></div>","I","$2","$21","0","2","21","RISKY"
"html-keyboard-response","153","186025","0.0-5.0-3.49","fertuck1","bdp_rd","Sun Feb 26 2023 12:55:38 GMT-0500 (Eastern Standard Time)","209890","","null","","","","offer","","<div class='trialBorder'><div class='vertical-center'><img style='vertical-align:center; align:center' src=img/fixation3.jpg></div><div class='cl'><div class='vertical-center'>$2<br>for<br>sure</div></div><div class='cr'><div class='vertical-center'><font style='color:orange'>$21<br>with a<br>50% chance</font></div></div><div class='respDivL'><div class='vertical-center'>(E)</div></div><div class='respDivR'><div class='vertical-center'><font style='color:orange'>(I)</font></div></div></div>","null","$2","$21","0","2","21",""
"html-keyboard-response","154","186531","0.0-5.0-1.50","fertuck1","bdp_rd","Sun Feb 26 2023 12:55:38 GMT-0500 (Eastern Standard Time)","209890","","null","","","","FIX","","<div class='trialBorder'><div class='vertical-center'><img style='vertical-align:center; align:center' src=img/fixation3.jpg></div></div>","null","","","","","",""
"html-keyboard-response","155","187331","0.0-5.0-2.50","fertuck1","bdp_rd","Sun Feb 26 2023 12:55:38 GMT-0500 (Eastern Standard Time)","209890","","798","","","","offer","","<div class='trialBorder'><div class='vertical-center'><img style='vertical-align:center; align:center' src=img/fixation3.jpg></div><div class='cl'><div class='vertical-center'>$29<br>for<br>sure</div></div><div class='cr'><div class='vertical-center'>$46<br>with a<br>50% chance</div></div><div class='respDivL'><div class='vertical-center'>(E)</div></div><div class='respDivR'><div class='vertical-center'>(I)</div></div></div>","E","$29","$46","0","29","46","SURE"
"html-keyboard-response","156","187587","0.0-5.0-3.50","fertuck1","bdp_rd","Sun Feb 26 2023 12:55:38 GMT-0500 (Eastern Standard Time)","209890","","null","","","","offer","","<div class='trialBorder'><div class='vertical-center'><img style='vertical-align:center; align:center' src=img/fixation3.jpg></div><div class='cl'><div class='vertical-center'><font style='color:orange'>$29<br>for<br>sure</font></div></div><div class='cr'><div class='vertical-center'>$46<br>with a<br>50% chance</div></div><div class='respDivL'><div class='vertical-center'><font style='color:orange'>(E)</font></div></div><div class='respDivR'><div class='vertical-center'>(I)</div></div></div>","null","$29","$46","0","29","46",""
"html-keyboard-response","157","188094","0.0-5.0-1.51","fertuck1","bdp_rd","Sun Feb 26 2023 12:55:38 GMT-0500 (Eastern Standard Time)","209890","","null","","","","FIX","","<div class='trialBorder'><div class='vertical-center'><img style='vertical-align:center; align:center' src=img/fixation3.jpg></div></div>","null","","","","","",""
"html-keyboard-response","158","189015","0.0-5.0-2.51","fertuck1","bdp_rd","Sun Feb 26 2023 12:55:38 GMT-0500 (Eastern Standard Time)","209890","","919","","","","offer","","<div class='trialBorder'><div class='vertical-center'><img style='vertical-align:center; align:center' src=img/fixation3.jpg></div><div class='cl'><div class='vertical-center'>$42<br>for<br>sure</div></div><div class='cr'><div class='vertical-center'>$73<br>with a<br>50% chance</div></div><div class='respDivL'><div class='vertical-center'>(E)</div></div><div class='respDivR'><div class='vertical-center'>(I)</div></div></div>","E","$42","$73","0","42","73","SURE"
"html-keyboard-response","159","189267","0.0-5.0-3.51","fertuck1","bdp_rd","Sun Feb 26 2023 12:55:38 GMT-0500 (Eastern Standard Time)","209890","","null","","","","offer","","<div class='trialBorder'><div class='vertical-center'><img style='vertical-align:center; align:center' src=img/fixation3.jpg></div><div class='cl'><div class='vertical-center'><font style='color:orange'>$42<br>for<br>sure</font></div></div><div class='cr'><div class='vertical-center'>$73<br>with a<br>50% chance</div></div><div class='respDivL'><div class='vertical-center'><font style='color:orange'>(E)</font></div></div><div class='respDivR'><div class='vertical-center'>(I)</div></div></div>","null","$42","$73","0","42","73",""
"html-keyboard-response","160","189774","0.0-5.0-1.52","fertuck1","bdp_rd","Sun Feb 26 2023 12:55:38 GMT-0500 (Eastern Standard Time)","209890","","null","","","","FIX","","<div class='trialBorder'><div class='vertical-center'><img style='vertical-align:center; align:center' src=img/fixation3.jpg></div></div>","null","","","","","",""
"html-keyboard-response","161","191017","0.0-5.0-2.52","fertuck1","bdp_rd","Sun Feb 26 2023 12:55:38 GMT-0500 (Eastern Standard Time)","209890","","1242","","","","offer","","<div class='trialBorder'><div class='vertical-center'><img style='vertical-align:center; align:center' src=img/fixation3.jpg></div><div class='cl'><div class='vertical-center'>$92<br>with a<br>50% chance</div></div><div class='cr'><div class='vertical-center'>$26<br>for<br>sure</div></div><div class='respDivL'><div class='vertical-center'>(E)</div></div><div class='respDivR'><div class='vertical-center'>(I)</div></div></div>","I","$26","$92","1","26","92","SURE"
"html-keyboard-response","162","191270","0.0-5.0-3.52","fertuck1","bdp_rd","Sun Feb 26 2023 12:55:38 GMT-0500 (Eastern Standard Time)","209890","","null","","","","offer","","<div class='trialBorder'><div class='vertical-center'><img style='vertical-align:center; align:center' src=img/fixation3.jpg></div><div class='cl'><div class='vertical-center'>$92<br>with a<br>50% chance</div></div><div class='cr'><div class='vertical-center'><font style='color:orange'>$26<br>for<br>sure</font></div></div><div class='respDivL'><div class='vertical-center'>(E)</div></div><div class='respDivR'><div class='vertical-center'><font style='color:orange'>(I)</font></div></div></div>","null","$26","$92","1","26","92",""
"html-keyboard-response","163","191773","0.0-5.0-1.53","fertuck1","bdp_rd","Sun Feb 26 2023 12:55:38 GMT-0500 (Eastern Standard Time)","209890","","null","","","","FIX","","<div class='trialBorder'><div class='vertical-center'><img style='vertical-align:center; align:center' src=img/fixation3.jpg></div></div>","null","","","","","",""
"html-keyboard-response","164","192804","0.0-5.0-2.53","fertuck1","bdp_rd","Sun Feb 26 2023 12:55:38 GMT-0500 (Eastern Standard Time)","209890","","1028","","","","offer","","<div class='trialBorder'><div class='vertical-center'><img style='vertical-align:center; align:center' src=img/fixation3.jpg></div><div class='cl'><div class='vertical-center'>$78<br>with a<br>50% chance</div></div><div class='cr'><div class='vertical-center'>$31<br>for<br>sure</div></div><div class='respDivL'><div class='vertical-center'>(E)</div></div><div class='respDivR'><div class='vertical-center'>(I)</div></div></div>","I","$31","$78","1","31","78","SURE"
"html-keyboard-response","165","193058","0.0-5.0-3.53","fertuck1","bdp_rd","Sun Feb 26 2023 12:55:38 GMT-0500 (Eastern Standard Time)","209890","","null","","","","offer","","<div class='trialBorder'><div class='vertical-center'><img style='vertical-align:center; align:center' src=img/fixation3.jpg></div><div class='cl'><div class='vertical-center'>$78<br>with a<br>50% chance</div></div><div class='cr'><div class='vertical-center'><font style='color:orange'>$31<br>for<br>sure</font></div></div><div class='respDivL'><div class='vertical-center'>(E)</div></div><div class='respDivR'><div class='vertical-center'><font style='color:orange'>(I)</font></div></div></div>","null","$31","$78","1","31","78",""
"html-keyboard-response","166","193560","0.0-5.0-1.54","fertuck1","bdp_rd","Sun Feb 26 2023 12:55:38 GMT-0500 (Eastern Standard Time)","209890","","null","","","","FIX","","<div class='trialBorder'><div class='vertical-center'><img style='vertical-align:center; align:center' src=img/fixation3.jpg></div></div>","null","","","","","",""
"html-keyboard-response","167","196404","0.0-5.0-2.54","fertuck1","bdp_rd","Sun Feb 26 2023 12:55:38 GMT-0500 (Eastern Standard Time)","209890","","2842","","","","offer","","<div class='trialBorder'><div class='vertical-center'><img style='vertical-align:center; align:center' src=img/fixation3.jpg></div><div class='cl'><div class='vertical-center'>$40<br>with a<br>50% chance</div></div><div class='cr'><div class='vertical-center'>$10<br>for<br>sure</div></div><div class='respDivL'><div class='vertical-center'>(E)</div></div><div class='respDivR'><div class='vertical-center'>(I)</div></div></div>","I","$10","$40","1","10","40","SURE"
"html-keyboard-response","168","196659","0.0-5.0-3.54","fertuck1","bdp_rd","Sun Feb 26 2023 12:55:38 GMT-0500 (Eastern Standard Time)","209890","","null","","","","offer","","<div class='trialBorder'><div class='vertical-center'><img style='vertical-align:center; align:center' src=img/fixation3.jpg></div><div class='cl'><div class='vertical-center'>$40<br>with a<br>50% chance</div></div><div class='cr'><div class='vertical-center'><font style='color:orange'>$10<br>for<br>sure</font></div></div><div class='respDivL'><div class='vertical-center'>(E)</div></div><div class='respDivR'><div class='vertical-center'><font style='color:orange'>(I)</font></div></div></div>","null","$10","$40","1","10","40",""
"html-keyboard-response","169","197166","0.0-5.0-1.55","fertuck1","bdp_rd","Sun Feb 26 2023 12:55:38 GMT-0500 (Eastern Standard Time)","209890","","null","","","","FIX","","<div class='trialBorder'><div class='vertical-center'><img style='vertical-align:center; align:center' src=img/fixation3.jpg></div></div>","null","","","","","",""
"html-keyboard-response","170","197836","0.0-5.0-2.55","fertuck1","bdp_rd","Sun Feb 26 2023 12:55:38 GMT-0500 (Eastern Standard Time)","209890","","668","","","","offer","","<div class='trialBorder'><div class='vertical-center'><img style='vertical-align:center; align:center' src=img/fixation3.jpg></div><div class='cl'><div class='vertical-center'>$40<br>for<br>sure</div></div><div class='cr'><div class='vertical-center'>$95<br>with a<br>50% chance</div></div><div class='respDivL'><div class='vertical-center'>(E)</div></div><div class='respDivR'><div class='vertical-center'>(I)</div></div></div>","E","$40","$95","0","40","95","SURE"
"html-keyboard-response","171","198088","0.0-5.0-3.55","fertuck1","bdp_rd","Sun Feb 26 2023 12:55:38 GMT-0500 (Eastern Standard Time)","209890","","null","","","","offer","","<div class='trialBorder'><div class='vertical-center'><img style='vertical-align:center; align:center' src=img/fixation3.jpg></div><div class='cl'><div class='vertical-center'><font style='color:orange'>$40<br>for<br>sure</font></div></div><div class='cr'><div class='vertical-center'>$95<br>with a<br>50% chance</div></div><div class='respDivL'><div class='vertical-center'><font style='color:orange'>(E)</font></div></div><div class='respDivR'><div class='vertical-center'>(I)</div></div></div>","null","$40","$95","0","40","95",""
"html-keyboard-response","172","198592","0.0-5.0-1.56","fertuck1","bdp_rd","Sun Feb 26 2023 12:55:38 GMT-0500 (Eastern Standard Time)","209890","","null","","","","FIX","","<div class='trialBorder'><div class='vertical-center'><img style='vertical-align:center; align:center' src=img/fixation3.jpg></div></div>","null","","","","","",""
"html-keyboard-response","173","199627","0.0-5.0-2.56","fertuck1","bdp_rd","Sun Feb 26 2023 12:55:38 GMT-0500 (Eastern Standard Time)","209890","","1034","","","","offer","","<div class='trialBorder'><div class='vertical-center'><img style='vertical-align:center; align:center' src=img/fixation3.jpg></div><div class='cl'><div class='vertical-center'>$13<br>for<br>sure</div></div><div class='cr'><div class='vertical-center'>$41<br>with a<br>50% chance</div></div><div class='respDivL'><div class='vertical-center'>(E)</div></div><div class='respDivR'><div class='vertical-center'>(I)</div></div></div>","E","$13","$41","0","13","41","SURE"
"html-keyboard-response","174","199880","0.0-5.0-3.56","fertuck1","bdp_rd","Sun Feb 26 2023 12:55:38 GMT-0500 (Eastern Standard Time)","209890","","null","","","","offer","","<div class='trialBorder'><div class='vertical-center'><img style='vertical-align:center; align:center' src=img/fixation3.jpg></div><div class='cl'><div class='vertical-center'><font style='color:orange'>$13<br>for<br>sure</font></div></div><div class='cr'><div class='vertical-center'>$41<br>with a<br>50% chance</div></div><div class='respDivL'><div class='vertical-center'><font style='color:orange'>(E)</font></div></div><div class='respDivR'><div class='vertical-center'>(I)</div></div></div>","null","$13","$41","0","13","41",""
"html-keyboard-response","175","200383","0.0-5.0-1.57","fertuck1","bdp_rd","Sun Feb 26 2023 12:55:38 GMT-0500 (Eastern Standard Time)","209890","","null","","","","FIX","","<div class='trialBorder'><div class='vertical-center'><img style='vertical-align:center; align:center' src=img/fixation3.jpg></div></div>","null","","","","","",""
"html-keyboard-response","176","204439","0.0-5.0-2.57","fertuck1","bdp_rd","Sun Feb 26 2023 12:55:38 GMT-0500 (Eastern Standard Time)","209890","","4054","","","","offer","","<div class='trialBorder'><div class='vertical-center'><img style='vertical-align:center; align:center' src=img/fixation3.jpg></div><div class='cl'><div class='vertical-center'>$16<br>with a<br>50% chance</div></div><div class='cr'><div class='vertical-center'>$5<br>for<br>sure</div></div><div class='respDivL'><div class='vertical-center'>(E)</div></div><div class='respDivR'><div class='vertical-center'>(I)</div></div></div>","E","$5","$16","1","5","16","RISKY"
"html-keyboard-response","177","204691","0.0-5.0-3.57","fertuck1","bdp_rd","Sun Feb 26 2023 12:55:38 GMT-0500 (Eastern Standard Time)","209890","","null","","","","offer","","<div class='trialBorder'><div class='vertical-center'><img style='vertical-align:center; align:center' src=img/fixation3.jpg></div><div class='cl'><div class='vertical-center'><font style='color:orange'>$16<br>with a<br>50% chance</font></div></div><div class='cr'><div class='vertical-center'>$5<br>for<br>sure</div></div><div class='respDivL'><div class='vertical-center'><font style='color:orange'>(E)</font></div></div><div class='respDivR'><div class='vertical-center'>(I)</div></div></div>","null","$5","$16","1","5","16",""
"html-keyboard-response","178","205195","0.0-5.0-1.58","fertuck1","bdp_rd","Sun Feb 26 2023 12:55:38 GMT-0500 (Eastern Standard Time)","209890","","null","","","","FIX","","<div class='trialBorder'><div class='vertical-center'><img style='vertical-align:center; align:center' src=img/fixation3.jpg></div></div>","null","","","","","",""
"html-keyboard-response","179","206787","0.0-5.0-2.58","fertuck1","bdp_rd","Sun Feb 26 2023 12:55:38 GMT-0500 (Eastern Standard Time)","209890","","1590","","","","offer","","<div class='trialBorder'><div class='vertical-center'><img style='vertical-align:center; align:center' src=img/fixation3.jpg></div><div class='cl'><div class='vertical-center'>$51<br>with a<br>50% chance</div></div><div class='cr'><div class='vertical-center'>$19<br>for<br>sure</div></div><div class='respDivL'><div class='vertical-center'>(E)</div></div><div class='respDivR'><div class='vertical-center'>(I)</div></div></div>","I","$19","$51","1","19","51","SURE"
