"event","trial","time","trialtype","subject_id","task","startTime","totalTime","trial_type","trial_index","time_elapsed","internal_node_id","view_history","rt","success","stimulus","key_press","sureOffer","riskyOffer","riskyLeft","sureAmt","riskyAmt","chosen"
"focus","0","0","focusevent","6092dea4efd6d61350f0fdbf","bdp_rd","Sun Mar 26 2023 09:20:02 GMT-0500 (Central Daylight Time)","330614","","","","","","","","","","","","","","",""
"","","","","6092dea4efd6d61350f0fdbf","bdp_rd","Sun Mar 26 2023 09:20:02 GMT-0500 (Central Daylight Time)","330614","pavlovia","0","8","0.0-0.0","","","","","","","","","","",""
"","","","","6092dea4efd6d61350f0fdbf","bdp_rd","Sun Mar 26 2023 09:20:02 GMT-0500 (Central Daylight Time)","330614","instructions","1","997","0.0-1.0","[{""page_index"":0,""viewing_time"":987}]","988","","","","","","","","",""
"fullscreenexit","2","133708","fullscreenexit","6092dea4efd6d61350f0fdbf","bdp_rd","Sun Mar 26 2023 09:20:02 GMT-0500 (Central Daylight Time)","330614","","","","","","","","","","","","","","",""
"","","","","6092dea4efd6d61350f0fdbf","bdp_rd","Sun Mar 26 2023 09:20:02 GMT-0500 (Central Daylight Time)","330614","fullscreen","2","134468","0.0-2.0","","","true","","","","","","","",""
"","","","fullscreenfail","6092dea4efd6d61350f0fdbf","bdp_rd","Sun Mar 26 2023 09:20:02 GMT-0500 (Central Daylight Time)","330614","image-keyboard-response","3","136485","0.0-3.0-0.0","","2012","","","32","","","","","",""
"","","","","6092dea4efd6d61350f0fdbf","bdp_rd","Sun Mar 26 2023 09:20:02 GMT-0500 (Central Daylight Time)","330614","instructions","4","153902","0.0-4.0","[{""page_index"":0,""viewing_time"":9865},{""page_index"":1,""viewing_time"":6490},{""page_index"":2,""viewing_time"":795}]","17151","","","","","","","","",""
"","","","FIX","6092dea4efd6d61350f0fdbf","bdp_rd","Sun Mar 26 2023 09:20:02 GMT-0500 (Central Daylight Time)","330614","html-keyboard-response","5","154408","0.0-5.0-1.0","","null","","<div class='trialBorder'><div class='vertical-center'><img style='vertical-align:center; align:center' src=img/fixation3.jpg></div></div>","null","","","","","",""
"","","","offer","6092dea4efd6d61350f0fdbf","bdp_rd","Sun Mar 26 2023 09:20:02 GMT-0500 (Central Daylight Time)","330614","html-keyboard-response","6","158014","0.0-5.0-2.0","","3603","","<div class='trialBorder'><div class='vertical-center'><img style='vertical-align:center; align:center' src=img/fixation3.jpg></div><div class='cl'><div class='vertical-center'>$3<br>for<br>sure</div></div><div class='cr'><div class='vertical-center'>$17<br>with a<br>50% chance</div></div><div class='respDivL'><div class='vertical-center'>(E)</div></div><div class='respDivR'><div class='vertical-center'>(I)</div></div></div>","I","$3","$17","0","3","17","RISKY"
"","","","offerFB","6092dea4efd6d61350f0fdbf","bdp_rd","Sun Mar 26 2023 09:20:02 GMT-0500 (Central Daylight Time)","330614","html-keyboard-response","7","158266","0.0-5.0-3.0","","null","","<div class='trialBorder'><div class='vertical-center'><img style='vertical-align:center; align:center' src=img/fixation3.jpg></div><div class='cl'><div class='vertical-center'>$3<br>for<br>sure</div></div><div class='cr'><div class='vertical-center'><font style='color:orange'>$17<br>with a<br>50% chance</font></div></div><div class='respDivL'><div class='vertical-center'>(E)</div></div><div class='respDivR'><div class='vertical-center'><font style='color:orange'>(I)</font></div></div></div>","null","$3","$17","0","3","17",""
"","","","FIX","6092dea4efd6d61350f0fdbf","bdp_rd","Sun Mar 26 2023 09:20:02 GMT-0500 (Central Daylight Time)","330614","html-keyboard-response","8","158771","0.0-5.0-1.1","","null","","<div class='trialBorder'><div class='vertical-center'><img style='vertical-align:center; align:center' src=img/fixation3.jpg></div></div>","null","","","","","",""
"","","","offer","6092dea4efd6d61350f0fdbf","bdp_rd","Sun Mar 26 2023 09:20:02 GMT-0500 (Central Daylight Time)","330614","html-keyboard-response","9","160254","0.0-5.0-2.1","","1482","","<div class='trialBorder'><div class='vertical-center'><img style='vertical-align:center; align:center' src=img/fixation3.jpg></div><div class='cl'><div class='vertical-center'>$70<br>with a<br>50% chance</div></div><div class='cr'><div class='vertical-center'>$24<br>for<br>sure</div></div><div class='respDivL'><div class='vertical-center'>(E)</div></div><div class='respDivR'><div class='vertical-center'>(I)</div></div></div>","E","$24","$70","1","24","70","RISKY"
"","","","offerFB","6092dea4efd6d61350f0fdbf","bdp_rd","Sun Mar 26 2023 09:20:02 GMT-0500 (Central Daylight Time)","330614","html-keyboard-response","10","160514","0.0-5.0-3.1","","null","","<div class='trialBorder'><div class='vertical-center'><img style='vertical-align:center; align:center' src=img/fixation3.jpg></div><div class='cl'><div class='vertical-center'><font style='color:orange'>$70<br>with a<br>50% chance</font></div></div><div class='cr'><div class='vertical-center'>$24<br>for<br>sure</div></div><div class='respDivL'><div class='vertical-center'><font style='color:orange'>(E)</font></div></div><div class='respDivR'><div class='vertical-center'>(I)</div></div></div>","null","$24","$70","1","24","70",""
"","","","FIX","6092dea4efd6d61350f0fdbf","bdp_rd","Sun Mar 26 2023 09:20:02 GMT-0500 (Central Daylight Time)","330614","html-keyboard-response","11","161020","0.0-5.0-1.2","","null","","<div class='trialBorder'><div class='vertical-center'><img style='vertical-align:center; align:center' src=img/fixation3.jpg></div></div>","null","","","","","",""
"","","","offer","6092dea4efd6d61350f0fdbf","bdp_rd","Sun Mar 26 2023 09:20:02 GMT-0500 (Central Daylight Time)","330614","html-keyboard-response","12","163105","0.0-5.0-2.2","","2084","","<div class='trialBorder'><div class='vertical-center'><img style='vertical-align:center; align:center' src=img/fixation3.jpg></div><div class='cl'><div class='vertical-center'>$29<br>with a<br>50% chance</div></div><div class='cr'><div class='vertical-center'>$14<br>for<br>sure</div></div><div class='respDivL'><div class='vertical-center'>(E)</div></div><div class='respDivR'><div class='vertical-center'>(I)</div></div></div>","I","$14","$29","1","14","29","SURE"
"","","","offerFB","6092dea4efd6d61350f0fdbf","bdp_rd","Sun Mar 26 2023 09:20:02 GMT-0500 (Central Daylight Time)","330614","html-keyboard-response","13","163370","0.0-5.0-3.2","","null","","<div class='trialBorder'><div class='vertical-center'><img style='vertical-align:center; align:center' src=img/fixation3.jpg></div><div class='cl'><div class='vertical-center'>$29<br>with a<br>50% chance</div></div><div class='cr'><div class='vertical-center'><font style='color:orange'>$14<br>for<br>sure</font></div></div><div class='respDivL'><div class='vertical-center'>(E)</div></div><div class='respDivR'><div class='vertical-center'><font style='color:orange'>(I)</font></div></div></div>","null","$14","$29","1","14","29",""
"","","","FIX","6092dea4efd6d61350f0fdbf","bdp_rd","Sun Mar 26 2023 09:20:02 GMT-0500 (Central Daylight Time)","330614","html-keyboard-response","14","163873","0.0-5.0-1.3","","null","","<div class='trialBorder'><div class='vertical-center'><img style='vertical-align:center; align:center' src=img/fixation3.jpg></div></div>","null","","","","","",""
"","","","offer","6092dea4efd6d61350f0fdbf","bdp_rd","Sun Mar 26 2023 09:20:02 GMT-0500 (Central Daylight Time)","330614","html-keyboard-response","15","165306","0.0-5.0-2.3","","1431","","<div class='trialBorder'><div class='vertical-center'><img style='vertical-align:center; align:center' src=img/fixation3.jpg></div><div class='cl'><div class='vertical-center'>$14<br>with a<br>50% chance</div></div><div class='cr'><div class='vertical-center'>$4<br>for<br>sure</div></div><div class='respDivL'><div class='vertical-center'>(E)</div></div><div class='respDivR'><div class='vertical-center'>(I)</div></div></div>","E","$4","$14","1","4","14","RISKY"
"","","","offerFB","6092dea4efd6d61350f0fdbf","bdp_rd","Sun Mar 26 2023 09:20:02 GMT-0500 (Central Daylight Time)","330614","html-keyboard-response","16","165574","0.0-5.0-3.3","","null","","<div class='trialBorder'><div class='vertical-center'><img style='vertical-align:center; align:center' src=img/fixation3.jpg></div><div class='cl'><div class='vertical-center'><font style='color:orange'>$14<br>with a<br>50% chance</font></div></div><div class='cr'><div class='vertical-center'>$4<br>for<br>sure</div></div><div class='respDivL'><div class='vertical-center'><font style='color:orange'>(E)</font></div></div><div class='respDivR'><div class='vertical-center'>(I)</div></div></div>","null","$4","$14","1","4","14",""
"","","","FIX","6092dea4efd6d61350f0fdbf","bdp_rd","Sun Mar 26 2023 09:20:02 GMT-0500 (Central Daylight Time)","330614","html-keyboard-response","17","166078","0.0-5.0-1.4","","null","","<div class='trialBorder'><div class='vertical-center'><img style='vertical-align:center; align:center' src=img/fixation3.jpg></div></div>","null","","","","","",""
"","","","offer","6092dea4efd6d61350f0fdbf","bdp_rd","Sun Mar 26 2023 09:20:02 GMT-0500 (Central Daylight Time)","330614","html-keyboard-response","18","169987","0.0-5.0-2.4","","3909","","<div class='trialBorder'><div class='vertical-center'><img style='vertical-align:center; align:center' src=img/fixation3.jpg></div><div class='cl'><div class='vertical-center'>$89<br>with a<br>50% chance</div></div><div class='cr'><div class='vertical-center'>$28<br>for<br>sure</div></div><div class='respDivL'><div class='vertical-center'>(E)</div></div><div class='respDivR'><div class='vertical-center'>(I)</div></div></div>","I","$28","$89","1","28","89","SURE"
"","","","offerFB","6092dea4efd6d61350f0fdbf","bdp_rd","Sun Mar 26 2023 09:20:02 GMT-0500 (Central Daylight Time)","330614","html-keyboard-response","19","170253","0.0-5.0-3.4","","null","","<div class='trialBorder'><div class='vertical-center'><img style='vertical-align:center; align:center' src=img/fixation3.jpg></div><div class='cl'><div class='vertical-center'>$89<br>with a<br>50% chance</div></div><div class='cr'><div class='vertical-center'><font style='color:orange'>$28<br>for<br>sure</font></div></div><div class='respDivL'><div class='vertical-center'>(E)</div></div><div class='respDivR'><div class='vertical-center'><font style='color:orange'>(I)</font></div></div></div>","null","$28","$89","1","28","89",""
"","","","FIX","6092dea4efd6d61350f0fdbf","bdp_rd","Sun Mar 26 2023 09:20:02 GMT-0500 (Central Daylight Time)","330614","html-keyboard-response","20","170761","0.0-5.0-1.5","","null","","<div class='trialBorder'><div class='vertical-center'><img style='vertical-align:center; align:center' src=img/fixation3.jpg></div></div>","null","","","","","",""
"","","","offer","6092dea4efd6d61350f0fdbf","bdp_rd","Sun Mar 26 2023 09:20:02 GMT-0500 (Central Daylight Time)","330614","html-keyboard-response","21","172722","0.0-5.0-2.5","","1961","","<div class='trialBorder'><div class='vertical-center'><img style='vertical-align:center; align:center' src=img/fixation3.jpg></div><div class='cl'><div class='vertical-center'>$41<br>with a<br>50% chance</div></div><div class='cr'><div class='vertical-center'>$13<br>for<br>sure</div></div><div class='respDivL'><div class='vertical-center'>(E)</div></div><div class='respDivR'><div class='vertical-center'>(I)</div></div></div>","E","$13","$41","1","13","41","RISKY"
"","","","offerFB","6092dea4efd6d61350f0fdbf","bdp_rd","Sun Mar 26 2023 09:20:02 GMT-0500 (Central Daylight Time)","330614","html-keyboard-response","22","172978","0.0-5.0-3.5","","null","","<div class='trialBorder'><div class='vertical-center'><img style='vertical-align:center; align:center' src=img/fixation3.jpg></div><div class='cl'><div class='vertical-center'><font style='color:orange'>$41<br>with a<br>50% chance</font></div></div><div class='cr'><div class='vertical-center'>$13<br>for<br>sure</div></div><div class='respDivL'><div class='vertical-center'><font style='color:orange'>(E)</font></div></div><div class='respDivR'><div class='vertical-center'>(I)</div></div></div>","null","$13","$41","1","13","41",""
"","","","FIX","6092dea4efd6d61350f0fdbf","bdp_rd","Sun Mar 26 2023 09:20:02 GMT-0500 (Central Daylight Time)","330614","html-keyboard-response","23","173482","0.0-5.0-1.6","","null","","<div class='trialBorder'><div class='vertical-center'><img style='vertical-align:center; align:center' src=img/fixation3.jpg></div></div>","null","","","","","",""
"","","","offer","6092dea4efd6d61350f0fdbf","bdp_rd","Sun Mar 26 2023 09:20:02 GMT-0500 (Central Daylight Time)","330614","html-keyboard-response","24","176997","0.0-5.0-2.6","","3512","","<div class='trialBorder'><div class='vertical-center'><img style='vertical-align:center; align:center' src=img/fixation3.jpg></div><div class='cl'><div class='vertical-center'>$5<br>for<br>sure</div></div><div class='cr'><div class='vertical-center'>$16<br>with a<br>50% chance</div></div><div class='respDivL'><div class='vertical-center'>(E)</div></div><div class='respDivR'><div class='vertical-center'>(I)</div></div></div>","I","$5","$16","0","5","16","RISKY"
"","","","offerFB","6092dea4efd6d61350f0fdbf","bdp_rd","Sun Mar 26 2023 09:20:02 GMT-0500 (Central Daylight Time)","330614","html-keyboard-response","25","177253","0.0-5.0-3.6","","null","","<div class='trialBorder'><div class='vertical-center'><img style='vertical-align:center; align:center' src=img/fixation3.jpg></div><div class='cl'><div class='vertical-center'>$5<br>for<br>sure</div></div><div class='cr'><div class='vertical-center'><font style='color:orange'>$16<br>with a<br>50% chance</font></div></div><div class='respDivL'><div class='vertical-center'>(E)</div></div><div class='respDivR'><div class='vertical-center'><font style='color:orange'>(I)</font></div></div></div>","null","$5","$16","0","5","16",""
"","","","FIX","6092dea4efd6d61350f0fdbf","bdp_rd","Sun Mar 26 2023 09:20:02 GMT-0500 (Central Daylight Time)","330614","html-keyboard-response","26","177759","0.0-5.0-1.7","","null","","<div class='trialBorder'><div class='vertical-center'><img style='vertical-align:center; align:center' src=img/fixation3.jpg></div></div>","null","","","","","",""
"","","","offer","6092dea4efd6d61350f0fdbf","bdp_rd","Sun Mar 26 2023 09:20:02 GMT-0500 (Central Daylight Time)","330614","html-keyboard-response","27","179540","0.0-5.0-2.7","","1779","","<div class='trialBorder'><div class='vertical-center'><img style='vertical-align:center; align:center' src=img/fixation3.jpg></div><div class='cl'><div class='vertical-center'>$20<br>for<br>sure</div></div><div class='cr'><div class='vertical-center'>$80<br>with a<br>50% chance</div></div><div class='respDivL'><div class='vertical-center'>(E)</div></div><div class='respDivR'><div class='vertical-center'>(I)</div></div></div>","I","$20","$80","0","20","80","RISKY"
"","","","offerFB","6092dea4efd6d61350f0fdbf","bdp_rd","Sun Mar 26 2023 09:20:02 GMT-0500 (Central Daylight Time)","330614","html-keyboard-response","28","179800","0.0-5.0-3.7","","null","","<div class='trialBorder'><div class='vertical-center'><img style='vertical-align:center; align:center' src=img/fixation3.jpg></div><div class='cl'><div class='vertical-center'>$20<br>for<br>sure</div></div><div class='cr'><div class='vertical-center'><font style='color:orange'>$80<br>with a<br>50% chance</font></div></div><div class='respDivL'><div class='vertical-center'>(E)</div></div><div class='respDivR'><div class='vertical-center'><font style='color:orange'>(I)</font></div></div></div>","null","$20","$80","0","20","80",""
"","","","FIX","6092dea4efd6d61350f0fdbf","bdp_rd","Sun Mar 26 2023 09:20:02 GMT-0500 (Central Daylight Time)","330614","html-keyboard-response","29","180306","0.0-5.0-1.8","","null","","<div class='trialBorder'><div class='vertical-center'><img style='vertical-align:center; align:center' src=img/fixation3.jpg></div></div>","null","","","","","",""
"","","","offer","6092dea4efd6d61350f0fdbf","bdp_rd","Sun Mar 26 2023 09:20:02 GMT-0500 (Central Daylight Time)","330614","html-keyboard-response","30","181811","0.0-5.0-2.8","","1502","","<div class='trialBorder'><div class='vertical-center'><img style='vertical-align:center; align:center' src=img/fixation3.jpg></div><div class='cl'><div class='vertical-center'>$58<br>for<br>sure</div></div><div class='cr'><div class='vertical-center'>$69<br>with a<br>50% chance</div></div><div class='respDivL'><div class='vertical-center'>(E)</div></div><div class='respDivR'><div class='vertical-center'>(I)</div></div></div>","I","$58","$69","0","58","69","RISKY"
"","","","offerFB","6092dea4efd6d61350f0fdbf","bdp_rd","Sun Mar 26 2023 09:20:02 GMT-0500 (Central Daylight Time)","330614","html-keyboard-response","31","182070","0.0-5.0-3.8","","null","","<div class='trialBorder'><div class='vertical-center'><img style='vertical-align:center; align:center' src=img/fixation3.jpg></div><div class='cl'><div class='vertical-center'>$58<br>for<br>sure</div></div><div class='cr'><div class='vertical-center'><font style='color:orange'>$69<br>with a<br>50% chance</font></div></div><div class='respDivL'><div class='vertical-center'>(E)</div></div><div class='respDivR'><div class='vertical-center'><font style='color:orange'>(I)</font></div></div></div>","null","$58","$69","0","58","69",""
"","","","FIX","6092dea4efd6d61350f0fdbf","bdp_rd","Sun Mar 26 2023 09:20:02 GMT-0500 (Central Daylight Time)","330614","html-keyboard-response","32","182578","0.0-5.0-1.9","","null","","<div class='trialBorder'><div class='vertical-center'><img style='vertical-align:center; align:center' src=img/fixation3.jpg></div></div>","null","","","","","",""
"","","","offer","6092dea4efd6d61350f0fdbf","bdp_rd","Sun Mar 26 2023 09:20:02 GMT-0500 (Central Daylight Time)","330614","html-keyboard-response","33","186741","0.0-5.0-2.9","","4160","","<div class='trialBorder'><div class='vertical-center'><img style='vertical-align:center; align:center' src=img/fixation3.jpg></div><div class='cl'><div class='vertical-center'>$81<br>with a<br>50% chance</div></div><div class='cr'><div class='vertical-center'>$39<br>for<br>sure</div></div><div class='respDivL'><div class='vertical-center'>(E)</div></div><div class='respDivR'><div class='vertical-center'>(I)</div></div></div>","E","$39","$81","1","39","81","RISKY"
"","","","offerFB","6092dea4efd6d61350f0fdbf","bdp_rd","Sun Mar 26 2023 09:20:02 GMT-0500 (Central Daylight Time)","330614","html-keyboard-response","34","187002","0.0-5.0-3.9","","null","","<div class='trialBorder'><div class='vertical-center'><img style='vertical-align:center; align:center' src=img/fixation3.jpg></div><div class='cl'><div class='vertical-center'><font style='color:orange'>$81<br>with a<br>50% chance</font></div></div><div class='cr'><div class='vertical-center'>$39<br>for<br>sure</div></div><div class='respDivL'><div class='vertical-center'><font style='color:orange'>(E)</font></div></div><div class='respDivR'><div class='vertical-center'>(I)</div></div></div>","null","$39","$81","1","39","81",""
"","","","FIX","6092dea4efd6d61350f0fdbf","bdp_rd","Sun Mar 26 2023 09:20:02 GMT-0500 (Central Daylight Time)","330614","html-keyboard-response","35","187509","0.0-5.0-1.10","","null","","<div class='trialBorder'><div class='vertical-center'><img style='vertical-align:center; align:center' src=img/fixation3.jpg></div></div>","null","","","","","",""
"","","","offer","6092dea4efd6d61350f0fdbf","bdp_rd","Sun Mar 26 2023 09:20:02 GMT-0500 (Central Daylight Time)","330614","html-keyboard-response","36","190237","0.0-5.0-2.10","","2726","","<div class='trialBorder'><div class='vertical-center'><img style='vertical-align:center; align:center' src=img/fixation3.jpg></div><div class='cl'><div class='vertical-center'>$16<br>for<br>sure</div></div><div class='cr'><div class='vertical-center'>$28<br>with a<br>50% chance</div></div><div class='respDivL'><div class='vertical-center'>(E)</div></div><div class='respDivR'><div class='vertical-center'>(I)</div></div></div>","E","$16","$28","0","16","28","SURE"
"","","","offerFB","6092dea4efd6d61350f0fdbf","bdp_rd","Sun Mar 26 2023 09:20:02 GMT-0500 (Central Daylight Time)","330614","html-keyboard-response","37","190498","0.0-5.0-3.10","","null","","<div class='trialBorder'><div class='vertical-center'><img style='vertical-align:center; align:center' src=img/fixation3.jpg></div><div class='cl'><div class='vertical-center'><font style='color:orange'>$16<br>for<br>sure</font></div></div><div class='cr'><div class='vertical-center'>$28<br>with a<br>50% chance</div></div><div class='respDivL'><div class='vertical-center'><font style='color:orange'>(E)</font></div></div><div class='respDivR'><div class='vertical-center'>(I)</div></div></div>","null","$16","$28","0","16","28",""
"","","","FIX","6092dea4efd6d61350f0fdbf","bdp_rd","Sun Mar 26 2023 09:20:02 GMT-0500 (Central Daylight Time)","330614","html-keyboard-response","38","191006","0.0-5.0-1.11","","null","","<div class='trialBorder'><div class='vertical-center'><img style='vertical-align:center; align:center' src=img/fixation3.jpg></div></div>","null","","","","","",""
"","","","offer","6092dea4efd6d61350f0fdbf","bdp_rd","Sun Mar 26 2023 09:20:02 GMT-0500 (Central Daylight Time)","330614","html-keyboard-response","39","195159","0.0-5.0-2.11","","4152","","<div class='trialBorder'><div class='vertical-center'><img style='vertical-align:center; align:center' src=img/fixation3.jpg></div><div class='cl'><div class='vertical-center'>$19<br>for<br>sure</div></div><div class='cr'><div class='vertical-center'>$51<br>with a<br>50% chance</div></div><div class='respDivL'><div class='vertical-center'>(E)</div></div><div class='respDivR'><div class='vertical-center'>(I)</div></div></div>","I","$19","$51","0","19","51","RISKY"
"","","","offerFB","6092dea4efd6d61350f0fdbf","bdp_rd","Sun Mar 26 2023 09:20:02 GMT-0500 (Central Daylight Time)","330614","html-keyboard-response","40","195425","0.0-5.0-3.11","","null","","<div class='trialBorder'><div class='vertical-center'><img style='vertical-align:center; align:center' src=img/fixation3.jpg></div><div class='cl'><div class='vertical-center'>$19<br>for<br>sure</div></div><div class='cr'><div class='vertical-center'><font style='color:orange'>$51<br>with a<br>50% chance</font></div></div><div class='respDivL'><div class='vertical-center'>(E)</div></div><div class='respDivR'><div class='vertical-center'><font style='color:orange'>(I)</font></div></div></div>","null","$19","$51","0","19","51",""
"","","","FIX","6092dea4efd6d61350f0fdbf","bdp_rd","Sun Mar 26 2023 09:20:02 GMT-0500 (Central Daylight Time)","330614","html-keyboard-response","41","195929","0.0-5.0-1.12","","null","","<div class='trialBorder'><div class='vertical-center'><img style='vertical-align:center; align:center' src=img/fixation3.jpg></div></div>","null","","","","","",""
"","","","offer","6092dea4efd6d61350f0fdbf","bdp_rd","Sun Mar 26 2023 09:20:02 GMT-0500 (Central Daylight Time)","330614","html-keyboard-response","42","198426","0.0-5.0-2.12","","2495","","<div class='trialBorder'><div class='vertical-center'><img style='vertical-align:center; align:center' src=img/fixation3.jpg></div><div class='cl'><div class='vertical-center'>$17<br>for<br>sure</div></div><div class='cr'><div class='vertical-center'>$43<br>with a<br>50% chance</div></div><div class='respDivL'><div class='vertical-center'>(E)</div></div><div class='respDivR'><div class='vertical-center'>(I)</div></div></div>","E","$17","$43","0","17","43","SURE"
"","","","offerFB","6092dea4efd6d61350f0fdbf","bdp_rd","Sun Mar 26 2023 09:20:02 GMT-0500 (Central Daylight Time)","330614","html-keyboard-response","43","198679","0.0-5.0-3.12","","null","","<div class='trialBorder'><div class='vertical-center'><img style='vertical-align:center; align:center' src=img/fixation3.jpg></div><div class='cl'><div class='vertical-center'><font style='color:orange'>$17<br>for<br>sure</font></div></div><div class='cr'><div class='vertical-center'>$43<br>with a<br>50% chance</div></div><div class='respDivL'><div class='vertical-center'><font style='color:orange'>(E)</font></div></div><div class='respDivR'><div class='vertical-center'>(I)</div></div></div>","null","$17","$43","0","17","43",""
"","","","FIX","6092dea4efd6d61350f0fdbf","bdp_rd","Sun Mar 26 2023 09:20:02 GMT-0500 (Central Daylight Time)","330614","html-keyboard-response","44","199186","0.0-5.0-1.13","","null","","<div class='trialBorder'><div class='vertical-center'><img style='vertical-align:center; align:center' src=img/fixation3.jpg></div></div>","null","","","","","",""
"","","","offer","6092dea4efd6d61350f0fdbf","bdp_rd","Sun Mar 26 2023 09:20:02 GMT-0500 (Central Daylight Time)","330614","html-keyboard-response","45","201106","0.0-5.0-2.13","","1916","","<div class='trialBorder'><div class='vertical-center'><img style='vertical-align:center; align:center' src=img/fixation3.jpg></div><div class='cl'><div class='vertical-center'>$53<br>for<br>sure</div></div><div class='cr'><div class='vertical-center'>$98<br>with a<br>50% chance</div></div><div class='respDivL'><div class='vertical-center'>(E)</div></div><div class='respDivR'><div class='vertical-center'>(I)</div></div></div>","I","$53","$98","0","53","98","RISKY"
"","","","offerFB","6092dea4efd6d61350f0fdbf","bdp_rd","Sun Mar 26 2023 09:20:02 GMT-0500 (Central Daylight Time)","330614","html-keyboard-response","46","201368","0.0-5.0-3.13","","null","","<div class='trialBorder'><div class='vertical-center'><img style='vertical-align:center; align:center' src=img/fixation3.jpg></div><div class='cl'><div class='vertical-center'>$53<br>for<br>sure</div></div><div class='cr'><div class='vertical-center'><font style='color:orange'>$98<br>with a<br>50% chance</font></div></div><div class='respDivL'><div class='vertical-center'>(E)</div></div><div class='respDivR'><div class='vertical-center'><font style='color:orange'>(I)</font></div></div></div>","null","$53","$98","0","53","98",""
"","","","FIX","6092dea4efd6d61350f0fdbf","bdp_rd","Sun Mar 26 2023 09:20:02 GMT-0500 (Central Daylight Time)","330614","html-keyboard-response","47","201873","0.0-5.0-1.14","","null","","<div class='trialBorder'><div class='vertical-center'><img style='vertical-align:center; align:center' src=img/fixation3.jpg></div></div>","null","","","","","",""
"","","","offer","6092dea4efd6d61350f0fdbf","bdp_rd","Sun Mar 26 2023 09:20:02 GMT-0500 (Central Daylight Time)","330614","html-keyboard-response","48","205324","0.0-5.0-2.14","","3449","","<div class='trialBorder'><div class='vertical-center'><img style='vertical-align:center; align:center' src=img/fixation3.jpg></div><div class='cl'><div class='vertical-center'>$2<br>for<br>sure</div></div><div class='cr'><div class='vertical-center'>$21<br>with a<br>50% chance</div></div><div class='respDivL'><div class='vertical-center'>(E)</div></div><div class='respDivR'><div class='vertical-center'>(I)</div></div></div>","I","$2","$21","0","2","21","RISKY"
"","","","offerFB","6092dea4efd6d61350f0fdbf","bdp_rd","Sun Mar 26 2023 09:20:02 GMT-0500 (Central Daylight Time)","330614","html-keyboard-response","49","205577","0.0-5.0-3.14","","null","","<div class='trialBorder'><div class='vertical-center'><img style='vertical-align:center; align:center' src=img/fixation3.jpg></div><div class='cl'><div class='vertical-center'>$2<br>for<br>sure</div></div><div class='cr'><div class='vertical-center'><font style='color:orange'>$21<br>with a<br>50% chance</font></div></div><div class='respDivL'><div class='vertical-center'>(E)</div></div><div class='respDivR'><div class='vertical-center'><font style='color:orange'>(I)</font></div></div></div>","null","$2","$21","0","2","21",""
"","","","FIX","6092dea4efd6d61350f0fdbf","bdp_rd","Sun Mar 26 2023 09:20:02 GMT-0500 (Central Daylight Time)","330614","html-keyboard-response","50","206079","0.0-5.0-1.15","","null","","<div class='trialBorder'><div class='vertical-center'><img style='vertical-align:center; align:center' src=img/fixation3.jpg></div></div>","null","","","","","",""
"","","","offer","6092dea4efd6d61350f0fdbf","bdp_rd","Sun Mar 26 2023 09:20:02 GMT-0500 (Central Daylight Time)","330614","html-keyboard-response","51","208718","0.0-5.0-2.15","","2636","","<div class='trialBorder'><div class='vertical-center'><img style='vertical-align:center; align:center' src=img/fixation3.jpg></div><div class='cl'><div class='vertical-center'>$78<br>with a<br>50% chance</div></div><div class='cr'><div class='vertical-center'>$31<br>for<br>sure</div></div><div class='respDivL'><div class='vertical-center'>(E)</div></div><div class='respDivR'><div class='vertical-center'>(I)</div></div></div>","E","$31","$78","1","31","78","RISKY"
"","","","offerFB","6092dea4efd6d61350f0fdbf","bdp_rd","Sun Mar 26 2023 09:20:02 GMT-0500 (Central Daylight Time)","330614","html-keyboard-response","52","208980","0.0-5.0-3.15","","null","","<div class='trialBorder'><div class='vertical-center'><img style='vertical-align:center; align:center' src=img/fixation3.jpg></div><div class='cl'><div class='vertical-center'><font style='color:orange'>$78<br>with a<br>50% chance</font></div></div><div class='cr'><div class='vertical-center'>$31<br>for<br>sure</div></div><div class='respDivL'><div class='vertical-center'><font style='color:orange'>(E)</font></div></div><div class='respDivR'><div class='vertical-center'>(I)</div></div></div>","null","$31","$78","1","31","78",""
"","","","FIX","6092dea4efd6d61350f0fdbf","bdp_rd","Sun Mar 26 2023 09:20:02 GMT-0500 (Central Daylight Time)","330614","html-keyboard-response","53","209485","0.0-5.0-1.16","","null","","<div class='trialBorder'><div class='vertical-center'><img style='vertical-align:center; align:center' src=img/fixation3.jpg></div></div>","null","","","","","",""
"","","","offer","6092dea4efd6d61350f0fdbf","bdp_rd","Sun Mar 26 2023 09:20:02 GMT-0500 (Central Daylight Time)","330614","html-keyboard-response","54","211714","0.0-5.0-2.16","","2226","","<div class='trialBorder'><div class='vertical-center'><img style='vertical-align:center; align:center' src=img/fixation3.jpg></div><div class='cl'><div class='vertical-center'>$73<br>with a<br>50% chance</div></div><div class='cr'><div class='vertical-center'>$42<br>for<br>sure</div></div><div class='respDivL'><div class='vertical-center'>(E)</div></div><div class='respDivR'><div class='vertical-center'>(I)</div></div></div>","E","$42","$73","1","42","73","RISKY"
"","","","offerFB","6092dea4efd6d61350f0fdbf","bdp_rd","Sun Mar 26 2023 09:20:02 GMT-0500 (Central Daylight Time)","330614","html-keyboard-response","55","211969","0.0-5.0-3.16","","null","","<div class='trialBorder'><div class='vertical-center'><img style='vertical-align:center; align:center' src=img/fixation3.jpg></div><div class='cl'><div class='vertical-center'><font style='color:orange'>$73<br>with a<br>50% chance</font></div></div><div class='cr'><div class='vertical-center'>$42<br>for<br>sure</div></div><div class='respDivL'><div class='vertical-center'><font style='color:orange'>(E)</font></div></div><div class='respDivR'><div class='vertical-center'>(I)</div></div></div>","null","$42","$73","1","42","73",""
"","","","FIX","6092dea4efd6d61350f0fdbf","bdp_rd","Sun Mar 26 2023 09:20:02 GMT-0500 (Central Daylight Time)","330614","html-keyboard-response","56","212476","0.0-5.0-1.17","","null","","<div class='trialBorder'><div class='vertical-center'><img style='vertical-align:center; align:center' src=img/fixation3.jpg></div></div>","null","","","","","",""
"","","","offer","6092dea4efd6d61350f0fdbf","bdp_rd","Sun Mar 26 2023 09:20:02 GMT-0500 (Central Daylight Time)","330614","html-keyboard-response","57","214240","0.0-5.0-2.17","","1763","","<div class='trialBorder'><div class='vertical-center'><img style='vertical-align:center; align:center' src=img/fixation3.jpg></div><div class='cl'><div class='vertical-center'>$54<br>with a<br>50% chance</div></div><div class='cr'><div class='vertical-center'>$25<br>for<br>sure</div></div><div class='respDivL'><div class='vertical-center'>(E)</div></div><div class='respDivR'><div class='vertical-center'>(I)</div></div></div>","E","$25","$54","1","25","54","RISKY"
"","","","offerFB","6092dea4efd6d61350f0fdbf","bdp_rd","Sun Mar 26 2023 09:20:02 GMT-0500 (Central Daylight Time)","330614","html-keyboard-response","58","214501","0.0-5.0-3.17","","null","","<div class='trialBorder'><div class='vertical-center'><img style='vertical-align:center; align:center' src=img/fixation3.jpg></div><div class='cl'><div class='vertical-center'><font style='color:orange'>$54<br>with a<br>50% chance</font></div></div><div class='cr'><div class='vertical-center'>$25<br>for<br>sure</div></div><div class='respDivL'><div class='vertical-center'><font style='color:orange'>(E)</font></div></div><div class='respDivR'><div class='vertical-center'>(I)</div></div></div>","null","$25","$54","1","25","54",""
"","","","FIX","6092dea4efd6d61350f0fdbf","bdp_rd","Sun Mar 26 2023 09:20:02 GMT-0500 (Central Daylight Time)","330614","html-keyboard-response","59","215006","0.0-5.0-1.18","","null","","<div class='trialBorder'><div class='vertical-center'><img style='vertical-align:center; align:center' src=img/fixation3.jpg></div></div>","null","","","","","",""
"","","","offer","6092dea4efd6d61350f0fdbf","bdp_rd","Sun Mar 26 2023 09:20:02 GMT-0500 (Central Daylight Time)","330614","html-keyboard-response","60","216355","0.0-5.0-2.18","","1347","","<div class='trialBorder'><div class='vertical-center'><img style='vertical-align:center; align:center' src=img/fixation3.jpg></div><div class='cl'><div class='vertical-center'>$66<br>with a<br>50% chance</div></div><div class='cr'><div class='vertical-center'>$33<br>for<br>sure</div></div><div class='respDivL'><div class='vertical-center'>(E)</div></div><div class='respDivR'><div class='vertical-center'>(I)</div></div></div>","E","$33","$66","1","33","66","RISKY"
"","","","offerFB","6092dea4efd6d61350f0fdbf","bdp_rd","Sun Mar 26 2023 09:20:02 GMT-0500 (Central Daylight Time)","330614","html-keyboard-response","61","216620","0.0-5.0-3.18","","null","","<div class='trialBorder'><div class='vertical-center'><img style='vertical-align:center; align:center' src=img/fixation3.jpg></div><div class='cl'><div class='vertical-center'><font style='color:orange'>$66<br>with a<br>50% chance</font></div></div><div class='cr'><div class='vertical-center'>$33<br>for<br>sure</div></div><div class='respDivL'><div class='vertical-center'><font style='color:orange'>(E)</font></div></div><div class='respDivR'><div class='vertical-center'>(I)</div></div></div>","null","$33","$66","1","33","66",""
"","","","FIX","6092dea4efd6d61350f0fdbf","bdp_rd","Sun Mar 26 2023 09:20:02 GMT-0500 (Central Daylight Time)","330614","html-keyboard-response","62","217129","0.0-5.0-1.19","","null","","<div class='trialBorder'><div class='vertical-center'><img style='vertical-align:center; align:center' src=img/fixation3.jpg></div></div>","null","","","","","",""
"","","","offer","6092dea4efd6d61350f0fdbf","bdp_rd","Sun Mar 26 2023 09:20:02 GMT-0500 (Central Daylight Time)","330614","html-keyboard-response","63","218652","0.0-5.0-2.19","","1521","","<div class='trialBorder'><div class='vertical-center'><img style='vertical-align:center; align:center' src=img/fixation3.jpg></div><div class='cl'><div class='vertical-center'>$7<br>for<br>sure</div></div><div class='cr'><div class='vertical-center'>$71<br>with a<br>50% chance</div></div><div class='respDivL'><div class='vertical-center'>(E)</div></div><div class='respDivR'><div class='vertical-center'>(I)</div></div></div>","I","$7","$71","0","7","71","RISKY"
"","","","offerFB","6092dea4efd6d61350f0fdbf","bdp_rd","Sun Mar 26 2023 09:20:02 GMT-0500 (Central Daylight Time)","330614","html-keyboard-response","64","218913","0.0-5.0-3.19","","null","","<div class='trialBorder'><div class='vertical-center'><img style='vertical-align:center; align:center' src=img/fixation3.jpg></div><div class='cl'><div class='vertical-center'>$7<br>for<br>sure</div></div><div class='cr'><div class='vertical-center'><font style='color:orange'>$71<br>with a<br>50% chance</font></div></div><div class='respDivL'><div class='vertical-center'>(E)</div></div><div class='respDivR'><div class='vertical-center'><font style='color:orange'>(I)</font></div></div></div>","null","$7","$71","0","7","71",""
"","","","FIX","6092dea4efd6d61350f0fdbf","bdp_rd","Sun Mar 26 2023 09:20:02 GMT-0500 (Central Daylight Time)","330614","html-keyboard-response","65","219418","0.0-5.0-1.20","","null","","<div class='trialBorder'><div class='vertical-center'><img style='vertical-align:center; align:center' src=img/fixation3.jpg></div></div>","null","","","","","",""
"","","","offer","6092dea4efd6d61350f0fdbf","bdp_rd","Sun Mar 26 2023 09:20:02 GMT-0500 (Central Daylight Time)","330614","html-keyboard-response","66","221129","0.0-5.0-2.20","","1709","","<div class='trialBorder'><div class='vertical-center'><img style='vertical-align:center; align:center' src=img/fixation3.jpg></div><div class='cl'><div class='vertical-center'>$8<br>for<br>sure</div></div><div class='cr'><div class='vertical-center'>$45<br>with a<br>50% chance</div></div><div class='respDivL'><div class='vertical-center'>(E)</div></div><div class='respDivR'><div class='vertical-center'>(I)</div></div></div>","I","$8","$45","0","8","45","RISKY"
"","","","offerFB","6092dea4efd6d61350f0fdbf","bdp_rd","Sun Mar 26 2023 09:20:02 GMT-0500 (Central Daylight Time)","330614","html-keyboard-response","67","221394","0.0-5.0-3.20","","null","","<div class='trialBorder'><div class='vertical-center'><img style='vertical-align:center; align:center' src=img/fixation3.jpg></div><div class='cl'><div class='vertical-center'>$8<br>for<br>sure</div></div><div class='cr'><div class='vertical-center'><font style='color:orange'>$45<br>with a<br>50% chance</font></div></div><div class='respDivL'><div class='vertical-center'>(E)</div></div><div class='respDivR'><div class='vertical-center'><font style='color:orange'>(I)</font></div></div></div>","null","$8","$45","0","8","45",""
"","","","FIX","6092dea4efd6d61350f0fdbf","bdp_rd","Sun Mar 26 2023 09:20:02 GMT-0500 (Central Daylight Time)","330614","html-keyboard-response","68","221897","0.0-5.0-1.21","","null","","<div class='trialBorder'><div class='vertical-center'><img style='vertical-align:center; align:center' src=img/fixation3.jpg></div></div>","null","","","","","",""
"","","","offer","6092dea4efd6d61350f0fdbf","bdp_rd","Sun Mar 26 2023 09:20:02 GMT-0500 (Central Daylight Time)","330614","html-keyboard-response","69","223278","0.0-5.0-2.21","","1379","","<div class='trialBorder'><div class='vertical-center'><img style='vertical-align:center; align:center' src=img/fixation3.jpg></div><div class='cl'><div class='vertical-center'>$45<br>for<br>sure</div></div><div class='cr'><div class='vertical-center'>$86<br>with a<br>50% chance</div></div><div class='respDivL'><div class='vertical-center'>(E)</div></div><div class='respDivR'><div class='vertical-center'>(I)</div></div></div>","I","$45","$86","0","45","86","RISKY"
"","","","offerFB","6092dea4efd6d61350f0fdbf","bdp_rd","Sun Mar 26 2023 09:20:02 GMT-0500 (Central Daylight Time)","330614","html-keyboard-response","70","223542","0.0-5.0-3.21","","null","","<div class='trialBorder'><div class='vertical-center'><img style='vertical-align:center; align:center' src=img/fixation3.jpg></div><div class='cl'><div class='vertical-center'>$45<br>for<br>sure</div></div><div class='cr'><div class='vertical-center'><font style='color:orange'>$86<br>with a<br>50% chance</font></div></div><div class='respDivL'><div class='vertical-center'>(E)</div></div><div class='respDivR'><div class='vertical-center'><font style='color:orange'>(I)</font></div></div></div>","null","$45","$86","0","45","86",""
"","","","FIX","6092dea4efd6d61350f0fdbf","bdp_rd","Sun Mar 26 2023 09:20:02 GMT-0500 (Central Daylight Time)","330614","html-keyboard-response","71","224048","0.0-5.0-1.22","","null","","<div class='trialBorder'><div class='vertical-center'><img style='vertical-align:center; align:center' src=img/fixation3.jpg></div></div>","null","","","","","",""
"","","","offer","6092dea4efd6d61350f0fdbf","bdp_rd","Sun Mar 26 2023 09:20:02 GMT-0500 (Central Daylight Time)","330614","html-keyboard-response","72","225504","0.0-5.0-2.22","","1455","","<div class='trialBorder'><div class='vertical-center'><img style='vertical-align:center; align:center' src=img/fixation3.jpg></div><div class='cl'><div class='vertical-center'>$20<br>for<br>sure</div></div><div class='cr'><div class='vertical-center'>$37<br>with a<br>50% chance</div></div><div class='respDivL'><div class='vertical-center'>(E)</div></div><div class='respDivR'><div class='vertical-center'>(I)</div></div></div>","E","$20","$37","0","20","37","SURE"
"","","","offerFB","6092dea4efd6d61350f0fdbf","bdp_rd","Sun Mar 26 2023 09:20:02 GMT-0500 (Central Daylight Time)","330614","html-keyboard-response","73","225769","0.0-5.0-3.22","","null","","<div class='trialBorder'><div class='vertical-center'><img style='vertical-align:center; align:center' src=img/fixation3.jpg></div><div class='cl'><div class='vertical-center'><font style='color:orange'>$20<br>for<br>sure</font></div></div><div class='cr'><div class='vertical-center'>$37<br>with a<br>50% chance</div></div><div class='respDivL'><div class='vertical-center'><font style='color:orange'>(E)</font></div></div><div class='respDivR'><div class='vertical-center'>(I)</div></div></div>","null","$20","$37","0","20","37",""
"","","","FIX","6092dea4efd6d61350f0fdbf","bdp_rd","Sun Mar 26 2023 09:20:02 GMT-0500 (Central Daylight Time)","330614","html-keyboard-response","74","226273","0.0-5.0-1.23","","null","","<div class='trialBorder'><div class='vertical-center'><img style='vertical-align:center; align:center' src=img/fixation3.jpg></div></div>","null","","","","","",""
"","","","offer","6092dea4efd6d61350f0fdbf","bdp_rd","Sun Mar 26 2023 09:20:02 GMT-0500 (Central Daylight Time)","330614","html-keyboard-response","75","229174","0.0-5.0-2.23","","2901","","<div class='trialBorder'><div class='vertical-center'><img style='vertical-align:center; align:center' src=img/fixation3.jpg></div><div class='cl'><div class='vertical-center'>$12<br>with a<br>50% chance</div></div><div class='cr'><div class='vertical-center'>$3<br>for<br>sure</div></div><div class='respDivL'><div class='vertical-center'>(E)</div></div><div class='respDivR'><div class='vertical-center'>(I)</div></div></div>","E","$3","$12","1","3","12","RISKY"
"","","","offerFB","6092dea4efd6d61350f0fdbf","bdp_rd","Sun Mar 26 2023 09:20:02 GMT-0500 (Central Daylight Time)","330614","html-keyboard-response","76","229429","0.0-5.0-3.23","","null","","<div class='trialBorder'><div class='vertical-center'><img style='vertical-align:center; align:center' src=img/fixation3.jpg></div><div class='cl'><div class='vertical-center'><font style='color:orange'>$12<br>with a<br>50% chance</font></div></div><div class='cr'><div class='vertical-center'>$3<br>for<br>sure</div></div><div class='respDivL'><div class='vertical-center'><font style='color:orange'>(E)</font></div></div><div class='respDivR'><div class='vertical-center'>(I)</div></div></div>","null","$3","$12","1","3","12",""
"","","","FIX","6092dea4efd6d61350f0fdbf","bdp_rd","Sun Mar 26 2023 09:20:02 GMT-0500 (Central Daylight Time)","330614","html-keyboard-response","77","229933","0.0-5.0-1.24","","null","","<div class='trialBorder'><div class='vertical-center'><img style='vertical-align:center; align:center' src=img/fixation3.jpg></div></div>","null","","","","","",""
"","","","offer","6092dea4efd6d61350f0fdbf","bdp_rd","Sun Mar 26 2023 09:20:02 GMT-0500 (Central Daylight Time)","330614","html-keyboard-response","78","231652","0.0-5.0-2.24","","1717","","<div class='trialBorder'><div class='vertical-center'><img style='vertical-align:center; align:center' src=img/fixation3.jpg></div><div class='cl'><div class='vertical-center'>$37<br>for<br>sure</div></div><div class='cr'><div class='vertical-center'>$44<br>with a<br>50% chance</div></div><div class='respDivL'><div class='vertical-center'>(E)</div></div><div class='respDivR'><div class='vertical-center'>(I)</div></div></div>","E","$37","$44","0","37","44","SURE"
"","","","offerFB","6092dea4efd6d61350f0fdbf","bdp_rd","Sun Mar 26 2023 09:20:02 GMT-0500 (Central Daylight Time)","330614","html-keyboard-response","79","231911","0.0-5.0-3.24","","null","","<div class='trialBorder'><div class='vertical-center'><img style='vertical-align:center; align:center' src=img/fixation3.jpg></div><div class='cl'><div class='vertical-center'><font style='color:orange'>$37<br>for<br>sure</font></div></div><div class='cr'><div class='vertical-center'>$44<br>with a<br>50% chance</div></div><div class='respDivL'><div class='vertical-center'><font style='color:orange'>(E)</font></div></div><div class='respDivR'><div class='vertical-center'>(I)</div></div></div>","null","$37","$44","0","37","44",""
"","","","FIX","6092dea4efd6d61350f0fdbf","bdp_rd","Sun Mar 26 2023 09:20:02 GMT-0500 (Central Daylight Time)","330614","html-keyboard-response","80","232415","0.0-5.0-1.25","","null","","<div class='trialBorder'><div class='vertical-center'><img style='vertical-align:center; align:center' src=img/fixation3.jpg></div></div>","null","","","","","",""
"","","","offer","6092dea4efd6d61350f0fdbf","bdp_rd","Sun Mar 26 2023 09:20:02 GMT-0500 (Central Daylight Time)","330614","html-keyboard-response","81","235237","0.0-5.0-2.25","","2821","","<div class='trialBorder'><div class='vertical-center'><img style='vertical-align:center; align:center' src=img/fixation3.jpg></div><div class='cl'><div class='vertical-center'>$35<br>with a<br>50% chance</div></div><div class='cr'><div class='vertical-center'>$12<br>for<br>sure</div></div><div class='respDivL'><div class='vertical-center'>(E)</div></div><div class='respDivR'><div class='vertical-center'>(I)</div></div></div>","E","$12","$35","1","12","35","RISKY"
"","","","offerFB","6092dea4efd6d61350f0fdbf","bdp_rd","Sun Mar 26 2023 09:20:02 GMT-0500 (Central Daylight Time)","330614","html-keyboard-response","82","235491","0.0-5.0-3.25","","null","","<div class='trialBorder'><div class='vertical-center'><img style='vertical-align:center; align:center' src=img/fixation3.jpg></div><div class='cl'><div class='vertical-center'><font style='color:orange'>$35<br>with a<br>50% chance</font></div></div><div class='cr'><div class='vertical-center'>$12<br>for<br>sure</div></div><div class='respDivL'><div class='vertical-center'><font style='color:orange'>(E)</font></div></div><div class='respDivR'><div class='vertical-center'>(I)</div></div></div>","null","$12","$35","1","12","35",""
"","","","FIX","6092dea4efd6d61350f0fdbf","bdp_rd","Sun Mar 26 2023 09:20:02 GMT-0500 (Central Daylight Time)","330614","html-keyboard-response","83","235997","0.0-5.0-1.26","","null","","<div class='trialBorder'><div class='vertical-center'><img style='vertical-align:center; align:center' src=img/fixation3.jpg></div></div>","null","","","","","",""
"","","","offer","6092dea4efd6d61350f0fdbf","bdp_rd","Sun Mar 26 2023 09:20:02 GMT-0500 (Central Daylight Time)","330614","html-keyboard-response","84","236852","0.0-5.0-2.26","","854","","<div class='trialBorder'><div class='vertical-center'><img style='vertical-align:center; align:center' src=img/fixation3.jpg></div><div class='cl'><div class='vertical-center'>$34<br>for<br>sure</div></div><div class='cr'><div class='vertical-center'>$48<br>with a<br>50% chance</div></div><div class='respDivL'><div class='vertical-center'>(E)</div></div><div class='respDivR'><div class='vertical-center'>(I)</div></div></div>","I","$34","$48","0","34","48","RISKY"
"","","","offerFB","6092dea4efd6d61350f0fdbf","bdp_rd","Sun Mar 26 2023 09:20:02 GMT-0500 (Central Daylight Time)","330614","html-keyboard-response","85","237118","0.0-5.0-3.26","","null","","<div class='trialBorder'><div class='vertical-center'><img style='vertical-align:center; align:center' src=img/fixation3.jpg></div><div class='cl'><div class='vertical-center'>$34<br>for<br>sure</div></div><div class='cr'><div class='vertical-center'><font style='color:orange'>$48<br>with a<br>50% chance</font></div></div><div class='respDivL'><div class='vertical-center'>(E)</div></div><div class='respDivR'><div class='vertical-center'><font style='color:orange'>(I)</font></div></div></div>","null","$34","$48","0","34","48",""
"","","","FIX","6092dea4efd6d61350f0fdbf","bdp_rd","Sun Mar 26 2023 09:20:02 GMT-0500 (Central Daylight Time)","330614","html-keyboard-response","86","237623","0.0-5.0-1.27","","null","","<div class='trialBorder'><div class='vertical-center'><img style='vertical-align:center; align:center' src=img/fixation3.jpg></div></div>","null","","","","","",""
"","","","offer","6092dea4efd6d61350f0fdbf","bdp_rd","Sun Mar 26 2023 09:20:02 GMT-0500 (Central Daylight Time)","330614","html-keyboard-response","87","239250","0.0-5.0-2.27","","1627","","<div class='trialBorder'><div class='vertical-center'><img style='vertical-align:center; align:center' src=img/fixation3.jpg></div><div class='cl'><div class='vertical-center'>$68<br>with a<br>50% chance</div></div><div class='cr'><div class='vertical-center'>$30<br>for<br>sure</div></div><div class='respDivL'><div class='vertical-center'>(E)</div></div><div class='respDivR'><div class='vertical-center'>(I)</div></div></div>","E","$30","$68","1","30","68","RISKY"
"","","","offerFB","6092dea4efd6d61350f0fdbf","bdp_rd","Sun Mar 26 2023 09:20:02 GMT-0500 (Central Daylight Time)","330614","html-keyboard-response","88","239504","0.0-5.0-3.27","","null","","<div class='trialBorder'><div class='vertical-center'><img style='vertical-align:center; align:center' src=img/fixation3.jpg></div><div class='cl'><div class='vertical-center'><font style='color:orange'>$68<br>with a<br>50% chance</font></div></div><div class='cr'><div class='vertical-center'>$30<br>for<br>sure</div></div><div class='respDivL'><div class='vertical-center'><font style='color:orange'>(E)</font></div></div><div class='respDivR'><div class='vertical-center'>(I)</div></div></div>","null","$30","$68","1","30","68",""
"","","","FIX","6092dea4efd6d61350f0fdbf","bdp_rd","Sun Mar 26 2023 09:20:02 GMT-0500 (Central Daylight Time)","330614","html-keyboard-response","89","240011","0.0-5.0-1.28","","null","","<div class='trialBorder'><div class='vertical-center'><img style='vertical-align:center; align:center' src=img/fixation3.jpg></div></div>","null","","","","","",""
"","","","offer","6092dea4efd6d61350f0fdbf","bdp_rd","Sun Mar 26 2023 09:20:02 GMT-0500 (Central Daylight Time)","330614","html-keyboard-response","90","240665","0.0-5.0-2.28","","652","","<div class='trialBorder'><div class='vertical-center'><img style='vertical-align:center; align:center' src=img/fixation3.jpg></div><div class='cl'><div class='vertical-center'>$16<br>for<br>sure</div></div><div class='cr'><div class='vertical-center'>$38<br>with a<br>50% chance</div></div><div class='respDivL'><div class='vertical-center'>(E)</div></div><div class='respDivR'><div class='vertical-center'>(I)</div></div></div>","I","$16","$38","0","16","38","RISKY"
"","","","offerFB","6092dea4efd6d61350f0fdbf","bdp_rd","Sun Mar 26 2023 09:20:02 GMT-0500 (Central Daylight Time)","330614","html-keyboard-response","91","240927","0.0-5.0-3.28","","null","","<div class='trialBorder'><div class='vertical-center'><img style='vertical-align:center; align:center' src=img/fixation3.jpg></div><div class='cl'><div class='vertical-center'>$16<br>for<br>sure</div></div><div class='cr'><div class='vertical-center'><font style='color:orange'>$38<br>with a<br>50% chance</font></div></div><div class='respDivL'><div class='vertical-center'>(E)</div></div><div class='respDivR'><div class='vertical-center'><font style='color:orange'>(I)</font></div></div></div>","null","$16","$38","0","16","38",""
"","","","FIX","6092dea4efd6d61350f0fdbf","bdp_rd","Sun Mar 26 2023 09:20:02 GMT-0500 (Central Daylight Time)","330614","html-keyboard-response","92","241435","0.0-5.0-1.29","","null","","<div class='trialBorder'><div class='vertical-center'><img style='vertical-align:center; align:center' src=img/fixation3.jpg></div></div>","null","","","","","",""
"","","","offer","6092dea4efd6d61350f0fdbf","bdp_rd","Sun Mar 26 2023 09:20:02 GMT-0500 (Central Daylight Time)","330614","html-keyboard-response","93","242053","0.0-5.0-2.29","","617","","<div class='trialBorder'><div class='vertical-center'><img style='vertical-align:center; align:center' src=img/fixation3.jpg></div><div class='cl'><div class='vertical-center'>$92<br>with a<br>50% chance</div></div><div class='cr'><div class='vertical-center'>$26<br>for<br>sure</div></div><div class='respDivL'><div class='vertical-center'>(E)</div></div><div class='respDivR'><div class='vertical-center'>(I)</div></div></div>","E","$26","$92","1","26","92","RISKY"
"","","","offerFB","6092dea4efd6d61350f0fdbf","bdp_rd","Sun Mar 26 2023 09:20:02 GMT-0500 (Central Daylight Time)","330614","html-keyboard-response","94","242319","0.0-5.0-3.29","","null","","<div class='trialBorder'><div class='vertical-center'><img style='vertical-align:center; align:center' src=img/fixation3.jpg></div><div class='cl'><div class='vertical-center'><font style='color:orange'>$92<br>with a<br>50% chance</font></div></div><div class='cr'><div class='vertical-center'>$26<br>for<br>sure</div></div><div class='respDivL'><div class='vertical-center'><font style='color:orange'>(E)</font></div></div><div class='respDivR'><div class='vertical-center'>(I)</div></div></div>","null","$26","$92","1","26","92",""
"","","","FIX","6092dea4efd6d61350f0fdbf","bdp_rd","Sun Mar 26 2023 09:20:02 GMT-0500 (Central Daylight Time)","330614","html-keyboard-response","95","242825","0.0-5.0-1.30","","null","","<div class='trialBorder'><div class='vertical-center'><img style='vertical-align:center; align:center' src=img/fixation3.jpg></div></div>","null","","","","","",""
"","","","offer","6092dea4efd6d61350f0fdbf","bdp_rd","Sun Mar 26 2023 09:20:02 GMT-0500 (Central Daylight Time)","330614","html-keyboard-response","96","243760","0.0-5.0-2.30","","934","","<div class='trialBorder'><div class='vertical-center'><img style='vertical-align:center; align:center' src=img/fixation3.jpg></div><div class='cl'><div class='vertical-center'>$27<br>for<br>sure</div></div><div class='cr'><div class='vertical-center'>$47<br>with a<br>50% chance</div></div><div class='respDivL'><div class='vertical-center'>(E)</div></div><div class='respDivR'><div class='vertical-center'>(I)</div></div></div>","I","$27","$47","0","27","47","RISKY"
"","","","offerFB","6092dea4efd6d61350f0fdbf","bdp_rd","Sun Mar 26 2023 09:20:02 GMT-0500 (Central Daylight Time)","330614","html-keyboard-response","97","244022","0.0-5.0-3.30","","null","","<div class='trialBorder'><div class='vertical-center'><img style='vertical-align:center; align:center' src=img/fixation3.jpg></div><div class='cl'><div class='vertical-center'>$27<br>for<br>sure</div></div><div class='cr'><div class='vertical-center'><font style='color:orange'>$47<br>with a<br>50% chance</font></div></div><div class='respDivL'><div class='vertical-center'>(E)</div></div><div class='respDivR'><div class='vertical-center'><font style='color:orange'>(I)</font></div></div></div>","null","$27","$47","0","27","47",""
"","","","FIX","6092dea4efd6d61350f0fdbf","bdp_rd","Sun Mar 26 2023 09:20:02 GMT-0500 (Central Daylight Time)","330614","html-keyboard-response","98","244527","0.0-5.0-1.31","","null","","<div class='trialBorder'><div class='vertical-center'><img style='vertical-align:center; align:center' src=img/fixation3.jpg></div></div>","null","","","","","",""
"","","","offer","6092dea4efd6d61350f0fdbf","bdp_rd","Sun Mar 26 2023 09:20:02 GMT-0500 (Central Daylight Time)","330614","html-keyboard-response","99","245290","0.0-5.0-2.31","","761","","<div class='trialBorder'><div class='vertical-center'><img style='vertical-align:center; align:center' src=img/fixation3.jpg></div><div class='cl'><div class='vertical-center'>$4<br>for<br>sure</div></div><div class='cr'><div class='vertical-center'>$11<br>with a<br>50% chance</div></div><div class='respDivL'><div class='vertical-center'>(E)</div></div><div class='respDivR'><div class='vertical-center'>(I)</div></div></div>","I","$4","$11","0","4","11","RISKY"
"","","","offerFB","6092dea4efd6d61350f0fdbf","bdp_rd","Sun Mar 26 2023 09:20:02 GMT-0500 (Central Daylight Time)","330614","html-keyboard-response","100","245551","0.0-5.0-3.31","","null","","<div class='trialBorder'><div class='vertical-center'><img style='vertical-align:center; align:center' src=img/fixation3.jpg></div><div class='cl'><div class='vertical-center'>$4<br>for<br>sure</div></div><div class='cr'><div class='vertical-center'><font style='color:orange'>$11<br>with a<br>50% chance</font></div></div><div class='respDivL'><div class='vertical-center'>(E)</div></div><div class='respDivR'><div class='vertical-center'><font style='color:orange'>(I)</font></div></div></div>","null","$4","$11","0","4","11",""
"","","","FIX","6092dea4efd6d61350f0fdbf","bdp_rd","Sun Mar 26 2023 09:20:02 GMT-0500 (Central Daylight Time)","330614","html-keyboard-response","101","246055","0.0-5.0-1.32","","null","","<div class='trialBorder'><div class='vertical-center'><img style='vertical-align:center; align:center' src=img/fixation3.jpg></div></div>","null","","","","","",""
"","","","offer","6092dea4efd6d61350f0fdbf","bdp_rd","Sun Mar 26 2023 09:20:02 GMT-0500 (Central Daylight Time)","330614","html-keyboard-response","102","255040","0.0-5.0-2.32","","8984","","<div class='trialBorder'><div class='vertical-center'><img style='vertical-align:center; align:center' src=img/fixation3.jpg></div><div class='cl'><div class='vertical-center'>$8<br>for<br>sure</div></div><div class='cr'><div class='vertical-center'>$23<br>with a<br>50% chance</div></div><div class='respDivL'><div class='vertical-center'>(E)</div></div><div class='respDivR'><div class='vertical-center'>(I)</div></div></div>","I","$8","$23","0","8","23","RISKY"
"","","","offerFB","6092dea4efd6d61350f0fdbf","bdp_rd","Sun Mar 26 2023 09:20:02 GMT-0500 (Central Daylight Time)","330614","html-keyboard-response","103","255293","0.0-5.0-3.32","","null","","<div class='trialBorder'><div class='vertical-center'><img style='vertical-align:center; align:center' src=img/fixation3.jpg></div><div class='cl'><div class='vertical-center'>$8<br>for<br>sure</div></div><div class='cr'><div class='vertical-center'><font style='color:orange'>$23<br>with a<br>50% chance</font></div></div><div class='respDivL'><div class='vertical-center'>(E)</div></div><div class='respDivR'><div class='vertical-center'><font style='color:orange'>(I)</font></div></div></div>","null","$8","$23","0","8","23",""
"","","","FIX","6092dea4efd6d61350f0fdbf","bdp_rd","Sun Mar 26 2023 09:20:02 GMT-0500 (Central Daylight Time)","330614","html-keyboard-response","104","255795","0.0-5.0-1.33","","null","","<div class='trialBorder'><div class='vertical-center'><img style='vertical-align:center; align:center' src=img/fixation3.jpg></div></div>","null","","","","","",""
"","","","offer","6092dea4efd6d61350f0fdbf","bdp_rd","Sun Mar 26 2023 09:20:02 GMT-0500 (Central Daylight Time)","330614","html-keyboard-response","105","257225","0.0-5.0-2.33","","1429","","<div class='trialBorder'><div class='vertical-center'><img style='vertical-align:center; align:center' src=img/fixation3.jpg></div><div class='cl'><div class='vertical-center'>$39<br>with a<br>50% chance</div></div><div class='cr'><div class='vertical-center'>$18<br>for<br>sure</div></div><div class='respDivL'><div class='vertical-center'>(E)</div></div><div class='respDivR'><div class='vertical-center'>(I)</div></div></div>","E","$18","$39","1","18","39","RISKY"
"","","","offerFB","6092dea4efd6d61350f0fdbf","bdp_rd","Sun Mar 26 2023 09:20:02 GMT-0500 (Central Daylight Time)","330614","html-keyboard-response","106","257492","0.0-5.0-3.33","","null","","<div class='trialBorder'><div class='vertical-center'><img style='vertical-align:center; align:center' src=img/fixation3.jpg></div><div class='cl'><div class='vertical-center'><font style='color:orange'>$39<br>with a<br>50% chance</font></div></div><div class='cr'><div class='vertical-center'>$18<br>for<br>sure</div></div><div class='respDivL'><div class='vertical-center'><font style='color:orange'>(E)</font></div></div><div class='respDivR'><div class='vertical-center'>(I)</div></div></div>","null","$18","$39","1","18","39",""
"","","","FIX","6092dea4efd6d61350f0fdbf","bdp_rd","Sun Mar 26 2023 09:20:02 GMT-0500 (Central Daylight Time)","330614","html-keyboard-response","107","257996","0.0-5.0-1.34","","null","","<div class='trialBorder'><div class='vertical-center'><img style='vertical-align:center; align:center' src=img/fixation3.jpg></div></div>","null","","","","","",""
"","","","offer","6092dea4efd6d61350f0fdbf","bdp_rd","Sun Mar 26 2023 09:20:02 GMT-0500 (Central Daylight Time)","330614","html-keyboard-response","108","262632","0.0-5.0-2.34","","4635","","<div class='trialBorder'><div class='vertical-center'><img style='vertical-align:center; align:center' src=img/fixation3.jpg></div><div class='cl'><div class='vertical-center'>$12<br>for<br>sure</div></div><div class='cr'><div class='vertical-center'>$27<br>with a<br>50% chance</div></div><div class='respDivL'><div class='vertical-center'>(E)</div></div><div class='respDivR'><div class='vertical-center'>(I)</div></div></div>","I","$12","$27","0","12","27","RISKY"
"","","","offerFB","6092dea4efd6d61350f0fdbf","bdp_rd","Sun Mar 26 2023 09:20:02 GMT-0500 (Central Daylight Time)","330614","html-keyboard-response","109","262898","0.0-5.0-3.34","","null","","<div class='trialBorder'><div class='vertical-center'><img style='vertical-align:center; align:center' src=img/fixation3.jpg></div><div class='cl'><div class='vertical-center'>$12<br>for<br>sure</div></div><div class='cr'><div class='vertical-center'><font style='color:orange'>$27<br>with a<br>50% chance</font></div></div><div class='respDivL'><div class='vertical-center'>(E)</div></div><div class='respDivR'><div class='vertical-center'><font style='color:orange'>(I)</font></div></div></div>","null","$12","$27","0","12","27",""
"","","","FIX","6092dea4efd6d61350f0fdbf","bdp_rd","Sun Mar 26 2023 09:20:02 GMT-0500 (Central Daylight Time)","330614","html-keyboard-response","110","263402","0.0-5.0-1.35","","null","","<div class='trialBorder'><div class='vertical-center'><img style='vertical-align:center; align:center' src=img/fixation3.jpg></div></div>","null","","","","","",""
"","","","offer","6092dea4efd6d61350f0fdbf","bdp_rd","Sun Mar 26 2023 09:20:02 GMT-0500 (Central Daylight Time)","330614","html-keyboard-response","111","264197","0.0-5.0-2.35","","794","","<div class='trialBorder'><div class='vertical-center'><img style='vertical-align:center; align:center' src=img/fixation3.jpg></div><div class='cl'><div class='vertical-center'>$59<br>with a<br>50% chance</div></div><div class='cr'><div class='vertical-center'>$22<br>for<br>sure</div></div><div class='respDivL'><div class='vertical-center'>(E)</div></div><div class='respDivR'><div class='vertical-center'>(I)</div></div></div>","E","$22","$59","1","22","59","RISKY"
"","","","offerFB","6092dea4efd6d61350f0fdbf","bdp_rd","Sun Mar 26 2023 09:20:02 GMT-0500 (Central Daylight Time)","330614","html-keyboard-response","112","264460","0.0-5.0-3.35","","null","","<div class='trialBorder'><div class='vertical-center'><img style='vertical-align:center; align:center' src=img/fixation3.jpg></div><div class='cl'><div class='vertical-center'><font style='color:orange'>$59<br>with a<br>50% chance</font></div></div><div class='cr'><div class='vertical-center'>$22<br>for<br>sure</div></div><div class='respDivL'><div class='vertical-center'><font style='color:orange'>(E)</font></div></div><div class='respDivR'><div class='vertical-center'>(I)</div></div></div>","null","$22","$59","1","22","59",""
"","","","FIX","6092dea4efd6d61350f0fdbf","bdp_rd","Sun Mar 26 2023 09:20:02 GMT-0500 (Central Daylight Time)","330614","html-keyboard-response","113","264966","0.0-5.0-1.36","","null","","<div class='trialBorder'><div class='vertical-center'><img style='vertical-align:center; align:center' src=img/fixation3.jpg></div></div>","null","","","","","",""
"","","","offer","6092dea4efd6d61350f0fdbf","bdp_rd","Sun Mar 26 2023 09:20:02 GMT-0500 (Central Daylight Time)","330614","html-keyboard-response","114","268760","0.0-5.0-2.36","","3793","","<div class='trialBorder'><div class='vertical-center'><img style='vertical-align:center; align:center' src=img/fixation3.jpg></div><div class='cl'><div class='vertical-center'>$21<br>for<br>sure</div></div><div class='cr'><div class='vertical-center'>$25<br>with a<br>50% chance</div></div><div class='respDivL'><div class='vertical-center'>(E)</div></div><div class='respDivR'><div class='vertical-center'>(I)</div></div></div>","E","$21","$25","0","21","25","SURE"
"","","","offerFB","6092dea4efd6d61350f0fdbf","bdp_rd","Sun Mar 26 2023 09:20:02 GMT-0500 (Central Daylight Time)","330614","html-keyboard-response","115","269016","0.0-5.0-3.36","","null","","<div class='trialBorder'><div class='vertical-center'><img style='vertical-align:center; align:center' src=img/fixation3.jpg></div><div class='cl'><div class='vertical-center'><font style='color:orange'>$21<br>for<br>sure</font></div></div><div class='cr'><div class='vertical-center'>$25<br>with a<br>50% chance</div></div><div class='respDivL'><div class='vertical-center'><font style='color:orange'>(E)</font></div></div><div class='respDivR'><div class='vertical-center'>(I)</div></div></div>","null","$21","$25","0","21","25",""
"","","","FIX","6092dea4efd6d61350f0fdbf","bdp_rd","Sun Mar 26 2023 09:20:02 GMT-0500 (Central Daylight Time)","330614","html-keyboard-response","116","269524","0.0-5.0-1.37","","null","","<div class='trialBorder'><div class='vertical-center'><img style='vertical-align:center; align:center' src=img/fixation3.jpg></div></div>","null","","","","","",""
"","","","offer","6092dea4efd6d61350f0fdbf","bdp_rd","Sun Mar 26 2023 09:20:02 GMT-0500 (Central Daylight Time)","330614","html-keyboard-response","117","274863","0.0-5.0-2.37","","5337","","<div class='trialBorder'><div class='vertical-center'><img style='vertical-align:center; align:center' src=img/fixation3.jpg></div><div class='cl'><div class='vertical-center'>$31<br>with a<br>50% chance</div></div><div class='cr'><div class='vertical-center'>$15<br>for<br>sure</div></div><div class='respDivL'><div class='vertical-center'>(E)</div></div><div class='respDivR'><div class='vertical-center'>(I)</div></div></div>","E","$15","$31","1","15","31","RISKY"
"","","","offerFB","6092dea4efd6d61350f0fdbf","bdp_rd","Sun Mar 26 2023 09:20:02 GMT-0500 (Central Daylight Time)","330614","html-keyboard-response","118","275115","0.0-5.0-3.37","","null","","<div class='trialBorder'><div class='vertical-center'><img style='vertical-align:center; align:center' src=img/fixation3.jpg></div><div class='cl'><div class='vertical-center'><font style='color:orange'>$31<br>with a<br>50% chance</font></div></div><div class='cr'><div class='vertical-center'>$15<br>for<br>sure</div></div><div class='respDivL'><div class='vertical-center'><font style='color:orange'>(E)</font></div></div><div class='respDivR'><div class='vertical-center'>(I)</div></div></div>","null","$15","$31","1","15","31",""
"","","","FIX","6092dea4efd6d61350f0fdbf","bdp_rd","Sun Mar 26 2023 09:20:02 GMT-0500 (Central Daylight Time)","330614","html-keyboard-response","119","275623","0.0-5.0-1.38","","null","","<div class='trialBorder'><div class='vertical-center'><img style='vertical-align:center; align:center' src=img/fixation3.jpg></div></div>","null","","","","","",""
"","","","offer","6092dea4efd6d61350f0fdbf","bdp_rd","Sun Mar 26 2023 09:20:02 GMT-0500 (Central Daylight Time)","330614","html-keyboard-response","120","278153","0.0-5.0-2.38","","2529","","<div class='trialBorder'><div class='vertical-center'><img style='vertical-align:center; align:center' src=img/fixation3.jpg></div><div class='cl'><div class='vertical-center'>$42<br>with a<br>50% chance</div></div><div class='cr'><div class='vertical-center'>$22<br>for<br>sure</div></div><div class='respDivL'><div class='vertical-center'>(E)</div></div><div class='respDivR'><div class='vertical-center'>(I)</div></div></div>","E","$22","$42","1","22","42","RISKY"
"","","","offerFB","6092dea4efd6d61350f0fdbf","bdp_rd","Sun Mar 26 2023 09:20:02 GMT-0500 (Central Daylight Time)","330614","html-keyboard-response","121","278414","0.0-5.0-3.38","","null","","<div class='trialBorder'><div class='vertical-center'><img style='vertical-align:center; align:center' src=img/fixation3.jpg></div><div class='cl'><div class='vertical-center'><font style='color:orange'>$42<br>with a<br>50% chance</font></div></div><div class='cr'><div class='vertical-center'>$22<br>for<br>sure</div></div><div class='respDivL'><div class='vertical-center'><font style='color:orange'>(E)</font></div></div><div class='respDivR'><div class='vertical-center'>(I)</div></div></div>","null","$22","$42","1","22","42",""
"","","","FIX","6092dea4efd6d61350f0fdbf","bdp_rd","Sun Mar 26 2023 09:20:02 GMT-0500 (Central Daylight Time)","330614","html-keyboard-response","122","278921","0.0-5.0-1.39","","null","","<div class='trialBorder'><div class='vertical-center'><img style='vertical-align:center; align:center' src=img/fixation3.jpg></div></div>","null","","","","","",""
"","","","offer","6092dea4efd6d61350f0fdbf","bdp_rd","Sun Mar 26 2023 09:20:02 GMT-0500 (Central Daylight Time)","330614","html-keyboard-response","123","279749","0.0-5.0-2.39","","827","","<div class='trialBorder'><div class='vertical-center'><img style='vertical-align:center; align:center' src=img/fixation3.jpg></div><div class='cl'><div class='vertical-center'>$40<br>with a<br>50% chance</div></div><div class='cr'><div class='vertical-center'>$10<br>for<br>sure</div></div><div class='respDivL'><div class='vertical-center'>(E)</div></div><div class='respDivR'><div class='vertical-center'>(I)</div></div></div>","E","$10","$40","1","10","40","RISKY"
"","","","offerFB","6092dea4efd6d61350f0fdbf","bdp_rd","Sun Mar 26 2023 09:20:02 GMT-0500 (Central Daylight Time)","330614","html-keyboard-response","124","280015","0.0-5.0-3.39","","null","","<div class='trialBorder'><div class='vertical-center'><img style='vertical-align:center; align:center' src=img/fixation3.jpg></div><div class='cl'><div class='vertical-center'><font style='color:orange'>$40<br>with a<br>50% chance</font></div></div><div class='cr'><div class='vertical-center'>$10<br>for<br>sure</div></div><div class='respDivL'><div class='vertical-center'><font style='color:orange'>(E)</font></div></div><div class='respDivR'><div class='vertical-center'>(I)</div></div></div>","null","$10","$40","1","10","40",""
"","","","FIX","6092dea4efd6d61350f0fdbf","bdp_rd","Sun Mar 26 2023 09:20:02 GMT-0500 (Central Daylight Time)","330614","html-keyboard-response","125","280520","0.0-5.0-1.40","","null","","<div class='trialBorder'><div class='vertical-center'><img style='vertical-align:center; align:center' src=img/fixation3.jpg></div></div>","null","","","","","",""
"","","","offer","6092dea4efd6d61350f0fdbf","bdp_rd","Sun Mar 26 2023 09:20:02 GMT-0500 (Central Daylight Time)","330614","html-keyboard-response","126","282667","0.0-5.0-2.40","","2145","","<div class='trialBorder'><div class='vertical-center'><img style='vertical-align:center; align:center' src=img/fixation3.jpg></div><div class='cl'><div class='vertical-center'>$6<br>for<br>sure</div></div><div class='cr'><div class='vertical-center'>$15<br>with a<br>50% chance</div></div><div class='respDivL'><div class='vertical-center'>(E)</div></div><div class='respDivR'><div class='vertical-center'>(I)</div></div></div>","I","$6","$15","0","6","15","RISKY"
"","","","offerFB","6092dea4efd6d61350f0fdbf","bdp_rd","Sun Mar 26 2023 09:20:02 GMT-0500 (Central Daylight Time)","330614","html-keyboard-response","127","282922","0.0-5.0-3.40","","null","","<div class='trialBorder'><div class='vertical-center'><img style='vertical-align:center; align:center' src=img/fixation3.jpg></div><div class='cl'><div class='vertical-center'>$6<br>for<br>sure</div></div><div class='cr'><div class='vertical-center'><font style='color:orange'>$15<br>with a<br>50% chance</font></div></div><div class='respDivL'><div class='vertical-center'>(E)</div></div><div class='respDivR'><div class='vertical-center'><font style='color:orange'>(I)</font></div></div></div>","null","$6","$15","0","6","15",""
"","","","FIX","6092dea4efd6d61350f0fdbf","bdp_rd","Sun Mar 26 2023 09:20:02 GMT-0500 (Central Daylight Time)","330614","html-keyboard-response","128","283427","0.0-5.0-1.41","","null","","<div class='trialBorder'><div class='vertical-center'><img style='vertical-align:center; align:center' src=img/fixation3.jpg></div></div>","null","","","","","",""
"","","","offer","6092dea4efd6d61350f0fdbf","bdp_rd","Sun Mar 26 2023 09:20:02 GMT-0500 (Central Daylight Time)","330614","html-keyboard-response","129","284307","0.0-5.0-2.41","","878","","<div class='trialBorder'><div class='vertical-center'><img style='vertical-align:center; align:center' src=img/fixation3.jpg></div><div class='cl'><div class='vertical-center'>$32<br>with a<br>50% chance</div></div><div class='cr'><div class='vertical-center'>$9<br>for<br>sure</div></div><div class='respDivL'><div class='vertical-center'>(E)</div></div><div class='respDivR'><div class='vertical-center'>(I)</div></div></div>","E","$9","$32","1","9","32","RISKY"
"","","","offerFB","6092dea4efd6d61350f0fdbf","bdp_rd","Sun Mar 26 2023 09:20:02 GMT-0500 (Central Daylight Time)","330614","html-keyboard-response","130","284567","0.0-5.0-3.41","","null","","<div class='trialBorder'><div class='vertical-center'><img style='vertical-align:center; align:center' src=img/fixation3.jpg></div><div class='cl'><div class='vertical-center'><font style='color:orange'>$32<br>with a<br>50% chance</font></div></div><div class='cr'><div class='vertical-center'>$9<br>for<br>sure</div></div><div class='respDivL'><div class='vertical-center'><font style='color:orange'>(E)</font></div></div><div class='respDivR'><div class='vertical-center'>(I)</div></div></div>","null","$9","$32","1","9","32",""
"","","","FIX","6092dea4efd6d61350f0fdbf","bdp_rd","Sun Mar 26 2023 09:20:02 GMT-0500 (Central Daylight Time)","330614","html-keyboard-response","131","285074","0.0-5.0-1.42","","null","","<div class='trialBorder'><div class='vertical-center'><img style='vertical-align:center; align:center' src=img/fixation3.jpg></div></div>","null","","","","","",""
"","","","offer","6092dea4efd6d61350f0fdbf","bdp_rd","Sun Mar 26 2023 09:20:02 GMT-0500 (Central Daylight Time)","330614","html-keyboard-response","132","286420","0.0-5.0-2.42","","1343","","<div class='trialBorder'><div class='vertical-center'><img style='vertical-align:center; align:center' src=img/fixation3.jpg></div><div class='cl'><div class='vertical-center'>$64<br>with a<br>50% chance</div></div><div class='cr'><div class='vertical-center'>$2<br>for<br>sure</div></div><div class='respDivL'><div class='vertical-center'>(E)</div></div><div class='respDivR'><div class='vertical-center'>(I)</div></div></div>","E","$2","$64","1","2","64","RISKY"
"","","","offerFB","6092dea4efd6d61350f0fdbf","bdp_rd","Sun Mar 26 2023 09:20:02 GMT-0500 (Central Daylight Time)","330614","html-keyboard-response","133","286685","0.0-5.0-3.42","","null","","<div class='trialBorder'><div class='vertical-center'><img style='vertical-align:center; align:center' src=img/fixation3.jpg></div><div class='cl'><div class='vertical-center'><font style='color:orange'>$64<br>with a<br>50% chance</font></div></div><div class='cr'><div class='vertical-center'>$2<br>for<br>sure</div></div><div class='respDivL'><div class='vertical-center'><font style='color:orange'>(E)</font></div></div><div class='respDivR'><div class='vertical-center'>(I)</div></div></div>","null","$2","$64","1","2","64",""
"","","","FIX","6092dea4efd6d61350f0fdbf","bdp_rd","Sun Mar 26 2023 09:20:02 GMT-0500 (Central Daylight Time)","330614","html-keyboard-response","134","287191","0.0-5.0-1.43","","null","","<div class='trialBorder'><div class='vertical-center'><img style='vertical-align:center; align:center' src=img/fixation3.jpg></div></div>","null","","","","","",""
"","","","offer","6092dea4efd6d61350f0fdbf","bdp_rd","Sun Mar 26 2023 09:20:02 GMT-0500 (Central Daylight Time)","330614","html-keyboard-response","135","288935","0.0-5.0-2.43","","1743","","<div class='trialBorder'><div class='vertical-center'><img style='vertical-align:center; align:center' src=img/fixation3.jpg></div><div class='cl'><div class='vertical-center'>$10<br>for<br>sure</div></div><div class='cr'><div class='vertical-center'>$19<br>with a<br>50% chance</div></div><div class='respDivL'><div class='vertical-center'>(E)</div></div><div class='respDivR'><div class='vertical-center'>(I)</div></div></div>","E","$10","$19","0","10","19","SURE"
"","","","offerFB","6092dea4efd6d61350f0fdbf","bdp_rd","Sun Mar 26 2023 09:20:02 GMT-0500 (Central Daylight Time)","330614","html-keyboard-response","136","289197","0.0-5.0-3.43","","null","","<div class='trialBorder'><div class='vertical-center'><img style='vertical-align:center; align:center' src=img/fixation3.jpg></div><div class='cl'><div class='vertical-center'><font style='color:orange'>$10<br>for<br>sure</font></div></div><div class='cr'><div class='vertical-center'>$19<br>with a<br>50% chance</div></div><div class='respDivL'><div class='vertical-center'><font style='color:orange'>(E)</font></div></div><div class='respDivR'><div class='vertical-center'>(I)</div></div></div>","null","$10","$19","0","10","19",""
"","","","FIX","6092dea4efd6d61350f0fdbf","bdp_rd","Sun Mar 26 2023 09:20:02 GMT-0500 (Central Daylight Time)","330614","html-keyboard-response","137","289701","0.0-5.0-1.44","","null","","<div class='trialBorder'><div class='vertical-center'><img style='vertical-align:center; align:center' src=img/fixation3.jpg></div></div>","null","","","","","",""
"","","","offer","6092dea4efd6d61350f0fdbf","bdp_rd","Sun Mar 26 2023 09:20:02 GMT-0500 (Central Daylight Time)","330614","html-keyboard-response","138","293983","0.0-5.0-2.44","","4282","","<div class='trialBorder'><div class='vertical-center'><img style='vertical-align:center; align:center' src=img/fixation3.jpg></div><div class='cl'><div class='vertical-center'>$95<br>with a<br>50% chance</div></div><div class='cr'><div class='vertical-center'>$40<br>for<br>sure</div></div><div class='respDivL'><div class='vertical-center'>(E)</div></div><div class='respDivR'><div class='vertical-center'>(I)</div></div></div>","E","$40","$95","1","40","95","RISKY"
"","","","offerFB","6092dea4efd6d61350f0fdbf","bdp_rd","Sun Mar 26 2023 09:20:02 GMT-0500 (Central Daylight Time)","330614","html-keyboard-response","139","294240","0.0-5.0-3.44","","null","","<div class='trialBorder'><div class='vertical-center'><img style='vertical-align:center; align:center' src=img/fixation3.jpg></div><div class='cl'><div class='vertical-center'><font style='color:orange'>$95<br>with a<br>50% chance</font></div></div><div class='cr'><div class='vertical-center'>$40<br>for<br>sure</div></div><div class='respDivL'><div class='vertical-center'><font style='color:orange'>(E)</font></div></div><div class='respDivR'><div class='vertical-center'>(I)</div></div></div>","null","$40","$95","1","40","95",""
"","","","FIX","6092dea4efd6d61350f0fdbf","bdp_rd","Sun Mar 26 2023 09:20:02 GMT-0500 (Central Daylight Time)","330614","html-keyboard-response","140","294745","0.0-5.0-1.45","","null","","<div class='trialBorder'><div class='vertical-center'><img style='vertical-align:center; align:center' src=img/fixation3.jpg></div></div>","null","","","","","",""
"","","","offer","6092dea4efd6d61350f0fdbf","bdp_rd","Sun Mar 26 2023 09:20:02 GMT-0500 (Central Daylight Time)","330614","html-keyboard-response","141","297629","0.0-5.0-2.45","","2884","","<div class='trialBorder'><div class='vertical-center'><img style='vertical-align:center; align:center' src=img/fixation3.jpg></div><div class='cl'><div class='vertical-center'>$36<br>with a<br>50% chance</div></div><div class='cr'><div class='vertical-center'>$18<br>for<br>sure</div></div><div class='respDivL'><div class='vertical-center'>(E)</div></div><div class='respDivR'><div class='vertical-center'>(I)</div></div></div>","E","$18","$36","1","18","36","RISKY"
"","","","offerFB","6092dea4efd6d61350f0fdbf","bdp_rd","Sun Mar 26 2023 09:20:02 GMT-0500 (Central Daylight Time)","330614","html-keyboard-response","142","297890","0.0-5.0-3.45","","null","","<div class='trialBorder'><div class='vertical-center'><img style='vertical-align:center; align:center' src=img/fixation3.jpg></div><div class='cl'><div class='vertical-center'><font style='color:orange'>$36<br>with a<br>50% chance</font></div></div><div class='cr'><div class='vertical-center'>$18<br>for<br>sure</div></div><div class='respDivL'><div class='vertical-center'><font style='color:orange'>(E)</font></div></div><div class='respDivR'><div class='vertical-center'>(I)</div></div></div>","null","$18","$36","1","18","36",""
"","","","FIX","6092dea4efd6d61350f0fdbf","bdp_rd","Sun Mar 26 2023 09:20:02 GMT-0500 (Central Daylight Time)","330614","html-keyboard-response","143","298397","0.0-5.0-1.46","","null","","<div class='trialBorder'><div class='vertical-center'><img style='vertical-align:center; align:center' src=img/fixation3.jpg></div></div>","null","","","","","",""
"","","","offer","6092dea4efd6d61350f0fdbf","bdp_rd","Sun Mar 26 2023 09:20:02 GMT-0500 (Central Daylight Time)","330614","html-keyboard-response","144","299740","0.0-5.0-2.46","","1342","","<div class='trialBorder'><div class='vertical-center'><img style='vertical-align:center; align:center' src=img/fixation3.jpg></div><div class='cl'><div class='vertical-center'>$63<br>for<br>sure</div></div><div class='cr'><div class='vertical-center'>$100<br>with a<br>50% chance</div></div><div class='respDivL'><div class='vertical-center'>(E)</div></div><div class='respDivR'><div class='vertical-center'>(I)</div></div></div>","I","$63","$100","0","63","10","RISKY"
"","","","offerFB","6092dea4efd6d61350f0fdbf","bdp_rd","Sun Mar 26 2023 09:20:02 GMT-0500 (Central Daylight Time)","330614","html-keyboard-response","145","300004","0.0-5.0-3.46","","null","","<div class='trialBorder'><div class='vertical-center'><img style='vertical-align:center; align:center' src=img/fixation3.jpg></div><div class='cl'><div class='vertical-center'>$63<br>for<br>sure</div></div><div class='cr'><div class='vertical-center'><font style='color:orange'>$100<br>with a<br>50% chance</font></div></div><div class='respDivL'><div class='vertical-center'>(E)</div></div><div class='respDivR'><div class='vertical-center'><font style='color:orange'>(I)</font></div></div></div>","null","$63","$100","0","63","10",""
"","","","FIX","6092dea4efd6d61350f0fdbf","bdp_rd","Sun Mar 26 2023 09:20:02 GMT-0500 (Central Daylight Time)","330614","html-keyboard-response","146","300508","0.0-5.0-1.47","","null","","<div class='trialBorder'><div class='vertical-center'><img style='vertical-align:center; align:center' src=img/fixation3.jpg></div></div>","null","","","","","",""
"","","","offer","6092dea4efd6d61350f0fdbf","bdp_rd","Sun Mar 26 2023 09:20:02 GMT-0500 (Central Daylight Time)","330614","html-keyboard-response","147","301513","0.0-5.0-2.47","","1002","","<div class='trialBorder'><div class='vertical-center'><img style='vertical-align:center; align:center' src=img/fixation3.jpg></div><div class='cl'><div class='vertical-center'>$11<br>for<br>sure</div></div><div class='cr'><div class='vertical-center'>$62<br>with a<br>50% chance</div></div><div class='respDivL'><div class='vertical-center'>(E)</div></div><div class='respDivR'><div class='vertical-center'>(I)</div></div></div>","I","$11","$62","0","11","62","RISKY"
"","","","offerFB","6092dea4efd6d61350f0fdbf","bdp_rd","Sun Mar 26 2023 09:20:02 GMT-0500 (Central Daylight Time)","330614","html-keyboard-response","148","301768","0.0-5.0-3.47","","null","","<div class='trialBorder'><div class='vertical-center'><img style='vertical-align:center; align:center' src=img/fixation3.jpg></div><div class='cl'><div class='vertical-center'>$11<br>for<br>sure</div></div><div class='cr'><div class='vertical-center'><font style='color:orange'>$62<br>with a<br>50% chance</font></div></div><div class='respDivL'><div class='vertical-center'>(E)</div></div><div class='respDivR'><div class='vertical-center'><font style='color:orange'>(I)</font></div></div></div>","null","$11","$62","0","11","62",""
"","","","FIX","6092dea4efd6d61350f0fdbf","bdp_rd","Sun Mar 26 2023 09:20:02 GMT-0500 (Central Daylight Time)","330614","html-keyboard-response","149","302276","0.0-5.0-1.48","","null","","<div class='trialBorder'><div class='vertical-center'><img style='vertical-align:center; align:center' src=img/fixation3.jpg></div></div>","null","","","","","",""
"","","","offer","6092dea4efd6d61350f0fdbf","bdp_rd","Sun Mar 26 2023 09:20:02 GMT-0500 (Central Daylight Time)","330614","html-keyboard-response","150","303031","0.0-5.0-2.48","","754","","<div class='trialBorder'><div class='vertical-center'><img style='vertical-align:center; align:center' src=img/fixation3.jpg></div><div class='cl'><div class='vertical-center'>$13<br>with a<br>50% chance</div></div><div class='cr'><div class='vertical-center'>$6<br>for<br>sure</div></div><div class='respDivL'><div class='vertical-center'>(E)</div></div><div class='respDivR'><div class='vertical-center'>(I)</div></div></div>","E","$6","$13","1","6","13","RISKY"
"","","","offerFB","6092dea4efd6d61350f0fdbf","bdp_rd","Sun Mar 26 2023 09:20:02 GMT-0500 (Central Daylight Time)","330614","html-keyboard-response","151","303287","0.0-5.0-3.48","","null","","<div class='trialBorder'><div class='vertical-center'><img style='vertical-align:center; align:center' src=img/fixation3.jpg></div><div class='cl'><div class='vertical-center'><font style='color:orange'>$13<br>with a<br>50% chance</font></div></div><div class='cr'><div class='vertical-center'>$6<br>for<br>sure</div></div><div class='respDivL'><div class='vertical-center'><font style='color:orange'>(E)</font></div></div><div class='respDivR'><div class='vertical-center'>(I)</div></div></div>","null","$6","$13","1","6","13",""
"","","","FIX","6092dea4efd6d61350f0fdbf","bdp_rd","Sun Mar 26 2023 09:20:02 GMT-0500 (Central Daylight Time)","330614","html-keyboard-response","152","303794","0.0-5.0-1.49","","null","","<div class='trialBorder'><div class='vertical-center'><img style='vertical-align:center; align:center' src=img/fixation3.jpg></div></div>","null","","","","","",""
"","","","offer","6092dea4efd6d61350f0fdbf","bdp_rd","Sun Mar 26 2023 09:20:02 GMT-0500 (Central Daylight Time)","330614","html-keyboard-response","153","304895","0.0-5.0-2.49","","1099","","<div class='trialBorder'><div class='vertical-center'><img style='vertical-align:center; align:center' src=img/fixation3.jpg></div><div class='cl'><div class='vertical-center'>$50<br>with a<br>50% chance</div></div><div class='cr'><div class='vertical-center'>$5<br>for<br>sure</div></div><div class='respDivL'><div class='vertical-center'>(E)</div></div><div class='respDivR'><div class='vertical-center'>(I)</div></div></div>","E","$5","$50","1","5","50","RISKY"
"","","","offerFB","6092dea4efd6d61350f0fdbf","bdp_rd","Sun Mar 26 2023 09:20:02 GMT-0500 (Central Daylight Time)","330614","html-keyboard-response","154","305155","0.0-5.0-3.49","","null","","<div class='trialBorder'><div class='vertical-center'><img style='vertical-align:center; align:center' src=img/fixation3.jpg></div><div class='cl'><div class='vertical-center'><font style='color:orange'>$50<br>with a<br>50% chance</font></div></div><div class='cr'><div class='vertical-center'>$5<br>for<br>sure</div></div><div class='respDivL'><div class='vertical-center'><font style='color:orange'>(E)</font></div></div><div class='respDivR'><div class='vertical-center'>(I)</div></div></div>","null","$5","$50","1","5","50",""
"","","","FIX","6092dea4efd6d61350f0fdbf","bdp_rd","Sun Mar 26 2023 09:20:02 GMT-0500 (Central Daylight Time)","330614","html-keyboard-response","155","305663","0.0-5.0-1.50","","null","","<div class='trialBorder'><div class='vertical-center'><img style='vertical-align:center; align:center' src=img/fixation3.jpg></div></div>","null","","","","","",""
"","","","offer","6092dea4efd6d61350f0fdbf","bdp_rd","Sun Mar 26 2023 09:20:02 GMT-0500 (Central Daylight Time)","330614","html-keyboard-response","156","306833","0.0-5.0-2.50","","1169","","<div class='trialBorder'><div class='vertical-center'><img style='vertical-align:center; align:center' src=img/fixation3.jpg></div><div class='cl'><div class='vertical-center'>$24<br>with a<br>50% chance</div></div><div class='cr'><div class='vertical-center'>$13<br>for<br>sure</div></div><div class='respDivL'><div class='vertical-center'>(E)</div></div><div class='respDivR'><div class='vertical-center'>(I)</div></div></div>","E","$13","$24","1","13","24","RISKY"
"","","","offerFB","6092dea4efd6d61350f0fdbf","bdp_rd","Sun Mar 26 2023 09:20:02 GMT-0500 (Central Daylight Time)","330614","html-keyboard-response","157","307091","0.0-5.0-3.50","","null","","<div class='trialBorder'><div class='vertical-center'><img style='vertical-align:center; align:center' src=img/fixation3.jpg></div><div class='cl'><div class='vertical-center'><font style='color:orange'>$24<br>with a<br>50% chance</font></div></div><div class='cr'><div class='vertical-center'>$13<br>for<br>sure</div></div><div class='respDivL'><div class='vertical-center'><font style='color:orange'>(E)</font></div></div><div class='respDivR'><div class='vertical-center'>(I)</div></div></div>","null","$13","$24","1","13","24",""
"","","","FIX","6092dea4efd6d61350f0fdbf","bdp_rd","Sun Mar 26 2023 09:20:02 GMT-0500 (Central Daylight Time)","330614","html-keyboard-response","158","307595","0.0-5.0-1.51","","null","","<div class='trialBorder'><div class='vertical-center'><img style='vertical-align:center; align:center' src=img/fixation3.jpg></div></div>","null","","","","","",""
"","","","offer","6092dea4efd6d61350f0fdbf","bdp_rd","Sun Mar 26 2023 09:20:02 GMT-0500 (Central Daylight Time)","330614","html-keyboard-response","159","308862","0.0-5.0-2.51","","1265","","<div class='trialBorder'><div class='vertical-center'><img style='vertical-align:center; align:center' src=img/fixation3.jpg></div><div class='cl'><div class='vertical-center'>$1<br>for<br>sure</div></div><div class='cr'><div class='vertical-center'>$33<br>with a<br>50% chance</div></div><div class='respDivL'><div class='vertical-center'>(E)</div></div><div class='respDivR'><div class='vertical-center'>(I)</div></div></div>","I","$1","$33","0","1","33","RISKY"
"","","","offerFB","6092dea4efd6d61350f0fdbf","bdp_rd","Sun Mar 26 2023 09:20:02 GMT-0500 (Central Daylight Time)","330614","html-keyboard-response","160","309114","0.0-5.0-3.51","","null","","<div class='trialBorder'><div class='vertical-center'><img style='vertical-align:center; align:center' src=img/fixation3.jpg></div><div class='cl'><div class='vertical-center'>$1<br>for<br>sure</div></div><div class='cr'><div class='vertical-center'><font style='color:orange'>$33<br>with a<br>50% chance</font></div></div><div class='respDivL'><div class='vertical-center'>(E)</div></div><div class='respDivR'><div class='vertical-center'><font style='color:orange'>(I)</font></div></div></div>","null","$1","$33","0","1","33",""
"","","","FIX","6092dea4efd6d61350f0fdbf","bdp_rd","Sun Mar 26 2023 09:20:02 GMT-0500 (Central Daylight Time)","330614","html-keyboard-response","161","309617","0.0-5.0-1.52","","null","","<div class='trialBorder'><div class='vertical-center'><img style='vertical-align:center; align:center' src=img/fixation3.jpg></div></div>","null","","","","","",""
"","","","offer","6092dea4efd6d61350f0fdbf","bdp_rd","Sun Mar 26 2023 09:20:02 GMT-0500 (Central Daylight Time)","330614","html-keyboard-response","162","310770","0.0-5.0-2.52","","1152","","<div class='trialBorder'><div class='vertical-center'><img style='vertical-align:center; align:center' src=img/fixation3.jpg></div><div class='cl'><div class='vertical-center'>$18<br>with a<br>50% chance</div></div><div class='cr'><div class='vertical-center'>$9<br>for<br>sure</div></div><div class='respDivL'><div class='vertical-center'>(E)</div></div><div class='respDivR'><div class='vertical-center'>(I)</div></div></div>","E","$9","$18","1","9","18","RISKY"
"","","","offerFB","6092dea4efd6d61350f0fdbf","bdp_rd","Sun Mar 26 2023 09:20:02 GMT-0500 (Central Daylight Time)","330614","html-keyboard-response","163","311022","0.0-5.0-3.52","","null","","<div class='trialBorder'><div class='vertical-center'><img style='vertical-align:center; align:center' src=img/fixation3.jpg></div><div class='cl'><div class='vertical-center'><font style='color:orange'>$18<br>with a<br>50% chance</font></div></div><div class='cr'><div class='vertical-center'>$9<br>for<br>sure</div></div><div class='respDivL'><div class='vertical-center'><font style='color:orange'>(E)</font></div></div><div class='respDivR'><div class='vertical-center'>(I)</div></div></div>","null","$9","$18","1","9","18",""
"","","","FIX","6092dea4efd6d61350f0fdbf","bdp_rd","Sun Mar 26 2023 09:20:02 GMT-0500 (Central Daylight Time)","330614","html-keyboard-response","164","311526","0.0-5.0-1.53","","null","","<div class='trialBorder'><div class='vertical-center'><img style='vertical-align:center; align:center' src=img/fixation3.jpg></div></div>","null","","","","","",""
"","","","offer","6092dea4efd6d61350f0fdbf","bdp_rd","Sun Mar 26 2023 09:20:02 GMT-0500 (Central Daylight Time)","330614","html-keyboard-response","165","312945","0.0-5.0-2.53","","1419","","<div class='trialBorder'><div class='vertical-center'><img style='vertical-align:center; align:center' src=img/fixation3.jpg></div><div class='cl'><div class='vertical-center'>$11<br>for<br>sure</div></div><div class='cr'><div class='vertical-center'>$26<br>with a<br>50% chance</div></div><div class='respDivL'><div class='vertical-center'>(E)</div></div><div class='respDivR'><div class='vertical-center'>(I)</div></div></div>","I","$11","$26","0","11","26","RISKY"
"","","","offerFB","6092dea4efd6d61350f0fdbf","bdp_rd","Sun Mar 26 2023 09:20:02 GMT-0500 (Central Daylight Time)","330614","html-keyboard-response","166","313199","0.0-5.0-3.53","","null","","<div class='trialBorder'><div class='vertical-center'><img style='vertical-align:center; align:center' src=img/fixation3.jpg></div><div class='cl'><div class='vertical-center'>$11<br>for<br>sure</div></div><div class='cr'><div class='vertical-center'><font style='color:orange'>$26<br>with a<br>50% chance</font></div></div><div class='respDivL'><div class='vertical-center'>(E)</div></div><div class='respDivR'><div class='vertical-center'><font style='color:orange'>(I)</font></div></div></div>","null","$11","$26","0","11","26",""
"","","","FIX","6092dea4efd6d61350f0fdbf","bdp_rd","Sun Mar 26 2023 09:20:02 GMT-0500 (Central Daylight Time)","330614","html-keyboard-response","167","313704","0.0-5.0-1.54","","null","","<div class='trialBorder'><div class='vertical-center'><img style='vertical-align:center; align:center' src=img/fixation3.jpg></div></div>","null","","","","","",""
"","","","offer","6092dea4efd6d61350f0fdbf","bdp_rd","Sun Mar 26 2023 09:20:02 GMT-0500 (Central Daylight Time)","330614","html-keyboard-response","168","315883","0.0-5.0-2.54","","2177","","<div class='trialBorder'><div class='vertical-center'><img style='vertical-align:center; align:center' src=img/fixation3.jpg></div><div class='cl'><div class='vertical-center'>$14<br>for<br>sure</div></div><div class='cr'><div class='vertical-center'>$22<br>with a<br>50% chance</div></div><div class='respDivL'><div class='vertical-center'>(E)</div></div><div class='respDivR'><div class='vertical-center'>(I)</div></div></div>","E","$14","$22","0","14","22","SURE"
"","","","offerFB","6092dea4efd6d61350f0fdbf","bdp_rd","Sun Mar 26 2023 09:20:02 GMT-0500 (Central Daylight Time)","330614","html-keyboard-response","169","316139","0.0-5.0-3.54","","null","","<div class='trialBorder'><div class='vertical-center'><img style='vertical-align:center; align:center' src=img/fixation3.jpg></div><div class='cl'><div class='vertical-center'><font style='color:orange'>$14<br>for<br>sure</font></div></div><div class='cr'><div class='vertical-center'>$22<br>with a<br>50% chance</div></div><div class='respDivL'><div class='vertical-center'><font style='color:orange'>(E)</font></div></div><div class='respDivR'><div class='vertical-center'>(I)</div></div></div>","null","$14","$22","0","14","22",""
"","","","FIX","6092dea4efd6d61350f0fdbf","bdp_rd","Sun Mar 26 2023 09:20:02 GMT-0500 (Central Daylight Time)","330614","html-keyboard-response","170","316648","0.0-5.0-1.55","","null","","<div class='trialBorder'><div class='vertical-center'><img style='vertical-align:center; align:center' src=img/fixation3.jpg></div></div>","null","","","","","",""
"","","","offer","6092dea4efd6d61350f0fdbf","bdp_rd","Sun Mar 26 2023 09:20:02 GMT-0500 (Central Daylight Time)","330614","html-keyboard-response","171","318482","0.0-5.0-2.55","","1831","","<div class='trialBorder'><div class='vertical-center'><img style='vertical-align:center; align:center' src=img/fixation3.jpg></div><div class='cl'><div class='vertical-center'>$65<br>with a<br>50% chance</div></div><div class='cr'><div class='vertical-center'>$46<br>for<br>sure</div></div><div class='respDivL'><div class='vertical-center'>(E)</div></div><div class='respDivR'><div class='vertical-center'>(I)</div></div></div>","E","$46","$65","1","46","65","RISKY"
"","","","offerFB","6092dea4efd6d61350f0fdbf","bdp_rd","Sun Mar 26 2023 09:20:02 GMT-0500 (Central Daylight Time)","330614","html-keyboard-response","172","318739","0.0-5.0-3.55","","null","","<div class='trialBorder'><div class='vertical-center'><img style='vertical-align:center; align:center' src=img/fixation3.jpg></div><div class='cl'><div class='vertical-center'><font style='color:orange'>$65<br>with a<br>50% chance</font></div></div><div class='cr'><div class='vertical-center'>$46<br>for<br>sure</div></div><div class='respDivL'><div class='vertical-center'><font style='color:orange'>(E)</font></div></div><div class='respDivR'><div class='vertical-center'>(I)</div></div></div>","null","$46","$65","1","46","65",""
"","","","FIX","6092dea4efd6d61350f0fdbf","bdp_rd","Sun Mar 26 2023 09:20:02 GMT-0500 (Central Daylight Time)","330614","html-keyboard-response","173","319244","0.0-5.0-1.56","","null","","<div class='trialBorder'><div class='vertical-center'><img style='vertical-align:center; align:center' src=img/fixation3.jpg></div></div>","null","","","","","",""
"","","","offer","6092dea4efd6d61350f0fdbf","bdp_rd","Sun Mar 26 2023 09:20:02 GMT-0500 (Central Daylight Time)","330614","html-keyboard-response","174","322106","0.0-5.0-2.56","","2860","","<div class='trialBorder'><div class='vertical-center'><img style='vertical-align:center; align:center' src=img/fixation3.jpg></div><div class='cl'><div class='vertical-center'>$1<br>for<br>sure</div></div><div class='cr'><div class='vertical-center'>$30<br>with a<br>50% chance</div></div><div class='respDivL'><div class='vertical-center'>(E)</div></div><div class='respDivR'><div class='vertical-center'>(I)</div></div></div>","I","$1","$30","0","1","30","RISKY"
