"event","trial","time","trialtype","subject_id","task","startTime","totalTime","trial_type","trial_index","time_elapsed","internal_node_id","view_history","rt","success","stimulus","key_press","sureOffer","riskyOffer","riskyLeft","sureAmt","riskyAmt","chosen"
"focus","0","0","focusevent","63f969ceb2a0b028aa612b33","bdp_rd","Sat Mar 25 2023 20:29:00 GMT-0400 (Eastern Daylight Time)","162103","","","","","","","","","","","","","","",""
"","","","","63f969ceb2a0b028aa612b33","bdp_rd","Sat Mar 25 2023 20:29:00 GMT-0400 (Eastern Daylight Time)","162103","pavlovia","0","2","0.0-0.0","","","","","","","","","","",""
"","","","","63f969ceb2a0b028aa612b33","bdp_rd","Sat Mar 25 2023 20:29:00 GMT-0400 (Eastern Daylight Time)","162103","instructions","1","2858","0.0-1.0","[{""page_index"":0,""viewing_time"":2856}]","2856","","","","","","","","",""
"fullscreenexit","2","6145","fullscreenexit","63f969ceb2a0b028aa612b33","bdp_rd","Sat Mar 25 2023 20:29:00 GMT-0400 (Eastern Daylight Time)","162103","","","","","","","","","","","","","","",""
"","","","","63f969ceb2a0b028aa612b33","bdp_rd","Sat Mar 25 2023 20:29:00 GMT-0400 (Eastern Daylight Time)","162103","fullscreen","2","6955","0.0-2.0","","","true","","","","","","","",""
"","","","fullscreenfail","63f969ceb2a0b028aa612b33","bdp_rd","Sat Mar 25 2023 20:29:00 GMT-0400 (Eastern Daylight Time)","162103","image-keyboard-response","3","8615","0.0-3.0-0.0","","1658","","","32","","","","","",""
"","","","","63f969ceb2a0b028aa612b33","bdp_rd","Sat Mar 25 2023 20:29:00 GMT-0400 (Eastern Daylight Time)","162103","instructions","4","31808","0.0-4.0","[{""page_index"":0,""viewing_time"":13837},{""page_index"":1,""viewing_time"":3946},{""page_index"":2,""viewing_time"":5156}]","22939","","","","","","","","",""
"","","","FIX","63f969ceb2a0b028aa612b33","bdp_rd","Sat Mar 25 2023 20:29:00 GMT-0400 (Eastern Daylight Time)","162103","html-keyboard-response","5","32320","0.0-5.0-1.0","","null","","<div class='trialBorder'><div class='vertical-center'><img style='vertical-align:center; align:center' src=img/fixation3.jpg></div></div>","null","","","","","",""
"","","","offer","63f969ceb2a0b028aa612b33","bdp_rd","Sat Mar 25 2023 20:29:00 GMT-0400 (Eastern Daylight Time)","162103","html-keyboard-response","6","37186","0.0-5.0-2.0","","4864","","<div class='trialBorder'><div class='vertical-center'><img style='vertical-align:center; align:center' src=img/fixation3.jpg></div><div class='cl'><div class='vertical-center'>$37<br>with a<br>50% chance</div></div><div class='cr'><div class='vertical-center'>$20<br>for<br>sure</div></div><div class='respDivL'><div class='vertical-center'>(E)</div></div><div class='respDivR'><div class='vertical-center'>(I)</div></div></div>","I","$20","$37","1","20","37","SURE"
"","","","offerFB","63f969ceb2a0b028aa612b33","bdp_rd","Sat Mar 25 2023 20:29:00 GMT-0400 (Eastern Daylight Time)","162103","html-keyboard-response","7","37439","0.0-5.0-3.0","","null","","<div class='trialBorder'><div class='vertical-center'><img style='vertical-align:center; align:center' src=img/fixation3.jpg></div><div class='cl'><div class='vertical-center'>$37<br>with a<br>50% chance</div></div><div class='cr'><div class='vertical-center'><font style='color:orange'>$20<br>for<br>sure</font></div></div><div class='respDivL'><div class='vertical-center'>(E)</div></div><div class='respDivR'><div class='vertical-center'><font style='color:orange'>(I)</font></div></div></div>","null","$20","$37","1","20","37",""
"","","","FIX","63f969ceb2a0b028aa612b33","bdp_rd","Sat Mar 25 2023 20:29:00 GMT-0400 (Eastern Daylight Time)","162103","html-keyboard-response","8","37942","0.0-5.0-1.1","","null","","<div class='trialBorder'><div class='vertical-center'><img style='vertical-align:center; align:center' src=img/fixation3.jpg></div></div>","null","","","","","",""
"","","","offer","63f969ceb2a0b028aa612b33","bdp_rd","Sat Mar 25 2023 20:29:00 GMT-0400 (Eastern Daylight Time)","162103","html-keyboard-response","9","42137","0.0-5.0-2.1","","4194","","<div class='trialBorder'><div class='vertical-center'><img style='vertical-align:center; align:center' src=img/fixation3.jpg></div><div class='cl'><div class='vertical-center'>$51<br>with a<br>50% chance</div></div><div class='cr'><div class='vertical-center'>$19<br>for<br>sure</div></div><div class='respDivL'><div class='vertical-center'>(E)</div></div><div class='respDivR'><div class='vertical-center'>(I)</div></div></div>","E","$19","$51","1","19","51","RISKY"
"","","","offerFB","63f969ceb2a0b028aa612b33","bdp_rd","Sat Mar 25 2023 20:29:00 GMT-0400 (Eastern Daylight Time)","162103","html-keyboard-response","10","42401","0.0-5.0-3.1","","null","","<div class='trialBorder'><div class='vertical-center'><img style='vertical-align:center; align:center' src=img/fixation3.jpg></div><div class='cl'><div class='vertical-center'><font style='color:orange'>$51<br>with a<br>50% chance</font></div></div><div class='cr'><div class='vertical-center'>$19<br>for<br>sure</div></div><div class='respDivL'><div class='vertical-center'><font style='color:orange'>(E)</font></div></div><div class='respDivR'><div class='vertical-center'>(I)</div></div></div>","null","$19","$51","1","19","51",""
"","","","FIX","63f969ceb2a0b028aa612b33","bdp_rd","Sat Mar 25 2023 20:29:00 GMT-0400 (Eastern Daylight Time)","162103","html-keyboard-response","11","42910","0.0-5.0-1.2","","null","","<div class='trialBorder'><div class='vertical-center'><img style='vertical-align:center; align:center' src=img/fixation3.jpg></div></div>","null","","","","","",""
"","","","offer","63f969ceb2a0b028aa612b33","bdp_rd","Sat Mar 25 2023 20:29:00 GMT-0400 (Eastern Daylight Time)","162103","html-keyboard-response","12","45448","0.0-5.0-2.2","","2537","","<div class='trialBorder'><div class='vertical-center'><img style='vertical-align:center; align:center' src=img/fixation3.jpg></div><div class='cl'><div class='vertical-center'>$63<br>for<br>sure</div></div><div class='cr'><div class='vertical-center'>$100<br>with a<br>50% chance</div></div><div class='respDivL'><div class='vertical-center'>(E)</div></div><div class='respDivR'><div class='vertical-center'>(I)</div></div></div>","E","$63","$100","0","63","10","SURE"
"","","","offerFB","63f969ceb2a0b028aa612b33","bdp_rd","Sat Mar 25 2023 20:29:00 GMT-0400 (Eastern Daylight Time)","162103","html-keyboard-response","13","45711","0.0-5.0-3.2","","null","","<div class='trialBorder'><div class='vertical-center'><img style='vertical-align:center; align:center' src=img/fixation3.jpg></div><div class='cl'><div class='vertical-center'><font style='color:orange'>$63<br>for<br>sure</font></div></div><div class='cr'><div class='vertical-center'>$100<br>with a<br>50% chance</div></div><div class='respDivL'><div class='vertical-center'><font style='color:orange'>(E)</font></div></div><div class='respDivR'><div class='vertical-center'>(I)</div></div></div>","null","$63","$100","0","63","10",""
"","","","FIX","63f969ceb2a0b028aa612b33","bdp_rd","Sat Mar 25 2023 20:29:00 GMT-0400 (Eastern Daylight Time)","162103","html-keyboard-response","14","46213","0.0-5.0-1.3","","null","","<div class='trialBorder'><div class='vertical-center'><img style='vertical-align:center; align:center' src=img/fixation3.jpg></div></div>","null","","","","","",""
"","","","offer","63f969ceb2a0b028aa612b33","bdp_rd","Sat Mar 25 2023 20:29:00 GMT-0400 (Eastern Daylight Time)","162103","html-keyboard-response","15","48438","0.0-5.0-2.3","","2223","","<div class='trialBorder'><div class='vertical-center'><img style='vertical-align:center; align:center' src=img/fixation3.jpg></div><div class='cl'><div class='vertical-center'>$42<br>for<br>sure</div></div><div class='cr'><div class='vertical-center'>$73<br>with a<br>50% chance</div></div><div class='respDivL'><div class='vertical-center'>(E)</div></div><div class='respDivR'><div class='vertical-center'>(I)</div></div></div>","E","$42","$73","0","42","73","SURE"
"","","","offerFB","63f969ceb2a0b028aa612b33","bdp_rd","Sat Mar 25 2023 20:29:00 GMT-0400 (Eastern Daylight Time)","162103","html-keyboard-response","16","48696","0.0-5.0-3.3","","null","","<div class='trialBorder'><div class='vertical-center'><img style='vertical-align:center; align:center' src=img/fixation3.jpg></div><div class='cl'><div class='vertical-center'><font style='color:orange'>$42<br>for<br>sure</font></div></div><div class='cr'><div class='vertical-center'>$73<br>with a<br>50% chance</div></div><div class='respDivL'><div class='vertical-center'><font style='color:orange'>(E)</font></div></div><div class='respDivR'><div class='vertical-center'>(I)</div></div></div>","null","$42","$73","0","42","73",""
"","","","FIX","63f969ceb2a0b028aa612b33","bdp_rd","Sat Mar 25 2023 20:29:00 GMT-0400 (Eastern Daylight Time)","162103","html-keyboard-response","17","49208","0.0-5.0-1.4","","null","","<div class='trialBorder'><div class='vertical-center'><img style='vertical-align:center; align:center' src=img/fixation3.jpg></div></div>","null","","","","","",""
"","","","offer","63f969ceb2a0b028aa612b33","bdp_rd","Sat Mar 25 2023 20:29:00 GMT-0400 (Eastern Daylight Time)","162103","html-keyboard-response","18","50932","0.0-5.0-2.4","","1723","","<div class='trialBorder'><div class='vertical-center'><img style='vertical-align:center; align:center' src=img/fixation3.jpg></div><div class='cl'><div class='vertical-center'>$39<br>with a<br>50% chance</div></div><div class='cr'><div class='vertical-center'>$18<br>for<br>sure</div></div><div class='respDivL'><div class='vertical-center'>(E)</div></div><div class='respDivR'><div class='vertical-center'>(I)</div></div></div>","I","$18","$39","1","18","39","SURE"
"","","","offerFB","63f969ceb2a0b028aa612b33","bdp_rd","Sat Mar 25 2023 20:29:00 GMT-0400 (Eastern Daylight Time)","162103","html-keyboard-response","19","51185","0.0-5.0-3.4","","null","","<div class='trialBorder'><div class='vertical-center'><img style='vertical-align:center; align:center' src=img/fixation3.jpg></div><div class='cl'><div class='vertical-center'>$39<br>with a<br>50% chance</div></div><div class='cr'><div class='vertical-center'><font style='color:orange'>$18<br>for<br>sure</font></div></div><div class='respDivL'><div class='vertical-center'>(E)</div></div><div class='respDivR'><div class='vertical-center'><font style='color:orange'>(I)</font></div></div></div>","null","$18","$39","1","18","39",""
"","","","FIX","63f969ceb2a0b028aa612b33","bdp_rd","Sat Mar 25 2023 20:29:00 GMT-0400 (Eastern Daylight Time)","162103","html-keyboard-response","20","51687","0.0-5.0-1.5","","null","","<div class='trialBorder'><div class='vertical-center'><img style='vertical-align:center; align:center' src=img/fixation3.jpg></div></div>","null","","","","","",""
"","","","offer","63f969ceb2a0b028aa612b33","bdp_rd","Sat Mar 25 2023 20:29:00 GMT-0400 (Eastern Daylight Time)","162103","html-keyboard-response","21","53654","0.0-5.0-2.5","","1966","","<div class='trialBorder'><div class='vertical-center'><img style='vertical-align:center; align:center' src=img/fixation3.jpg></div><div class='cl'><div class='vertical-center'>$25<br>for<br>sure</div></div><div class='cr'><div class='vertical-center'>$54<br>with a<br>50% chance</div></div><div class='respDivL'><div class='vertical-center'>(E)</div></div><div class='respDivR'><div class='vertical-center'>(I)</div></div></div>","E","$25","$54","0","25","54","SURE"
"","","","offerFB","63f969ceb2a0b028aa612b33","bdp_rd","Sat Mar 25 2023 20:29:00 GMT-0400 (Eastern Daylight Time)","162103","html-keyboard-response","22","53917","0.0-5.0-3.5","","null","","<div class='trialBorder'><div class='vertical-center'><img style='vertical-align:center; align:center' src=img/fixation3.jpg></div><div class='cl'><div class='vertical-center'><font style='color:orange'>$25<br>for<br>sure</font></div></div><div class='cr'><div class='vertical-center'>$54<br>with a<br>50% chance</div></div><div class='respDivL'><div class='vertical-center'><font style='color:orange'>(E)</font></div></div><div class='respDivR'><div class='vertical-center'>(I)</div></div></div>","null","$25","$54","0","25","54",""
"","","","FIX","63f969ceb2a0b028aa612b33","bdp_rd","Sat Mar 25 2023 20:29:00 GMT-0400 (Eastern Daylight Time)","162103","html-keyboard-response","23","54427","0.0-5.0-1.6","","null","","<div class='trialBorder'><div class='vertical-center'><img style='vertical-align:center; align:center' src=img/fixation3.jpg></div></div>","null","","","","","",""
"","","","offer","63f969ceb2a0b028aa612b33","bdp_rd","Sat Mar 25 2023 20:29:00 GMT-0400 (Eastern Daylight Time)","162103","html-keyboard-response","24","56365","0.0-5.0-2.6","","1938","","<div class='trialBorder'><div class='vertical-center'><img style='vertical-align:center; align:center' src=img/fixation3.jpg></div><div class='cl'><div class='vertical-center'>$26<br>with a<br>50% chance</div></div><div class='cr'><div class='vertical-center'>$11<br>for<br>sure</div></div><div class='respDivL'><div class='vertical-center'>(E)</div></div><div class='respDivR'><div class='vertical-center'>(I)</div></div></div>","I","$11","$26","1","11","26","SURE"
"","","","offerFB","63f969ceb2a0b028aa612b33","bdp_rd","Sat Mar 25 2023 20:29:00 GMT-0400 (Eastern Daylight Time)","162103","html-keyboard-response","25","56627","0.0-5.0-3.6","","null","","<div class='trialBorder'><div class='vertical-center'><img style='vertical-align:center; align:center' src=img/fixation3.jpg></div><div class='cl'><div class='vertical-center'>$26<br>with a<br>50% chance</div></div><div class='cr'><div class='vertical-center'><font style='color:orange'>$11<br>for<br>sure</font></div></div><div class='respDivL'><div class='vertical-center'>(E)</div></div><div class='respDivR'><div class='vertical-center'><font style='color:orange'>(I)</font></div></div></div>","null","$11","$26","1","11","26",""
"","","","FIX","63f969ceb2a0b028aa612b33","bdp_rd","Sat Mar 25 2023 20:29:00 GMT-0400 (Eastern Daylight Time)","162103","html-keyboard-response","26","57131","0.0-5.0-1.7","","null","","<div class='trialBorder'><div class='vertical-center'><img style='vertical-align:center; align:center' src=img/fixation3.jpg></div></div>","null","","","","","",""
"","","","offer","63f969ceb2a0b028aa612b33","bdp_rd","Sat Mar 25 2023 20:29:00 GMT-0400 (Eastern Daylight Time)","162103","html-keyboard-response","27","58524","0.0-5.0-2.7","","1391","","<div class='trialBorder'><div class='vertical-center'><img style='vertical-align:center; align:center' src=img/fixation3.jpg></div><div class='cl'><div class='vertical-center'>$78<br>with a<br>50% chance</div></div><div class='cr'><div class='vertical-center'>$31<br>for<br>sure</div></div><div class='respDivL'><div class='vertical-center'>(E)</div></div><div class='respDivR'><div class='vertical-center'>(I)</div></div></div>","I","$31","$78","1","31","78","SURE"
"","","","offerFB","63f969ceb2a0b028aa612b33","bdp_rd","Sat Mar 25 2023 20:29:00 GMT-0400 (Eastern Daylight Time)","162103","html-keyboard-response","28","58781","0.0-5.0-3.7","","null","","<div class='trialBorder'><div class='vertical-center'><img style='vertical-align:center; align:center' src=img/fixation3.jpg></div><div class='cl'><div class='vertical-center'>$78<br>with a<br>50% chance</div></div><div class='cr'><div class='vertical-center'><font style='color:orange'>$31<br>for<br>sure</font></div></div><div class='respDivL'><div class='vertical-center'>(E)</div></div><div class='respDivR'><div class='vertical-center'><font style='color:orange'>(I)</font></div></div></div>","null","$31","$78","1","31","78",""
"","","","FIX","63f969ceb2a0b028aa612b33","bdp_rd","Sat Mar 25 2023 20:29:00 GMT-0400 (Eastern Daylight Time)","162103","html-keyboard-response","29","59290","0.0-5.0-1.8","","null","","<div class='trialBorder'><div class='vertical-center'><img style='vertical-align:center; align:center' src=img/fixation3.jpg></div></div>","null","","","","","",""
"","","","offer","63f969ceb2a0b028aa612b33","bdp_rd","Sat Mar 25 2023 20:29:00 GMT-0400 (Eastern Daylight Time)","162103","html-keyboard-response","30","60698","0.0-5.0-2.8","","1406","","<div class='trialBorder'><div class='vertical-center'><img style='vertical-align:center; align:center' src=img/fixation3.jpg></div><div class='cl'><div class='vertical-center'>$30<br>for<br>sure</div></div><div class='cr'><div class='vertical-center'>$68<br>with a<br>50% chance</div></div><div class='respDivL'><div class='vertical-center'>(E)</div></div><div class='respDivR'><div class='vertical-center'>(I)</div></div></div>","I","$30","$68","0","30","68","RISKY"
"","","","offerFB","63f969ceb2a0b028aa612b33","bdp_rd","Sat Mar 25 2023 20:29:00 GMT-0400 (Eastern Daylight Time)","162103","html-keyboard-response","31","60958","0.0-5.0-3.8","","null","","<div class='trialBorder'><div class='vertical-center'><img style='vertical-align:center; align:center' src=img/fixation3.jpg></div><div class='cl'><div class='vertical-center'>$30<br>for<br>sure</div></div><div class='cr'><div class='vertical-center'><font style='color:orange'>$68<br>with a<br>50% chance</font></div></div><div class='respDivL'><div class='vertical-center'>(E)</div></div><div class='respDivR'><div class='vertical-center'><font style='color:orange'>(I)</font></div></div></div>","null","$30","$68","0","30","68",""
"","","","FIX","63f969ceb2a0b028aa612b33","bdp_rd","Sat Mar 25 2023 20:29:00 GMT-0400 (Eastern Daylight Time)","162103","html-keyboard-response","32","61460","0.0-5.0-1.9","","null","","<div class='trialBorder'><div class='vertical-center'><img style='vertical-align:center; align:center' src=img/fixation3.jpg></div></div>","null","","","","","",""
"","","","offer","63f969ceb2a0b028aa612b33","bdp_rd","Sat Mar 25 2023 20:29:00 GMT-0400 (Eastern Daylight Time)","162103","html-keyboard-response","33","63477","0.0-5.0-2.9","","2016","","<div class='trialBorder'><div class='vertical-center'><img style='vertical-align:center; align:center' src=img/fixation3.jpg></div><div class='cl'><div class='vertical-center'>$34<br>for<br>sure</div></div><div class='cr'><div class='vertical-center'>$48<br>with a<br>50% chance</div></div><div class='respDivL'><div class='vertical-center'>(E)</div></div><div class='respDivR'><div class='vertical-center'>(I)</div></div></div>","E","$34","$48","0","34","48","SURE"
"","","","offerFB","63f969ceb2a0b028aa612b33","bdp_rd","Sat Mar 25 2023 20:29:00 GMT-0400 (Eastern Daylight Time)","162103","html-keyboard-response","34","63738","0.0-5.0-3.9","","null","","<div class='trialBorder'><div class='vertical-center'><img style='vertical-align:center; align:center' src=img/fixation3.jpg></div><div class='cl'><div class='vertical-center'><font style='color:orange'>$34<br>for<br>sure</font></div></div><div class='cr'><div class='vertical-center'>$48<br>with a<br>50% chance</div></div><div class='respDivL'><div class='vertical-center'><font style='color:orange'>(E)</font></div></div><div class='respDivR'><div class='vertical-center'>(I)</div></div></div>","null","$34","$48","0","34","48",""
"","","","FIX","63f969ceb2a0b028aa612b33","bdp_rd","Sat Mar 25 2023 20:29:00 GMT-0400 (Eastern Daylight Time)","162103","html-keyboard-response","35","64250","0.0-5.0-1.10","","null","","<div class='trialBorder'><div class='vertical-center'><img style='vertical-align:center; align:center' src=img/fixation3.jpg></div></div>","null","","","","","",""
"","","","offer","63f969ceb2a0b028aa612b33","bdp_rd","Sat Mar 25 2023 20:29:00 GMT-0400 (Eastern Daylight Time)","162103","html-keyboard-response","36","65971","0.0-5.0-2.10","","1718","","<div class='trialBorder'><div class='vertical-center'><img style='vertical-align:center; align:center' src=img/fixation3.jpg></div><div class='cl'><div class='vertical-center'>$33<br>for<br>sure</div></div><div class='cr'><div class='vertical-center'>$66<br>with a<br>50% chance</div></div><div class='respDivL'><div class='vertical-center'>(E)</div></div><div class='respDivR'><div class='vertical-center'>(I)</div></div></div>","I","$33","$66","0","33","66","RISKY"
"","","","offerFB","63f969ceb2a0b028aa612b33","bdp_rd","Sat Mar 25 2023 20:29:00 GMT-0400 (Eastern Daylight Time)","162103","html-keyboard-response","37","66226","0.0-5.0-3.10","","null","","<div class='trialBorder'><div class='vertical-center'><img style='vertical-align:center; align:center' src=img/fixation3.jpg></div><div class='cl'><div class='vertical-center'>$33<br>for<br>sure</div></div><div class='cr'><div class='vertical-center'><font style='color:orange'>$66<br>with a<br>50% chance</font></div></div><div class='respDivL'><div class='vertical-center'>(E)</div></div><div class='respDivR'><div class='vertical-center'><font style='color:orange'>(I)</font></div></div></div>","null","$33","$66","0","33","66",""
"","","","FIX","63f969ceb2a0b028aa612b33","bdp_rd","Sat Mar 25 2023 20:29:00 GMT-0400 (Eastern Daylight Time)","162103","html-keyboard-response","38","66735","0.0-5.0-1.11","","null","","<div class='trialBorder'><div class='vertical-center'><img style='vertical-align:center; align:center' src=img/fixation3.jpg></div></div>","null","","","","","",""
"","","","offer","63f969ceb2a0b028aa612b33","bdp_rd","Sat Mar 25 2023 20:29:00 GMT-0400 (Eastern Daylight Time)","162103","html-keyboard-response","39","67809","0.0-5.0-2.11","","1073","","<div class='trialBorder'><div class='vertical-center'><img style='vertical-align:center; align:center' src=img/fixation3.jpg></div><div class='cl'><div class='vertical-center'>$10<br>for<br>sure</div></div><div class='cr'><div class='vertical-center'>$40<br>with a<br>50% chance</div></div><div class='respDivL'><div class='vertical-center'>(E)</div></div><div class='respDivR'><div class='vertical-center'>(I)</div></div></div>","I","$10","$40","0","10","40","RISKY"
"","","","offerFB","63f969ceb2a0b028aa612b33","bdp_rd","Sat Mar 25 2023 20:29:00 GMT-0400 (Eastern Daylight Time)","162103","html-keyboard-response","40","68064","0.0-5.0-3.11","","null","","<div class='trialBorder'><div class='vertical-center'><img style='vertical-align:center; align:center' src=img/fixation3.jpg></div><div class='cl'><div class='vertical-center'>$10<br>for<br>sure</div></div><div class='cr'><div class='vertical-center'><font style='color:orange'>$40<br>with a<br>50% chance</font></div></div><div class='respDivL'><div class='vertical-center'>(E)</div></div><div class='respDivR'><div class='vertical-center'><font style='color:orange'>(I)</font></div></div></div>","null","$10","$40","0","10","40",""
"","","","FIX","63f969ceb2a0b028aa612b33","bdp_rd","Sat Mar 25 2023 20:29:00 GMT-0400 (Eastern Daylight Time)","162103","html-keyboard-response","41","68572","0.0-5.0-1.12","","null","","<div class='trialBorder'><div class='vertical-center'><img style='vertical-align:center; align:center' src=img/fixation3.jpg></div></div>","null","","","","","",""
"","","","offer","63f969ceb2a0b028aa612b33","bdp_rd","Sat Mar 25 2023 20:29:00 GMT-0400 (Eastern Daylight Time)","162103","html-keyboard-response","42","69774","0.0-5.0-2.12","","1200","","<div class='trialBorder'><div class='vertical-center'><img style='vertical-align:center; align:center' src=img/fixation3.jpg></div><div class='cl'><div class='vertical-center'>$95<br>with a<br>50% chance</div></div><div class='cr'><div class='vertical-center'>$40<br>for<br>sure</div></div><div class='respDivL'><div class='vertical-center'>(E)</div></div><div class='respDivR'><div class='vertical-center'>(I)</div></div></div>","E","$40","$95","1","40","95","RISKY"
"","","","offerFB","63f969ceb2a0b028aa612b33","bdp_rd","Sat Mar 25 2023 20:29:00 GMT-0400 (Eastern Daylight Time)","162103","html-keyboard-response","43","70032","0.0-5.0-3.12","","null","","<div class='trialBorder'><div class='vertical-center'><img style='vertical-align:center; align:center' src=img/fixation3.jpg></div><div class='cl'><div class='vertical-center'><font style='color:orange'>$95<br>with a<br>50% chance</font></div></div><div class='cr'><div class='vertical-center'>$40<br>for<br>sure</div></div><div class='respDivL'><div class='vertical-center'><font style='color:orange'>(E)</font></div></div><div class='respDivR'><div class='vertical-center'>(I)</div></div></div>","null","$40","$95","1","40","95",""
"","","","FIX","63f969ceb2a0b028aa612b33","bdp_rd","Sat Mar 25 2023 20:29:00 GMT-0400 (Eastern Daylight Time)","162103","html-keyboard-response","44","70544","0.0-5.0-1.13","","null","","<div class='trialBorder'><div class='vertical-center'><img style='vertical-align:center; align:center' src=img/fixation3.jpg></div></div>","null","","","","","",""
"","","","offer","63f969ceb2a0b028aa612b33","bdp_rd","Sat Mar 25 2023 20:29:00 GMT-0400 (Eastern Daylight Time)","162103","html-keyboard-response","45","72315","0.0-5.0-2.13","","1771","","<div class='trialBorder'><div class='vertical-center'><img style='vertical-align:center; align:center' src=img/fixation3.jpg></div><div class='cl'><div class='vertical-center'>$10<br>with a<br>50% chance</div></div><div class='cr'><div class='vertical-center'>$7<br>for<br>sure</div></div><div class='respDivL'><div class='vertical-center'>(E)</div></div><div class='respDivR'><div class='vertical-center'>(I)</div></div></div>","I","$7","$10","1","7","10","SURE"
"","","","offerFB","63f969ceb2a0b028aa612b33","bdp_rd","Sat Mar 25 2023 20:29:00 GMT-0400 (Eastern Daylight Time)","162103","html-keyboard-response","46","72572","0.0-5.0-3.13","","null","","<div class='trialBorder'><div class='vertical-center'><img style='vertical-align:center; align:center' src=img/fixation3.jpg></div><div class='cl'><div class='vertical-center'>$10<br>with a<br>50% chance</div></div><div class='cr'><div class='vertical-center'><font style='color:orange'>$7<br>for<br>sure</font></div></div><div class='respDivL'><div class='vertical-center'>(E)</div></div><div class='respDivR'><div class='vertical-center'><font style='color:orange'>(I)</font></div></div></div>","null","$7","$10","1","7","10",""
"","","","FIX","63f969ceb2a0b028aa612b33","bdp_rd","Sat Mar 25 2023 20:29:00 GMT-0400 (Eastern Daylight Time)","162103","html-keyboard-response","47","73075","0.0-5.0-1.14","","null","","<div class='trialBorder'><div class='vertical-center'><img style='vertical-align:center; align:center' src=img/fixation3.jpg></div></div>","null","","","","","",""
"","","","offer","63f969ceb2a0b028aa612b33","bdp_rd","Sat Mar 25 2023 20:29:00 GMT-0400 (Eastern Daylight Time)","162103","html-keyboard-response","48","74707","0.0-5.0-2.14","","1631","","<div class='trialBorder'><div class='vertical-center'><img style='vertical-align:center; align:center' src=img/fixation3.jpg></div><div class='cl'><div class='vertical-center'>$71<br>with a<br>50% chance</div></div><div class='cr'><div class='vertical-center'>$7<br>for<br>sure</div></div><div class='respDivL'><div class='vertical-center'>(E)</div></div><div class='respDivR'><div class='vertical-center'>(I)</div></div></div>","E","$7","$71","1","7","71","RISKY"
"","","","offerFB","63f969ceb2a0b028aa612b33","bdp_rd","Sat Mar 25 2023 20:29:00 GMT-0400 (Eastern Daylight Time)","162103","html-keyboard-response","49","74961","0.0-5.0-3.14","","null","","<div class='trialBorder'><div class='vertical-center'><img style='vertical-align:center; align:center' src=img/fixation3.jpg></div><div class='cl'><div class='vertical-center'><font style='color:orange'>$71<br>with a<br>50% chance</font></div></div><div class='cr'><div class='vertical-center'>$7<br>for<br>sure</div></div><div class='respDivL'><div class='vertical-center'><font style='color:orange'>(E)</font></div></div><div class='respDivR'><div class='vertical-center'>(I)</div></div></div>","null","$7","$71","1","7","71",""
"","","","FIX","63f969ceb2a0b028aa612b33","bdp_rd","Sat Mar 25 2023 20:29:00 GMT-0400 (Eastern Daylight Time)","162103","html-keyboard-response","50","75469","0.0-5.0-1.15","","null","","<div class='trialBorder'><div class='vertical-center'><img style='vertical-align:center; align:center' src=img/fixation3.jpg></div></div>","null","","","","","",""
"","","","offer","63f969ceb2a0b028aa612b33","bdp_rd","Sat Mar 25 2023 20:29:00 GMT-0400 (Eastern Daylight Time)","162103","html-keyboard-response","51","77326","0.0-5.0-2.15","","1856","","<div class='trialBorder'><div class='vertical-center'><img style='vertical-align:center; align:center' src=img/fixation3.jpg></div><div class='cl'><div class='vertical-center'>$14<br>with a<br>50% chance</div></div><div class='cr'><div class='vertical-center'>$4<br>for<br>sure</div></div><div class='respDivL'><div class='vertical-center'>(E)</div></div><div class='respDivR'><div class='vertical-center'>(I)</div></div></div>","E","$4","$14","1","4","14","RISKY"
"","","","offerFB","63f969ceb2a0b028aa612b33","bdp_rd","Sat Mar 25 2023 20:29:00 GMT-0400 (Eastern Daylight Time)","162103","html-keyboard-response","52","77586","0.0-5.0-3.15","","null","","<div class='trialBorder'><div class='vertical-center'><img style='vertical-align:center; align:center' src=img/fixation3.jpg></div><div class='cl'><div class='vertical-center'><font style='color:orange'>$14<br>with a<br>50% chance</font></div></div><div class='cr'><div class='vertical-center'>$4<br>for<br>sure</div></div><div class='respDivL'><div class='vertical-center'><font style='color:orange'>(E)</font></div></div><div class='respDivR'><div class='vertical-center'>(I)</div></div></div>","null","$4","$14","1","4","14",""
"","","","FIX","63f969ceb2a0b028aa612b33","bdp_rd","Sat Mar 25 2023 20:29:00 GMT-0400 (Eastern Daylight Time)","162103","html-keyboard-response","53","78099","0.0-5.0-1.16","","null","","<div class='trialBorder'><div class='vertical-center'><img style='vertical-align:center; align:center' src=img/fixation3.jpg></div></div>","null","","","","","",""
"","","","offer","63f969ceb2a0b028aa612b33","bdp_rd","Sat Mar 25 2023 20:29:00 GMT-0400 (Eastern Daylight Time)","162103","html-keyboard-response","54","79605","0.0-5.0-2.16","","1505","","<div class='trialBorder'><div class='vertical-center'><img style='vertical-align:center; align:center' src=img/fixation3.jpg></div><div class='cl'><div class='vertical-center'>$2<br>for<br>sure</div></div><div class='cr'><div class='vertical-center'>$64<br>with a<br>50% chance</div></div><div class='respDivL'><div class='vertical-center'>(E)</div></div><div class='respDivR'><div class='vertical-center'>(I)</div></div></div>","I","$2","$64","0","2","64","RISKY"
"","","","offerFB","63f969ceb2a0b028aa612b33","bdp_rd","Sat Mar 25 2023 20:29:00 GMT-0400 (Eastern Daylight Time)","162103","html-keyboard-response","55","79865","0.0-5.0-3.16","","null","","<div class='trialBorder'><div class='vertical-center'><img style='vertical-align:center; align:center' src=img/fixation3.jpg></div><div class='cl'><div class='vertical-center'>$2<br>for<br>sure</div></div><div class='cr'><div class='vertical-center'><font style='color:orange'>$64<br>with a<br>50% chance</font></div></div><div class='respDivL'><div class='vertical-center'>(E)</div></div><div class='respDivR'><div class='vertical-center'><font style='color:orange'>(I)</font></div></div></div>","null","$2","$64","0","2","64",""
"","","","FIX","63f969ceb2a0b028aa612b33","bdp_rd","Sat Mar 25 2023 20:29:00 GMT-0400 (Eastern Daylight Time)","162103","html-keyboard-response","56","80367","0.0-5.0-1.17","","null","","<div class='trialBorder'><div class='vertical-center'><img style='vertical-align:center; align:center' src=img/fixation3.jpg></div></div>","null","","","","","",""
"","","","offer","63f969ceb2a0b028aa612b33","bdp_rd","Sat Mar 25 2023 20:29:00 GMT-0400 (Eastern Daylight Time)","162103","html-keyboard-response","57","81337","0.0-5.0-2.17","","969","","<div class='trialBorder'><div class='vertical-center'><img style='vertical-align:center; align:center' src=img/fixation3.jpg></div><div class='cl'><div class='vertical-center'>$8<br>for<br>sure</div></div><div class='cr'><div class='vertical-center'>$45<br>with a<br>50% chance</div></div><div class='respDivL'><div class='vertical-center'>(E)</div></div><div class='respDivR'><div class='vertical-center'>(I)</div></div></div>","I","$8","$45","0","8","45","RISKY"
"","","","offerFB","63f969ceb2a0b028aa612b33","bdp_rd","Sat Mar 25 2023 20:29:00 GMT-0400 (Eastern Daylight Time)","162103","html-keyboard-response","58","81595","0.0-5.0-3.17","","null","","<div class='trialBorder'><div class='vertical-center'><img style='vertical-align:center; align:center' src=img/fixation3.jpg></div><div class='cl'><div class='vertical-center'>$8<br>for<br>sure</div></div><div class='cr'><div class='vertical-center'><font style='color:orange'>$45<br>with a<br>50% chance</font></div></div><div class='respDivL'><div class='vertical-center'>(E)</div></div><div class='respDivR'><div class='vertical-center'><font style='color:orange'>(I)</font></div></div></div>","null","$8","$45","0","8","45",""
"","","","FIX","63f969ceb2a0b028aa612b33","bdp_rd","Sat Mar 25 2023 20:29:00 GMT-0400 (Eastern Daylight Time)","162103","html-keyboard-response","59","82097","0.0-5.0-1.18","","null","","<div class='trialBorder'><div class='vertical-center'><img style='vertical-align:center; align:center' src=img/fixation3.jpg></div></div>","null","","","","","",""
"","","","offer","63f969ceb2a0b028aa612b33","bdp_rd","Sat Mar 25 2023 20:29:00 GMT-0400 (Eastern Daylight Time)","162103","html-keyboard-response","60","83810","0.0-5.0-2.18","","1712","","<div class='trialBorder'><div class='vertical-center'><img style='vertical-align:center; align:center' src=img/fixation3.jpg></div><div class='cl'><div class='vertical-center'>$24<br>with a<br>50% chance</div></div><div class='cr'><div class='vertical-center'>$13<br>for<br>sure</div></div><div class='respDivL'><div class='vertical-center'>(E)</div></div><div class='respDivR'><div class='vertical-center'>(I)</div></div></div>","I","$13","$24","1","13","24","SURE"
"","","","offerFB","63f969ceb2a0b028aa612b33","bdp_rd","Sat Mar 25 2023 20:29:00 GMT-0400 (Eastern Daylight Time)","162103","html-keyboard-response","61","84074","0.0-5.0-3.18","","null","","<div class='trialBorder'><div class='vertical-center'><img style='vertical-align:center; align:center' src=img/fixation3.jpg></div><div class='cl'><div class='vertical-center'>$24<br>with a<br>50% chance</div></div><div class='cr'><div class='vertical-center'><font style='color:orange'>$13<br>for<br>sure</font></div></div><div class='respDivL'><div class='vertical-center'>(E)</div></div><div class='respDivR'><div class='vertical-center'><font style='color:orange'>(I)</font></div></div></div>","null","$13","$24","1","13","24",""
"","","","FIX","63f969ceb2a0b028aa612b33","bdp_rd","Sat Mar 25 2023 20:29:00 GMT-0400 (Eastern Daylight Time)","162103","html-keyboard-response","62","84577","0.0-5.0-1.19","","null","","<div class='trialBorder'><div class='vertical-center'><img style='vertical-align:center; align:center' src=img/fixation3.jpg></div></div>","null","","","","","",""
"","","","offer","63f969ceb2a0b028aa612b33","bdp_rd","Sat Mar 25 2023 20:29:00 GMT-0400 (Eastern Daylight Time)","162103","html-keyboard-response","63","85383","0.0-5.0-2.19","","804","","<div class='trialBorder'><div class='vertical-center'><img style='vertical-align:center; align:center' src=img/fixation3.jpg></div><div class='cl'><div class='vertical-center'>$50<br>with a<br>50% chance</div></div><div class='cr'><div class='vertical-center'>$5<br>for<br>sure</div></div><div class='respDivL'><div class='vertical-center'>(E)</div></div><div class='respDivR'><div class='vertical-center'>(I)</div></div></div>","E","$5","$50","1","5","50","RISKY"
"","","","offerFB","63f969ceb2a0b028aa612b33","bdp_rd","Sat Mar 25 2023 20:29:00 GMT-0400 (Eastern Daylight Time)","162103","html-keyboard-response","64","85637","0.0-5.0-3.19","","null","","<div class='trialBorder'><div class='vertical-center'><img style='vertical-align:center; align:center' src=img/fixation3.jpg></div><div class='cl'><div class='vertical-center'><font style='color:orange'>$50<br>with a<br>50% chance</font></div></div><div class='cr'><div class='vertical-center'>$5<br>for<br>sure</div></div><div class='respDivL'><div class='vertical-center'><font style='color:orange'>(E)</font></div></div><div class='respDivR'><div class='vertical-center'>(I)</div></div></div>","null","$5","$50","1","5","50",""
"","","","FIX","63f969ceb2a0b028aa612b33","bdp_rd","Sat Mar 25 2023 20:29:00 GMT-0400 (Eastern Daylight Time)","162103","html-keyboard-response","65","86140","0.0-5.0-1.20","","null","","<div class='trialBorder'><div class='vertical-center'><img style='vertical-align:center; align:center' src=img/fixation3.jpg></div></div>","null","","","","","",""
"","","","offer","63f969ceb2a0b028aa612b33","bdp_rd","Sat Mar 25 2023 20:29:00 GMT-0400 (Eastern Daylight Time)","162103","html-keyboard-response","66","87299","0.0-5.0-2.20","","1158","","<div class='trialBorder'><div class='vertical-center'><img style='vertical-align:center; align:center' src=img/fixation3.jpg></div><div class='cl'><div class='vertical-center'>$27<br>for<br>sure</div></div><div class='cr'><div class='vertical-center'>$47<br>with a<br>50% chance</div></div><div class='respDivL'><div class='vertical-center'>(E)</div></div><div class='respDivR'><div class='vertical-center'>(I)</div></div></div>","I","$27","$47","0","27","47","RISKY"
"","","","offerFB","63f969ceb2a0b028aa612b33","bdp_rd","Sat Mar 25 2023 20:29:00 GMT-0400 (Eastern Daylight Time)","162103","html-keyboard-response","67","87561","0.0-5.0-3.20","","null","","<div class='trialBorder'><div class='vertical-center'><img style='vertical-align:center; align:center' src=img/fixation3.jpg></div><div class='cl'><div class='vertical-center'>$27<br>for<br>sure</div></div><div class='cr'><div class='vertical-center'><font style='color:orange'>$47<br>with a<br>50% chance</font></div></div><div class='respDivL'><div class='vertical-center'>(E)</div></div><div class='respDivR'><div class='vertical-center'><font style='color:orange'>(I)</font></div></div></div>","null","$27","$47","0","27","47",""
"","","","FIX","63f969ceb2a0b028aa612b33","bdp_rd","Sat Mar 25 2023 20:29:00 GMT-0400 (Eastern Daylight Time)","162103","html-keyboard-response","68","88073","0.0-5.0-1.21","","null","","<div class='trialBorder'><div class='vertical-center'><img style='vertical-align:center; align:center' src=img/fixation3.jpg></div></div>","null","","","","","",""
"","","","offer","63f969ceb2a0b028aa612b33","bdp_rd","Sat Mar 25 2023 20:29:00 GMT-0400 (Eastern Daylight Time)","162103","html-keyboard-response","69","90519","0.0-5.0-2.21","","2445","","<div class='trialBorder'><div class='vertical-center'><img style='vertical-align:center; align:center' src=img/fixation3.jpg></div><div class='cl'><div class='vertical-center'>$29<br>for<br>sure</div></div><div class='cr'><div class='vertical-center'>$46<br>with a<br>50% chance</div></div><div class='respDivL'><div class='vertical-center'>(E)</div></div><div class='respDivR'><div class='vertical-center'>(I)</div></div></div>","I","$29","$46","0","29","46","RISKY"
"","","","offerFB","63f969ceb2a0b028aa612b33","bdp_rd","Sat Mar 25 2023 20:29:00 GMT-0400 (Eastern Daylight Time)","162103","html-keyboard-response","70","90772","0.0-5.0-3.21","","null","","<div class='trialBorder'><div class='vertical-center'><img style='vertical-align:center; align:center' src=img/fixation3.jpg></div><div class='cl'><div class='vertical-center'>$29<br>for<br>sure</div></div><div class='cr'><div class='vertical-center'><font style='color:orange'>$46<br>with a<br>50% chance</font></div></div><div class='respDivL'><div class='vertical-center'>(E)</div></div><div class='respDivR'><div class='vertical-center'><font style='color:orange'>(I)</font></div></div></div>","null","$29","$46","0","29","46",""
"","","","FIX","63f969ceb2a0b028aa612b33","bdp_rd","Sat Mar 25 2023 20:29:00 GMT-0400 (Eastern Daylight Time)","162103","html-keyboard-response","71","91274","0.0-5.0-1.22","","null","","<div class='trialBorder'><div class='vertical-center'><img style='vertical-align:center; align:center' src=img/fixation3.jpg></div></div>","null","","","","","",""
"","","","offer","63f969ceb2a0b028aa612b33","bdp_rd","Sat Mar 25 2023 20:29:00 GMT-0400 (Eastern Daylight Time)","162103","html-keyboard-response","72","92017","0.0-5.0-2.22","","742","","<div class='trialBorder'><div class='vertical-center'><img style='vertical-align:center; align:center' src=img/fixation3.jpg></div><div class='cl'><div class='vertical-center'>$6<br>for<br>sure</div></div><div class='cr'><div class='vertical-center'>$13<br>with a<br>50% chance</div></div><div class='respDivL'><div class='vertical-center'>(E)</div></div><div class='respDivR'><div class='vertical-center'>(I)</div></div></div>","I","$6","$13","0","6","13","RISKY"
"","","","offerFB","63f969ceb2a0b028aa612b33","bdp_rd","Sat Mar 25 2023 20:29:00 GMT-0400 (Eastern Daylight Time)","162103","html-keyboard-response","73","92281","0.0-5.0-3.22","","null","","<div class='trialBorder'><div class='vertical-center'><img style='vertical-align:center; align:center' src=img/fixation3.jpg></div><div class='cl'><div class='vertical-center'>$6<br>for<br>sure</div></div><div class='cr'><div class='vertical-center'><font style='color:orange'>$13<br>with a<br>50% chance</font></div></div><div class='respDivL'><div class='vertical-center'>(E)</div></div><div class='respDivR'><div class='vertical-center'><font style='color:orange'>(I)</font></div></div></div>","null","$6","$13","0","6","13",""
"","","","FIX","63f969ceb2a0b028aa612b33","bdp_rd","Sat Mar 25 2023 20:29:00 GMT-0400 (Eastern Daylight Time)","162103","html-keyboard-response","74","92783","0.0-5.0-1.23","","null","","<div class='trialBorder'><div class='vertical-center'><img style='vertical-align:center; align:center' src=img/fixation3.jpg></div></div>","null","","","","","",""
"","","","offer","63f969ceb2a0b028aa612b33","bdp_rd","Sat Mar 25 2023 20:29:00 GMT-0400 (Eastern Daylight Time)","162103","html-keyboard-response","75","94170","0.0-5.0-2.23","","1386","","<div class='trialBorder'><div class='vertical-center'><img style='vertical-align:center; align:center' src=img/fixation3.jpg></div><div class='cl'><div class='vertical-center'>$86<br>with a<br>50% chance</div></div><div class='cr'><div class='vertical-center'>$45<br>for<br>sure</div></div><div class='respDivL'><div class='vertical-center'>(E)</div></div><div class='respDivR'><div class='vertical-center'>(I)</div></div></div>","E","$45","$86","1","45","86","RISKY"
"","","","offerFB","63f969ceb2a0b028aa612b33","bdp_rd","Sat Mar 25 2023 20:29:00 GMT-0400 (Eastern Daylight Time)","162103","html-keyboard-response","76","94428","0.0-5.0-3.23","","null","","<div class='trialBorder'><div class='vertical-center'><img style='vertical-align:center; align:center' src=img/fixation3.jpg></div><div class='cl'><div class='vertical-center'><font style='color:orange'>$86<br>with a<br>50% chance</font></div></div><div class='cr'><div class='vertical-center'>$45<br>for<br>sure</div></div><div class='respDivL'><div class='vertical-center'><font style='color:orange'>(E)</font></div></div><div class='respDivR'><div class='vertical-center'>(I)</div></div></div>","null","$45","$86","1","45","86",""
"","","","FIX","63f969ceb2a0b028aa612b33","bdp_rd","Sat Mar 25 2023 20:29:00 GMT-0400 (Eastern Daylight Time)","162103","html-keyboard-response","77","94938","0.0-5.0-1.24","","null","","<div class='trialBorder'><div class='vertical-center'><img style='vertical-align:center; align:center' src=img/fixation3.jpg></div></div>","null","","","","","",""
"","","","offer","63f969ceb2a0b028aa612b33","bdp_rd","Sat Mar 25 2023 20:29:00 GMT-0400 (Eastern Daylight Time)","162103","html-keyboard-response","78","96743","0.0-5.0-2.24","","1804","","<div class='trialBorder'><div class='vertical-center'><img style='vertical-align:center; align:center' src=img/fixation3.jpg></div><div class='cl'><div class='vertical-center'>$65<br>with a<br>50% chance</div></div><div class='cr'><div class='vertical-center'>$46<br>for<br>sure</div></div><div class='respDivL'><div class='vertical-center'>(E)</div></div><div class='respDivR'><div class='vertical-center'>(I)</div></div></div>","I","$46","$65","1","46","65","SURE"
"","","","offerFB","63f969ceb2a0b028aa612b33","bdp_rd","Sat Mar 25 2023 20:29:00 GMT-0400 (Eastern Daylight Time)","162103","html-keyboard-response","79","96997","0.0-5.0-3.24","","null","","<div class='trialBorder'><div class='vertical-center'><img style='vertical-align:center; align:center' src=img/fixation3.jpg></div><div class='cl'><div class='vertical-center'>$65<br>with a<br>50% chance</div></div><div class='cr'><div class='vertical-center'><font style='color:orange'>$46<br>for<br>sure</font></div></div><div class='respDivL'><div class='vertical-center'>(E)</div></div><div class='respDivR'><div class='vertical-center'><font style='color:orange'>(I)</font></div></div></div>","null","$46","$65","1","46","65",""
"","","","FIX","63f969ceb2a0b028aa612b33","bdp_rd","Sat Mar 25 2023 20:29:00 GMT-0400 (Eastern Daylight Time)","162103","html-keyboard-response","80","97498","0.0-5.0-1.25","","null","","<div class='trialBorder'><div class='vertical-center'><img style='vertical-align:center; align:center' src=img/fixation3.jpg></div></div>","null","","","","","",""
"","","","offer","63f969ceb2a0b028aa612b33","bdp_rd","Sat Mar 25 2023 20:29:00 GMT-0400 (Eastern Daylight Time)","162103","html-keyboard-response","81","98986","0.0-5.0-2.25","","1485","","<div class='trialBorder'><div class='vertical-center'><img style='vertical-align:center; align:center' src=img/fixation3.jpg></div><div class='cl'><div class='vertical-center'>$23<br>with a<br>50% chance</div></div><div class='cr'><div class='vertical-center'>$8<br>for<br>sure</div></div><div class='respDivL'><div class='vertical-center'>(E)</div></div><div class='respDivR'><div class='vertical-center'>(I)</div></div></div>","E","$8","$23","1","8","23","RISKY"
"","","","offerFB","63f969ceb2a0b028aa612b33","bdp_rd","Sat Mar 25 2023 20:29:00 GMT-0400 (Eastern Daylight Time)","162103","html-keyboard-response","82","99249","0.0-5.0-3.25","","null","","<div class='trialBorder'><div class='vertical-center'><img style='vertical-align:center; align:center' src=img/fixation3.jpg></div><div class='cl'><div class='vertical-center'><font style='color:orange'>$23<br>with a<br>50% chance</font></div></div><div class='cr'><div class='vertical-center'>$8<br>for<br>sure</div></div><div class='respDivL'><div class='vertical-center'><font style='color:orange'>(E)</font></div></div><div class='respDivR'><div class='vertical-center'>(I)</div></div></div>","null","$8","$23","1","8","23",""
"","","","FIX","63f969ceb2a0b028aa612b33","bdp_rd","Sat Mar 25 2023 20:29:00 GMT-0400 (Eastern Daylight Time)","162103","html-keyboard-response","83","99751","0.0-5.0-1.26","","null","","<div class='trialBorder'><div class='vertical-center'><img style='vertical-align:center; align:center' src=img/fixation3.jpg></div></div>","null","","","","","",""
"","","","offer","63f969ceb2a0b028aa612b33","bdp_rd","Sat Mar 25 2023 20:29:00 GMT-0400 (Eastern Daylight Time)","162103","html-keyboard-response","84","100619","0.0-5.0-2.26","","867","","<div class='trialBorder'><div class='vertical-center'><img style='vertical-align:center; align:center' src=img/fixation3.jpg></div><div class='cl'><div class='vertical-center'>$4<br>for<br>sure</div></div><div class='cr'><div class='vertical-center'>$11<br>with a<br>50% chance</div></div><div class='respDivL'><div class='vertical-center'>(E)</div></div><div class='respDivR'><div class='vertical-center'>(I)</div></div></div>","I","$4","$11","0","4","11","RISKY"
"","","","offerFB","63f969ceb2a0b028aa612b33","bdp_rd","Sat Mar 25 2023 20:29:00 GMT-0400 (Eastern Daylight Time)","162103","html-keyboard-response","85","100883","0.0-5.0-3.26","","null","","<div class='trialBorder'><div class='vertical-center'><img style='vertical-align:center; align:center' src=img/fixation3.jpg></div><div class='cl'><div class='vertical-center'>$4<br>for<br>sure</div></div><div class='cr'><div class='vertical-center'><font style='color:orange'>$11<br>with a<br>50% chance</font></div></div><div class='respDivL'><div class='vertical-center'>(E)</div></div><div class='respDivR'><div class='vertical-center'><font style='color:orange'>(I)</font></div></div></div>","null","$4","$11","0","4","11",""
"","","","FIX","63f969ceb2a0b028aa612b33","bdp_rd","Sat Mar 25 2023 20:29:00 GMT-0400 (Eastern Daylight Time)","162103","html-keyboard-response","86","101392","0.0-5.0-1.27","","null","","<div class='trialBorder'><div class='vertical-center'><img style='vertical-align:center; align:center' src=img/fixation3.jpg></div></div>","null","","","","","",""
"","","","offer","63f969ceb2a0b028aa612b33","bdp_rd","Sat Mar 25 2023 20:29:00 GMT-0400 (Eastern Daylight Time)","162103","html-keyboard-response","87","102624","0.0-5.0-2.27","","1231","","<div class='trialBorder'><div class='vertical-center'><img style='vertical-align:center; align:center' src=img/fixation3.jpg></div><div class='cl'><div class='vertical-center'>$37<br>for<br>sure</div></div><div class='cr'><div class='vertical-center'>$44<br>with a<br>50% chance</div></div><div class='respDivL'><div class='vertical-center'>(E)</div></div><div class='respDivR'><div class='vertical-center'>(I)</div></div></div>","I","$37","$44","0","37","44","RISKY"
"","","","offerFB","63f969ceb2a0b028aa612b33","bdp_rd","Sat Mar 25 2023 20:29:00 GMT-0400 (Eastern Daylight Time)","162103","html-keyboard-response","88","102884","0.0-5.0-3.27","","null","","<div class='trialBorder'><div class='vertical-center'><img style='vertical-align:center; align:center' src=img/fixation3.jpg></div><div class='cl'><div class='vertical-center'>$37<br>for<br>sure</div></div><div class='cr'><div class='vertical-center'><font style='color:orange'>$44<br>with a<br>50% chance</font></div></div><div class='respDivL'><div class='vertical-center'>(E)</div></div><div class='respDivR'><div class='vertical-center'><font style='color:orange'>(I)</font></div></div></div>","null","$37","$44","0","37","44",""
"","","","FIX","63f969ceb2a0b028aa612b33","bdp_rd","Sat Mar 25 2023 20:29:00 GMT-0400 (Eastern Daylight Time)","162103","html-keyboard-response","89","103394","0.0-5.0-1.28","","null","","<div class='trialBorder'><div class='vertical-center'><img style='vertical-align:center; align:center' src=img/fixation3.jpg></div></div>","null","","","","","",""
"","","","offer","63f969ceb2a0b028aa612b33","bdp_rd","Sat Mar 25 2023 20:29:00 GMT-0400 (Eastern Daylight Time)","162103","html-keyboard-response","90","104347","0.0-5.0-2.28","","953","","<div class='trialBorder'><div class='vertical-center'><img style='vertical-align:center; align:center' src=img/fixation3.jpg></div><div class='cl'><div class='vertical-center'>$17<br>for<br>sure</div></div><div class='cr'><div class='vertical-center'>$43<br>with a<br>50% chance</div></div><div class='respDivL'><div class='vertical-center'>(E)</div></div><div class='respDivR'><div class='vertical-center'>(I)</div></div></div>","I","$17","$43","0","17","43","RISKY"
"","","","offerFB","63f969ceb2a0b028aa612b33","bdp_rd","Sat Mar 25 2023 20:29:00 GMT-0400 (Eastern Daylight Time)","162103","html-keyboard-response","91","104604","0.0-5.0-3.28","","null","","<div class='trialBorder'><div class='vertical-center'><img style='vertical-align:center; align:center' src=img/fixation3.jpg></div><div class='cl'><div class='vertical-center'>$17<br>for<br>sure</div></div><div class='cr'><div class='vertical-center'><font style='color:orange'>$43<br>with a<br>50% chance</font></div></div><div class='respDivL'><div class='vertical-center'>(E)</div></div><div class='respDivR'><div class='vertical-center'><font style='color:orange'>(I)</font></div></div></div>","null","$17","$43","0","17","43",""
"","","","FIX","63f969ceb2a0b028aa612b33","bdp_rd","Sat Mar 25 2023 20:29:00 GMT-0400 (Eastern Daylight Time)","162103","html-keyboard-response","92","105114","0.0-5.0-1.29","","null","","<div class='trialBorder'><div class='vertical-center'><img style='vertical-align:center; align:center' src=img/fixation3.jpg></div></div>","null","","","","","",""
"","","","offer","63f969ceb2a0b028aa612b33","bdp_rd","Sat Mar 25 2023 20:29:00 GMT-0400 (Eastern Daylight Time)","162103","html-keyboard-response","93","106002","0.0-5.0-2.29","","888","","<div class='trialBorder'><div class='vertical-center'><img style='vertical-align:center; align:center' src=img/fixation3.jpg></div><div class='cl'><div class='vertical-center'>$12<br>for<br>sure</div></div><div class='cr'><div class='vertical-center'>$35<br>with a<br>50% chance</div></div><div class='respDivL'><div class='vertical-center'>(E)</div></div><div class='respDivR'><div class='vertical-center'>(I)</div></div></div>","I","$12","$35","0","12","35","RISKY"
"","","","offerFB","63f969ceb2a0b028aa612b33","bdp_rd","Sat Mar 25 2023 20:29:00 GMT-0400 (Eastern Daylight Time)","162103","html-keyboard-response","94","106260","0.0-5.0-3.29","","null","","<div class='trialBorder'><div class='vertical-center'><img style='vertical-align:center; align:center' src=img/fixation3.jpg></div><div class='cl'><div class='vertical-center'>$12<br>for<br>sure</div></div><div class='cr'><div class='vertical-center'><font style='color:orange'>$35<br>with a<br>50% chance</font></div></div><div class='respDivL'><div class='vertical-center'>(E)</div></div><div class='respDivR'><div class='vertical-center'><font style='color:orange'>(I)</font></div></div></div>","null","$12","$35","0","12","35",""
"","","","FIX","63f969ceb2a0b028aa612b33","bdp_rd","Sat Mar 25 2023 20:29:00 GMT-0400 (Eastern Daylight Time)","162103","html-keyboard-response","95","106763","0.0-5.0-1.30","","null","","<div class='trialBorder'><div class='vertical-center'><img style='vertical-align:center; align:center' src=img/fixation3.jpg></div></div>","null","","","","","",""
"","","","offer","63f969ceb2a0b028aa612b33","bdp_rd","Sat Mar 25 2023 20:29:00 GMT-0400 (Eastern Daylight Time)","162103","html-keyboard-response","96","107873","0.0-5.0-2.30","","1109","","<div class='trialBorder'><div class='vertical-center'><img style='vertical-align:center; align:center' src=img/fixation3.jpg></div><div class='cl'><div class='vertical-center'>$92<br>with a<br>50% chance</div></div><div class='cr'><div class='vertical-center'>$26<br>for<br>sure</div></div><div class='respDivL'><div class='vertical-center'>(E)</div></div><div class='respDivR'><div class='vertical-center'>(I)</div></div></div>","E","$26","$92","1","26","92","RISKY"
"","","","offerFB","63f969ceb2a0b028aa612b33","bdp_rd","Sat Mar 25 2023 20:29:00 GMT-0400 (Eastern Daylight Time)","162103","html-keyboard-response","97","108138","0.0-5.0-3.30","","null","","<div class='trialBorder'><div class='vertical-center'><img style='vertical-align:center; align:center' src=img/fixation3.jpg></div><div class='cl'><div class='vertical-center'><font style='color:orange'>$92<br>with a<br>50% chance</font></div></div><div class='cr'><div class='vertical-center'>$26<br>for<br>sure</div></div><div class='respDivL'><div class='vertical-center'><font style='color:orange'>(E)</font></div></div><div class='respDivR'><div class='vertical-center'>(I)</div></div></div>","null","$26","$92","1","26","92",""
"","","","FIX","63f969ceb2a0b028aa612b33","bdp_rd","Sat Mar 25 2023 20:29:00 GMT-0400 (Eastern Daylight Time)","162103","html-keyboard-response","98","108639","0.0-5.0-1.31","","null","","<div class='trialBorder'><div class='vertical-center'><img style='vertical-align:center; align:center' src=img/fixation3.jpg></div></div>","null","","","","","",""
"","","","offer","63f969ceb2a0b028aa612b33","bdp_rd","Sat Mar 25 2023 20:29:00 GMT-0400 (Eastern Daylight Time)","162103","html-keyboard-response","99","109899","0.0-5.0-2.31","","1260","","<div class='trialBorder'><div class='vertical-center'><img style='vertical-align:center; align:center' src=img/fixation3.jpg></div><div class='cl'><div class='vertical-center'>$42<br>with a<br>50% chance</div></div><div class='cr'><div class='vertical-center'>$22<br>for<br>sure</div></div><div class='respDivL'><div class='vertical-center'>(E)</div></div><div class='respDivR'><div class='vertical-center'>(I)</div></div></div>","I","$22","$42","1","22","42","SURE"
"","","","offerFB","63f969ceb2a0b028aa612b33","bdp_rd","Sat Mar 25 2023 20:29:00 GMT-0400 (Eastern Daylight Time)","162103","html-keyboard-response","100","110153","0.0-5.0-3.31","","null","","<div class='trialBorder'><div class='vertical-center'><img style='vertical-align:center; align:center' src=img/fixation3.jpg></div><div class='cl'><div class='vertical-center'>$42<br>with a<br>50% chance</div></div><div class='cr'><div class='vertical-center'><font style='color:orange'>$22<br>for<br>sure</font></div></div><div class='respDivL'><div class='vertical-center'>(E)</div></div><div class='respDivR'><div class='vertical-center'><font style='color:orange'>(I)</font></div></div></div>","null","$22","$42","1","22","42",""
"","","","FIX","63f969ceb2a0b028aa612b33","bdp_rd","Sat Mar 25 2023 20:29:00 GMT-0400 (Eastern Daylight Time)","162103","html-keyboard-response","101","110656","0.0-5.0-1.32","","null","","<div class='trialBorder'><div class='vertical-center'><img style='vertical-align:center; align:center' src=img/fixation3.jpg></div></div>","null","","","","","",""
"","","","offer","63f969ceb2a0b028aa612b33","bdp_rd","Sat Mar 25 2023 20:29:00 GMT-0400 (Eastern Daylight Time)","162103","html-keyboard-response","102","112505","0.0-5.0-2.32","","1848","","<div class='trialBorder'><div class='vertical-center'><img style='vertical-align:center; align:center' src=img/fixation3.jpg></div><div class='cl'><div class='vertical-center'>$21<br>for<br>sure</div></div><div class='cr'><div class='vertical-center'>$25<br>with a<br>50% chance</div></div><div class='respDivL'><div class='vertical-center'>(E)</div></div><div class='respDivR'><div class='vertical-center'>(I)</div></div></div>","E","$21","$25","0","21","25","SURE"
"","","","offerFB","63f969ceb2a0b028aa612b33","bdp_rd","Sat Mar 25 2023 20:29:00 GMT-0400 (Eastern Daylight Time)","162103","html-keyboard-response","103","112762","0.0-5.0-3.32","","null","","<div class='trialBorder'><div class='vertical-center'><img style='vertical-align:center; align:center' src=img/fixation3.jpg></div><div class='cl'><div class='vertical-center'><font style='color:orange'>$21<br>for<br>sure</font></div></div><div class='cr'><div class='vertical-center'>$25<br>with a<br>50% chance</div></div><div class='respDivL'><div class='vertical-center'><font style='color:orange'>(E)</font></div></div><div class='respDivR'><div class='vertical-center'>(I)</div></div></div>","null","$21","$25","0","21","25",""
"","","","FIX","63f969ceb2a0b028aa612b33","bdp_rd","Sat Mar 25 2023 20:29:00 GMT-0400 (Eastern Daylight Time)","162103","html-keyboard-response","104","113275","0.0-5.0-1.33","","null","","<div class='trialBorder'><div class='vertical-center'><img style='vertical-align:center; align:center' src=img/fixation3.jpg></div></div>","null","","","","","",""
"","","","offer","63f969ceb2a0b028aa612b33","bdp_rd","Sat Mar 25 2023 20:29:00 GMT-0400 (Eastern Daylight Time)","162103","html-keyboard-response","105","114579","0.0-5.0-2.33","","1303","","<div class='trialBorder'><div class='vertical-center'><img style='vertical-align:center; align:center' src=img/fixation3.jpg></div><div class='cl'><div class='vertical-center'>$36<br>with a<br>50% chance</div></div><div class='cr'><div class='vertical-center'>$18<br>for<br>sure</div></div><div class='respDivL'><div class='vertical-center'>(E)</div></div><div class='respDivR'><div class='vertical-center'>(I)</div></div></div>","I","$18","$36","1","18","36","SURE"
"","","","offerFB","63f969ceb2a0b028aa612b33","bdp_rd","Sat Mar 25 2023 20:29:00 GMT-0400 (Eastern Daylight Time)","162103","html-keyboard-response","106","114830","0.0-5.0-3.33","","null","","<div class='trialBorder'><div class='vertical-center'><img style='vertical-align:center; align:center' src=img/fixation3.jpg></div><div class='cl'><div class='vertical-center'>$36<br>with a<br>50% chance</div></div><div class='cr'><div class='vertical-center'><font style='color:orange'>$18<br>for<br>sure</font></div></div><div class='respDivL'><div class='vertical-center'>(E)</div></div><div class='respDivR'><div class='vertical-center'><font style='color:orange'>(I)</font></div></div></div>","null","$18","$36","1","18","36",""
"","","","FIX","63f969ceb2a0b028aa612b33","bdp_rd","Sat Mar 25 2023 20:29:00 GMT-0400 (Eastern Daylight Time)","162103","html-keyboard-response","107","115337","0.0-5.0-1.34","","null","","<div class='trialBorder'><div class='vertical-center'><img style='vertical-align:center; align:center' src=img/fixation3.jpg></div></div>","null","","","","","",""
"","","","offer","63f969ceb2a0b028aa612b33","bdp_rd","Sat Mar 25 2023 20:29:00 GMT-0400 (Eastern Daylight Time)","162103","html-keyboard-response","108","116980","0.0-5.0-2.34","","1641","","<div class='trialBorder'><div class='vertical-center'><img style='vertical-align:center; align:center' src=img/fixation3.jpg></div><div class='cl'><div class='vertical-center'>$98<br>with a<br>50% chance</div></div><div class='cr'><div class='vertical-center'>$53<br>for<br>sure</div></div><div class='respDivL'><div class='vertical-center'>(E)</div></div><div class='respDivR'><div class='vertical-center'>(I)</div></div></div>","E","$53","$98","1","53","98","RISKY"
"","","","offerFB","63f969ceb2a0b028aa612b33","bdp_rd","Sat Mar 25 2023 20:29:00 GMT-0400 (Eastern Daylight Time)","162103","html-keyboard-response","109","117237","0.0-5.0-3.34","","null","","<div class='trialBorder'><div class='vertical-center'><img style='vertical-align:center; align:center' src=img/fixation3.jpg></div><div class='cl'><div class='vertical-center'><font style='color:orange'>$98<br>with a<br>50% chance</font></div></div><div class='cr'><div class='vertical-center'>$53<br>for<br>sure</div></div><div class='respDivL'><div class='vertical-center'><font style='color:orange'>(E)</font></div></div><div class='respDivR'><div class='vertical-center'>(I)</div></div></div>","null","$53","$98","1","53","98",""
"","","","FIX","63f969ceb2a0b028aa612b33","bdp_rd","Sat Mar 25 2023 20:29:00 GMT-0400 (Eastern Daylight Time)","162103","html-keyboard-response","110","117741","0.0-5.0-1.35","","null","","<div class='trialBorder'><div class='vertical-center'><img style='vertical-align:center; align:center' src=img/fixation3.jpg></div></div>","null","","","","","",""
"","","","offer","63f969ceb2a0b028aa612b33","bdp_rd","Sat Mar 25 2023 20:29:00 GMT-0400 (Eastern Daylight Time)","162103","html-keyboard-response","111","118943","0.0-5.0-2.35","","1201","","<div class='trialBorder'><div class='vertical-center'><img style='vertical-align:center; align:center' src=img/fixation3.jpg></div><div class='cl'><div class='vertical-center'>$14<br>for<br>sure</div></div><div class='cr'><div class='vertical-center'>$29<br>with a<br>50% chance</div></div><div class='respDivL'><div class='vertical-center'>(E)</div></div><div class='respDivR'><div class='vertical-center'>(I)</div></div></div>","E","$14","$29","0","14","29","SURE"
"","","","offerFB","63f969ceb2a0b028aa612b33","bdp_rd","Sat Mar 25 2023 20:29:00 GMT-0400 (Eastern Daylight Time)","162103","html-keyboard-response","112","119201","0.0-5.0-3.35","","null","","<div class='trialBorder'><div class='vertical-center'><img style='vertical-align:center; align:center' src=img/fixation3.jpg></div><div class='cl'><div class='vertical-center'><font style='color:orange'>$14<br>for<br>sure</font></div></div><div class='cr'><div class='vertical-center'>$29<br>with a<br>50% chance</div></div><div class='respDivL'><div class='vertical-center'><font style='color:orange'>(E)</font></div></div><div class='respDivR'><div class='vertical-center'>(I)</div></div></div>","null","$14","$29","0","14","29",""
"","","","FIX","63f969ceb2a0b028aa612b33","bdp_rd","Sat Mar 25 2023 20:29:00 GMT-0400 (Eastern Daylight Time)","162103","html-keyboard-response","113","119704","0.0-5.0-1.36","","null","","<div class='trialBorder'><div class='vertical-center'><img style='vertical-align:center; align:center' src=img/fixation3.jpg></div></div>","null","","","","","",""
"","","","offer","63f969ceb2a0b028aa612b33","bdp_rd","Sat Mar 25 2023 20:29:00 GMT-0400 (Eastern Daylight Time)","162103","html-keyboard-response","114","120581","0.0-5.0-2.36","","876","","<div class='trialBorder'><div class='vertical-center'><img style='vertical-align:center; align:center' src=img/fixation3.jpg></div><div class='cl'><div class='vertical-center'>$28<br>for<br>sure</div></div><div class='cr'><div class='vertical-center'>$89<br>with a<br>50% chance</div></div><div class='respDivL'><div class='vertical-center'>(E)</div></div><div class='respDivR'><div class='vertical-center'>(I)</div></div></div>","I","$28","$89","0","28","89","RISKY"
"","","","offerFB","63f969ceb2a0b028aa612b33","bdp_rd","Sat Mar 25 2023 20:29:00 GMT-0400 (Eastern Daylight Time)","162103","html-keyboard-response","115","120835","0.0-5.0-3.36","","null","","<div class='trialBorder'><div class='vertical-center'><img style='vertical-align:center; align:center' src=img/fixation3.jpg></div><div class='cl'><div class='vertical-center'>$28<br>for<br>sure</div></div><div class='cr'><div class='vertical-center'><font style='color:orange'>$89<br>with a<br>50% chance</font></div></div><div class='respDivL'><div class='vertical-center'>(E)</div></div><div class='respDivR'><div class='vertical-center'><font style='color:orange'>(I)</font></div></div></div>","null","$28","$89","0","28","89",""
"","","","FIX","63f969ceb2a0b028aa612b33","bdp_rd","Sat Mar 25 2023 20:29:00 GMT-0400 (Eastern Daylight Time)","162103","html-keyboard-response","116","121348","0.0-5.0-1.37","","null","","<div class='trialBorder'><div class='vertical-center'><img style='vertical-align:center; align:center' src=img/fixation3.jpg></div></div>","null","","","","","",""
"","","","offer","63f969ceb2a0b028aa612b33","bdp_rd","Sat Mar 25 2023 20:29:00 GMT-0400 (Eastern Daylight Time)","162103","html-keyboard-response","117","122600","0.0-5.0-2.37","","1251","","<div class='trialBorder'><div class='vertical-center'><img style='vertical-align:center; align:center' src=img/fixation3.jpg></div><div class='cl'><div class='vertical-center'>$21<br>with a<br>50% chance</div></div><div class='cr'><div class='vertical-center'>$2<br>for<br>sure</div></div><div class='respDivL'><div class='vertical-center'>(E)</div></div><div class='respDivR'><div class='vertical-center'>(I)</div></div></div>","E","$2","$21","1","2","21","RISKY"
"","","","offerFB","63f969ceb2a0b028aa612b33","bdp_rd","Sat Mar 25 2023 20:29:00 GMT-0400 (Eastern Daylight Time)","162103","html-keyboard-response","118","122862","0.0-5.0-3.37","","null","","<div class='trialBorder'><div class='vertical-center'><img style='vertical-align:center; align:center' src=img/fixation3.jpg></div><div class='cl'><div class='vertical-center'><font style='color:orange'>$21<br>with a<br>50% chance</font></div></div><div class='cr'><div class='vertical-center'>$2<br>for<br>sure</div></div><div class='respDivL'><div class='vertical-center'><font style='color:orange'>(E)</font></div></div><div class='respDivR'><div class='vertical-center'>(I)</div></div></div>","null","$2","$21","1","2","21",""
"","","","FIX","63f969ceb2a0b028aa612b33","bdp_rd","Sat Mar 25 2023 20:29:00 GMT-0400 (Eastern Daylight Time)","162103","html-keyboard-response","119","123380","0.0-5.0-1.38","","null","","<div class='trialBorder'><div class='vertical-center'><img style='vertical-align:center; align:center' src=img/fixation3.jpg></div></div>","null","","","","","",""
"","","","offer","63f969ceb2a0b028aa612b33","bdp_rd","Sat Mar 25 2023 20:29:00 GMT-0400 (Eastern Daylight Time)","162103","html-keyboard-response","120","124249","0.0-5.0-2.38","","867","","<div class='trialBorder'><div class='vertical-center'><img style='vertical-align:center; align:center' src=img/fixation3.jpg></div><div class='cl'><div class='vertical-center'>$16<br>for<br>sure</div></div><div class='cr'><div class='vertical-center'>$38<br>with a<br>50% chance</div></div><div class='respDivL'><div class='vertical-center'>(E)</div></div><div class='respDivR'><div class='vertical-center'>(I)</div></div></div>","I","$16","$38","0","16","38","RISKY"
"","","","offerFB","63f969ceb2a0b028aa612b33","bdp_rd","Sat Mar 25 2023 20:29:00 GMT-0400 (Eastern Daylight Time)","162103","html-keyboard-response","121","124513","0.0-5.0-3.38","","null","","<div class='trialBorder'><div class='vertical-center'><img style='vertical-align:center; align:center' src=img/fixation3.jpg></div><div class='cl'><div class='vertical-center'>$16<br>for<br>sure</div></div><div class='cr'><div class='vertical-center'><font style='color:orange'>$38<br>with a<br>50% chance</font></div></div><div class='respDivL'><div class='vertical-center'>(E)</div></div><div class='respDivR'><div class='vertical-center'><font style='color:orange'>(I)</font></div></div></div>","null","$16","$38","0","16","38",""
"","","","FIX","63f969ceb2a0b028aa612b33","bdp_rd","Sat Mar 25 2023 20:29:00 GMT-0400 (Eastern Daylight Time)","162103","html-keyboard-response","122","125016","0.0-5.0-1.39","","null","","<div class='trialBorder'><div class='vertical-center'><img style='vertical-align:center; align:center' src=img/fixation3.jpg></div></div>","null","","","","","",""
"","","","offer","63f969ceb2a0b028aa612b33","bdp_rd","Sat Mar 25 2023 20:29:00 GMT-0400 (Eastern Daylight Time)","162103","html-keyboard-response","123","126300","0.0-5.0-2.39","","1284","","<div class='trialBorder'><div class='vertical-center'><img style='vertical-align:center; align:center' src=img/fixation3.jpg></div><div class='cl'><div class='vertical-center'>$27<br>with a<br>50% chance</div></div><div class='cr'><div class='vertical-center'>$12<br>for<br>sure</div></div><div class='respDivL'><div class='vertical-center'>(E)</div></div><div class='respDivR'><div class='vertical-center'>(I)</div></div></div>","I","$12","$27","1","12","27","SURE"
"","","","offerFB","63f969ceb2a0b028aa612b33","bdp_rd","Sat Mar 25 2023 20:29:00 GMT-0400 (Eastern Daylight Time)","162103","html-keyboard-response","124","126561","0.0-5.0-3.39","","null","","<div class='trialBorder'><div class='vertical-center'><img style='vertical-align:center; align:center' src=img/fixation3.jpg></div><div class='cl'><div class='vertical-center'>$27<br>with a<br>50% chance</div></div><div class='cr'><div class='vertical-center'><font style='color:orange'>$12<br>for<br>sure</font></div></div><div class='respDivL'><div class='vertical-center'>(E)</div></div><div class='respDivR'><div class='vertical-center'><font style='color:orange'>(I)</font></div></div></div>","null","$12","$27","1","12","27",""
"","","","FIX","63f969ceb2a0b028aa612b33","bdp_rd","Sat Mar 25 2023 20:29:00 GMT-0400 (Eastern Daylight Time)","162103","html-keyboard-response","125","127077","0.0-5.0-1.40","","null","","<div class='trialBorder'><div class='vertical-center'><img style='vertical-align:center; align:center' src=img/fixation3.jpg></div></div>","null","","","","","",""
"","","","offer","63f969ceb2a0b028aa612b33","bdp_rd","Sat Mar 25 2023 20:29:00 GMT-0400 (Eastern Daylight Time)","162103","html-keyboard-response","126","128048","0.0-5.0-2.40","","971","","<div class='trialBorder'><div class='vertical-center'><img style='vertical-align:center; align:center' src=img/fixation3.jpg></div><div class='cl'><div class='vertical-center'>$20<br>for<br>sure</div></div><div class='cr'><div class='vertical-center'>$80<br>with a<br>50% chance</div></div><div class='respDivL'><div class='vertical-center'>(E)</div></div><div class='respDivR'><div class='vertical-center'>(I)</div></div></div>","I","$20","$80","0","20","80","RISKY"
"","","","offerFB","63f969ceb2a0b028aa612b33","bdp_rd","Sat Mar 25 2023 20:29:00 GMT-0400 (Eastern Daylight Time)","162103","html-keyboard-response","127","128309","0.0-5.0-3.40","","null","","<div class='trialBorder'><div class='vertical-center'><img style='vertical-align:center; align:center' src=img/fixation3.jpg></div><div class='cl'><div class='vertical-center'>$20<br>for<br>sure</div></div><div class='cr'><div class='vertical-center'><font style='color:orange'>$80<br>with a<br>50% chance</font></div></div><div class='respDivL'><div class='vertical-center'>(E)</div></div><div class='respDivR'><div class='vertical-center'><font style='color:orange'>(I)</font></div></div></div>","null","$20","$80","0","20","80",""
"","","","FIX","63f969ceb2a0b028aa612b33","bdp_rd","Sat Mar 25 2023 20:29:00 GMT-0400 (Eastern Daylight Time)","162103","html-keyboard-response","128","128812","0.0-5.0-1.41","","null","","<div class='trialBorder'><div class='vertical-center'><img style='vertical-align:center; align:center' src=img/fixation3.jpg></div></div>","null","","","","","",""
"","","","offer","63f969ceb2a0b028aa612b33","bdp_rd","Sat Mar 25 2023 20:29:00 GMT-0400 (Eastern Daylight Time)","162103","html-keyboard-response","129","129720","0.0-5.0-2.41","","907","","<div class='trialBorder'><div class='vertical-center'><img style='vertical-align:center; align:center' src=img/fixation3.jpg></div><div class='cl'><div class='vertical-center'>$81<br>with a<br>50% chance</div></div><div class='cr'><div class='vertical-center'>$39<br>for<br>sure</div></div><div class='respDivL'><div class='vertical-center'>(E)</div></div><div class='respDivR'><div class='vertical-center'>(I)</div></div></div>","E","$39","$81","1","39","81","RISKY"
"","","","offerFB","63f969ceb2a0b028aa612b33","bdp_rd","Sat Mar 25 2023 20:29:00 GMT-0400 (Eastern Daylight Time)","162103","html-keyboard-response","130","129971","0.0-5.0-3.41","","null","","<div class='trialBorder'><div class='vertical-center'><img style='vertical-align:center; align:center' src=img/fixation3.jpg></div><div class='cl'><div class='vertical-center'><font style='color:orange'>$81<br>with a<br>50% chance</font></div></div><div class='cr'><div class='vertical-center'>$39<br>for<br>sure</div></div><div class='respDivL'><div class='vertical-center'><font style='color:orange'>(E)</font></div></div><div class='respDivR'><div class='vertical-center'>(I)</div></div></div>","null","$39","$81","1","39","81",""
"","","","FIX","63f969ceb2a0b028aa612b33","bdp_rd","Sat Mar 25 2023 20:29:00 GMT-0400 (Eastern Daylight Time)","162103","html-keyboard-response","131","130474","0.0-5.0-1.42","","null","","<div class='trialBorder'><div class='vertical-center'><img style='vertical-align:center; align:center' src=img/fixation3.jpg></div></div>","null","","","","","",""
"","","","offer","63f969ceb2a0b028aa612b33","bdp_rd","Sat Mar 25 2023 20:29:00 GMT-0400 (Eastern Daylight Time)","162103","html-keyboard-response","132","131543","0.0-5.0-2.42","","1069","","<div class='trialBorder'><div class='vertical-center'><img style='vertical-align:center; align:center' src=img/fixation3.jpg></div><div class='cl'><div class='vertical-center'>$30<br>with a<br>50% chance</div></div><div class='cr'><div class='vertical-center'>$1<br>for<br>sure</div></div><div class='respDivL'><div class='vertical-center'>(E)</div></div><div class='respDivR'><div class='vertical-center'>(I)</div></div></div>","E","$1","$30","1","1","30","RISKY"
"","","","offerFB","63f969ceb2a0b028aa612b33","bdp_rd","Sat Mar 25 2023 20:29:00 GMT-0400 (Eastern Daylight Time)","162103","html-keyboard-response","133","131802","0.0-5.0-3.42","","null","","<div class='trialBorder'><div class='vertical-center'><img style='vertical-align:center; align:center' src=img/fixation3.jpg></div><div class='cl'><div class='vertical-center'><font style='color:orange'>$30<br>with a<br>50% chance</font></div></div><div class='cr'><div class='vertical-center'>$1<br>for<br>sure</div></div><div class='respDivL'><div class='vertical-center'><font style='color:orange'>(E)</font></div></div><div class='respDivR'><div class='vertical-center'>(I)</div></div></div>","null","$1","$30","1","1","30",""
"","","","FIX","63f969ceb2a0b028aa612b33","bdp_rd","Sat Mar 25 2023 20:29:00 GMT-0400 (Eastern Daylight Time)","162103","html-keyboard-response","134","132305","0.0-5.0-1.43","","null","","<div class='trialBorder'><div class='vertical-center'><img style='vertical-align:center; align:center' src=img/fixation3.jpg></div></div>","null","","","","","",""
"","","","offer","63f969ceb2a0b028aa612b33","bdp_rd","Sat Mar 25 2023 20:29:00 GMT-0400 (Eastern Daylight Time)","162103","html-keyboard-response","135","133051","0.0-5.0-2.43","","745","","<div class='trialBorder'><div class='vertical-center'><img style='vertical-align:center; align:center' src=img/fixation3.jpg></div><div class='cl'><div class='vertical-center'>$34<br>with a<br>50% chance</div></div><div class='cr'><div class='vertical-center'>$15<br>for<br>sure</div></div><div class='respDivL'><div class='vertical-center'>(E)</div></div><div class='respDivR'><div class='vertical-center'>(I)</div></div></div>","E","$15","$34","1","15","34","RISKY"
"","","","offerFB","63f969ceb2a0b028aa612b33","bdp_rd","Sat Mar 25 2023 20:29:00 GMT-0400 (Eastern Daylight Time)","162103","html-keyboard-response","136","133310","0.0-5.0-3.43","","null","","<div class='trialBorder'><div class='vertical-center'><img style='vertical-align:center; align:center' src=img/fixation3.jpg></div><div class='cl'><div class='vertical-center'><font style='color:orange'>$34<br>with a<br>50% chance</font></div></div><div class='cr'><div class='vertical-center'>$15<br>for<br>sure</div></div><div class='respDivL'><div class='vertical-center'><font style='color:orange'>(E)</font></div></div><div class='respDivR'><div class='vertical-center'>(I)</div></div></div>","null","$15","$34","1","15","34",""
"","","","FIX","63f969ceb2a0b028aa612b33","bdp_rd","Sat Mar 25 2023 20:29:00 GMT-0400 (Eastern Daylight Time)","162103","html-keyboard-response","137","133827","0.0-5.0-1.44","","null","","<div class='trialBorder'><div class='vertical-center'><img style='vertical-align:center; align:center' src=img/fixation3.jpg></div></div>","null","","","","","",""
"","","","offer","63f969ceb2a0b028aa612b33","bdp_rd","Sat Mar 25 2023 20:29:00 GMT-0400 (Eastern Daylight Time)","162103","html-keyboard-response","138","135040","0.0-5.0-2.44","","1213","","<div class='trialBorder'><div class='vertical-center'><img style='vertical-align:center; align:center' src=img/fixation3.jpg></div><div class='cl'><div class='vertical-center'>$15<br>for<br>sure</div></div><div class='cr'><div class='vertical-center'>$31<br>with a<br>50% chance</div></div><div class='respDivL'><div class='vertical-center'>(E)</div></div><div class='respDivR'><div class='vertical-center'>(I)</div></div></div>","I","$15","$31","0","15","31","RISKY"
"","","","offerFB","63f969ceb2a0b028aa612b33","bdp_rd","Sat Mar 25 2023 20:29:00 GMT-0400 (Eastern Daylight Time)","162103","html-keyboard-response","139","135297","0.0-5.0-3.44","","null","","<div class='trialBorder'><div class='vertical-center'><img style='vertical-align:center; align:center' src=img/fixation3.jpg></div><div class='cl'><div class='vertical-center'>$15<br>for<br>sure</div></div><div class='cr'><div class='vertical-center'><font style='color:orange'>$31<br>with a<br>50% chance</font></div></div><div class='respDivL'><div class='vertical-center'>(E)</div></div><div class='respDivR'><div class='vertical-center'><font style='color:orange'>(I)</font></div></div></div>","null","$15","$31","0","15","31",""
"","","","FIX","63f969ceb2a0b028aa612b33","bdp_rd","Sat Mar 25 2023 20:29:00 GMT-0400 (Eastern Daylight Time)","162103","html-keyboard-response","140","135800","0.0-5.0-1.45","","null","","<div class='trialBorder'><div class='vertical-center'><img style='vertical-align:center; align:center' src=img/fixation3.jpg></div></div>","null","","","","","",""
"","","","offer","63f969ceb2a0b028aa612b33","bdp_rd","Sat Mar 25 2023 20:29:00 GMT-0400 (Eastern Daylight Time)","162103","html-keyboard-response","141","137070","0.0-5.0-2.45","","1269","","<div class='trialBorder'><div class='vertical-center'><img style='vertical-align:center; align:center' src=img/fixation3.jpg></div><div class='cl'><div class='vertical-center'>$5<br>for<br>sure</div></div><div class='cr'><div class='vertical-center'>$16<br>with a<br>50% chance</div></div><div class='respDivL'><div class='vertical-center'>(E)</div></div><div class='respDivR'><div class='vertical-center'>(I)</div></div></div>","I","$5","$16","0","5","16","RISKY"
"","","","offerFB","63f969ceb2a0b028aa612b33","bdp_rd","Sat Mar 25 2023 20:29:00 GMT-0400 (Eastern Daylight Time)","162103","html-keyboard-response","142","137324","0.0-5.0-3.45","","null","","<div class='trialBorder'><div class='vertical-center'><img style='vertical-align:center; align:center' src=img/fixation3.jpg></div><div class='cl'><div class='vertical-center'>$5<br>for<br>sure</div></div><div class='cr'><div class='vertical-center'><font style='color:orange'>$16<br>with a<br>50% chance</font></div></div><div class='respDivL'><div class='vertical-center'>(E)</div></div><div class='respDivR'><div class='vertical-center'><font style='color:orange'>(I)</font></div></div></div>","null","$5","$16","0","5","16",""
"","","","FIX","63f969ceb2a0b028aa612b33","bdp_rd","Sat Mar 25 2023 20:29:00 GMT-0400 (Eastern Daylight Time)","162103","html-keyboard-response","143","137826","0.0-5.0-1.46","","null","","<div class='trialBorder'><div class='vertical-center'><img style='vertical-align:center; align:center' src=img/fixation3.jpg></div></div>","null","","","","","",""
"","","","offer","63f969ceb2a0b028aa612b33","bdp_rd","Sat Mar 25 2023 20:29:00 GMT-0400 (Eastern Daylight Time)","162103","html-keyboard-response","144","138777","0.0-5.0-2.46","","950","","<div class='trialBorder'><div class='vertical-center'><img style='vertical-align:center; align:center' src=img/fixation3.jpg></div><div class='cl'><div class='vertical-center'>$22<br>with a<br>50% chance</div></div><div class='cr'><div class='vertical-center'>$14<br>for<br>sure</div></div><div class='respDivL'><div class='vertical-center'>(E)</div></div><div class='respDivR'><div class='vertical-center'>(I)</div></div></div>","E","$14","$22","1","14","22","RISKY"
"","","","offerFB","63f969ceb2a0b028aa612b33","bdp_rd","Sat Mar 25 2023 20:29:00 GMT-0400 (Eastern Daylight Time)","162103","html-keyboard-response","145","139034","0.0-5.0-3.46","","null","","<div class='trialBorder'><div class='vertical-center'><img style='vertical-align:center; align:center' src=img/fixation3.jpg></div><div class='cl'><div class='vertical-center'><font style='color:orange'>$22<br>with a<br>50% chance</font></div></div><div class='cr'><div class='vertical-center'>$14<br>for<br>sure</div></div><div class='respDivL'><div class='vertical-center'><font style='color:orange'>(E)</font></div></div><div class='respDivR'><div class='vertical-center'>(I)</div></div></div>","null","$14","$22","1","14","22",""
"","","","FIX","63f969ceb2a0b028aa612b33","bdp_rd","Sat Mar 25 2023 20:29:00 GMT-0400 (Eastern Daylight Time)","162103","html-keyboard-response","146","139536","0.0-5.0-1.47","","null","","<div class='trialBorder'><div class='vertical-center'><img style='vertical-align:center; align:center' src=img/fixation3.jpg></div></div>","null","","","","","",""
"","","","offer","63f969ceb2a0b028aa612b33","bdp_rd","Sat Mar 25 2023 20:29:00 GMT-0400 (Eastern Daylight Time)","162103","html-keyboard-response","147","140656","0.0-5.0-2.47","","1119","","<div class='trialBorder'><div class='vertical-center'><img style='vertical-align:center; align:center' src=img/fixation3.jpg></div><div class='cl'><div class='vertical-center'>$12<br>with a<br>50% chance</div></div><div class='cr'><div class='vertical-center'>$3<br>for<br>sure</div></div><div class='respDivL'><div class='vertical-center'>(E)</div></div><div class='respDivR'><div class='vertical-center'>(I)</div></div></div>","E","$3","$12","1","3","12","RISKY"
"","","","offerFB","63f969ceb2a0b028aa612b33","bdp_rd","Sat Mar 25 2023 20:29:00 GMT-0400 (Eastern Daylight Time)","162103","html-keyboard-response","148","140919","0.0-5.0-3.47","","null","","<div class='trialBorder'><div class='vertical-center'><img style='vertical-align:center; align:center' src=img/fixation3.jpg></div><div class='cl'><div class='vertical-center'><font style='color:orange'>$12<br>with a<br>50% chance</font></div></div><div class='cr'><div class='vertical-center'>$3<br>for<br>sure</div></div><div class='respDivL'><div class='vertical-center'><font style='color:orange'>(E)</font></div></div><div class='respDivR'><div class='vertical-center'>(I)</div></div></div>","null","$3","$12","1","3","12",""
"","","","FIX","63f969ceb2a0b028aa612b33","bdp_rd","Sat Mar 25 2023 20:29:00 GMT-0400 (Eastern Daylight Time)","162103","html-keyboard-response","149","141422","0.0-5.0-1.48","","null","","<div class='trialBorder'><div class='vertical-center'><img style='vertical-align:center; align:center' src=img/fixation3.jpg></div></div>","null","","","","","",""
"","","","offer","63f969ceb2a0b028aa612b33","bdp_rd","Sat Mar 25 2023 20:29:00 GMT-0400 (Eastern Daylight Time)","162103","html-keyboard-response","150","142177","0.0-5.0-2.48","","754","","<div class='trialBorder'><div class='vertical-center'><img style='vertical-align:center; align:center' src=img/fixation3.jpg></div><div class='cl'><div class='vertical-center'>$22<br>for<br>sure</div></div><div class='cr'><div class='vertical-center'>$59<br>with a<br>50% chance</div></div><div class='respDivL'><div class='vertical-center'>(E)</div></div><div class='respDivR'><div class='vertical-center'>(I)</div></div></div>","I","$22","$59","0","22","59","RISKY"
"","","","offerFB","63f969ceb2a0b028aa612b33","bdp_rd","Sat Mar 25 2023 20:29:00 GMT-0400 (Eastern Daylight Time)","162103","html-keyboard-response","151","142443","0.0-5.0-3.48","","null","","<div class='trialBorder'><div class='vertical-center'><img style='vertical-align:center; align:center' src=img/fixation3.jpg></div><div class='cl'><div class='vertical-center'>$22<br>for<br>sure</div></div><div class='cr'><div class='vertical-center'><font style='color:orange'>$59<br>with a<br>50% chance</font></div></div><div class='respDivL'><div class='vertical-center'>(E)</div></div><div class='respDivR'><div class='vertical-center'><font style='color:orange'>(I)</font></div></div></div>","null","$22","$59","0","22","59",""
"","","","FIX","63f969ceb2a0b028aa612b33","bdp_rd","Sat Mar 25 2023 20:29:00 GMT-0400 (Eastern Daylight Time)","162103","html-keyboard-response","152","142950","0.0-5.0-1.49","","null","","<div class='trialBorder'><div class='vertical-center'><img style='vertical-align:center; align:center' src=img/fixation3.jpg></div></div>","null","","","","","",""
"","","","offer","63f969ceb2a0b028aa612b33","bdp_rd","Sat Mar 25 2023 20:29:00 GMT-0400 (Eastern Daylight Time)","162103","html-keyboard-response","153","143696","0.0-5.0-2.49","","745","","<div class='trialBorder'><div class='vertical-center'><img style='vertical-align:center; align:center' src=img/fixation3.jpg></div><div class='cl'><div class='vertical-center'>$70<br>with a<br>50% chance</div></div><div class='cr'><div class='vertical-center'>$24<br>for<br>sure</div></div><div class='respDivL'><div class='vertical-center'>(E)</div></div><div class='respDivR'><div class='vertical-center'>(I)</div></div></div>","E","$24","$70","1","24","70","RISKY"
"","","","offerFB","63f969ceb2a0b028aa612b33","bdp_rd","Sat Mar 25 2023 20:29:00 GMT-0400 (Eastern Daylight Time)","162103","html-keyboard-response","154","143961","0.0-5.0-3.49","","null","","<div class='trialBorder'><div class='vertical-center'><img style='vertical-align:center; align:center' src=img/fixation3.jpg></div><div class='cl'><div class='vertical-center'><font style='color:orange'>$70<br>with a<br>50% chance</font></div></div><div class='cr'><div class='vertical-center'>$24<br>for<br>sure</div></div><div class='respDivL'><div class='vertical-center'><font style='color:orange'>(E)</font></div></div><div class='respDivR'><div class='vertical-center'>(I)</div></div></div>","null","$24","$70","1","24","70",""
"","","","FIX","63f969ceb2a0b028aa612b33","bdp_rd","Sat Mar 25 2023 20:29:00 GMT-0400 (Eastern Daylight Time)","162103","html-keyboard-response","155","144464","0.0-5.0-1.50","","null","","<div class='trialBorder'><div class='vertical-center'><img style='vertical-align:center; align:center' src=img/fixation3.jpg></div></div>","null","","","","","",""
"","","","offer","63f969ceb2a0b028aa612b33","bdp_rd","Sat Mar 25 2023 20:29:00 GMT-0400 (Eastern Daylight Time)","162103","html-keyboard-response","156","145285","0.0-5.0-2.50","","820","","<div class='trialBorder'><div class='vertical-center'><img style='vertical-align:center; align:center' src=img/fixation3.jpg></div><div class='cl'><div class='vertical-center'>$16<br>for<br>sure</div></div><div class='cr'><div class='vertical-center'>$28<br>with a<br>50% chance</div></div><div class='respDivL'><div class='vertical-center'>(E)</div></div><div class='respDivR'><div class='vertical-center'>(I)</div></div></div>","I","$16","$28","0","16","28","RISKY"
"","","","offerFB","63f969ceb2a0b028aa612b33","bdp_rd","Sat Mar 25 2023 20:29:00 GMT-0400 (Eastern Daylight Time)","162103","html-keyboard-response","157","145541","0.0-5.0-3.50","","null","","<div class='trialBorder'><div class='vertical-center'><img style='vertical-align:center; align:center' src=img/fixation3.jpg></div><div class='cl'><div class='vertical-center'>$16<br>for<br>sure</div></div><div class='cr'><div class='vertical-center'><font style='color:orange'>$28<br>with a<br>50% chance</font></div></div><div class='respDivL'><div class='vertical-center'>(E)</div></div><div class='respDivR'><div class='vertical-center'><font style='color:orange'>(I)</font></div></div></div>","null","$16","$28","0","16","28",""
"","","","FIX","63f969ceb2a0b028aa612b33","bdp_rd","Sat Mar 25 2023 20:29:00 GMT-0400 (Eastern Daylight Time)","162103","html-keyboard-response","158","146043","0.0-5.0-1.51","","null","","<div class='trialBorder'><div class='vertical-center'><img style='vertical-align:center; align:center' src=img/fixation3.jpg></div></div>","null","","","","","",""
"","","","offer","63f969ceb2a0b028aa612b33","bdp_rd","Sat Mar 25 2023 20:29:00 GMT-0400 (Eastern Daylight Time)","162103","html-keyboard-response","159","147440","0.0-5.0-2.51","","1396","","<div class='trialBorder'><div class='vertical-center'><img style='vertical-align:center; align:center' src=img/fixation3.jpg></div><div class='cl'><div class='vertical-center'>$10<br>for<br>sure</div></div><div class='cr'><div class='vertical-center'>$19<br>with a<br>50% chance</div></div><div class='respDivL'><div class='vertical-center'>(E)</div></div><div class='respDivR'><div class='vertical-center'>(I)</div></div></div>","E","$10","$19","0","10","19","SURE"
"","","","offerFB","63f969ceb2a0b028aa612b33","bdp_rd","Sat Mar 25 2023 20:29:00 GMT-0400 (Eastern Daylight Time)","162103","html-keyboard-response","160","147699","0.0-5.0-3.51","","null","","<div class='trialBorder'><div class='vertical-center'><img style='vertical-align:center; align:center' src=img/fixation3.jpg></div><div class='cl'><div class='vertical-center'><font style='color:orange'>$10<br>for<br>sure</font></div></div><div class='cr'><div class='vertical-center'>$19<br>with a<br>50% chance</div></div><div class='respDivL'><div class='vertical-center'><font style='color:orange'>(E)</font></div></div><div class='respDivR'><div class='vertical-center'>(I)</div></div></div>","null","$10","$19","0","10","19",""
"","","","FIX","63f969ceb2a0b028aa612b33","bdp_rd","Sat Mar 25 2023 20:29:00 GMT-0400 (Eastern Daylight Time)","162103","html-keyboard-response","161","148202","0.0-5.0-1.52","","null","","<div class='trialBorder'><div class='vertical-center'><img style='vertical-align:center; align:center' src=img/fixation3.jpg></div></div>","null","","","","","",""
"","","","offer","63f969ceb2a0b028aa612b33","bdp_rd","Sat Mar 25 2023 20:29:00 GMT-0400 (Eastern Daylight Time)","162103","html-keyboard-response","162","149644","0.0-5.0-2.52","","1442","","<div class='trialBorder'><div class='vertical-center'><img style='vertical-align:center; align:center' src=img/fixation3.jpg></div><div class='cl'><div class='vertical-center'>$58<br>for<br>sure</div></div><div class='cr'><div class='vertical-center'>$69<br>with a<br>50% chance</div></div><div class='respDivL'><div class='vertical-center'>(E)</div></div><div class='respDivR'><div class='vertical-center'>(I)</div></div></div>","E","$58","$69","0","58","69","SURE"
"","","","offerFB","63f969ceb2a0b028aa612b33","bdp_rd","Sat Mar 25 2023 20:29:00 GMT-0400 (Eastern Daylight Time)","162103","html-keyboard-response","163","149906","0.0-5.0-3.52","","null","","<div class='trialBorder'><div class='vertical-center'><img style='vertical-align:center; align:center' src=img/fixation3.jpg></div><div class='cl'><div class='vertical-center'><font style='color:orange'>$58<br>for<br>sure</font></div></div><div class='cr'><div class='vertical-center'>$69<br>with a<br>50% chance</div></div><div class='respDivL'><div class='vertical-center'><font style='color:orange'>(E)</font></div></div><div class='respDivR'><div class='vertical-center'>(I)</div></div></div>","null","$58","$69","0","58","69",""
"","","","FIX","63f969ceb2a0b028aa612b33","bdp_rd","Sat Mar 25 2023 20:29:00 GMT-0400 (Eastern Daylight Time)","162103","html-keyboard-response","164","150414","0.0-5.0-1.53","","null","","<div class='trialBorder'><div class='vertical-center'><img style='vertical-align:center; align:center' src=img/fixation3.jpg></div></div>","null","","","","","",""
"","","","offer","63f969ceb2a0b028aa612b33","bdp_rd","Sat Mar 25 2023 20:29:00 GMT-0400 (Eastern Daylight Time)","162103","html-keyboard-response","165","151148","0.0-5.0-2.53","","732","","<div class='trialBorder'><div class='vertical-center'><img style='vertical-align:center; align:center' src=img/fixation3.jpg></div><div class='cl'><div class='vertical-center'>$3<br>for<br>sure</div></div><div class='cr'><div class='vertical-center'>$17<br>with a<br>50% chance</div></div><div class='respDivL'><div class='vertical-center'>(E)</div></div><div class='respDivR'><div class='vertical-center'>(I)</div></div></div>","I","$3","$17","0","3","17","RISKY"
"","","","offerFB","63f969ceb2a0b028aa612b33","bdp_rd","Sat Mar 25 2023 20:29:00 GMT-0400 (Eastern Daylight Time)","162103","html-keyboard-response","166","151404","0.0-5.0-3.53","","null","","<div class='trialBorder'><div class='vertical-center'><img style='vertical-align:center; align:center' src=img/fixation3.jpg></div><div class='cl'><div class='vertical-center'>$3<br>for<br>sure</div></div><div class='cr'><div class='vertical-center'><font style='color:orange'>$17<br>with a<br>50% chance</font></div></div><div class='respDivL'><div class='vertical-center'>(E)</div></div><div class='respDivR'><div class='vertical-center'><font style='color:orange'>(I)</font></div></div></div>","null","$3","$17","0","3","17",""
"","","","FIX","63f969ceb2a0b028aa612b33","bdp_rd","Sat Mar 25 2023 20:29:00 GMT-0400 (Eastern Daylight Time)","162103","html-keyboard-response","167","151907","0.0-5.0-1.54","","null","","<div class='trialBorder'><div class='vertical-center'><img style='vertical-align:center; align:center' src=img/fixation3.jpg></div></div>","null","","","","","",""
"","","","offer","63f969ceb2a0b028aa612b33","bdp_rd","Sat Mar 25 2023 20:29:00 GMT-0400 (Eastern Daylight Time)","162103","html-keyboard-response","168","152640","0.0-5.0-2.54","","732","","<div class='trialBorder'><div class='vertical-center'><img style='vertical-align:center; align:center' src=img/fixation3.jpg></div><div class='cl'><div class='vertical-center'>$62<br>with a<br>50% chance</div></div><div class='cr'><div class='vertical-center'>$11<br>for<br>sure</div></div><div class='respDivL'><div class='vertical-center'>(E)</div></div><div class='respDivR'><div class='vertical-center'>(I)</div></div></div>","E","$11","$62","1","11","62","RISKY"
"","","","offerFB","63f969ceb2a0b028aa612b33","bdp_rd","Sat Mar 25 2023 20:29:00 GMT-0400 (Eastern Daylight Time)","162103","html-keyboard-response","169","152898","0.0-5.0-3.54","","null","","<div class='trialBorder'><div class='vertical-center'><img style='vertical-align:center; align:center' src=img/fixation3.jpg></div><div class='cl'><div class='vertical-center'><font style='color:orange'>$62<br>with a<br>50% chance</font></div></div><div class='cr'><div class='vertical-center'>$11<br>for<br>sure</div></div><div class='respDivL'><div class='vertical-center'><font style='color:orange'>(E)</font></div></div><div class='respDivR'><div class='vertical-center'>(I)</div></div></div>","null","$11","$62","1","11","62",""
"","","","FIX","63f969ceb2a0b028aa612b33","bdp_rd","Sat Mar 25 2023 20:29:00 GMT-0400 (Eastern Daylight Time)","162103","html-keyboard-response","170","153411","0.0-5.0-1.55","","null","","<div class='trialBorder'><div class='vertical-center'><img style='vertical-align:center; align:center' src=img/fixation3.jpg></div></div>","null","","","","","",""
"","","","offer","63f969ceb2a0b028aa612b33","bdp_rd","Sat Mar 25 2023 20:29:00 GMT-0400 (Eastern Daylight Time)","162103","html-keyboard-response","171","154326","0.0-5.0-2.55","","915","","<div class='trialBorder'><div class='vertical-center'><img style='vertical-align:center; align:center' src=img/fixation3.jpg></div><div class='cl'><div class='vertical-center'>$15<br>with a<br>50% chance</div></div><div class='cr'><div class='vertical-center'>$6<br>for<br>sure</div></div><div class='respDivL'><div class='vertical-center'>(E)</div></div><div class='respDivR'><div class='vertical-center'>(I)</div></div></div>","E","$6","$15","1","6","15","RISKY"
"","","","offerFB","63f969ceb2a0b028aa612b33","bdp_rd","Sat Mar 25 2023 20:29:00 GMT-0400 (Eastern Daylight Time)","162103","html-keyboard-response","172","154592","0.0-5.0-3.55","","null","","<div class='trialBorder'><div class='vertical-center'><img style='vertical-align:center; align:center' src=img/fixation3.jpg></div><div class='cl'><div class='vertical-center'><font style='color:orange'>$15<br>with a<br>50% chance</font></div></div><div class='cr'><div class='vertical-center'>$6<br>for<br>sure</div></div><div class='respDivL'><div class='vertical-center'><font style='color:orange'>(E)</font></div></div><div class='respDivR'><div class='vertical-center'>(I)</div></div></div>","null","$6","$15","1","6","15",""
"","","","FIX","63f969ceb2a0b028aa612b33","bdp_rd","Sat Mar 25 2023 20:29:00 GMT-0400 (Eastern Daylight Time)","162103","html-keyboard-response","173","155095","0.0-5.0-1.56","","null","","<div class='trialBorder'><div class='vertical-center'><img style='vertical-align:center; align:center' src=img/fixation3.jpg></div></div>","null","","","","","",""
"","","","offer","63f969ceb2a0b028aa612b33","bdp_rd","Sat Mar 25 2023 20:29:00 GMT-0400 (Eastern Daylight Time)","162103","html-keyboard-response","174","156138","0.0-5.0-2.56","","1043","","<div class='trialBorder'><div class='vertical-center'><img style='vertical-align:center; align:center' src=img/fixation3.jpg></div><div class='cl'><div class='vertical-center'>$33<br>with a<br>50% chance</div></div><div class='cr'><div class='vertical-center'>$1<br>for<br>sure</div></div><div class='respDivL'><div class='vertical-center'>(E)</div></div><div class='respDivR'><div class='vertical-center'>(I)</div></div></div>","E","$1","$33","1","1","33","RISKY"
