"trial_type","trial_index","time_elapsed","internal_node_id","subject_id","task","startTime","totalTime","view_history","rt","event","trial","time","trialtype","success","stimulus","key_press","sureOffer","riskyOffer","riskyLeft","sureAmt","riskyAmt","chosen"
"pavlovia","0","2","0.0-0.0","571144323d47e800096358d9","bdp_rd","Sun Mar 26 2023 15:00:38 GMT-0400 (Eastern Daylight Time)","140941","","","","","","","","","","","","","","",""
"instructions","1","984","0.0-1.0","571144323d47e800096358d9","bdp_rd","Sun Mar 26 2023 15:00:38 GMT-0400 (Eastern Daylight Time)","140941","[{""page_index"":0,""viewing_time"":981}]","982","","","","","","","","","","","","",""
"","","","","571144323d47e800096358d9","bdp_rd","Sun Mar 26 2023 15:00:38 GMT-0400 (Eastern Daylight Time)","140941","","","fullscreenenter","2","1962","fullscreenenter","","","","","","","","",""
"fullscreen","2","2952","0.0-2.0","571144323d47e800096358d9","bdp_rd","Sun Mar 26 2023 15:00:38 GMT-0400 (Eastern Daylight Time)","140941","","","","","","","true","","","","","","","",""
"instructions","3","20296","0.0-4.0","571144323d47e800096358d9","bdp_rd","Sun Mar 26 2023 15:00:38 GMT-0400 (Eastern Daylight Time)","140941","[{""page_index"":0,""viewing_time"":10511},{""page_index"":1,""viewing_time"":5416},{""page_index"":2,""viewing_time"":1416}]","17343","","","","","","","","","","","","",""
"html-keyboard-response","4","20797","0.0-5.0-1.0","571144323d47e800096358d9","bdp_rd","Sun Mar 26 2023 15:00:38 GMT-0400 (Eastern Daylight Time)","140941","","null","","","","FIX","","<div class='trialBorder'><div class='vertical-center'><img style='vertical-align:center; align:center' src=img/fixation3.jpg></div></div>","null","","","","","",""
"html-keyboard-response","5","23256","0.0-5.0-2.0","571144323d47e800096358d9","bdp_rd","Sun Mar 26 2023 15:00:38 GMT-0400 (Eastern Daylight Time)","140941","","2458","","","","offer","","<div class='trialBorder'><div class='vertical-center'><img style='vertical-align:center; align:center' src=img/fixation3.jpg></div><div class='cl'><div class='vertical-center'>$17<br>with a<br>50% chance</div></div><div class='cr'><div class='vertical-center'>$3<br>for<br>sure</div></div><div class='respDivL'><div class='vertical-center'>(E)</div></div><div class='respDivR'><div class='vertical-center'>(I)</div></div></div>","E","$3","$17","1","3","17","RISKY"
"html-keyboard-response","6","23508","0.0-5.0-3.0","571144323d47e800096358d9","bdp_rd","Sun Mar 26 2023 15:00:38 GMT-0400 (Eastern Daylight Time)","140941","","null","","","","offerFB","","<div class='trialBorder'><div class='vertical-center'><img style='vertical-align:center; align:center' src=img/fixation3.jpg></div><div class='cl'><div class='vertical-center'><font style='color:orange'>$17<br>with a<br>50% chance</font></div></div><div class='cr'><div class='vertical-center'>$3<br>for<br>sure</div></div><div class='respDivL'><div class='vertical-center'><font style='color:orange'>(E)</font></div></div><div class='respDivR'><div class='vertical-center'>(I)</div></div></div>","null","$3","$17","1","3","17",""
"html-keyboard-response","7","24009","0.0-5.0-1.1","571144323d47e800096358d9","bdp_rd","Sun Mar 26 2023 15:00:38 GMT-0400 (Eastern Daylight Time)","140941","","null","","","","FIX","","<div class='trialBorder'><div class='vertical-center'><img style='vertical-align:center; align:center' src=img/fixation3.jpg></div></div>","null","","","","","",""
"html-keyboard-response","8","25720","0.0-5.0-2.1","571144323d47e800096358d9","bdp_rd","Sun Mar 26 2023 15:00:38 GMT-0400 (Eastern Daylight Time)","140941","","1710","","","","offer","","<div class='trialBorder'><div class='vertical-center'><img style='vertical-align:center; align:center' src=img/fixation3.jpg></div><div class='cl'><div class='vertical-center'>$36<br>with a<br>50% chance</div></div><div class='cr'><div class='vertical-center'>$18<br>for<br>sure</div></div><div class='respDivL'><div class='vertical-center'>(E)</div></div><div class='respDivR'><div class='vertical-center'>(I)</div></div></div>","E","$18","$36","1","18","36","RISKY"
"html-keyboard-response","9","25973","0.0-5.0-3.1","571144323d47e800096358d9","bdp_rd","Sun Mar 26 2023 15:00:38 GMT-0400 (Eastern Daylight Time)","140941","","null","","","","offerFB","","<div class='trialBorder'><div class='vertical-center'><img style='vertical-align:center; align:center' src=img/fixation3.jpg></div><div class='cl'><div class='vertical-center'><font style='color:orange'>$36<br>with a<br>50% chance</font></div></div><div class='cr'><div class='vertical-center'>$18<br>for<br>sure</div></div><div class='respDivL'><div class='vertical-center'><font style='color:orange'>(E)</font></div></div><div class='respDivR'><div class='vertical-center'>(I)</div></div></div>","null","$18","$36","1","18","36",""
"html-keyboard-response","10","26475","0.0-5.0-1.2","571144323d47e800096358d9","bdp_rd","Sun Mar 26 2023 15:00:38 GMT-0400 (Eastern Daylight Time)","140941","","null","","","","FIX","","<div class='trialBorder'><div class='vertical-center'><img style='vertical-align:center; align:center' src=img/fixation3.jpg></div></div>","null","","","","","",""
"html-keyboard-response","11","27720","0.0-5.0-2.2","571144323d47e800096358d9","bdp_rd","Sun Mar 26 2023 15:00:38 GMT-0400 (Eastern Daylight Time)","140941","","1245","","","","offer","","<div class='trialBorder'><div class='vertical-center'><img style='vertical-align:center; align:center' src=img/fixation3.jpg></div><div class='cl'><div class='vertical-center'>$48<br>with a<br>50% chance</div></div><div class='cr'><div class='vertical-center'>$34<br>for<br>sure</div></div><div class='respDivL'><div class='vertical-center'>(E)</div></div><div class='respDivR'><div class='vertical-center'>(I)</div></div></div>","I","$34","$48","1","34","48","SURE"
"html-keyboard-response","12","27971","0.0-5.0-3.2","571144323d47e800096358d9","bdp_rd","Sun Mar 26 2023 15:00:38 GMT-0400 (Eastern Daylight Time)","140941","","null","","","","offerFB","","<div class='trialBorder'><div class='vertical-center'><img style='vertical-align:center; align:center' src=img/fixation3.jpg></div><div class='cl'><div class='vertical-center'>$48<br>with a<br>50% chance</div></div><div class='cr'><div class='vertical-center'><font style='color:orange'>$34<br>for<br>sure</font></div></div><div class='respDivL'><div class='vertical-center'>(E)</div></div><div class='respDivR'><div class='vertical-center'><font style='color:orange'>(I)</font></div></div></div>","null","$34","$48","1","34","48",""
"html-keyboard-response","13","28473","0.0-5.0-1.3","571144323d47e800096358d9","bdp_rd","Sun Mar 26 2023 15:00:38 GMT-0400 (Eastern Daylight Time)","140941","","null","","","","FIX","","<div class='trialBorder'><div class='vertical-center'><img style='vertical-align:center; align:center' src=img/fixation3.jpg></div></div>","null","","","","","",""
"html-keyboard-response","14","29416","0.0-5.0-2.3","571144323d47e800096358d9","bdp_rd","Sun Mar 26 2023 15:00:38 GMT-0400 (Eastern Daylight Time)","140941","","943","","","","offer","","<div class='trialBorder'><div class='vertical-center'><img style='vertical-align:center; align:center' src=img/fixation3.jpg></div><div class='cl'><div class='vertical-center'>$62<br>with a<br>50% chance</div></div><div class='cr'><div class='vertical-center'>$11<br>for<br>sure</div></div><div class='respDivL'><div class='vertical-center'>(E)</div></div><div class='respDivR'><div class='vertical-center'>(I)</div></div></div>","E","$11","$62","1","11","62","RISKY"
"html-keyboard-response","15","29667","0.0-5.0-3.3","571144323d47e800096358d9","bdp_rd","Sun Mar 26 2023 15:00:38 GMT-0400 (Eastern Daylight Time)","140941","","null","","","","offerFB","","<div class='trialBorder'><div class='vertical-center'><img style='vertical-align:center; align:center' src=img/fixation3.jpg></div><div class='cl'><div class='vertical-center'><font style='color:orange'>$62<br>with a<br>50% chance</font></div></div><div class='cr'><div class='vertical-center'>$11<br>for<br>sure</div></div><div class='respDivL'><div class='vertical-center'><font style='color:orange'>(E)</font></div></div><div class='respDivR'><div class='vertical-center'>(I)</div></div></div>","null","$11","$62","1","11","62",""
"html-keyboard-response","16","30168","0.0-5.0-1.4","571144323d47e800096358d9","bdp_rd","Sun Mar 26 2023 15:00:38 GMT-0400 (Eastern Daylight Time)","140941","","null","","","","FIX","","<div class='trialBorder'><div class='vertical-center'><img style='vertical-align:center; align:center' src=img/fixation3.jpg></div></div>","null","","","","","",""
"html-keyboard-response","17","30952","0.0-5.0-2.4","571144323d47e800096358d9","bdp_rd","Sun Mar 26 2023 15:00:38 GMT-0400 (Eastern Daylight Time)","140941","","782","","","","offer","","<div class='trialBorder'><div class='vertical-center'><img style='vertical-align:center; align:center' src=img/fixation3.jpg></div><div class='cl'><div class='vertical-center'>$45<br>with a<br>50% chance</div></div><div class='cr'><div class='vertical-center'>$8<br>for<br>sure</div></div><div class='respDivL'><div class='vertical-center'>(E)</div></div><div class='respDivR'><div class='vertical-center'>(I)</div></div></div>","E","$8","$45","1","8","45","RISKY"
"html-keyboard-response","18","31202","0.0-5.0-3.4","571144323d47e800096358d9","bdp_rd","Sun Mar 26 2023 15:00:38 GMT-0400 (Eastern Daylight Time)","140941","","null","","","","offerFB","","<div class='trialBorder'><div class='vertical-center'><img style='vertical-align:center; align:center' src=img/fixation3.jpg></div><div class='cl'><div class='vertical-center'><font style='color:orange'>$45<br>with a<br>50% chance</font></div></div><div class='cr'><div class='vertical-center'>$8<br>for<br>sure</div></div><div class='respDivL'><div class='vertical-center'><font style='color:orange'>(E)</font></div></div><div class='respDivR'><div class='vertical-center'>(I)</div></div></div>","null","$8","$45","1","8","45",""
"html-keyboard-response","19","31704","0.0-5.0-1.5","571144323d47e800096358d9","bdp_rd","Sun Mar 26 2023 15:00:38 GMT-0400 (Eastern Daylight Time)","140941","","null","","","","FIX","","<div class='trialBorder'><div class='vertical-center'><img style='vertical-align:center; align:center' src=img/fixation3.jpg></div></div>","null","","","","","",""
"html-keyboard-response","20","32712","0.0-5.0-2.5","571144323d47e800096358d9","bdp_rd","Sun Mar 26 2023 15:00:38 GMT-0400 (Eastern Daylight Time)","140941","","1007","","","","offer","","<div class='trialBorder'><div class='vertical-center'><img style='vertical-align:center; align:center' src=img/fixation3.jpg></div><div class='cl'><div class='vertical-center'>$6<br>for<br>sure</div></div><div class='cr'><div class='vertical-center'>$15<br>with a<br>50% chance</div></div><div class='respDivL'><div class='vertical-center'>(E)</div></div><div class='respDivR'><div class='vertical-center'>(I)</div></div></div>","I","$6","$15","0","6","15","RISKY"
"html-keyboard-response","21","32963","0.0-5.0-3.5","571144323d47e800096358d9","bdp_rd","Sun Mar 26 2023 15:00:38 GMT-0400 (Eastern Daylight Time)","140941","","null","","","","offerFB","","<div class='trialBorder'><div class='vertical-center'><img style='vertical-align:center; align:center' src=img/fixation3.jpg></div><div class='cl'><div class='vertical-center'>$6<br>for<br>sure</div></div><div class='cr'><div class='vertical-center'><font style='color:orange'>$15<br>with a<br>50% chance</font></div></div><div class='respDivL'><div class='vertical-center'>(E)</div></div><div class='respDivR'><div class='vertical-center'><font style='color:orange'>(I)</font></div></div></div>","null","$6","$15","0","6","15",""
"html-keyboard-response","22","33465","0.0-5.0-1.6","571144323d47e800096358d9","bdp_rd","Sun Mar 26 2023 15:00:38 GMT-0400 (Eastern Daylight Time)","140941","","null","","","","FIX","","<div class='trialBorder'><div class='vertical-center'><img style='vertical-align:center; align:center' src=img/fixation3.jpg></div></div>","null","","","","","",""
"html-keyboard-response","23","35256","0.0-5.0-2.6","571144323d47e800096358d9","bdp_rd","Sun Mar 26 2023 15:00:38 GMT-0400 (Eastern Daylight Time)","140941","","1791","","","","offer","","<div class='trialBorder'><div class='vertical-center'><img style='vertical-align:center; align:center' src=img/fixation3.jpg></div><div class='cl'><div class='vertical-center'>$47<br>with a<br>50% chance</div></div><div class='cr'><div class='vertical-center'>$27<br>for<br>sure</div></div><div class='respDivL'><div class='vertical-center'>(E)</div></div><div class='respDivR'><div class='vertical-center'>(I)</div></div></div>","I","$27","$47","1","27","47","SURE"
"html-keyboard-response","24","35508","0.0-5.0-3.6","571144323d47e800096358d9","bdp_rd","Sun Mar 26 2023 15:00:38 GMT-0400 (Eastern Daylight Time)","140941","","null","","","","offerFB","","<div class='trialBorder'><div class='vertical-center'><img style='vertical-align:center; align:center' src=img/fixation3.jpg></div><div class='cl'><div class='vertical-center'>$47<br>with a<br>50% chance</div></div><div class='cr'><div class='vertical-center'><font style='color:orange'>$27<br>for<br>sure</font></div></div><div class='respDivL'><div class='vertical-center'>(E)</div></div><div class='respDivR'><div class='vertical-center'><font style='color:orange'>(I)</font></div></div></div>","null","$27","$47","1","27","47",""
"html-keyboard-response","25","36009","0.0-5.0-1.7","571144323d47e800096358d9","bdp_rd","Sun Mar 26 2023 15:00:38 GMT-0400 (Eastern Daylight Time)","140941","","null","","","","FIX","","<div class='trialBorder'><div class='vertical-center'><img style='vertical-align:center; align:center' src=img/fixation3.jpg></div></div>","null","","","","","",""
"html-keyboard-response","26","37192","0.0-5.0-2.7","571144323d47e800096358d9","bdp_rd","Sun Mar 26 2023 15:00:38 GMT-0400 (Eastern Daylight Time)","140941","","1183","","","","offer","","<div class='trialBorder'><div class='vertical-center'><img style='vertical-align:center; align:center' src=img/fixation3.jpg></div><div class='cl'><div class='vertical-center'>$5<br>for<br>sure</div></div><div class='cr'><div class='vertical-center'>$16<br>with a<br>50% chance</div></div><div class='respDivL'><div class='vertical-center'>(E)</div></div><div class='respDivR'><div class='vertical-center'>(I)</div></div></div>","I","$5","$16","0","5","16","RISKY"
"html-keyboard-response","27","37444","0.0-5.0-3.7","571144323d47e800096358d9","bdp_rd","Sun Mar 26 2023 15:00:38 GMT-0400 (Eastern Daylight Time)","140941","","null","","","","offerFB","","<div class='trialBorder'><div class='vertical-center'><img style='vertical-align:center; align:center' src=img/fixation3.jpg></div><div class='cl'><div class='vertical-center'>$5<br>for<br>sure</div></div><div class='cr'><div class='vertical-center'><font style='color:orange'>$16<br>with a<br>50% chance</font></div></div><div class='respDivL'><div class='vertical-center'>(E)</div></div><div class='respDivR'><div class='vertical-center'><font style='color:orange'>(I)</font></div></div></div>","null","$5","$16","0","5","16",""
"html-keyboard-response","28","37945","0.0-5.0-1.8","571144323d47e800096358d9","bdp_rd","Sun Mar 26 2023 15:00:38 GMT-0400 (Eastern Daylight Time)","140941","","null","","","","FIX","","<div class='trialBorder'><div class='vertical-center'><img style='vertical-align:center; align:center' src=img/fixation3.jpg></div></div>","null","","","","","",""
"html-keyboard-response","29","39104","0.0-5.0-2.8","571144323d47e800096358d9","bdp_rd","Sun Mar 26 2023 15:00:38 GMT-0400 (Eastern Daylight Time)","140941","","1159","","","","offer","","<div class='trialBorder'><div class='vertical-center'><img style='vertical-align:center; align:center' src=img/fixation3.jpg></div><div class='cl'><div class='vertical-center'>$10<br>for<br>sure</div></div><div class='cr'><div class='vertical-center'>$19<br>with a<br>50% chance</div></div><div class='respDivL'><div class='vertical-center'>(E)</div></div><div class='respDivR'><div class='vertical-center'>(I)</div></div></div>","E","$10","$19","0","10","19","SURE"
"html-keyboard-response","30","39355","0.0-5.0-3.8","571144323d47e800096358d9","bdp_rd","Sun Mar 26 2023 15:00:38 GMT-0400 (Eastern Daylight Time)","140941","","null","","","","offerFB","","<div class='trialBorder'><div class='vertical-center'><img style='vertical-align:center; align:center' src=img/fixation3.jpg></div><div class='cl'><div class='vertical-center'><font style='color:orange'>$10<br>for<br>sure</font></div></div><div class='cr'><div class='vertical-center'>$19<br>with a<br>50% chance</div></div><div class='respDivL'><div class='vertical-center'><font style='color:orange'>(E)</font></div></div><div class='respDivR'><div class='vertical-center'>(I)</div></div></div>","null","$10","$19","0","10","19",""
"html-keyboard-response","31","39857","0.0-5.0-1.9","571144323d47e800096358d9","bdp_rd","Sun Mar 26 2023 15:00:38 GMT-0400 (Eastern Daylight Time)","140941","","null","","","","FIX","","<div class='trialBorder'><div class='vertical-center'><img style='vertical-align:center; align:center' src=img/fixation3.jpg></div></div>","null","","","","","",""
"html-keyboard-response","32","41072","0.0-5.0-2.9","571144323d47e800096358d9","bdp_rd","Sun Mar 26 2023 15:00:38 GMT-0400 (Eastern Daylight Time)","140941","","1215","","","","offer","","<div class='trialBorder'><div class='vertical-center'><img style='vertical-align:center; align:center' src=img/fixation3.jpg></div><div class='cl'><div class='vertical-center'>$33<br>with a<br>50% chance</div></div><div class='cr'><div class='vertical-center'>$1<br>for<br>sure</div></div><div class='respDivL'><div class='vertical-center'>(E)</div></div><div class='respDivR'><div class='vertical-center'>(I)</div></div></div>","E","$1","$33","1","1","33","RISKY"
"html-keyboard-response","33","41323","0.0-5.0-3.9","571144323d47e800096358d9","bdp_rd","Sun Mar 26 2023 15:00:38 GMT-0400 (Eastern Daylight Time)","140941","","null","","","","offerFB","","<div class='trialBorder'><div class='vertical-center'><img style='vertical-align:center; align:center' src=img/fixation3.jpg></div><div class='cl'><div class='vertical-center'><font style='color:orange'>$33<br>with a<br>50% chance</font></div></div><div class='cr'><div class='vertical-center'>$1<br>for<br>sure</div></div><div class='respDivL'><div class='vertical-center'><font style='color:orange'>(E)</font></div></div><div class='respDivR'><div class='vertical-center'>(I)</div></div></div>","null","$1","$33","1","1","33",""
"html-keyboard-response","34","41825","0.0-5.0-1.10","571144323d47e800096358d9","bdp_rd","Sun Mar 26 2023 15:00:38 GMT-0400 (Eastern Daylight Time)","140941","","null","","","","FIX","","<div class='trialBorder'><div class='vertical-center'><img style='vertical-align:center; align:center' src=img/fixation3.jpg></div></div>","null","","","","","",""
"html-keyboard-response","35","43392","0.0-5.0-2.10","571144323d47e800096358d9","bdp_rd","Sun Mar 26 2023 15:00:38 GMT-0400 (Eastern Daylight Time)","140941","","1566","","","","offer","","<div class='trialBorder'><div class='vertical-center'><img style='vertical-align:center; align:center' src=img/fixation3.jpg></div><div class='cl'><div class='vertical-center'>$28<br>for<br>sure</div></div><div class='cr'><div class='vertical-center'>$89<br>with a<br>50% chance</div></div><div class='respDivL'><div class='vertical-center'>(E)</div></div><div class='respDivR'><div class='vertical-center'>(I)</div></div></div>","I","$28","$89","0","28","89","RISKY"
"html-keyboard-response","36","43643","0.0-5.0-3.10","571144323d47e800096358d9","bdp_rd","Sun Mar 26 2023 15:00:38 GMT-0400 (Eastern Daylight Time)","140941","","null","","","","offerFB","","<div class='trialBorder'><div class='vertical-center'><img style='vertical-align:center; align:center' src=img/fixation3.jpg></div><div class='cl'><div class='vertical-center'>$28<br>for<br>sure</div></div><div class='cr'><div class='vertical-center'><font style='color:orange'>$89<br>with a<br>50% chance</font></div></div><div class='respDivL'><div class='vertical-center'>(E)</div></div><div class='respDivR'><div class='vertical-center'><font style='color:orange'>(I)</font></div></div></div>","null","$28","$89","0","28","89",""
"html-keyboard-response","37","44144","0.0-5.0-1.11","571144323d47e800096358d9","bdp_rd","Sun Mar 26 2023 15:00:38 GMT-0400 (Eastern Daylight Time)","140941","","null","","","","FIX","","<div class='trialBorder'><div class='vertical-center'><img style='vertical-align:center; align:center' src=img/fixation3.jpg></div></div>","null","","","","","",""
"html-keyboard-response","38","46584","0.0-5.0-2.11","571144323d47e800096358d9","bdp_rd","Sun Mar 26 2023 15:00:38 GMT-0400 (Eastern Daylight Time)","140941","","2439","","","","offer","","<div class='trialBorder'><div class='vertical-center'><img style='vertical-align:center; align:center' src=img/fixation3.jpg></div><div class='cl'><div class='vertical-center'>$25<br>for<br>sure</div></div><div class='cr'><div class='vertical-center'>$54<br>with a<br>50% chance</div></div><div class='respDivL'><div class='vertical-center'>(E)</div></div><div class='respDivR'><div class='vertical-center'>(I)</div></div></div>","E","$25","$54","0","25","54","SURE"
"html-keyboard-response","39","46836","0.0-5.0-3.11","571144323d47e800096358d9","bdp_rd","Sun Mar 26 2023 15:00:38 GMT-0400 (Eastern Daylight Time)","140941","","null","","","","offerFB","","<div class='trialBorder'><div class='vertical-center'><img style='vertical-align:center; align:center' src=img/fixation3.jpg></div><div class='cl'><div class='vertical-center'><font style='color:orange'>$25<br>for<br>sure</font></div></div><div class='cr'><div class='vertical-center'>$54<br>with a<br>50% chance</div></div><div class='respDivL'><div class='vertical-center'><font style='color:orange'>(E)</font></div></div><div class='respDivR'><div class='vertical-center'>(I)</div></div></div>","null","$25","$54","0","25","54",""
"html-keyboard-response","40","47337","0.0-5.0-1.12","571144323d47e800096358d9","bdp_rd","Sun Mar 26 2023 15:00:38 GMT-0400 (Eastern Daylight Time)","140941","","null","","","","FIX","","<div class='trialBorder'><div class='vertical-center'><img style='vertical-align:center; align:center' src=img/fixation3.jpg></div></div>","null","","","","","",""
"html-keyboard-response","41","48112","0.0-5.0-2.12","571144323d47e800096358d9","bdp_rd","Sun Mar 26 2023 15:00:38 GMT-0400 (Eastern Daylight Time)","140941","","774","","","","offer","","<div class='trialBorder'><div class='vertical-center'><img style='vertical-align:center; align:center' src=img/fixation3.jpg></div><div class='cl'><div class='vertical-center'>$12<br>for<br>sure</div></div><div class='cr'><div class='vertical-center'>$35<br>with a<br>50% chance</div></div><div class='respDivL'><div class='vertical-center'>(E)</div></div><div class='respDivR'><div class='vertical-center'>(I)</div></div></div>","I","$12","$35","0","12","35","RISKY"
"html-keyboard-response","42","48363","0.0-5.0-3.12","571144323d47e800096358d9","bdp_rd","Sun Mar 26 2023 15:00:38 GMT-0400 (Eastern Daylight Time)","140941","","null","","","","offerFB","","<div class='trialBorder'><div class='vertical-center'><img style='vertical-align:center; align:center' src=img/fixation3.jpg></div><div class='cl'><div class='vertical-center'>$12<br>for<br>sure</div></div><div class='cr'><div class='vertical-center'><font style='color:orange'>$35<br>with a<br>50% chance</font></div></div><div class='respDivL'><div class='vertical-center'>(E)</div></div><div class='respDivR'><div class='vertical-center'><font style='color:orange'>(I)</font></div></div></div>","null","$12","$35","0","12","35",""
"html-keyboard-response","43","48865","0.0-5.0-1.13","571144323d47e800096358d9","bdp_rd","Sun Mar 26 2023 15:00:38 GMT-0400 (Eastern Daylight Time)","140941","","null","","","","FIX","","<div class='trialBorder'><div class='vertical-center'><img style='vertical-align:center; align:center' src=img/fixation3.jpg></div></div>","null","","","","","",""
"html-keyboard-response","44","49952","0.0-5.0-2.13","571144323d47e800096358d9","bdp_rd","Sun Mar 26 2023 15:00:38 GMT-0400 (Eastern Daylight Time)","140941","","1087","","","","offer","","<div class='trialBorder'><div class='vertical-center'><img style='vertical-align:center; align:center' src=img/fixation3.jpg></div><div class='cl'><div class='vertical-center'>$26<br>with a<br>50% chance</div></div><div class='cr'><div class='vertical-center'>$11<br>for<br>sure</div></div><div class='respDivL'><div class='vertical-center'>(E)</div></div><div class='respDivR'><div class='vertical-center'>(I)</div></div></div>","E","$11","$26","1","11","26","RISKY"
"html-keyboard-response","45","50203","0.0-5.0-3.13","571144323d47e800096358d9","bdp_rd","Sun Mar 26 2023 15:00:38 GMT-0400 (Eastern Daylight Time)","140941","","null","","","","offerFB","","<div class='trialBorder'><div class='vertical-center'><img style='vertical-align:center; align:center' src=img/fixation3.jpg></div><div class='cl'><div class='vertical-center'><font style='color:orange'>$26<br>with a<br>50% chance</font></div></div><div class='cr'><div class='vertical-center'>$11<br>for<br>sure</div></div><div class='respDivL'><div class='vertical-center'><font style='color:orange'>(E)</font></div></div><div class='respDivR'><div class='vertical-center'>(I)</div></div></div>","null","$11","$26","1","11","26",""
"html-keyboard-response","46","50705","0.0-5.0-1.14","571144323d47e800096358d9","bdp_rd","Sun Mar 26 2023 15:00:38 GMT-0400 (Eastern Daylight Time)","140941","","null","","","","FIX","","<div class='trialBorder'><div class='vertical-center'><img style='vertical-align:center; align:center' src=img/fixation3.jpg></div></div>","null","","","","","",""
"html-keyboard-response","47","52024","0.0-5.0-2.14","571144323d47e800096358d9","bdp_rd","Sun Mar 26 2023 15:00:38 GMT-0400 (Eastern Daylight Time)","140941","","1319","","","","offer","","<div class='trialBorder'><div class='vertical-center'><img style='vertical-align:center; align:center' src=img/fixation3.jpg></div><div class='cl'><div class='vertical-center'>$92<br>with a<br>50% chance</div></div><div class='cr'><div class='vertical-center'>$26<br>for<br>sure</div></div><div class='respDivL'><div class='vertical-center'>(E)</div></div><div class='respDivR'><div class='vertical-center'>(I)</div></div></div>","E","$26","$92","1","26","92","RISKY"
"html-keyboard-response","48","52276","0.0-5.0-3.14","571144323d47e800096358d9","bdp_rd","Sun Mar 26 2023 15:00:38 GMT-0400 (Eastern Daylight Time)","140941","","null","","","","offerFB","","<div class='trialBorder'><div class='vertical-center'><img style='vertical-align:center; align:center' src=img/fixation3.jpg></div><div class='cl'><div class='vertical-center'><font style='color:orange'>$92<br>with a<br>50% chance</font></div></div><div class='cr'><div class='vertical-center'>$26<br>for<br>sure</div></div><div class='respDivL'><div class='vertical-center'><font style='color:orange'>(E)</font></div></div><div class='respDivR'><div class='vertical-center'>(I)</div></div></div>","null","$26","$92","1","26","92",""
"html-keyboard-response","49","52777","0.0-5.0-1.15","571144323d47e800096358d9","bdp_rd","Sun Mar 26 2023 15:00:38 GMT-0400 (Eastern Daylight Time)","140941","","null","","","","FIX","","<div class='trialBorder'><div class='vertical-center'><img style='vertical-align:center; align:center' src=img/fixation3.jpg></div></div>","null","","","","","",""
"html-keyboard-response","50","54616","0.0-5.0-2.15","571144323d47e800096358d9","bdp_rd","Sun Mar 26 2023 15:00:38 GMT-0400 (Eastern Daylight Time)","140941","","1839","","","","offer","","<div class='trialBorder'><div class='vertical-center'><img style='vertical-align:center; align:center' src=img/fixation3.jpg></div><div class='cl'><div class='vertical-center'>$31<br>with a<br>50% chance</div></div><div class='cr'><div class='vertical-center'>$15<br>for<br>sure</div></div><div class='respDivL'><div class='vertical-center'>(E)</div></div><div class='respDivR'><div class='vertical-center'>(I)</div></div></div>","E","$15","$31","1","15","31","RISKY"
"html-keyboard-response","51","54867","0.0-5.0-3.15","571144323d47e800096358d9","bdp_rd","Sun Mar 26 2023 15:00:38 GMT-0400 (Eastern Daylight Time)","140941","","null","","","","offerFB","","<div class='trialBorder'><div class='vertical-center'><img style='vertical-align:center; align:center' src=img/fixation3.jpg></div><div class='cl'><div class='vertical-center'><font style='color:orange'>$31<br>with a<br>50% chance</font></div></div><div class='cr'><div class='vertical-center'>$15<br>for<br>sure</div></div><div class='respDivL'><div class='vertical-center'><font style='color:orange'>(E)</font></div></div><div class='respDivR'><div class='vertical-center'>(I)</div></div></div>","null","$15","$31","1","15","31",""
"html-keyboard-response","52","55369","0.0-5.0-1.16","571144323d47e800096358d9","bdp_rd","Sun Mar 26 2023 15:00:38 GMT-0400 (Eastern Daylight Time)","140941","","null","","","","FIX","","<div class='trialBorder'><div class='vertical-center'><img style='vertical-align:center; align:center' src=img/fixation3.jpg></div></div>","null","","","","","",""
"html-keyboard-response","53","56320","0.0-5.0-2.16","571144323d47e800096358d9","bdp_rd","Sun Mar 26 2023 15:00:38 GMT-0400 (Eastern Daylight Time)","140941","","951","","","","offer","","<div class='trialBorder'><div class='vertical-center'><img style='vertical-align:center; align:center' src=img/fixation3.jpg></div><div class='cl'><div class='vertical-center'>$34<br>with a<br>50% chance</div></div><div class='cr'><div class='vertical-center'>$15<br>for<br>sure</div></div><div class='respDivL'><div class='vertical-center'>(E)</div></div><div class='respDivR'><div class='vertical-center'>(I)</div></div></div>","E","$15","$34","1","15","34","RISKY"
"html-keyboard-response","54","56571","0.0-5.0-3.16","571144323d47e800096358d9","bdp_rd","Sun Mar 26 2023 15:00:38 GMT-0400 (Eastern Daylight Time)","140941","","null","","","","offerFB","","<div class='trialBorder'><div class='vertical-center'><img style='vertical-align:center; align:center' src=img/fixation3.jpg></div><div class='cl'><div class='vertical-center'><font style='color:orange'>$34<br>with a<br>50% chance</font></div></div><div class='cr'><div class='vertical-center'>$15<br>for<br>sure</div></div><div class='respDivL'><div class='vertical-center'><font style='color:orange'>(E)</font></div></div><div class='respDivR'><div class='vertical-center'>(I)</div></div></div>","null","$15","$34","1","15","34",""
"html-keyboard-response","55","57072","0.0-5.0-1.17","571144323d47e800096358d9","bdp_rd","Sun Mar 26 2023 15:00:38 GMT-0400 (Eastern Daylight Time)","140941","","null","","","","FIX","","<div class='trialBorder'><div class='vertical-center'><img style='vertical-align:center; align:center' src=img/fixation3.jpg></div></div>","null","","","","","",""
"html-keyboard-response","56","58096","0.0-5.0-2.17","571144323d47e800096358d9","bdp_rd","Sun Mar 26 2023 15:00:38 GMT-0400 (Eastern Daylight Time)","140941","","1023","","","","offer","","<div class='trialBorder'><div class='vertical-center'><img style='vertical-align:center; align:center' src=img/fixation3.jpg></div><div class='cl'><div class='vertical-center'>$53<br>for<br>sure</div></div><div class='cr'><div class='vertical-center'>$98<br>with a<br>50% chance</div></div><div class='respDivL'><div class='vertical-center'>(E)</div></div><div class='respDivR'><div class='vertical-center'>(I)</div></div></div>","I","$53","$98","0","53","98","RISKY"
"html-keyboard-response","57","58347","0.0-5.0-3.17","571144323d47e800096358d9","bdp_rd","Sun Mar 26 2023 15:00:38 GMT-0400 (Eastern Daylight Time)","140941","","null","","","","offerFB","","<div class='trialBorder'><div class='vertical-center'><img style='vertical-align:center; align:center' src=img/fixation3.jpg></div><div class='cl'><div class='vertical-center'>$53<br>for<br>sure</div></div><div class='cr'><div class='vertical-center'><font style='color:orange'>$98<br>with a<br>50% chance</font></div></div><div class='respDivL'><div class='vertical-center'>(E)</div></div><div class='respDivR'><div class='vertical-center'><font style='color:orange'>(I)</font></div></div></div>","null","$53","$98","0","53","98",""
"html-keyboard-response","58","58848","0.0-5.0-1.18","571144323d47e800096358d9","bdp_rd","Sun Mar 26 2023 15:00:38 GMT-0400 (Eastern Daylight Time)","140941","","null","","","","FIX","","<div class='trialBorder'><div class='vertical-center'><img style='vertical-align:center; align:center' src=img/fixation3.jpg></div></div>","null","","","","","",""
"html-keyboard-response","59","60128","0.0-5.0-2.18","571144323d47e800096358d9","bdp_rd","Sun Mar 26 2023 15:00:38 GMT-0400 (Eastern Daylight Time)","140941","","1279","","","","offer","","<div class='trialBorder'><div class='vertical-center'><img style='vertical-align:center; align:center' src=img/fixation3.jpg></div><div class='cl'><div class='vertical-center'>$17<br>for<br>sure</div></div><div class='cr'><div class='vertical-center'>$43<br>with a<br>50% chance</div></div><div class='respDivL'><div class='vertical-center'>(E)</div></div><div class='respDivR'><div class='vertical-center'>(I)</div></div></div>","I","$17","$43","0","17","43","RISKY"
"html-keyboard-response","60","60379","0.0-5.0-3.18","571144323d47e800096358d9","bdp_rd","Sun Mar 26 2023 15:00:38 GMT-0400 (Eastern Daylight Time)","140941","","null","","","","offerFB","","<div class='trialBorder'><div class='vertical-center'><img style='vertical-align:center; align:center' src=img/fixation3.jpg></div><div class='cl'><div class='vertical-center'>$17<br>for<br>sure</div></div><div class='cr'><div class='vertical-center'><font style='color:orange'>$43<br>with a<br>50% chance</font></div></div><div class='respDivL'><div class='vertical-center'>(E)</div></div><div class='respDivR'><div class='vertical-center'><font style='color:orange'>(I)</font></div></div></div>","null","$17","$43","0","17","43",""
"html-keyboard-response","61","60881","0.0-5.0-1.19","571144323d47e800096358d9","bdp_rd","Sun Mar 26 2023 15:00:38 GMT-0400 (Eastern Daylight Time)","140941","","null","","","","FIX","","<div class='trialBorder'><div class='vertical-center'><img style='vertical-align:center; align:center' src=img/fixation3.jpg></div></div>","null","","","","","",""
"html-keyboard-response","62","61760","0.0-5.0-2.19","571144323d47e800096358d9","bdp_rd","Sun Mar 26 2023 15:00:38 GMT-0400 (Eastern Daylight Time)","140941","","879","","","","offer","","<div class='trialBorder'><div class='vertical-center'><img style='vertical-align:center; align:center' src=img/fixation3.jpg></div><div class='cl'><div class='vertical-center'>$40<br>with a<br>50% chance</div></div><div class='cr'><div class='vertical-center'>$10<br>for<br>sure</div></div><div class='respDivL'><div class='vertical-center'>(E)</div></div><div class='respDivR'><div class='vertical-center'>(I)</div></div></div>","E","$10","$40","1","10","40","RISKY"
"html-keyboard-response","63","62011","0.0-5.0-3.19","571144323d47e800096358d9","bdp_rd","Sun Mar 26 2023 15:00:38 GMT-0400 (Eastern Daylight Time)","140941","","null","","","","offerFB","","<div class='trialBorder'><div class='vertical-center'><img style='vertical-align:center; align:center' src=img/fixation3.jpg></div><div class='cl'><div class='vertical-center'><font style='color:orange'>$40<br>with a<br>50% chance</font></div></div><div class='cr'><div class='vertical-center'>$10<br>for<br>sure</div></div><div class='respDivL'><div class='vertical-center'><font style='color:orange'>(E)</font></div></div><div class='respDivR'><div class='vertical-center'>(I)</div></div></div>","null","$10","$40","1","10","40",""
"html-keyboard-response","64","62512","0.0-5.0-1.20","571144323d47e800096358d9","bdp_rd","Sun Mar 26 2023 15:00:38 GMT-0400 (Eastern Daylight Time)","140941","","null","","","","FIX","","<div class='trialBorder'><div class='vertical-center'><img style='vertical-align:center; align:center' src=img/fixation3.jpg></div></div>","null","","","","","",""
"html-keyboard-response","65","64544","0.0-5.0-2.20","571144323d47e800096358d9","bdp_rd","Sun Mar 26 2023 15:00:38 GMT-0400 (Eastern Daylight Time)","140941","","2031","","","","offer","","<div class='trialBorder'><div class='vertical-center'><img style='vertical-align:center; align:center' src=img/fixation3.jpg></div><div class='cl'><div class='vertical-center'>$14<br>for<br>sure</div></div><div class='cr'><div class='vertical-center'>$29<br>with a<br>50% chance</div></div><div class='respDivL'><div class='vertical-center'>(E)</div></div><div class='respDivR'><div class='vertical-center'>(I)</div></div></div>","E","$14","$29","0","14","29","SURE"
"html-keyboard-response","66","64795","0.0-5.0-3.20","571144323d47e800096358d9","bdp_rd","Sun Mar 26 2023 15:00:38 GMT-0400 (Eastern Daylight Time)","140941","","null","","","","offerFB","","<div class='trialBorder'><div class='vertical-center'><img style='vertical-align:center; align:center' src=img/fixation3.jpg></div><div class='cl'><div class='vertical-center'><font style='color:orange'>$14<br>for<br>sure</font></div></div><div class='cr'><div class='vertical-center'>$29<br>with a<br>50% chance</div></div><div class='respDivL'><div class='vertical-center'><font style='color:orange'>(E)</font></div></div><div class='respDivR'><div class='vertical-center'>(I)</div></div></div>","null","$14","$29","0","14","29",""
"html-keyboard-response","67","65296","0.0-5.0-1.21","571144323d47e800096358d9","bdp_rd","Sun Mar 26 2023 15:00:38 GMT-0400 (Eastern Daylight Time)","140941","","null","","","","FIX","","<div class='trialBorder'><div class='vertical-center'><img style='vertical-align:center; align:center' src=img/fixation3.jpg></div></div>","null","","","","","",""
"html-keyboard-response","68","66360","0.0-5.0-2.21","571144323d47e800096358d9","bdp_rd","Sun Mar 26 2023 15:00:38 GMT-0400 (Eastern Daylight Time)","140941","","1063","","","","offer","","<div class='trialBorder'><div class='vertical-center'><img style='vertical-align:center; align:center' src=img/fixation3.jpg></div><div class='cl'><div class='vertical-center'>$13<br>for<br>sure</div></div><div class='cr'><div class='vertical-center'>$41<br>with a<br>50% chance</div></div><div class='respDivL'><div class='vertical-center'>(E)</div></div><div class='respDivR'><div class='vertical-center'>(I)</div></div></div>","I","$13","$41","0","13","41","RISKY"
"html-keyboard-response","69","66611","0.0-5.0-3.21","571144323d47e800096358d9","bdp_rd","Sun Mar 26 2023 15:00:38 GMT-0400 (Eastern Daylight Time)","140941","","null","","","","offerFB","","<div class='trialBorder'><div class='vertical-center'><img style='vertical-align:center; align:center' src=img/fixation3.jpg></div><div class='cl'><div class='vertical-center'>$13<br>for<br>sure</div></div><div class='cr'><div class='vertical-center'><font style='color:orange'>$41<br>with a<br>50% chance</font></div></div><div class='respDivL'><div class='vertical-center'>(E)</div></div><div class='respDivR'><div class='vertical-center'><font style='color:orange'>(I)</font></div></div></div>","null","$13","$41","0","13","41",""
"html-keyboard-response","70","67113","0.0-5.0-1.22","571144323d47e800096358d9","bdp_rd","Sun Mar 26 2023 15:00:38 GMT-0400 (Eastern Daylight Time)","140941","","null","","","","FIX","","<div class='trialBorder'><div class='vertical-center'><img style='vertical-align:center; align:center' src=img/fixation3.jpg></div></div>","null","","","","","",""
"html-keyboard-response","71","68232","0.0-5.0-2.22","571144323d47e800096358d9","bdp_rd","Sun Mar 26 2023 15:00:38 GMT-0400 (Eastern Daylight Time)","140941","","1118","","","","offer","","<div class='trialBorder'><div class='vertical-center'><img style='vertical-align:center; align:center' src=img/fixation3.jpg></div><div class='cl'><div class='vertical-center'>$3<br>for<br>sure</div></div><div class='cr'><div class='vertical-center'>$12<br>with a<br>50% chance</div></div><div class='respDivL'><div class='vertical-center'>(E)</div></div><div class='respDivR'><div class='vertical-center'>(I)</div></div></div>","I","$3","$12","0","3","12","RISKY"
"html-keyboard-response","72","68483","0.0-5.0-3.22","571144323d47e800096358d9","bdp_rd","Sun Mar 26 2023 15:00:38 GMT-0400 (Eastern Daylight Time)","140941","","null","","","","offerFB","","<div class='trialBorder'><div class='vertical-center'><img style='vertical-align:center; align:center' src=img/fixation3.jpg></div><div class='cl'><div class='vertical-center'>$3<br>for<br>sure</div></div><div class='cr'><div class='vertical-center'><font style='color:orange'>$12<br>with a<br>50% chance</font></div></div><div class='respDivL'><div class='vertical-center'>(E)</div></div><div class='respDivR'><div class='vertical-center'><font style='color:orange'>(I)</font></div></div></div>","null","$3","$12","0","3","12",""
"html-keyboard-response","73","68983","0.0-5.0-1.23","571144323d47e800096358d9","bdp_rd","Sun Mar 26 2023 15:00:38 GMT-0400 (Eastern Daylight Time)","140941","","null","","","","FIX","","<div class='trialBorder'><div class='vertical-center'><img style='vertical-align:center; align:center' src=img/fixation3.jpg></div></div>","null","","","","","",""
"html-keyboard-response","74","71072","0.0-5.0-2.23","571144323d47e800096358d9","bdp_rd","Sun Mar 26 2023 15:00:38 GMT-0400 (Eastern Daylight Time)","140941","","2088","","","","offer","","<div class='trialBorder'><div class='vertical-center'><img style='vertical-align:center; align:center' src=img/fixation3.jpg></div><div class='cl'><div class='vertical-center'>$37<br>with a<br>50% chance</div></div><div class='cr'><div class='vertical-center'>$20<br>for<br>sure</div></div><div class='respDivL'><div class='vertical-center'>(E)</div></div><div class='respDivR'><div class='vertical-center'>(I)</div></div></div>","I","$20","$37","1","20","37","SURE"
"html-keyboard-response","75","71324","0.0-5.0-3.23","571144323d47e800096358d9","bdp_rd","Sun Mar 26 2023 15:00:38 GMT-0400 (Eastern Daylight Time)","140941","","null","","","","offerFB","","<div class='trialBorder'><div class='vertical-center'><img style='vertical-align:center; align:center' src=img/fixation3.jpg></div><div class='cl'><div class='vertical-center'>$37<br>with a<br>50% chance</div></div><div class='cr'><div class='vertical-center'><font style='color:orange'>$20<br>for<br>sure</font></div></div><div class='respDivL'><div class='vertical-center'>(E)</div></div><div class='respDivR'><div class='vertical-center'><font style='color:orange'>(I)</font></div></div></div>","null","$20","$37","1","20","37",""
"html-keyboard-response","76","71826","0.0-5.0-1.24","571144323d47e800096358d9","bdp_rd","Sun Mar 26 2023 15:00:38 GMT-0400 (Eastern Daylight Time)","140941","","null","","","","FIX","","<div class='trialBorder'><div class='vertical-center'><img style='vertical-align:center; align:center' src=img/fixation3.jpg></div></div>","null","","","","","",""
"html-keyboard-response","77","72928","0.0-5.0-2.24","571144323d47e800096358d9","bdp_rd","Sun Mar 26 2023 15:00:38 GMT-0400 (Eastern Daylight Time)","140941","","1102","","","","offer","","<div class='trialBorder'><div class='vertical-center'><img style='vertical-align:center; align:center' src=img/fixation3.jpg></div><div class='cl'><div class='vertical-center'>$22<br>with a<br>50% chance</div></div><div class='cr'><div class='vertical-center'>$14<br>for<br>sure</div></div><div class='respDivL'><div class='vertical-center'>(E)</div></div><div class='respDivR'><div class='vertical-center'>(I)</div></div></div>","I","$14","$22","1","14","22","SURE"
"html-keyboard-response","78","73179","0.0-5.0-3.24","571144323d47e800096358d9","bdp_rd","Sun Mar 26 2023 15:00:38 GMT-0400 (Eastern Daylight Time)","140941","","null","","","","offerFB","","<div class='trialBorder'><div class='vertical-center'><img style='vertical-align:center; align:center' src=img/fixation3.jpg></div><div class='cl'><div class='vertical-center'>$22<br>with a<br>50% chance</div></div><div class='cr'><div class='vertical-center'><font style='color:orange'>$14<br>for<br>sure</font></div></div><div class='respDivL'><div class='vertical-center'>(E)</div></div><div class='respDivR'><div class='vertical-center'><font style='color:orange'>(I)</font></div></div></div>","null","$14","$22","1","14","22",""
"html-keyboard-response","79","73680","0.0-5.0-1.25","571144323d47e800096358d9","bdp_rd","Sun Mar 26 2023 15:00:38 GMT-0400 (Eastern Daylight Time)","140941","","null","","","","FIX","","<div class='trialBorder'><div class='vertical-center'><img style='vertical-align:center; align:center' src=img/fixation3.jpg></div></div>","null","","","","","",""
"html-keyboard-response","80","75136","0.0-5.0-2.25","571144323d47e800096358d9","bdp_rd","Sun Mar 26 2023 15:00:38 GMT-0400 (Eastern Daylight Time)","140941","","1456","","","","offer","","<div class='trialBorder'><div class='vertical-center'><img style='vertical-align:center; align:center' src=img/fixation3.jpg></div><div class='cl'><div class='vertical-center'>$37<br>for<br>sure</div></div><div class='cr'><div class='vertical-center'>$44<br>with a<br>50% chance</div></div><div class='respDivL'><div class='vertical-center'>(E)</div></div><div class='respDivR'><div class='vertical-center'>(I)</div></div></div>","E","$37","$44","0","37","44","SURE"
"html-keyboard-response","81","75387","0.0-5.0-3.25","571144323d47e800096358d9","bdp_rd","Sun Mar 26 2023 15:00:38 GMT-0400 (Eastern Daylight Time)","140941","","null","","","","offerFB","","<div class='trialBorder'><div class='vertical-center'><img style='vertical-align:center; align:center' src=img/fixation3.jpg></div><div class='cl'><div class='vertical-center'><font style='color:orange'>$37<br>for<br>sure</font></div></div><div class='cr'><div class='vertical-center'>$44<br>with a<br>50% chance</div></div><div class='respDivL'><div class='vertical-center'><font style='color:orange'>(E)</font></div></div><div class='respDivR'><div class='vertical-center'>(I)</div></div></div>","null","$37","$44","0","37","44",""
"html-keyboard-response","82","75888","0.0-5.0-1.26","571144323d47e800096358d9","bdp_rd","Sun Mar 26 2023 15:00:38 GMT-0400 (Eastern Daylight Time)","140941","","null","","","","FIX","","<div class='trialBorder'><div class='vertical-center'><img style='vertical-align:center; align:center' src=img/fixation3.jpg></div></div>","null","","","","","",""
"html-keyboard-response","83","77536","0.0-5.0-2.26","571144323d47e800096358d9","bdp_rd","Sun Mar 26 2023 15:00:38 GMT-0400 (Eastern Daylight Time)","140941","","1648","","","","offer","","<div class='trialBorder'><div class='vertical-center'><img style='vertical-align:center; align:center' src=img/fixation3.jpg></div><div class='cl'><div class='vertical-center'>$18<br>with a<br>50% chance</div></div><div class='cr'><div class='vertical-center'>$9<br>for<br>sure</div></div><div class='respDivL'><div class='vertical-center'>(E)</div></div><div class='respDivR'><div class='vertical-center'>(I)</div></div></div>","E","$9","$18","1","9","18","RISKY"
"html-keyboard-response","84","77787","0.0-5.0-3.26","571144323d47e800096358d9","bdp_rd","Sun Mar 26 2023 15:00:38 GMT-0400 (Eastern Daylight Time)","140941","","null","","","","offerFB","","<div class='trialBorder'><div class='vertical-center'><img style='vertical-align:center; align:center' src=img/fixation3.jpg></div><div class='cl'><div class='vertical-center'><font style='color:orange'>$18<br>with a<br>50% chance</font></div></div><div class='cr'><div class='vertical-center'>$9<br>for<br>sure</div></div><div class='respDivL'><div class='vertical-center'><font style='color:orange'>(E)</font></div></div><div class='respDivR'><div class='vertical-center'>(I)</div></div></div>","null","$9","$18","1","9","18",""
"html-keyboard-response","85","78288","0.0-5.0-1.27","571144323d47e800096358d9","bdp_rd","Sun Mar 26 2023 15:00:38 GMT-0400 (Eastern Daylight Time)","140941","","null","","","","FIX","","<div class='trialBorder'><div class='vertical-center'><img style='vertical-align:center; align:center' src=img/fixation3.jpg></div></div>","null","","","","","",""
"html-keyboard-response","86","79504","0.0-5.0-2.27","571144323d47e800096358d9","bdp_rd","Sun Mar 26 2023 15:00:38 GMT-0400 (Eastern Daylight Time)","140941","","1215","","","","offer","","<div class='trialBorder'><div class='vertical-center'><img style='vertical-align:center; align:center' src=img/fixation3.jpg></div><div class='cl'><div class='vertical-center'>$68<br>with a<br>50% chance</div></div><div class='cr'><div class='vertical-center'>$30<br>for<br>sure</div></div><div class='respDivL'><div class='vertical-center'>(E)</div></div><div class='respDivR'><div class='vertical-center'>(I)</div></div></div>","E","$30","$68","1","30","68","RISKY"
"html-keyboard-response","87","79756","0.0-5.0-3.27","571144323d47e800096358d9","bdp_rd","Sun Mar 26 2023 15:00:38 GMT-0400 (Eastern Daylight Time)","140941","","null","","","","offerFB","","<div class='trialBorder'><div class='vertical-center'><img style='vertical-align:center; align:center' src=img/fixation3.jpg></div><div class='cl'><div class='vertical-center'><font style='color:orange'>$68<br>with a<br>50% chance</font></div></div><div class='cr'><div class='vertical-center'>$30<br>for<br>sure</div></div><div class='respDivL'><div class='vertical-center'><font style='color:orange'>(E)</font></div></div><div class='respDivR'><div class='vertical-center'>(I)</div></div></div>","null","$30","$68","1","30","68",""
"html-keyboard-response","88","80257","0.0-5.0-1.28","571144323d47e800096358d9","bdp_rd","Sun Mar 26 2023 15:00:38 GMT-0400 (Eastern Daylight Time)","140941","","null","","","","FIX","","<div class='trialBorder'><div class='vertical-center'><img style='vertical-align:center; align:center' src=img/fixation3.jpg></div></div>","null","","","","","",""
"html-keyboard-response","89","81560","0.0-5.0-2.28","571144323d47e800096358d9","bdp_rd","Sun Mar 26 2023 15:00:38 GMT-0400 (Eastern Daylight Time)","140941","","1302","","","","offer","","<div class='trialBorder'><div class='vertical-center'><img style='vertical-align:center; align:center' src=img/fixation3.jpg></div><div class='cl'><div class='vertical-center'>$22<br>for<br>sure</div></div><div class='cr'><div class='vertical-center'>$59<br>with a<br>50% chance</div></div><div class='respDivL'><div class='vertical-center'>(E)</div></div><div class='respDivR'><div class='vertical-center'>(I)</div></div></div>","I","$22","$59","0","22","59","RISKY"
"html-keyboard-response","90","81812","0.0-5.0-3.28","571144323d47e800096358d9","bdp_rd","Sun Mar 26 2023 15:00:38 GMT-0400 (Eastern Daylight Time)","140941","","null","","","","offerFB","","<div class='trialBorder'><div class='vertical-center'><img style='vertical-align:center; align:center' src=img/fixation3.jpg></div><div class='cl'><div class='vertical-center'>$22<br>for<br>sure</div></div><div class='cr'><div class='vertical-center'><font style='color:orange'>$59<br>with a<br>50% chance</font></div></div><div class='respDivL'><div class='vertical-center'>(E)</div></div><div class='respDivR'><div class='vertical-center'><font style='color:orange'>(I)</font></div></div></div>","null","$22","$59","0","22","59",""
"html-keyboard-response","91","82313","0.0-5.0-1.29","571144323d47e800096358d9","bdp_rd","Sun Mar 26 2023 15:00:38 GMT-0400 (Eastern Daylight Time)","140941","","null","","","","FIX","","<div class='trialBorder'><div class='vertical-center'><img style='vertical-align:center; align:center' src=img/fixation3.jpg></div></div>","null","","","","","",""
"html-keyboard-response","92","83584","0.0-5.0-2.29","571144323d47e800096358d9","bdp_rd","Sun Mar 26 2023 15:00:38 GMT-0400 (Eastern Daylight Time)","140941","","1271","","","","offer","","<div class='trialBorder'><div class='vertical-center'><img style='vertical-align:center; align:center' src=img/fixation3.jpg></div><div class='cl'><div class='vertical-center'>$22<br>for<br>sure</div></div><div class='cr'><div class='vertical-center'>$42<br>with a<br>50% chance</div></div><div class='respDivL'><div class='vertical-center'>(E)</div></div><div class='respDivR'><div class='vertical-center'>(I)</div></div></div>","E","$22","$42","0","22","42","SURE"
"html-keyboard-response","93","83835","0.0-5.0-3.29","571144323d47e800096358d9","bdp_rd","Sun Mar 26 2023 15:00:38 GMT-0400 (Eastern Daylight Time)","140941","","null","","","","offerFB","","<div class='trialBorder'><div class='vertical-center'><img style='vertical-align:center; align:center' src=img/fixation3.jpg></div><div class='cl'><div class='vertical-center'><font style='color:orange'>$22<br>for<br>sure</font></div></div><div class='cr'><div class='vertical-center'>$42<br>with a<br>50% chance</div></div><div class='respDivL'><div class='vertical-center'><font style='color:orange'>(E)</font></div></div><div class='respDivR'><div class='vertical-center'>(I)</div></div></div>","null","$22","$42","0","22","42",""
"html-keyboard-response","94","84338","0.0-5.0-1.30","571144323d47e800096358d9","bdp_rd","Sun Mar 26 2023 15:00:38 GMT-0400 (Eastern Daylight Time)","140941","","null","","","","FIX","","<div class='trialBorder'><div class='vertical-center'><img style='vertical-align:center; align:center' src=img/fixation3.jpg></div></div>","null","","","","","",""
"html-keyboard-response","95","85360","0.0-5.0-2.30","571144323d47e800096358d9","bdp_rd","Sun Mar 26 2023 15:00:38 GMT-0400 (Eastern Daylight Time)","140941","","1022","","","","offer","","<div class='trialBorder'><div class='vertical-center'><img style='vertical-align:center; align:center' src=img/fixation3.jpg></div><div class='cl'><div class='vertical-center'>$2<br>for<br>sure</div></div><div class='cr'><div class='vertical-center'>$64<br>with a<br>50% chance</div></div><div class='respDivL'><div class='vertical-center'>(E)</div></div><div class='respDivR'><div class='vertical-center'>(I)</div></div></div>","I","$2","$64","0","2","64","RISKY"
"html-keyboard-response","96","85612","0.0-5.0-3.30","571144323d47e800096358d9","bdp_rd","Sun Mar 26 2023 15:00:38 GMT-0400 (Eastern Daylight Time)","140941","","null","","","","offerFB","","<div class='trialBorder'><div class='vertical-center'><img style='vertical-align:center; align:center' src=img/fixation3.jpg></div><div class='cl'><div class='vertical-center'>$2<br>for<br>sure</div></div><div class='cr'><div class='vertical-center'><font style='color:orange'>$64<br>with a<br>50% chance</font></div></div><div class='respDivL'><div class='vertical-center'>(E)</div></div><div class='respDivR'><div class='vertical-center'><font style='color:orange'>(I)</font></div></div></div>","null","$2","$64","0","2","64",""
"html-keyboard-response","97","86113","0.0-5.0-1.31","571144323d47e800096358d9","bdp_rd","Sun Mar 26 2023 15:00:38 GMT-0400 (Eastern Daylight Time)","140941","","null","","","","FIX","","<div class='trialBorder'><div class='vertical-center'><img style='vertical-align:center; align:center' src=img/fixation3.jpg></div></div>","null","","","","","",""
"html-keyboard-response","98","87424","0.0-5.0-2.31","571144323d47e800096358d9","bdp_rd","Sun Mar 26 2023 15:00:38 GMT-0400 (Eastern Daylight Time)","140941","","1311","","","","offer","","<div class='trialBorder'><div class='vertical-center'><img style='vertical-align:center; align:center' src=img/fixation3.jpg></div><div class='cl'><div class='vertical-center'>$25<br>with a<br>50% chance</div></div><div class='cr'><div class='vertical-center'>$21<br>for<br>sure</div></div><div class='respDivL'><div class='vertical-center'>(E)</div></div><div class='respDivR'><div class='vertical-center'>(I)</div></div></div>","I","$21","$25","1","21","25","SURE"
"html-keyboard-response","99","87676","0.0-5.0-3.31","571144323d47e800096358d9","bdp_rd","Sun Mar 26 2023 15:00:38 GMT-0400 (Eastern Daylight Time)","140941","","null","","","","offerFB","","<div class='trialBorder'><div class='vertical-center'><img style='vertical-align:center; align:center' src=img/fixation3.jpg></div><div class='cl'><div class='vertical-center'>$25<br>with a<br>50% chance</div></div><div class='cr'><div class='vertical-center'><font style='color:orange'>$21<br>for<br>sure</font></div></div><div class='respDivL'><div class='vertical-center'>(E)</div></div><div class='respDivR'><div class='vertical-center'><font style='color:orange'>(I)</font></div></div></div>","null","$21","$25","1","21","25",""
"html-keyboard-response","100","88177","0.0-5.0-1.32","571144323d47e800096358d9","bdp_rd","Sun Mar 26 2023 15:00:38 GMT-0400 (Eastern Daylight Time)","140941","","null","","","","FIX","","<div class='trialBorder'><div class='vertical-center'><img style='vertical-align:center; align:center' src=img/fixation3.jpg></div></div>","null","","","","","",""
"html-keyboard-response","101","89384","0.0-5.0-2.32","571144323d47e800096358d9","bdp_rd","Sun Mar 26 2023 15:00:38 GMT-0400 (Eastern Daylight Time)","140941","","1207","","","","offer","","<div class='trialBorder'><div class='vertical-center'><img style='vertical-align:center; align:center' src=img/fixation3.jpg></div><div class='cl'><div class='vertical-center'>$39<br>with a<br>50% chance</div></div><div class='cr'><div class='vertical-center'>$18<br>for<br>sure</div></div><div class='respDivL'><div class='vertical-center'>(E)</div></div><div class='respDivR'><div class='vertical-center'>(I)</div></div></div>","E","$18","$39","1","18","39","RISKY"
"html-keyboard-response","102","89636","0.0-5.0-3.32","571144323d47e800096358d9","bdp_rd","Sun Mar 26 2023 15:00:38 GMT-0400 (Eastern Daylight Time)","140941","","null","","","","offerFB","","<div class='trialBorder'><div class='vertical-center'><img style='vertical-align:center; align:center' src=img/fixation3.jpg></div><div class='cl'><div class='vertical-center'><font style='color:orange'>$39<br>with a<br>50% chance</font></div></div><div class='cr'><div class='vertical-center'>$18<br>for<br>sure</div></div><div class='respDivL'><div class='vertical-center'><font style='color:orange'>(E)</font></div></div><div class='respDivR'><div class='vertical-center'>(I)</div></div></div>","null","$18","$39","1","18","39",""
"html-keyboard-response","103","90138","0.0-5.0-1.33","571144323d47e800096358d9","bdp_rd","Sun Mar 26 2023 15:00:38 GMT-0400 (Eastern Daylight Time)","140941","","null","","","","FIX","","<div class='trialBorder'><div class='vertical-center'><img style='vertical-align:center; align:center' src=img/fixation3.jpg></div></div>","null","","","","","",""
"html-keyboard-response","104","91849","0.0-5.0-2.33","571144323d47e800096358d9","bdp_rd","Sun Mar 26 2023 15:00:38 GMT-0400 (Eastern Daylight Time)","140941","","1710","","","","offer","","<div class='trialBorder'><div class='vertical-center'><img style='vertical-align:center; align:center' src=img/fixation3.jpg></div><div class='cl'><div class='vertical-center'>$13<br>with a<br>50% chance</div></div><div class='cr'><div class='vertical-center'>$6<br>for<br>sure</div></div><div class='respDivL'><div class='vertical-center'>(E)</div></div><div class='respDivR'><div class='vertical-center'>(I)</div></div></div>","I","$6","$13","1","6","13","SURE"
"html-keyboard-response","105","92100","0.0-5.0-3.33","571144323d47e800096358d9","bdp_rd","Sun Mar 26 2023 15:00:38 GMT-0400 (Eastern Daylight Time)","140941","","null","","","","offerFB","","<div class='trialBorder'><div class='vertical-center'><img style='vertical-align:center; align:center' src=img/fixation3.jpg></div><div class='cl'><div class='vertical-center'>$13<br>with a<br>50% chance</div></div><div class='cr'><div class='vertical-center'><font style='color:orange'>$6<br>for<br>sure</font></div></div><div class='respDivL'><div class='vertical-center'>(E)</div></div><div class='respDivR'><div class='vertical-center'><font style='color:orange'>(I)</font></div></div></div>","null","$6","$13","1","6","13",""
"html-keyboard-response","106","92601","0.0-5.0-1.34","571144323d47e800096358d9","bdp_rd","Sun Mar 26 2023 15:00:38 GMT-0400 (Eastern Daylight Time)","140941","","null","","","","FIX","","<div class='trialBorder'><div class='vertical-center'><img style='vertical-align:center; align:center' src=img/fixation3.jpg></div></div>","null","","","","","",""
"html-keyboard-response","107","93712","0.0-5.0-2.34","571144323d47e800096358d9","bdp_rd","Sun Mar 26 2023 15:00:38 GMT-0400 (Eastern Daylight Time)","140941","","1111","","","","offer","","<div class='trialBorder'><div class='vertical-center'><img style='vertical-align:center; align:center' src=img/fixation3.jpg></div><div class='cl'><div class='vertical-center'>$70<br>with a<br>50% chance</div></div><div class='cr'><div class='vertical-center'>$24<br>for<br>sure</div></div><div class='respDivL'><div class='vertical-center'>(E)</div></div><div class='respDivR'><div class='vertical-center'>(I)</div></div></div>","E","$24","$70","1","24","70","RISKY"
"html-keyboard-response","108","93963","0.0-5.0-3.34","571144323d47e800096358d9","bdp_rd","Sun Mar 26 2023 15:00:38 GMT-0400 (Eastern Daylight Time)","140941","","null","","","","offerFB","","<div class='trialBorder'><div class='vertical-center'><img style='vertical-align:center; align:center' src=img/fixation3.jpg></div><div class='cl'><div class='vertical-center'><font style='color:orange'>$70<br>with a<br>50% chance</font></div></div><div class='cr'><div class='vertical-center'>$24<br>for<br>sure</div></div><div class='respDivL'><div class='vertical-center'><font style='color:orange'>(E)</font></div></div><div class='respDivR'><div class='vertical-center'>(I)</div></div></div>","null","$24","$70","1","24","70",""
"html-keyboard-response","109","94464","0.0-5.0-1.35","571144323d47e800096358d9","bdp_rd","Sun Mar 26 2023 15:00:38 GMT-0400 (Eastern Daylight Time)","140941","","null","","","","FIX","","<div class='trialBorder'><div class='vertical-center'><img style='vertical-align:center; align:center' src=img/fixation3.jpg></div></div>","null","","","","","",""
"html-keyboard-response","110","95400","0.0-5.0-2.35","571144323d47e800096358d9","bdp_rd","Sun Mar 26 2023 15:00:38 GMT-0400 (Eastern Daylight Time)","140941","","936","","","","offer","","<div class='trialBorder'><div class='vertical-center'><img style='vertical-align:center; align:center' src=img/fixation3.jpg></div><div class='cl'><div class='vertical-center'>$8<br>for<br>sure</div></div><div class='cr'><div class='vertical-center'>$23<br>with a<br>50% chance</div></div><div class='respDivL'><div class='vertical-center'>(E)</div></div><div class='respDivR'><div class='vertical-center'>(I)</div></div></div>","I","$8","$23","0","8","23","RISKY"
"html-keyboard-response","111","95652","0.0-5.0-3.35","571144323d47e800096358d9","bdp_rd","Sun Mar 26 2023 15:00:38 GMT-0400 (Eastern Daylight Time)","140941","","null","","","","offerFB","","<div class='trialBorder'><div class='vertical-center'><img style='vertical-align:center; align:center' src=img/fixation3.jpg></div><div class='cl'><div class='vertical-center'>$8<br>for<br>sure</div></div><div class='cr'><div class='vertical-center'><font style='color:orange'>$23<br>with a<br>50% chance</font></div></div><div class='respDivL'><div class='vertical-center'>(E)</div></div><div class='respDivR'><div class='vertical-center'><font style='color:orange'>(I)</font></div></div></div>","null","$8","$23","0","8","23",""
"html-keyboard-response","112","96153","0.0-5.0-1.36","571144323d47e800096358d9","bdp_rd","Sun Mar 26 2023 15:00:38 GMT-0400 (Eastern Daylight Time)","140941","","null","","","","FIX","","<div class='trialBorder'><div class='vertical-center'><img style='vertical-align:center; align:center' src=img/fixation3.jpg></div></div>","null","","","","","",""
"html-keyboard-response","113","96768","0.0-5.0-2.36","571144323d47e800096358d9","bdp_rd","Sun Mar 26 2023 15:00:38 GMT-0400 (Eastern Daylight Time)","140941","","615","","","","offer","","<div class='trialBorder'><div class='vertical-center'><img style='vertical-align:center; align:center' src=img/fixation3.jpg></div><div class='cl'><div class='vertical-center'>$7<br>for<br>sure</div></div><div class='cr'><div class='vertical-center'>$71<br>with a<br>50% chance</div></div><div class='respDivL'><div class='vertical-center'>(E)</div></div><div class='respDivR'><div class='vertical-center'>(I)</div></div></div>","I","$7","$71","0","7","71","RISKY"
"html-keyboard-response","114","97020","0.0-5.0-3.36","571144323d47e800096358d9","bdp_rd","Sun Mar 26 2023 15:00:38 GMT-0400 (Eastern Daylight Time)","140941","","null","","","","offerFB","","<div class='trialBorder'><div class='vertical-center'><img style='vertical-align:center; align:center' src=img/fixation3.jpg></div><div class='cl'><div class='vertical-center'>$7<br>for<br>sure</div></div><div class='cr'><div class='vertical-center'><font style='color:orange'>$71<br>with a<br>50% chance</font></div></div><div class='respDivL'><div class='vertical-center'>(E)</div></div><div class='respDivR'><div class='vertical-center'><font style='color:orange'>(I)</font></div></div></div>","null","$7","$71","0","7","71",""
"html-keyboard-response","115","97521","0.0-5.0-1.37","571144323d47e800096358d9","bdp_rd","Sun Mar 26 2023 15:00:38 GMT-0400 (Eastern Daylight Time)","140941","","null","","","","FIX","","<div class='trialBorder'><div class='vertical-center'><img style='vertical-align:center; align:center' src=img/fixation3.jpg></div></div>","null","","","","","",""
"html-keyboard-response","116","98504","0.0-5.0-2.37","571144323d47e800096358d9","bdp_rd","Sun Mar 26 2023 15:00:38 GMT-0400 (Eastern Daylight Time)","140941","","983","","","","offer","","<div class='trialBorder'><div class='vertical-center'><img style='vertical-align:center; align:center' src=img/fixation3.jpg></div><div class='cl'><div class='vertical-center'>$19<br>for<br>sure</div></div><div class='cr'><div class='vertical-center'>$51<br>with a<br>50% chance</div></div><div class='respDivL'><div class='vertical-center'>(E)</div></div><div class='respDivR'><div class='vertical-center'>(I)</div></div></div>","I","$19","$51","0","19","51","RISKY"
"html-keyboard-response","117","98755","0.0-5.0-3.37","571144323d47e800096358d9","bdp_rd","Sun Mar 26 2023 15:00:38 GMT-0400 (Eastern Daylight Time)","140941","","null","","","","offerFB","","<div class='trialBorder'><div class='vertical-center'><img style='vertical-align:center; align:center' src=img/fixation3.jpg></div><div class='cl'><div class='vertical-center'>$19<br>for<br>sure</div></div><div class='cr'><div class='vertical-center'><font style='color:orange'>$51<br>with a<br>50% chance</font></div></div><div class='respDivL'><div class='vertical-center'>(E)</div></div><div class='respDivR'><div class='vertical-center'><font style='color:orange'>(I)</font></div></div></div>","null","$19","$51","0","19","51",""
"html-keyboard-response","118","99257","0.0-5.0-1.38","571144323d47e800096358d9","bdp_rd","Sun Mar 26 2023 15:00:38 GMT-0400 (Eastern Daylight Time)","140941","","null","","","","FIX","","<div class='trialBorder'><div class='vertical-center'><img style='vertical-align:center; align:center' src=img/fixation3.jpg></div></div>","null","","","","","",""
"html-keyboard-response","119","101520","0.0-5.0-2.38","571144323d47e800096358d9","bdp_rd","Sun Mar 26 2023 15:00:38 GMT-0400 (Eastern Daylight Time)","140941","","2262","","","","offer","","<div class='trialBorder'><div class='vertical-center'><img style='vertical-align:center; align:center' src=img/fixation3.jpg></div><div class='cl'><div class='vertical-center'>$33<br>for<br>sure</div></div><div class='cr'><div class='vertical-center'>$66<br>with a<br>50% chance</div></div><div class='respDivL'><div class='vertical-center'>(E)</div></div><div class='respDivR'><div class='vertical-center'>(I)</div></div></div>","E","$33","$66","0","33","66","SURE"
"html-keyboard-response","120","101772","0.0-5.0-3.38","571144323d47e800096358d9","bdp_rd","Sun Mar 26 2023 15:00:38 GMT-0400 (Eastern Daylight Time)","140941","","null","","","","offerFB","","<div class='trialBorder'><div class='vertical-center'><img style='vertical-align:center; align:center' src=img/fixation3.jpg></div><div class='cl'><div class='vertical-center'><font style='color:orange'>$33<br>for<br>sure</font></div></div><div class='cr'><div class='vertical-center'>$66<br>with a<br>50% chance</div></div><div class='respDivL'><div class='vertical-center'><font style='color:orange'>(E)</font></div></div><div class='respDivR'><div class='vertical-center'>(I)</div></div></div>","null","$33","$66","0","33","66",""
"html-keyboard-response","121","102273","0.0-5.0-1.39","571144323d47e800096358d9","bdp_rd","Sun Mar 26 2023 15:00:38 GMT-0400 (Eastern Daylight Time)","140941","","null","","","","FIX","","<div class='trialBorder'><div class='vertical-center'><img style='vertical-align:center; align:center' src=img/fixation3.jpg></div></div>","null","","","","","",""
"html-keyboard-response","122","103656","0.0-5.0-2.39","571144323d47e800096358d9","bdp_rd","Sun Mar 26 2023 15:00:38 GMT-0400 (Eastern Daylight Time)","140941","","1383","","","","offer","","<div class='trialBorder'><div class='vertical-center'><img style='vertical-align:center; align:center' src=img/fixation3.jpg></div><div class='cl'><div class='vertical-center'>$28<br>with a<br>50% chance</div></div><div class='cr'><div class='vertical-center'>$16<br>for<br>sure</div></div><div class='respDivL'><div class='vertical-center'>(E)</div></div><div class='respDivR'><div class='vertical-center'>(I)</div></div></div>","I","$16","$28","1","16","28","SURE"
"html-keyboard-response","123","103908","0.0-5.0-3.39","571144323d47e800096358d9","bdp_rd","Sun Mar 26 2023 15:00:38 GMT-0400 (Eastern Daylight Time)","140941","","null","","","","offerFB","","<div class='trialBorder'><div class='vertical-center'><img style='vertical-align:center; align:center' src=img/fixation3.jpg></div><div class='cl'><div class='vertical-center'>$28<br>with a<br>50% chance</div></div><div class='cr'><div class='vertical-center'><font style='color:orange'>$16<br>for<br>sure</font></div></div><div class='respDivL'><div class='vertical-center'>(E)</div></div><div class='respDivR'><div class='vertical-center'><font style='color:orange'>(I)</font></div></div></div>","null","$16","$28","1","16","28",""
"html-keyboard-response","124","104409","0.0-5.0-1.40","571144323d47e800096358d9","bdp_rd","Sun Mar 26 2023 15:00:38 GMT-0400 (Eastern Daylight Time)","140941","","null","","","","FIX","","<div class='trialBorder'><div class='vertical-center'><img style='vertical-align:center; align:center' src=img/fixation3.jpg></div></div>","null","","","","","",""
"html-keyboard-response","125","105776","0.0-5.0-2.40","571144323d47e800096358d9","bdp_rd","Sun Mar 26 2023 15:00:38 GMT-0400 (Eastern Daylight Time)","140941","","1366","","","","offer","","<div class='trialBorder'><div class='vertical-center'><img style='vertical-align:center; align:center' src=img/fixation3.jpg></div><div class='cl'><div class='vertical-center'>$63<br>for<br>sure</div></div><div class='cr'><div class='vertical-center'>$100<br>with a<br>50% chance</div></div><div class='respDivL'><div class='vertical-center'>(E)</div></div><div class='respDivR'><div class='vertical-center'>(I)</div></div></div>","E","$63","$100","0","63","10","SURE"
"html-keyboard-response","126","106027","0.0-5.0-3.40","571144323d47e800096358d9","bdp_rd","Sun Mar 26 2023 15:00:38 GMT-0400 (Eastern Daylight Time)","140941","","null","","","","offerFB","","<div class='trialBorder'><div class='vertical-center'><img style='vertical-align:center; align:center' src=img/fixation3.jpg></div><div class='cl'><div class='vertical-center'><font style='color:orange'>$63<br>for<br>sure</font></div></div><div class='cr'><div class='vertical-center'>$100<br>with a<br>50% chance</div></div><div class='respDivL'><div class='vertical-center'><font style='color:orange'>(E)</font></div></div><div class='respDivR'><div class='vertical-center'>(I)</div></div></div>","null","$63","$100","0","63","10",""
"html-keyboard-response","127","106528","0.0-5.0-1.41","571144323d47e800096358d9","bdp_rd","Sun Mar 26 2023 15:00:38 GMT-0400 (Eastern Daylight Time)","140941","","null","","","","FIX","","<div class='trialBorder'><div class='vertical-center'><img style='vertical-align:center; align:center' src=img/fixation3.jpg></div></div>","null","","","","","",""
"html-keyboard-response","128","107384","0.0-5.0-2.41","571144323d47e800096358d9","bdp_rd","Sun Mar 26 2023 15:00:38 GMT-0400 (Eastern Daylight Time)","140941","","855","","","","offer","","<div class='trialBorder'><div class='vertical-center'><img style='vertical-align:center; align:center' src=img/fixation3.jpg></div><div class='cl'><div class='vertical-center'>$2<br>for<br>sure</div></div><div class='cr'><div class='vertical-center'>$21<br>with a<br>50% chance</div></div><div class='respDivL'><div class='vertical-center'>(E)</div></div><div class='respDivR'><div class='vertical-center'>(I)</div></div></div>","I","$2","$21","0","2","21","RISKY"
"html-keyboard-response","129","107636","0.0-5.0-3.41","571144323d47e800096358d9","bdp_rd","Sun Mar 26 2023 15:00:38 GMT-0400 (Eastern Daylight Time)","140941","","null","","","","offerFB","","<div class='trialBorder'><div class='vertical-center'><img style='vertical-align:center; align:center' src=img/fixation3.jpg></div><div class='cl'><div class='vertical-center'>$2<br>for<br>sure</div></div><div class='cr'><div class='vertical-center'><font style='color:orange'>$21<br>with a<br>50% chance</font></div></div><div class='respDivL'><div class='vertical-center'>(E)</div></div><div class='respDivR'><div class='vertical-center'><font style='color:orange'>(I)</font></div></div></div>","null","$2","$21","0","2","21",""
"html-keyboard-response","130","108137","0.0-5.0-1.42","571144323d47e800096358d9","bdp_rd","Sun Mar 26 2023 15:00:38 GMT-0400 (Eastern Daylight Time)","140941","","null","","","","FIX","","<div class='trialBorder'><div class='vertical-center'><img style='vertical-align:center; align:center' src=img/fixation3.jpg></div></div>","null","","","","","",""
"html-keyboard-response","131","109264","0.0-5.0-2.42","571144323d47e800096358d9","bdp_rd","Sun Mar 26 2023 15:00:38 GMT-0400 (Eastern Daylight Time)","140941","","1126","","","","offer","","<div class='trialBorder'><div class='vertical-center'><img style='vertical-align:center; align:center' src=img/fixation3.jpg></div><div class='cl'><div class='vertical-center'>$31<br>for<br>sure</div></div><div class='cr'><div class='vertical-center'>$78<br>with a<br>50% chance</div></div><div class='respDivL'><div class='vertical-center'>(E)</div></div><div class='respDivR'><div class='vertical-center'>(I)</div></div></div>","I","$31","$78","0","31","78","RISKY"
"html-keyboard-response","132","109515","0.0-5.0-3.42","571144323d47e800096358d9","bdp_rd","Sun Mar 26 2023 15:00:38 GMT-0400 (Eastern Daylight Time)","140941","","null","","","","offerFB","","<div class='trialBorder'><div class='vertical-center'><img style='vertical-align:center; align:center' src=img/fixation3.jpg></div><div class='cl'><div class='vertical-center'>$31<br>for<br>sure</div></div><div class='cr'><div class='vertical-center'><font style='color:orange'>$78<br>with a<br>50% chance</font></div></div><div class='respDivL'><div class='vertical-center'>(E)</div></div><div class='respDivR'><div class='vertical-center'><font style='color:orange'>(I)</font></div></div></div>","null","$31","$78","0","31","78",""
"html-keyboard-response","133","110017","0.0-5.0-1.43","571144323d47e800096358d9","bdp_rd","Sun Mar 26 2023 15:00:38 GMT-0400 (Eastern Daylight Time)","140941","","null","","","","FIX","","<div class='trialBorder'><div class='vertical-center'><img style='vertical-align:center; align:center' src=img/fixation3.jpg></div></div>","null","","","","","",""
"html-keyboard-response","134","110848","0.0-5.0-2.43","571144323d47e800096358d9","bdp_rd","Sun Mar 26 2023 15:00:38 GMT-0400 (Eastern Daylight Time)","140941","","831","","","","offer","","<div class='trialBorder'><div class='vertical-center'><img style='vertical-align:center; align:center' src=img/fixation3.jpg></div><div class='cl'><div class='vertical-center'>$20<br>for<br>sure</div></div><div class='cr'><div class='vertical-center'>$80<br>with a<br>50% chance</div></div><div class='respDivL'><div class='vertical-center'>(E)</div></div><div class='respDivR'><div class='vertical-center'>(I)</div></div></div>","I","$20","$80","0","20","80","RISKY"
"html-keyboard-response","135","111100","0.0-5.0-3.43","571144323d47e800096358d9","bdp_rd","Sun Mar 26 2023 15:00:38 GMT-0400 (Eastern Daylight Time)","140941","","null","","","","offerFB","","<div class='trialBorder'><div class='vertical-center'><img style='vertical-align:center; align:center' src=img/fixation3.jpg></div><div class='cl'><div class='vertical-center'>$20<br>for<br>sure</div></div><div class='cr'><div class='vertical-center'><font style='color:orange'>$80<br>with a<br>50% chance</font></div></div><div class='respDivL'><div class='vertical-center'>(E)</div></div><div class='respDivR'><div class='vertical-center'><font style='color:orange'>(I)</font></div></div></div>","null","$20","$80","0","20","80",""
"html-keyboard-response","136","111601","0.0-5.0-1.44","571144323d47e800096358d9","bdp_rd","Sun Mar 26 2023 15:00:38 GMT-0400 (Eastern Daylight Time)","140941","","null","","","","FIX","","<div class='trialBorder'><div class='vertical-center'><img style='vertical-align:center; align:center' src=img/fixation3.jpg></div></div>","null","","","","","",""
"html-keyboard-response","137","112760","0.0-5.0-2.44","571144323d47e800096358d9","bdp_rd","Sun Mar 26 2023 15:00:38 GMT-0400 (Eastern Daylight Time)","140941","","1158","","","","offer","","<div class='trialBorder'><div class='vertical-center'><img style='vertical-align:center; align:center' src=img/fixation3.jpg></div><div class='cl'><div class='vertical-center'>$40<br>for<br>sure</div></div><div class='cr'><div class='vertical-center'>$95<br>with a<br>50% chance</div></div><div class='respDivL'><div class='vertical-center'>(E)</div></div><div class='respDivR'><div class='vertical-center'>(I)</div></div></div>","I","$40","$95","0","40","95","RISKY"
"html-keyboard-response","138","113012","0.0-5.0-3.44","571144323d47e800096358d9","bdp_rd","Sun Mar 26 2023 15:00:38 GMT-0400 (Eastern Daylight Time)","140941","","null","","","","offerFB","","<div class='trialBorder'><div class='vertical-center'><img style='vertical-align:center; align:center' src=img/fixation3.jpg></div><div class='cl'><div class='vertical-center'>$40<br>for<br>sure</div></div><div class='cr'><div class='vertical-center'><font style='color:orange'>$95<br>with a<br>50% chance</font></div></div><div class='respDivL'><div class='vertical-center'>(E)</div></div><div class='respDivR'><div class='vertical-center'><font style='color:orange'>(I)</font></div></div></div>","null","$40","$95","0","40","95",""
"html-keyboard-response","139","113513","0.0-5.0-1.45","571144323d47e800096358d9","bdp_rd","Sun Mar 26 2023 15:00:38 GMT-0400 (Eastern Daylight Time)","140941","","null","","","","FIX","","<div class='trialBorder'><div class='vertical-center'><img style='vertical-align:center; align:center' src=img/fixation3.jpg></div></div>","null","","","","","",""
"html-keyboard-response","140","114808","0.0-5.0-2.45","571144323d47e800096358d9","bdp_rd","Sun Mar 26 2023 15:00:38 GMT-0400 (Eastern Daylight Time)","140941","","1294","","","","offer","","<div class='trialBorder'><div class='vertical-center'><img style='vertical-align:center; align:center' src=img/fixation3.jpg></div><div class='cl'><div class='vertical-center'>$7<br>for<br>sure</div></div><div class='cr'><div class='vertical-center'>$10<br>with a<br>50% chance</div></div><div class='respDivL'><div class='vertical-center'>(E)</div></div><div class='respDivR'><div class='vertical-center'>(I)</div></div></div>","E","$7","$10","0","7","10","SURE"
"html-keyboard-response","141","115059","0.0-5.0-3.45","571144323d47e800096358d9","bdp_rd","Sun Mar 26 2023 15:00:38 GMT-0400 (Eastern Daylight Time)","140941","","null","","","","offerFB","","<div class='trialBorder'><div class='vertical-center'><img style='vertical-align:center; align:center' src=img/fixation3.jpg></div><div class='cl'><div class='vertical-center'><font style='color:orange'>$7<br>for<br>sure</font></div></div><div class='cr'><div class='vertical-center'>$10<br>with a<br>50% chance</div></div><div class='respDivL'><div class='vertical-center'><font style='color:orange'>(E)</font></div></div><div class='respDivR'><div class='vertical-center'>(I)</div></div></div>","null","$7","$10","0","7","10",""
"html-keyboard-response","142","115560","0.0-5.0-1.46","571144323d47e800096358d9","bdp_rd","Sun Mar 26 2023 15:00:38 GMT-0400 (Eastern Daylight Time)","140941","","null","","","","FIX","","<div class='trialBorder'><div class='vertical-center'><img style='vertical-align:center; align:center' src=img/fixation3.jpg></div></div>","null","","","","","",""
"html-keyboard-response","143","116296","0.0-5.0-2.46","571144323d47e800096358d9","bdp_rd","Sun Mar 26 2023 15:00:38 GMT-0400 (Eastern Daylight Time)","140941","","735","","","","offer","","<div class='trialBorder'><div class='vertical-center'><img style='vertical-align:center; align:center' src=img/fixation3.jpg></div><div class='cl'><div class='vertical-center'>$1<br>for<br>sure</div></div><div class='cr'><div class='vertical-center'>$30<br>with a<br>50% chance</div></div><div class='respDivL'><div class='vertical-center'>(E)</div></div><div class='respDivR'><div class='vertical-center'>(I)</div></div></div>","I","$1","$30","0","1","30","RISKY"
"html-keyboard-response","144","116547","0.0-5.0-3.46","571144323d47e800096358d9","bdp_rd","Sun Mar 26 2023 15:00:38 GMT-0400 (Eastern Daylight Time)","140941","","null","","","","offerFB","","<div class='trialBorder'><div class='vertical-center'><img style='vertical-align:center; align:center' src=img/fixation3.jpg></div><div class='cl'><div class='vertical-center'>$1<br>for<br>sure</div></div><div class='cr'><div class='vertical-center'><font style='color:orange'>$30<br>with a<br>50% chance</font></div></div><div class='respDivL'><div class='vertical-center'>(E)</div></div><div class='respDivR'><div class='vertical-center'><font style='color:orange'>(I)</font></div></div></div>","null","$1","$30","0","1","30",""
"html-keyboard-response","145","117048","0.0-5.0-1.47","571144323d47e800096358d9","bdp_rd","Sun Mar 26 2023 15:00:38 GMT-0400 (Eastern Daylight Time)","140941","","null","","","","FIX","","<div class='trialBorder'><div class='vertical-center'><img style='vertical-align:center; align:center' src=img/fixation3.jpg></div></div>","null","","","","","",""
"html-keyboard-response","146","118248","0.0-5.0-2.47","571144323d47e800096358d9","bdp_rd","Sun Mar 26 2023 15:00:38 GMT-0400 (Eastern Daylight Time)","140941","","1199","","","","offer","","<div class='trialBorder'><div class='vertical-center'><img style='vertical-align:center; align:center' src=img/fixation3.jpg></div><div class='cl'><div class='vertical-center'>$29<br>for<br>sure</div></div><div class='cr'><div class='vertical-center'>$46<br>with a<br>50% chance</div></div><div class='respDivL'><div class='vertical-center'>(E)</div></div><div class='respDivR'><div class='vertical-center'>(I)</div></div></div>","E","$29","$46","0","29","46","SURE"
"html-keyboard-response","147","118500","0.0-5.0-3.47","571144323d47e800096358d9","bdp_rd","Sun Mar 26 2023 15:00:38 GMT-0400 (Eastern Daylight Time)","140941","","null","","","","offerFB","","<div class='trialBorder'><div class='vertical-center'><img style='vertical-align:center; align:center' src=img/fixation3.jpg></div><div class='cl'><div class='vertical-center'><font style='color:orange'>$29<br>for<br>sure</font></div></div><div class='cr'><div class='vertical-center'>$46<br>with a<br>50% chance</div></div><div class='respDivL'><div class='vertical-center'><font style='color:orange'>(E)</font></div></div><div class='respDivR'><div class='vertical-center'>(I)</div></div></div>","null","$29","$46","0","29","46",""
"html-keyboard-response","148","119001","0.0-5.0-1.48","571144323d47e800096358d9","bdp_rd","Sun Mar 26 2023 15:00:38 GMT-0400 (Eastern Daylight Time)","140941","","null","","","","FIX","","<div class='trialBorder'><div class='vertical-center'><img style='vertical-align:center; align:center' src=img/fixation3.jpg></div></div>","null","","","","","",""
"html-keyboard-response","149","119712","0.0-5.0-2.48","571144323d47e800096358d9","bdp_rd","Sun Mar 26 2023 15:00:38 GMT-0400 (Eastern Daylight Time)","140941","","710","","","","offer","","<div class='trialBorder'><div class='vertical-center'><img style='vertical-align:center; align:center' src=img/fixation3.jpg></div><div class='cl'><div class='vertical-center'>$11<br>with a<br>50% chance</div></div><div class='cr'><div class='vertical-center'>$4<br>for<br>sure</div></div><div class='respDivL'><div class='vertical-center'>(E)</div></div><div class='respDivR'><div class='vertical-center'>(I)</div></div></div>","E","$4","$11","1","4","11","RISKY"
"html-keyboard-response","150","119963","0.0-5.0-3.48","571144323d47e800096358d9","bdp_rd","Sun Mar 26 2023 15:00:38 GMT-0400 (Eastern Daylight Time)","140941","","null","","","","offerFB","","<div class='trialBorder'><div class='vertical-center'><img style='vertical-align:center; align:center' src=img/fixation3.jpg></div><div class='cl'><div class='vertical-center'><font style='color:orange'>$11<br>with a<br>50% chance</font></div></div><div class='cr'><div class='vertical-center'>$4<br>for<br>sure</div></div><div class='respDivL'><div class='vertical-center'><font style='color:orange'>(E)</font></div></div><div class='respDivR'><div class='vertical-center'>(I)</div></div></div>","null","$4","$11","1","4","11",""
"html-keyboard-response","151","120465","0.0-5.0-1.49","571144323d47e800096358d9","bdp_rd","Sun Mar 26 2023 15:00:38 GMT-0400 (Eastern Daylight Time)","140941","","null","","","","FIX","","<div class='trialBorder'><div class='vertical-center'><img style='vertical-align:center; align:center' src=img/fixation3.jpg></div></div>","null","","","","","",""
"html-keyboard-response","152","121224","0.0-5.0-2.49","571144323d47e800096358d9","bdp_rd","Sun Mar 26 2023 15:00:38 GMT-0400 (Eastern Daylight Time)","140941","","759","","","","offer","","<div class='trialBorder'><div class='vertical-center'><img style='vertical-align:center; align:center' src=img/fixation3.jpg></div><div class='cl'><div class='vertical-center'>$14<br>with a<br>50% chance</div></div><div class='cr'><div class='vertical-center'>$4<br>for<br>sure</div></div><div class='respDivL'><div class='vertical-center'>(E)</div></div><div class='respDivR'><div class='vertical-center'>(I)</div></div></div>","E","$4","$14","1","4","14","RISKY"
"html-keyboard-response","153","121476","0.0-5.0-3.49","571144323d47e800096358d9","bdp_rd","Sun Mar 26 2023 15:00:38 GMT-0400 (Eastern Daylight Time)","140941","","null","","","","offerFB","","<div class='trialBorder'><div class='vertical-center'><img style='vertical-align:center; align:center' src=img/fixation3.jpg></div><div class='cl'><div class='vertical-center'><font style='color:orange'>$14<br>with a<br>50% chance</font></div></div><div class='cr'><div class='vertical-center'>$4<br>for<br>sure</div></div><div class='respDivL'><div class='vertical-center'><font style='color:orange'>(E)</font></div></div><div class='respDivR'><div class='vertical-center'>(I)</div></div></div>","null","$4","$14","1","4","14",""
"html-keyboard-response","154","121977","0.0-5.0-1.50","571144323d47e800096358d9","bdp_rd","Sun Mar 26 2023 15:00:38 GMT-0400 (Eastern Daylight Time)","140941","","null","","","","FIX","","<div class='trialBorder'><div class='vertical-center'><img style='vertical-align:center; align:center' src=img/fixation3.jpg></div></div>","null","","","","","",""
"html-keyboard-response","155","123768","0.0-5.0-2.50","571144323d47e800096358d9","bdp_rd","Sun Mar 26 2023 15:00:38 GMT-0400 (Eastern Daylight Time)","140941","","1791","","","","offer","","<div class='trialBorder'><div class='vertical-center'><img style='vertical-align:center; align:center' src=img/fixation3.jpg></div><div class='cl'><div class='vertical-center'>$13<br>for<br>sure</div></div><div class='cr'><div class='vertical-center'>$24<br>with a<br>50% chance</div></div><div class='respDivL'><div class='vertical-center'>(E)</div></div><div class='respDivR'><div class='vertical-center'>(I)</div></div></div>","I","$13","$24","0","13","24","RISKY"
"html-keyboard-response","156","124019","0.0-5.0-3.50","571144323d47e800096358d9","bdp_rd","Sun Mar 26 2023 15:00:38 GMT-0400 (Eastern Daylight Time)","140941","","null","","","","offerFB","","<div class='trialBorder'><div class='vertical-center'><img style='vertical-align:center; align:center' src=img/fixation3.jpg></div><div class='cl'><div class='vertical-center'>$13<br>for<br>sure</div></div><div class='cr'><div class='vertical-center'><font style='color:orange'>$24<br>with a<br>50% chance</font></div></div><div class='respDivL'><div class='vertical-center'>(E)</div></div><div class='respDivR'><div class='vertical-center'><font style='color:orange'>(I)</font></div></div></div>","null","$13","$24","0","13","24",""
"html-keyboard-response","157","124521","0.0-5.0-1.51","571144323d47e800096358d9","bdp_rd","Sun Mar 26 2023 15:00:38 GMT-0400 (Eastern Daylight Time)","140941","","null","","","","FIX","","<div class='trialBorder'><div class='vertical-center'><img style='vertical-align:center; align:center' src=img/fixation3.jpg></div></div>","null","","","","","",""
"html-keyboard-response","158","126144","0.0-5.0-2.51","571144323d47e800096358d9","bdp_rd","Sun Mar 26 2023 15:00:38 GMT-0400 (Eastern Daylight Time)","140941","","1622","","","","offer","","<div class='trialBorder'><div class='vertical-center'><img style='vertical-align:center; align:center' src=img/fixation3.jpg></div><div class='cl'><div class='vertical-center'>$46<br>for<br>sure</div></div><div class='cr'><div class='vertical-center'>$65<br>with a<br>50% chance</div></div><div class='respDivL'><div class='vertical-center'>(E)</div></div><div class='respDivR'><div class='vertical-center'>(I)</div></div></div>","E","$46","$65","0","46","65","SURE"
"html-keyboard-response","159","126395","0.0-5.0-3.51","571144323d47e800096358d9","bdp_rd","Sun Mar 26 2023 15:00:38 GMT-0400 (Eastern Daylight Time)","140941","","null","","","","offerFB","","<div class='trialBorder'><div class='vertical-center'><img style='vertical-align:center; align:center' src=img/fixation3.jpg></div><div class='cl'><div class='vertical-center'><font style='color:orange'>$46<br>for<br>sure</font></div></div><div class='cr'><div class='vertical-center'>$65<br>with a<br>50% chance</div></div><div class='respDivL'><div class='vertical-center'><font style='color:orange'>(E)</font></div></div><div class='respDivR'><div class='vertical-center'>(I)</div></div></div>","null","$46","$65","0","46","65",""
"html-keyboard-response","160","126896","0.0-5.0-1.52","571144323d47e800096358d9","bdp_rd","Sun Mar 26 2023 15:00:38 GMT-0400 (Eastern Daylight Time)","140941","","null","","","","FIX","","<div class='trialBorder'><div class='vertical-center'><img style='vertical-align:center; align:center' src=img/fixation3.jpg></div></div>","null","","","","","",""
"html-keyboard-response","161","127648","0.0-5.0-2.52","571144323d47e800096358d9","bdp_rd","Sun Mar 26 2023 15:00:38 GMT-0400 (Eastern Daylight Time)","140941","","751","","","","offer","","<div class='trialBorder'><div class='vertical-center'><img style='vertical-align:center; align:center' src=img/fixation3.jpg></div><div class='cl'><div class='vertical-center'>$50<br>with a<br>50% chance</div></div><div class='cr'><div class='vertical-center'>$5<br>for<br>sure</div></div><div class='respDivL'><div class='vertical-center'>(E)</div></div><div class='respDivR'><div class='vertical-center'>(I)</div></div></div>","E","$5","$50","1","5","50","RISKY"
"html-keyboard-response","162","127899","0.0-5.0-3.52","571144323d47e800096358d9","bdp_rd","Sun Mar 26 2023 15:00:38 GMT-0400 (Eastern Daylight Time)","140941","","null","","","","offerFB","","<div class='trialBorder'><div class='vertical-center'><img style='vertical-align:center; align:center' src=img/fixation3.jpg></div><div class='cl'><div class='vertical-center'><font style='color:orange'>$50<br>with a<br>50% chance</font></div></div><div class='cr'><div class='vertical-center'>$5<br>for<br>sure</div></div><div class='respDivL'><div class='vertical-center'><font style='color:orange'>(E)</font></div></div><div class='respDivR'><div class='vertical-center'>(I)</div></div></div>","null","$5","$50","1","5","50",""
"html-keyboard-response","163","128400","0.0-5.0-1.53","571144323d47e800096358d9","bdp_rd","Sun Mar 26 2023 15:00:38 GMT-0400 (Eastern Daylight Time)","140941","","null","","","","FIX","","<div class='trialBorder'><div class='vertical-center'><img style='vertical-align:center; align:center' src=img/fixation3.jpg></div></div>","null","","","","","",""
"html-keyboard-response","164","129472","0.0-5.0-2.53","571144323d47e800096358d9","bdp_rd","Sun Mar 26 2023 15:00:38 GMT-0400 (Eastern Daylight Time)","140941","","1071","","","","offer","","<div class='trialBorder'><div class='vertical-center'><img style='vertical-align:center; align:center' src=img/fixation3.jpg></div><div class='cl'><div class='vertical-center'>$38<br>with a<br>50% chance</div></div><div class='cr'><div class='vertical-center'>$16<br>for<br>sure</div></div><div class='respDivL'><div class='vertical-center'>(E)</div></div><div class='respDivR'><div class='vertical-center'>(I)</div></div></div>","E","$16","$38","1","16","38","RISKY"
"html-keyboard-response","165","129724","0.0-5.0-3.53","571144323d47e800096358d9","bdp_rd","Sun Mar 26 2023 15:00:38 GMT-0400 (Eastern Daylight Time)","140941","","null","","","","offerFB","","<div class='trialBorder'><div class='vertical-center'><img style='vertical-align:center; align:center' src=img/fixation3.jpg></div><div class='cl'><div class='vertical-center'><font style='color:orange'>$38<br>with a<br>50% chance</font></div></div><div class='cr'><div class='vertical-center'>$16<br>for<br>sure</div></div><div class='respDivL'><div class='vertical-center'><font style='color:orange'>(E)</font></div></div><div class='respDivR'><div class='vertical-center'>(I)</div></div></div>","null","$16","$38","1","16","38",""
"html-keyboard-response","166","130226","0.0-5.0-1.54","571144323d47e800096358d9","bdp_rd","Sun Mar 26 2023 15:00:38 GMT-0400 (Eastern Daylight Time)","140941","","null","","","","FIX","","<div class='trialBorder'><div class='vertical-center'><img style='vertical-align:center; align:center' src=img/fixation3.jpg></div></div>","null","","","","","",""
"html-keyboard-response","167","131072","0.0-5.0-2.54","571144323d47e800096358d9","bdp_rd","Sun Mar 26 2023 15:00:38 GMT-0400 (Eastern Daylight Time)","140941","","846","","","","offer","","<div class='trialBorder'><div class='vertical-center'><img style='vertical-align:center; align:center' src=img/fixation3.jpg></div><div class='cl'><div class='vertical-center'>$73<br>with a<br>50% chance</div></div><div class='cr'><div class='vertical-center'>$42<br>for<br>sure</div></div><div class='respDivL'><div class='vertical-center'>(E)</div></div><div class='respDivR'><div class='vertical-center'>(I)</div></div></div>","E","$42","$73","1","42","73","RISKY"
"html-keyboard-response","168","131323","0.0-5.0-3.54","571144323d47e800096358d9","bdp_rd","Sun Mar 26 2023 15:00:38 GMT-0400 (Eastern Daylight Time)","140941","","null","","","","offerFB","","<div class='trialBorder'><div class='vertical-center'><img style='vertical-align:center; align:center' src=img/fixation3.jpg></div><div class='cl'><div class='vertical-center'><font style='color:orange'>$73<br>with a<br>50% chance</font></div></div><div class='cr'><div class='vertical-center'>$42<br>for<br>sure</div></div><div class='respDivL'><div class='vertical-center'><font style='color:orange'>(E)</font></div></div><div class='respDivR'><div class='vertical-center'>(I)</div></div></div>","null","$42","$73","1","42","73",""
"html-keyboard-response","169","131824","0.0-5.0-1.55","571144323d47e800096358d9","bdp_rd","Sun Mar 26 2023 15:00:38 GMT-0400 (Eastern Daylight Time)","140941","","null","","","","FIX","","<div class='trialBorder'><div class='vertical-center'><img style='vertical-align:center; align:center' src=img/fixation3.jpg></div></div>","null","","","","","",""
"html-keyboard-response","170","132648","0.0-5.0-2.55","571144323d47e800096358d9","bdp_rd","Sun Mar 26 2023 15:00:38 GMT-0400 (Eastern Daylight Time)","140941","","823","","","","offer","","<div class='trialBorder'><div class='vertical-center'><img style='vertical-align:center; align:center' src=img/fixation3.jpg></div><div class='cl'><div class='vertical-center'>$27<br>with a<br>50% chance</div></div><div class='cr'><div class='vertical-center'>$12<br>for<br>sure</div></div><div class='respDivL'><div class='vertical-center'>(E)</div></div><div class='respDivR'><div class='vertical-center'>(I)</div></div></div>","E","$12","$27","1","12","27","RISKY"
"html-keyboard-response","171","132900","0.0-5.0-3.55","571144323d47e800096358d9","bdp_rd","Sun Mar 26 2023 15:00:38 GMT-0400 (Eastern Daylight Time)","140941","","null","","","","offerFB","","<div class='trialBorder'><div class='vertical-center'><img style='vertical-align:center; align:center' src=img/fixation3.jpg></div><div class='cl'><div class='vertical-center'><font style='color:orange'>$27<br>with a<br>50% chance</font></div></div><div class='cr'><div class='vertical-center'>$12<br>for<br>sure</div></div><div class='respDivL'><div class='vertical-center'><font style='color:orange'>(E)</font></div></div><div class='respDivR'><div class='vertical-center'>(I)</div></div></div>","null","$12","$27","1","12","27",""
"html-keyboard-response","172","133401","0.0-5.0-1.56","571144323d47e800096358d9","bdp_rd","Sun Mar 26 2023 15:00:38 GMT-0400 (Eastern Daylight Time)","140941","","null","","","","FIX","","<div class='trialBorder'><div class='vertical-center'><img style='vertical-align:center; align:center' src=img/fixation3.jpg></div></div>","null","","","","","",""
"html-keyboard-response","173","134184","0.0-5.0-2.56","571144323d47e800096358d9","bdp_rd","Sun Mar 26 2023 15:00:38 GMT-0400 (Eastern Daylight Time)","140941","","781","","","","offer","","<div class='trialBorder'><div class='vertical-center'><img style='vertical-align:center; align:center' src=img/fixation3.jpg></div><div class='cl'><div class='vertical-center'>$32<br>with a<br>50% chance</div></div><div class='cr'><div class='vertical-center'>$9<br>for<br>sure</div></div><div class='respDivL'><div class='vertical-center'>(E)</div></div><div class='respDivR'><div class='vertical-center'>(I)</div></div></div>","E","$9","$32","1","9","32","RISKY"
