"trial_type","trial_index","time_elapsed","internal_node_id","subject_id","task","startTime","totalTime","view_history","rt","event","trial","time","trialtype","success","stimulus","key_press","sureOffer","riskyOffer","riskyLeft","sureAmt","riskyAmt","chosen"
"pavlovia","0","3","0.0-0.0","63ee59dc6e5fbabca14d3d16","bdp_rd","Tue Mar 28 2023 21:44:09 GMT-0400 (Eastern Daylight Time)","228078","","","","","","","","","","","","","","",""
"instructions","1","1204","0.0-1.0","63ee59dc6e5fbabca14d3d16","bdp_rd","Tue Mar 28 2023 21:44:09 GMT-0400 (Eastern Daylight Time)","228078","[{""page_index"":0,""viewing_time"":1201}]","1201","","","","","","","","","","","","",""
"","","","","63ee59dc6e5fbabca14d3d16","bdp_rd","Tue Mar 28 2023 21:44:09 GMT-0400 (Eastern Daylight Time)","228078","","","fullscreenenter","2","3513","fullscreenenter","","","","","","","","",""
"fullscreen","2","4506","0.0-2.0","63ee59dc6e5fbabca14d3d16","bdp_rd","Tue Mar 28 2023 21:44:09 GMT-0400 (Eastern Daylight Time)","228078","","","","","","","true","","","","","","","",""
"instructions","3","28904","0.0-4.0","63ee59dc6e5fbabca14d3d16","bdp_rd","Tue Mar 28 2023 21:44:09 GMT-0400 (Eastern Daylight Time)","228078","[{""page_index"":0,""viewing_time"":16397},{""page_index"":1,""viewing_time"":4947},{""page_index"":2,""viewing_time"":3052}]","24396","","","","","","","","","","","","",""
"html-keyboard-response","4","29405","0.0-5.0-1.0","63ee59dc6e5fbabca14d3d16","bdp_rd","Tue Mar 28 2023 21:44:09 GMT-0400 (Eastern Daylight Time)","228078","","null","","","","FIX","","<div class='trialBorder'><div class='vertical-center'><img style='vertical-align:center; align:center' src=img/fixation3.jpg></div></div>","null","","","","","",""
"html-keyboard-response","5","34864","0.0-5.0-2.0","63ee59dc6e5fbabca14d3d16","bdp_rd","Tue Mar 28 2023 21:44:09 GMT-0400 (Eastern Daylight Time)","228078","","5458","","","","offer","","<div class='trialBorder'><div class='vertical-center'><img style='vertical-align:center; align:center' src=img/fixation3.jpg></div><div class='cl'><div class='vertical-center'>$27<br>with a<br>50% chance</div></div><div class='cr'><div class='vertical-center'>$12<br>for<br>sure</div></div><div class='respDivL'><div class='vertical-center'>(E)</div></div><div class='respDivR'><div class='vertical-center'>(I)</div></div></div>","E","$12","$27","1","12","27","RISKY"
"html-keyboard-response","6","35116","0.0-5.0-3.0","63ee59dc6e5fbabca14d3d16","bdp_rd","Tue Mar 28 2023 21:44:09 GMT-0400 (Eastern Daylight Time)","228078","","null","","","","offerFB","","<div class='trialBorder'><div class='vertical-center'><img style='vertical-align:center; align:center' src=img/fixation3.jpg></div><div class='cl'><div class='vertical-center'><font style='color:orange'>$27<br>with a<br>50% chance</font></div></div><div class='cr'><div class='vertical-center'>$12<br>for<br>sure</div></div><div class='respDivL'><div class='vertical-center'><font style='color:orange'>(E)</font></div></div><div class='respDivR'><div class='vertical-center'>(I)</div></div></div>","null","$12","$27","1","12","27",""
"html-keyboard-response","7","35618","0.0-5.0-1.1","63ee59dc6e5fbabca14d3d16","bdp_rd","Tue Mar 28 2023 21:44:09 GMT-0400 (Eastern Daylight Time)","228078","","null","","","","FIX","","<div class='trialBorder'><div class='vertical-center'><img style='vertical-align:center; align:center' src=img/fixation3.jpg></div></div>","null","","","","","",""
"html-keyboard-response","8","37116","0.0-5.0-2.1","63ee59dc6e5fbabca14d3d16","bdp_rd","Tue Mar 28 2023 21:44:09 GMT-0400 (Eastern Daylight Time)","228078","","1496","","","","offer","","<div class='trialBorder'><div class='vertical-center'><img style='vertical-align:center; align:center' src=img/fixation3.jpg></div><div class='cl'><div class='vertical-center'>$80<br>with a<br>50% chance</div></div><div class='cr'><div class='vertical-center'>$20<br>for<br>sure</div></div><div class='respDivL'><div class='vertical-center'>(E)</div></div><div class='respDivR'><div class='vertical-center'>(I)</div></div></div>","E","$20","$80","1","20","80","RISKY"
"html-keyboard-response","9","37368","0.0-5.0-3.1","63ee59dc6e5fbabca14d3d16","bdp_rd","Tue Mar 28 2023 21:44:09 GMT-0400 (Eastern Daylight Time)","228078","","null","","","","offerFB","","<div class='trialBorder'><div class='vertical-center'><img style='vertical-align:center; align:center' src=img/fixation3.jpg></div><div class='cl'><div class='vertical-center'><font style='color:orange'>$80<br>with a<br>50% chance</font></div></div><div class='cr'><div class='vertical-center'>$20<br>for<br>sure</div></div><div class='respDivL'><div class='vertical-center'><font style='color:orange'>(E)</font></div></div><div class='respDivR'><div class='vertical-center'>(I)</div></div></div>","null","$20","$80","1","20","80",""
"html-keyboard-response","10","37869","0.0-5.0-1.2","63ee59dc6e5fbabca14d3d16","bdp_rd","Tue Mar 28 2023 21:44:09 GMT-0400 (Eastern Daylight Time)","228078","","null","","","","FIX","","<div class='trialBorder'><div class='vertical-center'><img style='vertical-align:center; align:center' src=img/fixation3.jpg></div></div>","null","","","","","",""
"html-keyboard-response","11","43444","0.0-5.0-2.2","63ee59dc6e5fbabca14d3d16","bdp_rd","Tue Mar 28 2023 21:44:09 GMT-0400 (Eastern Daylight Time)","228078","","5574","","","","offer","","<div class='trialBorder'><div class='vertical-center'><img style='vertical-align:center; align:center' src=img/fixation3.jpg></div><div class='cl'><div class='vertical-center'>$39<br>with a<br>50% chance</div></div><div class='cr'><div class='vertical-center'>$18<br>for<br>sure</div></div><div class='respDivL'><div class='vertical-center'>(E)</div></div><div class='respDivR'><div class='vertical-center'>(I)</div></div></div>","E","$18","$39","1","18","39","RISKY"
"html-keyboard-response","12","43696","0.0-5.0-3.2","63ee59dc6e5fbabca14d3d16","bdp_rd","Tue Mar 28 2023 21:44:09 GMT-0400 (Eastern Daylight Time)","228078","","null","","","","offerFB","","<div class='trialBorder'><div class='vertical-center'><img style='vertical-align:center; align:center' src=img/fixation3.jpg></div><div class='cl'><div class='vertical-center'><font style='color:orange'>$39<br>with a<br>50% chance</font></div></div><div class='cr'><div class='vertical-center'>$18<br>for<br>sure</div></div><div class='respDivL'><div class='vertical-center'><font style='color:orange'>(E)</font></div></div><div class='respDivR'><div class='vertical-center'>(I)</div></div></div>","null","$18","$39","1","18","39",""
"html-keyboard-response","13","44198","0.0-5.0-1.3","63ee59dc6e5fbabca14d3d16","bdp_rd","Tue Mar 28 2023 21:44:09 GMT-0400 (Eastern Daylight Time)","228078","","null","","","","FIX","","<div class='trialBorder'><div class='vertical-center'><img style='vertical-align:center; align:center' src=img/fixation3.jpg></div></div>","null","","","","","",""
"html-keyboard-response","14","45510","0.0-5.0-2.3","63ee59dc6e5fbabca14d3d16","bdp_rd","Tue Mar 28 2023 21:44:09 GMT-0400 (Eastern Daylight Time)","228078","","1311","","","","offer","","<div class='trialBorder'><div class='vertical-center'><img style='vertical-align:center; align:center' src=img/fixation3.jpg></div><div class='cl'><div class='vertical-center'>$1<br>for<br>sure</div></div><div class='cr'><div class='vertical-center'>$30<br>with a<br>50% chance</div></div><div class='respDivL'><div class='vertical-center'>(E)</div></div><div class='respDivR'><div class='vertical-center'>(I)</div></div></div>","I","$1","$30","0","1","30","RISKY"
"html-keyboard-response","15","45762","0.0-5.0-3.3","63ee59dc6e5fbabca14d3d16","bdp_rd","Tue Mar 28 2023 21:44:09 GMT-0400 (Eastern Daylight Time)","228078","","null","","","","offerFB","","<div class='trialBorder'><div class='vertical-center'><img style='vertical-align:center; align:center' src=img/fixation3.jpg></div><div class='cl'><div class='vertical-center'>$1<br>for<br>sure</div></div><div class='cr'><div class='vertical-center'><font style='color:orange'>$30<br>with a<br>50% chance</font></div></div><div class='respDivL'><div class='vertical-center'>(E)</div></div><div class='respDivR'><div class='vertical-center'><font style='color:orange'>(I)</font></div></div></div>","null","$1","$30","0","1","30",""
"html-keyboard-response","16","46264","0.0-5.0-1.4","63ee59dc6e5fbabca14d3d16","bdp_rd","Tue Mar 28 2023 21:44:09 GMT-0400 (Eastern Daylight Time)","228078","","null","","","","FIX","","<div class='trialBorder'><div class='vertical-center'><img style='vertical-align:center; align:center' src=img/fixation3.jpg></div></div>","null","","","","","",""
"html-keyboard-response","17","47531","0.0-5.0-2.4","63ee59dc6e5fbabca14d3d16","bdp_rd","Tue Mar 28 2023 21:44:09 GMT-0400 (Eastern Daylight Time)","228078","","1265","","","","offer","","<div class='trialBorder'><div class='vertical-center'><img style='vertical-align:center; align:center' src=img/fixation3.jpg></div><div class='cl'><div class='vertical-center'>$24<br>for<br>sure</div></div><div class='cr'><div class='vertical-center'>$70<br>with a<br>50% chance</div></div><div class='respDivL'><div class='vertical-center'>(E)</div></div><div class='respDivR'><div class='vertical-center'>(I)</div></div></div>","I","$24","$70","0","24","70","RISKY"
"html-keyboard-response","18","47782","0.0-5.0-3.4","63ee59dc6e5fbabca14d3d16","bdp_rd","Tue Mar 28 2023 21:44:09 GMT-0400 (Eastern Daylight Time)","228078","","null","","","","offerFB","","<div class='trialBorder'><div class='vertical-center'><img style='vertical-align:center; align:center' src=img/fixation3.jpg></div><div class='cl'><div class='vertical-center'>$24<br>for<br>sure</div></div><div class='cr'><div class='vertical-center'><font style='color:orange'>$70<br>with a<br>50% chance</font></div></div><div class='respDivL'><div class='vertical-center'>(E)</div></div><div class='respDivR'><div class='vertical-center'><font style='color:orange'>(I)</font></div></div></div>","null","$24","$70","0","24","70",""
"html-keyboard-response","19","48303","0.0-5.0-1.5","63ee59dc6e5fbabca14d3d16","bdp_rd","Tue Mar 28 2023 21:44:09 GMT-0400 (Eastern Daylight Time)","228078","","null","","","","FIX","","<div class='trialBorder'><div class='vertical-center'><img style='vertical-align:center; align:center' src=img/fixation3.jpg></div></div>","null","","","","","",""
"html-keyboard-response","20","50702","0.0-5.0-2.5","63ee59dc6e5fbabca14d3d16","bdp_rd","Tue Mar 28 2023 21:44:09 GMT-0400 (Eastern Daylight Time)","228078","","2398","","","","offer","","<div class='trialBorder'><div class='vertical-center'><img style='vertical-align:center; align:center' src=img/fixation3.jpg></div><div class='cl'><div class='vertical-center'>$31<br>for<br>sure</div></div><div class='cr'><div class='vertical-center'>$78<br>with a<br>50% chance</div></div><div class='respDivL'><div class='vertical-center'>(E)</div></div><div class='respDivR'><div class='vertical-center'>(I)</div></div></div>","I","$31","$78","0","31","78","RISKY"
"html-keyboard-response","21","50954","0.0-5.0-3.5","63ee59dc6e5fbabca14d3d16","bdp_rd","Tue Mar 28 2023 21:44:09 GMT-0400 (Eastern Daylight Time)","228078","","null","","","","offerFB","","<div class='trialBorder'><div class='vertical-center'><img style='vertical-align:center; align:center' src=img/fixation3.jpg></div><div class='cl'><div class='vertical-center'>$31<br>for<br>sure</div></div><div class='cr'><div class='vertical-center'><font style='color:orange'>$78<br>with a<br>50% chance</font></div></div><div class='respDivL'><div class='vertical-center'>(E)</div></div><div class='respDivR'><div class='vertical-center'><font style='color:orange'>(I)</font></div></div></div>","null","$31","$78","0","31","78",""
"html-keyboard-response","22","51456","0.0-5.0-1.6","63ee59dc6e5fbabca14d3d16","bdp_rd","Tue Mar 28 2023 21:44:09 GMT-0400 (Eastern Daylight Time)","228078","","null","","","","FIX","","<div class='trialBorder'><div class='vertical-center'><img style='vertical-align:center; align:center' src=img/fixation3.jpg></div></div>","null","","","","","",""
"html-keyboard-response","23","53120","0.0-5.0-2.6","63ee59dc6e5fbabca14d3d16","bdp_rd","Tue Mar 28 2023 21:44:09 GMT-0400 (Eastern Daylight Time)","228078","","1664","","","","offer","","<div class='trialBorder'><div class='vertical-center'><img style='vertical-align:center; align:center' src=img/fixation3.jpg></div><div class='cl'><div class='vertical-center'>$13<br>for<br>sure</div></div><div class='cr'><div class='vertical-center'>$41<br>with a<br>50% chance</div></div><div class='respDivL'><div class='vertical-center'>(E)</div></div><div class='respDivR'><div class='vertical-center'>(I)</div></div></div>","I","$13","$41","0","13","41","RISKY"
"html-keyboard-response","24","53372","0.0-5.0-3.6","63ee59dc6e5fbabca14d3d16","bdp_rd","Tue Mar 28 2023 21:44:09 GMT-0400 (Eastern Daylight Time)","228078","","null","","","","offerFB","","<div class='trialBorder'><div class='vertical-center'><img style='vertical-align:center; align:center' src=img/fixation3.jpg></div><div class='cl'><div class='vertical-center'>$13<br>for<br>sure</div></div><div class='cr'><div class='vertical-center'><font style='color:orange'>$41<br>with a<br>50% chance</font></div></div><div class='respDivL'><div class='vertical-center'>(E)</div></div><div class='respDivR'><div class='vertical-center'><font style='color:orange'>(I)</font></div></div></div>","null","$13","$41","0","13","41",""
"html-keyboard-response","25","53873","0.0-5.0-1.7","63ee59dc6e5fbabca14d3d16","bdp_rd","Tue Mar 28 2023 21:44:09 GMT-0400 (Eastern Daylight Time)","228078","","null","","","","FIX","","<div class='trialBorder'><div class='vertical-center'><img style='vertical-align:center; align:center' src=img/fixation3.jpg></div></div>","null","","","","","",""
"html-keyboard-response","26","56531","0.0-5.0-2.7","63ee59dc6e5fbabca14d3d16","bdp_rd","Tue Mar 28 2023 21:44:09 GMT-0400 (Eastern Daylight Time)","228078","","2657","","","","offer","","<div class='trialBorder'><div class='vertical-center'><img style='vertical-align:center; align:center' src=img/fixation3.jpg></div><div class='cl'><div class='vertical-center'>$58<br>for<br>sure</div></div><div class='cr'><div class='vertical-center'>$69<br>with a<br>50% chance</div></div><div class='respDivL'><div class='vertical-center'>(E)</div></div><div class='respDivR'><div class='vertical-center'>(I)</div></div></div>","E","$58","$69","0","58","69","SURE"
"html-keyboard-response","27","56783","0.0-5.0-3.7","63ee59dc6e5fbabca14d3d16","bdp_rd","Tue Mar 28 2023 21:44:09 GMT-0400 (Eastern Daylight Time)","228078","","null","","","","offerFB","","<div class='trialBorder'><div class='vertical-center'><img style='vertical-align:center; align:center' src=img/fixation3.jpg></div><div class='cl'><div class='vertical-center'><font style='color:orange'>$58<br>for<br>sure</font></div></div><div class='cr'><div class='vertical-center'>$69<br>with a<br>50% chance</div></div><div class='respDivL'><div class='vertical-center'><font style='color:orange'>(E)</font></div></div><div class='respDivR'><div class='vertical-center'>(I)</div></div></div>","null","$58","$69","0","58","69",""
"html-keyboard-response","28","57284","0.0-5.0-1.8","63ee59dc6e5fbabca14d3d16","bdp_rd","Tue Mar 28 2023 21:44:09 GMT-0400 (Eastern Daylight Time)","228078","","null","","","","FIX","","<div class='trialBorder'><div class='vertical-center'><img style='vertical-align:center; align:center' src=img/fixation3.jpg></div></div>","null","","","","","",""
"html-keyboard-response","29","58666","0.0-5.0-2.8","63ee59dc6e5fbabca14d3d16","bdp_rd","Tue Mar 28 2023 21:44:09 GMT-0400 (Eastern Daylight Time)","228078","","1381","","","","offer","","<div class='trialBorder'><div class='vertical-center'><img style='vertical-align:center; align:center' src=img/fixation3.jpg></div><div class='cl'><div class='vertical-center'>$33<br>for<br>sure</div></div><div class='cr'><div class='vertical-center'>$66<br>with a<br>50% chance</div></div><div class='respDivL'><div class='vertical-center'>(E)</div></div><div class='respDivR'><div class='vertical-center'>(I)</div></div></div>","I","$33","$66","0","33","66","RISKY"
"html-keyboard-response","30","58917","0.0-5.0-3.8","63ee59dc6e5fbabca14d3d16","bdp_rd","Tue Mar 28 2023 21:44:09 GMT-0400 (Eastern Daylight Time)","228078","","null","","","","offerFB","","<div class='trialBorder'><div class='vertical-center'><img style='vertical-align:center; align:center' src=img/fixation3.jpg></div><div class='cl'><div class='vertical-center'>$33<br>for<br>sure</div></div><div class='cr'><div class='vertical-center'><font style='color:orange'>$66<br>with a<br>50% chance</font></div></div><div class='respDivL'><div class='vertical-center'>(E)</div></div><div class='respDivR'><div class='vertical-center'><font style='color:orange'>(I)</font></div></div></div>","null","$33","$66","0","33","66",""
"html-keyboard-response","31","59419","0.0-5.0-1.9","63ee59dc6e5fbabca14d3d16","bdp_rd","Tue Mar 28 2023 21:44:09 GMT-0400 (Eastern Daylight Time)","228078","","null","","","","FIX","","<div class='trialBorder'><div class='vertical-center'><img style='vertical-align:center; align:center' src=img/fixation3.jpg></div></div>","null","","","","","",""
"html-keyboard-response","32","61078","0.0-5.0-2.9","63ee59dc6e5fbabca14d3d16","bdp_rd","Tue Mar 28 2023 21:44:09 GMT-0400 (Eastern Daylight Time)","228078","","1659","","","","offer","","<div class='trialBorder'><div class='vertical-center'><img style='vertical-align:center; align:center' src=img/fixation3.jpg></div><div class='cl'><div class='vertical-center'>$43<br>with a<br>50% chance</div></div><div class='cr'><div class='vertical-center'>$17<br>for<br>sure</div></div><div class='respDivL'><div class='vertical-center'>(E)</div></div><div class='respDivR'><div class='vertical-center'>(I)</div></div></div>","E","$17","$43","1","17","43","RISKY"
"html-keyboard-response","33","61330","0.0-5.0-3.9","63ee59dc6e5fbabca14d3d16","bdp_rd","Tue Mar 28 2023 21:44:09 GMT-0400 (Eastern Daylight Time)","228078","","null","","","","offerFB","","<div class='trialBorder'><div class='vertical-center'><img style='vertical-align:center; align:center' src=img/fixation3.jpg></div><div class='cl'><div class='vertical-center'><font style='color:orange'>$43<br>with a<br>50% chance</font></div></div><div class='cr'><div class='vertical-center'>$17<br>for<br>sure</div></div><div class='respDivL'><div class='vertical-center'><font style='color:orange'>(E)</font></div></div><div class='respDivR'><div class='vertical-center'>(I)</div></div></div>","null","$17","$43","1","17","43",""
"html-keyboard-response","34","61832","0.0-5.0-1.10","63ee59dc6e5fbabca14d3d16","bdp_rd","Tue Mar 28 2023 21:44:09 GMT-0400 (Eastern Daylight Time)","228078","","null","","","","FIX","","<div class='trialBorder'><div class='vertical-center'><img style='vertical-align:center; align:center' src=img/fixation3.jpg></div></div>","null","","","","","",""
"html-keyboard-response","35","63772","0.0-5.0-2.10","63ee59dc6e5fbabca14d3d16","bdp_rd","Tue Mar 28 2023 21:44:09 GMT-0400 (Eastern Daylight Time)","228078","","1940","","","","offer","","<div class='trialBorder'><div class='vertical-center'><img style='vertical-align:center; align:center' src=img/fixation3.jpg></div><div class='cl'><div class='vertical-center'>$32<br>with a<br>50% chance</div></div><div class='cr'><div class='vertical-center'>$9<br>for<br>sure</div></div><div class='respDivL'><div class='vertical-center'>(E)</div></div><div class='respDivR'><div class='vertical-center'>(I)</div></div></div>","E","$9","$32","1","9","32","RISKY"
"html-keyboard-response","36","64024","0.0-5.0-3.10","63ee59dc6e5fbabca14d3d16","bdp_rd","Tue Mar 28 2023 21:44:09 GMT-0400 (Eastern Daylight Time)","228078","","null","","","","offerFB","","<div class='trialBorder'><div class='vertical-center'><img style='vertical-align:center; align:center' src=img/fixation3.jpg></div><div class='cl'><div class='vertical-center'><font style='color:orange'>$32<br>with a<br>50% chance</font></div></div><div class='cr'><div class='vertical-center'>$9<br>for<br>sure</div></div><div class='respDivL'><div class='vertical-center'><font style='color:orange'>(E)</font></div></div><div class='respDivR'><div class='vertical-center'>(I)</div></div></div>","null","$9","$32","1","9","32",""
"html-keyboard-response","37","64525","0.0-5.0-1.11","63ee59dc6e5fbabca14d3d16","bdp_rd","Tue Mar 28 2023 21:44:09 GMT-0400 (Eastern Daylight Time)","228078","","null","","","","FIX","","<div class='trialBorder'><div class='vertical-center'><img style='vertical-align:center; align:center' src=img/fixation3.jpg></div></div>","null","","","","","",""
"html-keyboard-response","38","68564","0.0-5.0-2.11","63ee59dc6e5fbabca14d3d16","bdp_rd","Tue Mar 28 2023 21:44:09 GMT-0400 (Eastern Daylight Time)","228078","","4038","","","","offer","","<div class='trialBorder'><div class='vertical-center'><img style='vertical-align:center; align:center' src=img/fixation3.jpg></div><div class='cl'><div class='vertical-center'>$20<br>for<br>sure</div></div><div class='cr'><div class='vertical-center'>$37<br>with a<br>50% chance</div></div><div class='respDivL'><div class='vertical-center'>(E)</div></div><div class='respDivR'><div class='vertical-center'>(I)</div></div></div>","E","$20","$37","0","20","37","SURE"
"html-keyboard-response","39","68817","0.0-5.0-3.11","63ee59dc6e5fbabca14d3d16","bdp_rd","Tue Mar 28 2023 21:44:09 GMT-0400 (Eastern Daylight Time)","228078","","null","","","","offerFB","","<div class='trialBorder'><div class='vertical-center'><img style='vertical-align:center; align:center' src=img/fixation3.jpg></div><div class='cl'><div class='vertical-center'><font style='color:orange'>$20<br>for<br>sure</font></div></div><div class='cr'><div class='vertical-center'>$37<br>with a<br>50% chance</div></div><div class='respDivL'><div class='vertical-center'><font style='color:orange'>(E)</font></div></div><div class='respDivR'><div class='vertical-center'>(I)</div></div></div>","null","$20","$37","0","20","37",""
"html-keyboard-response","40","69318","0.0-5.0-1.12","63ee59dc6e5fbabca14d3d16","bdp_rd","Tue Mar 28 2023 21:44:09 GMT-0400 (Eastern Daylight Time)","228078","","null","","","","FIX","","<div class='trialBorder'><div class='vertical-center'><img style='vertical-align:center; align:center' src=img/fixation3.jpg></div></div>","null","","","","","",""
"html-keyboard-response","41","72911","0.0-5.0-2.12","63ee59dc6e5fbabca14d3d16","bdp_rd","Tue Mar 28 2023 21:44:09 GMT-0400 (Eastern Daylight Time)","228078","","3591","","","","offer","","<div class='trialBorder'><div class='vertical-center'><img style='vertical-align:center; align:center' src=img/fixation3.jpg></div><div class='cl'><div class='vertical-center'>$65<br>with a<br>50% chance</div></div><div class='cr'><div class='vertical-center'>$46<br>for<br>sure</div></div><div class='respDivL'><div class='vertical-center'>(E)</div></div><div class='respDivR'><div class='vertical-center'>(I)</div></div></div>","I","$46","$65","1","46","65","SURE"
"html-keyboard-response","42","73162","0.0-5.0-3.12","63ee59dc6e5fbabca14d3d16","bdp_rd","Tue Mar 28 2023 21:44:09 GMT-0400 (Eastern Daylight Time)","228078","","null","","","","offerFB","","<div class='trialBorder'><div class='vertical-center'><img style='vertical-align:center; align:center' src=img/fixation3.jpg></div><div class='cl'><div class='vertical-center'>$65<br>with a<br>50% chance</div></div><div class='cr'><div class='vertical-center'><font style='color:orange'>$46<br>for<br>sure</font></div></div><div class='respDivL'><div class='vertical-center'>(E)</div></div><div class='respDivR'><div class='vertical-center'><font style='color:orange'>(I)</font></div></div></div>","null","$46","$65","1","46","65",""
"html-keyboard-response","43","73666","0.0-5.0-1.13","63ee59dc6e5fbabca14d3d16","bdp_rd","Tue Mar 28 2023 21:44:09 GMT-0400 (Eastern Daylight Time)","228078","","null","","","","FIX","","<div class='trialBorder'><div class='vertical-center'><img style='vertical-align:center; align:center' src=img/fixation3.jpg></div></div>","null","","","","","",""
"html-keyboard-response","44","78962","0.0-5.0-2.13","63ee59dc6e5fbabca14d3d16","bdp_rd","Tue Mar 28 2023 21:44:09 GMT-0400 (Eastern Daylight Time)","228078","","5296","","","","offer","","<div class='trialBorder'><div class='vertical-center'><img style='vertical-align:center; align:center' src=img/fixation3.jpg></div><div class='cl'><div class='vertical-center'>$22<br>for<br>sure</div></div><div class='cr'><div class='vertical-center'>$42<br>with a<br>50% chance</div></div><div class='respDivL'><div class='vertical-center'>(E)</div></div><div class='respDivR'><div class='vertical-center'>(I)</div></div></div>","I","$22","$42","0","22","42","RISKY"
"html-keyboard-response","45","79215","0.0-5.0-3.13","63ee59dc6e5fbabca14d3d16","bdp_rd","Tue Mar 28 2023 21:44:09 GMT-0400 (Eastern Daylight Time)","228078","","null","","","","offerFB","","<div class='trialBorder'><div class='vertical-center'><img style='vertical-align:center; align:center' src=img/fixation3.jpg></div><div class='cl'><div class='vertical-center'>$22<br>for<br>sure</div></div><div class='cr'><div class='vertical-center'><font style='color:orange'>$42<br>with a<br>50% chance</font></div></div><div class='respDivL'><div class='vertical-center'>(E)</div></div><div class='respDivR'><div class='vertical-center'><font style='color:orange'>(I)</font></div></div></div>","null","$22","$42","0","22","42",""
"html-keyboard-response","46","79717","0.0-5.0-1.14","63ee59dc6e5fbabca14d3d16","bdp_rd","Tue Mar 28 2023 21:44:09 GMT-0400 (Eastern Daylight Time)","228078","","null","","","","FIX","","<div class='trialBorder'><div class='vertical-center'><img style='vertical-align:center; align:center' src=img/fixation3.jpg></div></div>","null","","","","","",""
"html-keyboard-response","47","81264","0.0-5.0-2.14","63ee59dc6e5fbabca14d3d16","bdp_rd","Tue Mar 28 2023 21:44:09 GMT-0400 (Eastern Daylight Time)","228078","","1547","","","","offer","","<div class='trialBorder'><div class='vertical-center'><img style='vertical-align:center; align:center' src=img/fixation3.jpg></div><div class='cl'><div class='vertical-center'>$14<br>with a<br>50% chance</div></div><div class='cr'><div class='vertical-center'>$4<br>for<br>sure</div></div><div class='respDivL'><div class='vertical-center'>(E)</div></div><div class='respDivR'><div class='vertical-center'>(I)</div></div></div>","E","$4","$14","1","4","14","RISKY"
"html-keyboard-response","48","81516","0.0-5.0-3.14","63ee59dc6e5fbabca14d3d16","bdp_rd","Tue Mar 28 2023 21:44:09 GMT-0400 (Eastern Daylight Time)","228078","","null","","","","offerFB","","<div class='trialBorder'><div class='vertical-center'><img style='vertical-align:center; align:center' src=img/fixation3.jpg></div><div class='cl'><div class='vertical-center'><font style='color:orange'>$14<br>with a<br>50% chance</font></div></div><div class='cr'><div class='vertical-center'>$4<br>for<br>sure</div></div><div class='respDivL'><div class='vertical-center'><font style='color:orange'>(E)</font></div></div><div class='respDivR'><div class='vertical-center'>(I)</div></div></div>","null","$4","$14","1","4","14",""
"html-keyboard-response","49","82018","0.0-5.0-1.15","63ee59dc6e5fbabca14d3d16","bdp_rd","Tue Mar 28 2023 21:44:09 GMT-0400 (Eastern Daylight Time)","228078","","null","","","","FIX","","<div class='trialBorder'><div class='vertical-center'><img style='vertical-align:center; align:center' src=img/fixation3.jpg></div></div>","null","","","","","",""
"html-keyboard-response","50","83136","0.0-5.0-2.15","63ee59dc6e5fbabca14d3d16","bdp_rd","Tue Mar 28 2023 21:44:09 GMT-0400 (Eastern Daylight Time)","228078","","1118","","","","offer","","<div class='trialBorder'><div class='vertical-center'><img style='vertical-align:center; align:center' src=img/fixation3.jpg></div><div class='cl'><div class='vertical-center'>$59<br>with a<br>50% chance</div></div><div class='cr'><div class='vertical-center'>$22<br>for<br>sure</div></div><div class='respDivL'><div class='vertical-center'>(E)</div></div><div class='respDivR'><div class='vertical-center'>(I)</div></div></div>","E","$22","$59","1","22","59","RISKY"
"html-keyboard-response","51","83388","0.0-5.0-3.15","63ee59dc6e5fbabca14d3d16","bdp_rd","Tue Mar 28 2023 21:44:09 GMT-0400 (Eastern Daylight Time)","228078","","null","","","","offerFB","","<div class='trialBorder'><div class='vertical-center'><img style='vertical-align:center; align:center' src=img/fixation3.jpg></div><div class='cl'><div class='vertical-center'><font style='color:orange'>$59<br>with a<br>50% chance</font></div></div><div class='cr'><div class='vertical-center'>$22<br>for<br>sure</div></div><div class='respDivL'><div class='vertical-center'><font style='color:orange'>(E)</font></div></div><div class='respDivR'><div class='vertical-center'>(I)</div></div></div>","null","$22","$59","1","22","59",""
"html-keyboard-response","52","83889","0.0-5.0-1.16","63ee59dc6e5fbabca14d3d16","bdp_rd","Tue Mar 28 2023 21:44:09 GMT-0400 (Eastern Daylight Time)","228078","","null","","","","FIX","","<div class='trialBorder'><div class='vertical-center'><img style='vertical-align:center; align:center' src=img/fixation3.jpg></div></div>","null","","","","","",""
"html-keyboard-response","53","86144","0.0-5.0-2.16","63ee59dc6e5fbabca14d3d16","bdp_rd","Tue Mar 28 2023 21:44:09 GMT-0400 (Eastern Daylight Time)","228078","","2255","","","","offer","","<div class='trialBorder'><div class='vertical-center'><img style='vertical-align:center; align:center' src=img/fixation3.jpg></div><div class='cl'><div class='vertical-center'>$30<br>for<br>sure</div></div><div class='cr'><div class='vertical-center'>$68<br>with a<br>50% chance</div></div><div class='respDivL'><div class='vertical-center'>(E)</div></div><div class='respDivR'><div class='vertical-center'>(I)</div></div></div>","I","$30","$68","0","30","68","RISKY"
"html-keyboard-response","54","86395","0.0-5.0-3.16","63ee59dc6e5fbabca14d3d16","bdp_rd","Tue Mar 28 2023 21:44:09 GMT-0400 (Eastern Daylight Time)","228078","","null","","","","offerFB","","<div class='trialBorder'><div class='vertical-center'><img style='vertical-align:center; align:center' src=img/fixation3.jpg></div><div class='cl'><div class='vertical-center'>$30<br>for<br>sure</div></div><div class='cr'><div class='vertical-center'><font style='color:orange'>$68<br>with a<br>50% chance</font></div></div><div class='respDivL'><div class='vertical-center'>(E)</div></div><div class='respDivR'><div class='vertical-center'><font style='color:orange'>(I)</font></div></div></div>","null","$30","$68","0","30","68",""
"html-keyboard-response","55","86896","0.0-5.0-1.17","63ee59dc6e5fbabca14d3d16","bdp_rd","Tue Mar 28 2023 21:44:09 GMT-0400 (Eastern Daylight Time)","228078","","null","","","","FIX","","<div class='trialBorder'><div class='vertical-center'><img style='vertical-align:center; align:center' src=img/fixation3.jpg></div></div>","null","","","","","",""
"html-keyboard-response","56","89001","0.0-5.0-2.17","63ee59dc6e5fbabca14d3d16","bdp_rd","Tue Mar 28 2023 21:44:09 GMT-0400 (Eastern Daylight Time)","228078","","2102","","","","offer","","<div class='trialBorder'><div class='vertical-center'><img style='vertical-align:center; align:center' src=img/fixation3.jpg></div><div class='cl'><div class='vertical-center'>$28<br>for<br>sure</div></div><div class='cr'><div class='vertical-center'>$89<br>with a<br>50% chance</div></div><div class='respDivL'><div class='vertical-center'>(E)</div></div><div class='respDivR'><div class='vertical-center'>(I)</div></div></div>","I","$28","$89","0","28","89","RISKY"
"html-keyboard-response","57","89253","0.0-5.0-3.17","63ee59dc6e5fbabca14d3d16","bdp_rd","Tue Mar 28 2023 21:44:09 GMT-0400 (Eastern Daylight Time)","228078","","null","","","","offerFB","","<div class='trialBorder'><div class='vertical-center'><img style='vertical-align:center; align:center' src=img/fixation3.jpg></div><div class='cl'><div class='vertical-center'>$28<br>for<br>sure</div></div><div class='cr'><div class='vertical-center'><font style='color:orange'>$89<br>with a<br>50% chance</font></div></div><div class='respDivL'><div class='vertical-center'>(E)</div></div><div class='respDivR'><div class='vertical-center'><font style='color:orange'>(I)</font></div></div></div>","null","$28","$89","0","28","89",""
"html-keyboard-response","58","89754","0.0-5.0-1.18","63ee59dc6e5fbabca14d3d16","bdp_rd","Tue Mar 28 2023 21:44:09 GMT-0400 (Eastern Daylight Time)","228078","","null","","","","FIX","","<div class='trialBorder'><div class='vertical-center'><img style='vertical-align:center; align:center' src=img/fixation3.jpg></div></div>","null","","","","","",""
"html-keyboard-response","59","91146","0.0-5.0-2.18","63ee59dc6e5fbabca14d3d16","bdp_rd","Tue Mar 28 2023 21:44:09 GMT-0400 (Eastern Daylight Time)","228078","","1391","","","","offer","","<div class='trialBorder'><div class='vertical-center'><img style='vertical-align:center; align:center' src=img/fixation3.jpg></div><div class='cl'><div class='vertical-center'>$15<br>for<br>sure</div></div><div class='cr'><div class='vertical-center'>$34<br>with a<br>50% chance</div></div><div class='respDivL'><div class='vertical-center'>(E)</div></div><div class='respDivR'><div class='vertical-center'>(I)</div></div></div>","I","$15","$34","0","15","34","RISKY"
"html-keyboard-response","60","91398","0.0-5.0-3.18","63ee59dc6e5fbabca14d3d16","bdp_rd","Tue Mar 28 2023 21:44:09 GMT-0400 (Eastern Daylight Time)","228078","","null","","","","offerFB","","<div class='trialBorder'><div class='vertical-center'><img style='vertical-align:center; align:center' src=img/fixation3.jpg></div><div class='cl'><div class='vertical-center'>$15<br>for<br>sure</div></div><div class='cr'><div class='vertical-center'><font style='color:orange'>$34<br>with a<br>50% chance</font></div></div><div class='respDivL'><div class='vertical-center'>(E)</div></div><div class='respDivR'><div class='vertical-center'><font style='color:orange'>(I)</font></div></div></div>","null","$15","$34","0","15","34",""
"html-keyboard-response","61","91899","0.0-5.0-1.19","63ee59dc6e5fbabca14d3d16","bdp_rd","Tue Mar 28 2023 21:44:09 GMT-0400 (Eastern Daylight Time)","228078","","null","","","","FIX","","<div class='trialBorder'><div class='vertical-center'><img style='vertical-align:center; align:center' src=img/fixation3.jpg></div></div>","null","","","","","",""
"html-keyboard-response","62","94845","0.0-5.0-2.19","63ee59dc6e5fbabca14d3d16","bdp_rd","Tue Mar 28 2023 21:44:09 GMT-0400 (Eastern Daylight Time)","228078","","2944","","","","offer","","<div class='trialBorder'><div class='vertical-center'><img style='vertical-align:center; align:center' src=img/fixation3.jpg></div><div class='cl'><div class='vertical-center'>$51<br>with a<br>50% chance</div></div><div class='cr'><div class='vertical-center'>$19<br>for<br>sure</div></div><div class='respDivL'><div class='vertical-center'>(E)</div></div><div class='respDivR'><div class='vertical-center'>(I)</div></div></div>","E","$19","$51","1","19","51","RISKY"
"html-keyboard-response","63","95096","0.0-5.0-3.19","63ee59dc6e5fbabca14d3d16","bdp_rd","Tue Mar 28 2023 21:44:09 GMT-0400 (Eastern Daylight Time)","228078","","null","","","","offerFB","","<div class='trialBorder'><div class='vertical-center'><img style='vertical-align:center; align:center' src=img/fixation3.jpg></div><div class='cl'><div class='vertical-center'><font style='color:orange'>$51<br>with a<br>50% chance</font></div></div><div class='cr'><div class='vertical-center'>$19<br>for<br>sure</div></div><div class='respDivL'><div class='vertical-center'><font style='color:orange'>(E)</font></div></div><div class='respDivR'><div class='vertical-center'>(I)</div></div></div>","null","$19","$51","1","19","51",""
"html-keyboard-response","64","95597","0.0-5.0-1.20","63ee59dc6e5fbabca14d3d16","bdp_rd","Tue Mar 28 2023 21:44:09 GMT-0400 (Eastern Daylight Time)","228078","","null","","","","FIX","","<div class='trialBorder'><div class='vertical-center'><img style='vertical-align:center; align:center' src=img/fixation3.jpg></div></div>","null","","","","","",""
"html-keyboard-response","65","99181","0.0-5.0-2.20","63ee59dc6e5fbabca14d3d16","bdp_rd","Tue Mar 28 2023 21:44:09 GMT-0400 (Eastern Daylight Time)","228078","","3582","","","","offer","","<div class='trialBorder'><div class='vertical-center'><img style='vertical-align:center; align:center' src=img/fixation3.jpg></div><div class='cl'><div class='vertical-center'>$73<br>with a<br>50% chance</div></div><div class='cr'><div class='vertical-center'>$42<br>for<br>sure</div></div><div class='respDivL'><div class='vertical-center'>(E)</div></div><div class='respDivR'><div class='vertical-center'>(I)</div></div></div>","E","$42","$73","1","42","73","RISKY"
"html-keyboard-response","66","99433","0.0-5.0-3.20","63ee59dc6e5fbabca14d3d16","bdp_rd","Tue Mar 28 2023 21:44:09 GMT-0400 (Eastern Daylight Time)","228078","","null","","","","offerFB","","<div class='trialBorder'><div class='vertical-center'><img style='vertical-align:center; align:center' src=img/fixation3.jpg></div><div class='cl'><div class='vertical-center'><font style='color:orange'>$73<br>with a<br>50% chance</font></div></div><div class='cr'><div class='vertical-center'>$42<br>for<br>sure</div></div><div class='respDivL'><div class='vertical-center'><font style='color:orange'>(E)</font></div></div><div class='respDivR'><div class='vertical-center'>(I)</div></div></div>","null","$42","$73","1","42","73",""
"html-keyboard-response","67","99935","0.0-5.0-1.21","63ee59dc6e5fbabca14d3d16","bdp_rd","Tue Mar 28 2023 21:44:09 GMT-0400 (Eastern Daylight Time)","228078","","null","","","","FIX","","<div class='trialBorder'><div class='vertical-center'><img style='vertical-align:center; align:center' src=img/fixation3.jpg></div></div>","null","","","","","",""
"html-keyboard-response","68","101294","0.0-5.0-2.21","63ee59dc6e5fbabca14d3d16","bdp_rd","Tue Mar 28 2023 21:44:09 GMT-0400 (Eastern Daylight Time)","228078","","1359","","","","offer","","<div class='trialBorder'><div class='vertical-center'><img style='vertical-align:center; align:center' src=img/fixation3.jpg></div><div class='cl'><div class='vertical-center'>$45<br>with a<br>50% chance</div></div><div class='cr'><div class='vertical-center'>$8<br>for<br>sure</div></div><div class='respDivL'><div class='vertical-center'>(E)</div></div><div class='respDivR'><div class='vertical-center'>(I)</div></div></div>","E","$8","$45","1","8","45","RISKY"
"html-keyboard-response","69","101546","0.0-5.0-3.21","63ee59dc6e5fbabca14d3d16","bdp_rd","Tue Mar 28 2023 21:44:09 GMT-0400 (Eastern Daylight Time)","228078","","null","","","","offerFB","","<div class='trialBorder'><div class='vertical-center'><img style='vertical-align:center; align:center' src=img/fixation3.jpg></div><div class='cl'><div class='vertical-center'><font style='color:orange'>$45<br>with a<br>50% chance</font></div></div><div class='cr'><div class='vertical-center'>$8<br>for<br>sure</div></div><div class='respDivL'><div class='vertical-center'><font style='color:orange'>(E)</font></div></div><div class='respDivR'><div class='vertical-center'>(I)</div></div></div>","null","$8","$45","1","8","45",""
"html-keyboard-response","70","102047","0.0-5.0-1.22","63ee59dc6e5fbabca14d3d16","bdp_rd","Tue Mar 28 2023 21:44:09 GMT-0400 (Eastern Daylight Time)","228078","","null","","","","FIX","","<div class='trialBorder'><div class='vertical-center'><img style='vertical-align:center; align:center' src=img/fixation3.jpg></div></div>","null","","","","","",""
"html-keyboard-response","71","103988","0.0-5.0-2.22","63ee59dc6e5fbabca14d3d16","bdp_rd","Tue Mar 28 2023 21:44:09 GMT-0400 (Eastern Daylight Time)","228078","","1940","","","","offer","","<div class='trialBorder'><div class='vertical-center'><img style='vertical-align:center; align:center' src=img/fixation3.jpg></div><div class='cl'><div class='vertical-center'>$31<br>with a<br>50% chance</div></div><div class='cr'><div class='vertical-center'>$15<br>for<br>sure</div></div><div class='respDivL'><div class='vertical-center'>(E)</div></div><div class='respDivR'><div class='vertical-center'>(I)</div></div></div>","E","$15","$31","1","15","31","RISKY"
"html-keyboard-response","72","104240","0.0-5.0-3.22","63ee59dc6e5fbabca14d3d16","bdp_rd","Tue Mar 28 2023 21:44:09 GMT-0400 (Eastern Daylight Time)","228078","","null","","","","offerFB","","<div class='trialBorder'><div class='vertical-center'><img style='vertical-align:center; align:center' src=img/fixation3.jpg></div><div class='cl'><div class='vertical-center'><font style='color:orange'>$31<br>with a<br>50% chance</font></div></div><div class='cr'><div class='vertical-center'>$15<br>for<br>sure</div></div><div class='respDivL'><div class='vertical-center'><font style='color:orange'>(E)</font></div></div><div class='respDivR'><div class='vertical-center'>(I)</div></div></div>","null","$15","$31","1","15","31",""
"html-keyboard-response","73","104741","0.0-5.0-1.23","63ee59dc6e5fbabca14d3d16","bdp_rd","Tue Mar 28 2023 21:44:09 GMT-0400 (Eastern Daylight Time)","228078","","null","","","","FIX","","<div class='trialBorder'><div class='vertical-center'><img style='vertical-align:center; align:center' src=img/fixation3.jpg></div></div>","null","","","","","",""
"html-keyboard-response","74","109324","0.0-5.0-2.23","63ee59dc6e5fbabca14d3d16","bdp_rd","Tue Mar 28 2023 21:44:09 GMT-0400 (Eastern Daylight Time)","228078","","4583","","","","offer","","<div class='trialBorder'><div class='vertical-center'><img style='vertical-align:center; align:center' src=img/fixation3.jpg></div><div class='cl'><div class='vertical-center'>$40<br>for<br>sure</div></div><div class='cr'><div class='vertical-center'>$95<br>with a<br>50% chance</div></div><div class='respDivL'><div class='vertical-center'>(E)</div></div><div class='respDivR'><div class='vertical-center'>(I)</div></div></div>","I","$40","$95","0","40","95","RISKY"
"html-keyboard-response","75","109576","0.0-5.0-3.23","63ee59dc6e5fbabca14d3d16","bdp_rd","Tue Mar 28 2023 21:44:09 GMT-0400 (Eastern Daylight Time)","228078","","null","","","","offerFB","","<div class='trialBorder'><div class='vertical-center'><img style='vertical-align:center; align:center' src=img/fixation3.jpg></div><div class='cl'><div class='vertical-center'>$40<br>for<br>sure</div></div><div class='cr'><div class='vertical-center'><font style='color:orange'>$95<br>with a<br>50% chance</font></div></div><div class='respDivL'><div class='vertical-center'>(E)</div></div><div class='respDivR'><div class='vertical-center'><font style='color:orange'>(I)</font></div></div></div>","null","$40","$95","0","40","95",""
"html-keyboard-response","76","110078","0.0-5.0-1.24","63ee59dc6e5fbabca14d3d16","bdp_rd","Tue Mar 28 2023 21:44:09 GMT-0400 (Eastern Daylight Time)","228078","","null","","","","FIX","","<div class='trialBorder'><div class='vertical-center'><img style='vertical-align:center; align:center' src=img/fixation3.jpg></div></div>","null","","","","","",""
"html-keyboard-response","77","112958","0.0-5.0-2.24","63ee59dc6e5fbabca14d3d16","bdp_rd","Tue Mar 28 2023 21:44:09 GMT-0400 (Eastern Daylight Time)","228078","","2880","","","","offer","","<div class='trialBorder'><div class='vertical-center'><img style='vertical-align:center; align:center' src=img/fixation3.jpg></div><div class='cl'><div class='vertical-center'>$24<br>with a<br>50% chance</div></div><div class='cr'><div class='vertical-center'>$13<br>for<br>sure</div></div><div class='respDivL'><div class='vertical-center'>(E)</div></div><div class='respDivR'><div class='vertical-center'>(I)</div></div></div>","E","$13","$24","1","13","24","RISKY"
"html-keyboard-response","78","113210","0.0-5.0-3.24","63ee59dc6e5fbabca14d3d16","bdp_rd","Tue Mar 28 2023 21:44:09 GMT-0400 (Eastern Daylight Time)","228078","","null","","","","offerFB","","<div class='trialBorder'><div class='vertical-center'><img style='vertical-align:center; align:center' src=img/fixation3.jpg></div><div class='cl'><div class='vertical-center'><font style='color:orange'>$24<br>with a<br>50% chance</font></div></div><div class='cr'><div class='vertical-center'>$13<br>for<br>sure</div></div><div class='respDivL'><div class='vertical-center'><font style='color:orange'>(E)</font></div></div><div class='respDivR'><div class='vertical-center'>(I)</div></div></div>","null","$13","$24","1","13","24",""
"html-keyboard-response","79","113711","0.0-5.0-1.25","63ee59dc6e5fbabca14d3d16","bdp_rd","Tue Mar 28 2023 21:44:09 GMT-0400 (Eastern Daylight Time)","228078","","null","","","","FIX","","<div class='trialBorder'><div class='vertical-center'><img style='vertical-align:center; align:center' src=img/fixation3.jpg></div></div>","null","","","","","",""
"html-keyboard-response","80","114665","0.0-5.0-2.25","63ee59dc6e5fbabca14d3d16","bdp_rd","Tue Mar 28 2023 21:44:09 GMT-0400 (Eastern Daylight Time)","228078","","954","","","","offer","","<div class='trialBorder'><div class='vertical-center'><img style='vertical-align:center; align:center' src=img/fixation3.jpg></div><div class='cl'><div class='vertical-center'>$5<br>for<br>sure</div></div><div class='cr'><div class='vertical-center'>$50<br>with a<br>50% chance</div></div><div class='respDivL'><div class='vertical-center'>(E)</div></div><div class='respDivR'><div class='vertical-center'>(I)</div></div></div>","I","$5","$50","0","5","50","RISKY"
"html-keyboard-response","81","114916","0.0-5.0-3.25","63ee59dc6e5fbabca14d3d16","bdp_rd","Tue Mar 28 2023 21:44:09 GMT-0400 (Eastern Daylight Time)","228078","","null","","","","offerFB","","<div class='trialBorder'><div class='vertical-center'><img style='vertical-align:center; align:center' src=img/fixation3.jpg></div><div class='cl'><div class='vertical-center'>$5<br>for<br>sure</div></div><div class='cr'><div class='vertical-center'><font style='color:orange'>$50<br>with a<br>50% chance</font></div></div><div class='respDivL'><div class='vertical-center'>(E)</div></div><div class='respDivR'><div class='vertical-center'><font style='color:orange'>(I)</font></div></div></div>","null","$5","$50","0","5","50",""
"html-keyboard-response","82","115417","0.0-5.0-1.26","63ee59dc6e5fbabca14d3d16","bdp_rd","Tue Mar 28 2023 21:44:09 GMT-0400 (Eastern Daylight Time)","228078","","null","","","","FIX","","<div class='trialBorder'><div class='vertical-center'><img style='vertical-align:center; align:center' src=img/fixation3.jpg></div></div>","null","","","","","",""
"html-keyboard-response","83","116522","0.0-5.0-2.26","63ee59dc6e5fbabca14d3d16","bdp_rd","Tue Mar 28 2023 21:44:09 GMT-0400 (Eastern Daylight Time)","228078","","1104","","","","offer","","<div class='trialBorder'><div class='vertical-center'><img style='vertical-align:center; align:center' src=img/fixation3.jpg></div><div class='cl'><div class='vertical-center'>$12<br>for<br>sure</div></div><div class='cr'><div class='vertical-center'>$35<br>with a<br>50% chance</div></div><div class='respDivL'><div class='vertical-center'>(E)</div></div><div class='respDivR'><div class='vertical-center'>(I)</div></div></div>","I","$12","$35","0","12","35","RISKY"
"html-keyboard-response","84","116774","0.0-5.0-3.26","63ee59dc6e5fbabca14d3d16","bdp_rd","Tue Mar 28 2023 21:44:09 GMT-0400 (Eastern Daylight Time)","228078","","null","","","","offerFB","","<div class='trialBorder'><div class='vertical-center'><img style='vertical-align:center; align:center' src=img/fixation3.jpg></div><div class='cl'><div class='vertical-center'>$12<br>for<br>sure</div></div><div class='cr'><div class='vertical-center'><font style='color:orange'>$35<br>with a<br>50% chance</font></div></div><div class='respDivL'><div class='vertical-center'>(E)</div></div><div class='respDivR'><div class='vertical-center'><font style='color:orange'>(I)</font></div></div></div>","null","$12","$35","0","12","35",""
"html-keyboard-response","85","117275","0.0-5.0-1.27","63ee59dc6e5fbabca14d3d16","bdp_rd","Tue Mar 28 2023 21:44:09 GMT-0400 (Eastern Daylight Time)","228078","","null","","","","FIX","","<div class='trialBorder'><div class='vertical-center'><img style='vertical-align:center; align:center' src=img/fixation3.jpg></div></div>","null","","","","","",""
"html-keyboard-response","86","118440","0.0-5.0-2.27","63ee59dc6e5fbabca14d3d16","bdp_rd","Tue Mar 28 2023 21:44:09 GMT-0400 (Eastern Daylight Time)","228078","","1165","","","","offer","","<div class='trialBorder'><div class='vertical-center'><img style='vertical-align:center; align:center' src=img/fixation3.jpg></div><div class='cl'><div class='vertical-center'>$40<br>with a<br>50% chance</div></div><div class='cr'><div class='vertical-center'>$10<br>for<br>sure</div></div><div class='respDivL'><div class='vertical-center'>(E)</div></div><div class='respDivR'><div class='vertical-center'>(I)</div></div></div>","E","$10","$40","1","10","40","RISKY"
"html-keyboard-response","87","118691","0.0-5.0-3.27","63ee59dc6e5fbabca14d3d16","bdp_rd","Tue Mar 28 2023 21:44:09 GMT-0400 (Eastern Daylight Time)","228078","","null","","","","offerFB","","<div class='trialBorder'><div class='vertical-center'><img style='vertical-align:center; align:center' src=img/fixation3.jpg></div><div class='cl'><div class='vertical-center'><font style='color:orange'>$40<br>with a<br>50% chance</font></div></div><div class='cr'><div class='vertical-center'>$10<br>for<br>sure</div></div><div class='respDivL'><div class='vertical-center'><font style='color:orange'>(E)</font></div></div><div class='respDivR'><div class='vertical-center'>(I)</div></div></div>","null","$10","$40","1","10","40",""
"html-keyboard-response","88","119192","0.0-5.0-1.28","63ee59dc6e5fbabca14d3d16","bdp_rd","Tue Mar 28 2023 21:44:09 GMT-0400 (Eastern Daylight Time)","228078","","null","","","","FIX","","<div class='trialBorder'><div class='vertical-center'><img style='vertical-align:center; align:center' src=img/fixation3.jpg></div></div>","null","","","","","",""
"html-keyboard-response","89","121798","0.0-5.0-2.28","63ee59dc6e5fbabca14d3d16","bdp_rd","Tue Mar 28 2023 21:44:09 GMT-0400 (Eastern Daylight Time)","228078","","2605","","","","offer","","<div class='trialBorder'><div class='vertical-center'><img style='vertical-align:center; align:center' src=img/fixation3.jpg></div><div class='cl'><div class='vertical-center'>$54<br>with a<br>50% chance</div></div><div class='cr'><div class='vertical-center'>$25<br>for<br>sure</div></div><div class='respDivL'><div class='vertical-center'>(E)</div></div><div class='respDivR'><div class='vertical-center'>(I)</div></div></div>","E","$25","$54","1","25","54","RISKY"
"html-keyboard-response","90","122050","0.0-5.0-3.28","63ee59dc6e5fbabca14d3d16","bdp_rd","Tue Mar 28 2023 21:44:09 GMT-0400 (Eastern Daylight Time)","228078","","null","","","","offerFB","","<div class='trialBorder'><div class='vertical-center'><img style='vertical-align:center; align:center' src=img/fixation3.jpg></div><div class='cl'><div class='vertical-center'><font style='color:orange'>$54<br>with a<br>50% chance</font></div></div><div class='cr'><div class='vertical-center'>$25<br>for<br>sure</div></div><div class='respDivL'><div class='vertical-center'><font style='color:orange'>(E)</font></div></div><div class='respDivR'><div class='vertical-center'>(I)</div></div></div>","null","$25","$54","1","25","54",""
"html-keyboard-response","91","122551","0.0-5.0-1.29","63ee59dc6e5fbabca14d3d16","bdp_rd","Tue Mar 28 2023 21:44:09 GMT-0400 (Eastern Daylight Time)","228078","","null","","","","FIX","","<div class='trialBorder'><div class='vertical-center'><img style='vertical-align:center; align:center' src=img/fixation3.jpg></div></div>","null","","","","","",""
"html-keyboard-response","92","125160","0.0-5.0-2.29","63ee59dc6e5fbabca14d3d16","bdp_rd","Tue Mar 28 2023 21:44:09 GMT-0400 (Eastern Daylight Time)","228078","","2608","","","","offer","","<div class='trialBorder'><div class='vertical-center'><img style='vertical-align:center; align:center' src=img/fixation3.jpg></div><div class='cl'><div class='vertical-center'>$13<br>with a<br>50% chance</div></div><div class='cr'><div class='vertical-center'>$6<br>for<br>sure</div></div><div class='respDivL'><div class='vertical-center'>(E)</div></div><div class='respDivR'><div class='vertical-center'>(I)</div></div></div>","E","$6","$13","1","6","13","RISKY"
"html-keyboard-response","93","125412","0.0-5.0-3.29","63ee59dc6e5fbabca14d3d16","bdp_rd","Tue Mar 28 2023 21:44:09 GMT-0400 (Eastern Daylight Time)","228078","","null","","","","offerFB","","<div class='trialBorder'><div class='vertical-center'><img style='vertical-align:center; align:center' src=img/fixation3.jpg></div><div class='cl'><div class='vertical-center'><font style='color:orange'>$13<br>with a<br>50% chance</font></div></div><div class='cr'><div class='vertical-center'>$6<br>for<br>sure</div></div><div class='respDivL'><div class='vertical-center'><font style='color:orange'>(E)</font></div></div><div class='respDivR'><div class='vertical-center'>(I)</div></div></div>","null","$6","$13","1","6","13",""
"html-keyboard-response","94","125915","0.0-5.0-1.30","63ee59dc6e5fbabca14d3d16","bdp_rd","Tue Mar 28 2023 21:44:09 GMT-0400 (Eastern Daylight Time)","228078","","null","","","","FIX","","<div class='trialBorder'><div class='vertical-center'><img style='vertical-align:center; align:center' src=img/fixation3.jpg></div></div>","null","","","","","",""
"html-keyboard-response","95","129348","0.0-5.0-2.30","63ee59dc6e5fbabca14d3d16","bdp_rd","Tue Mar 28 2023 21:44:09 GMT-0400 (Eastern Daylight Time)","228078","","3432","","","","offer","","<div class='trialBorder'><div class='vertical-center'><img style='vertical-align:center; align:center' src=img/fixation3.jpg></div><div class='cl'><div class='vertical-center'>$44<br>with a<br>50% chance</div></div><div class='cr'><div class='vertical-center'>$37<br>for<br>sure</div></div><div class='respDivL'><div class='vertical-center'>(E)</div></div><div class='respDivR'><div class='vertical-center'>(I)</div></div></div>","I","$37","$44","1","37","44","SURE"
"html-keyboard-response","96","129599","0.0-5.0-3.30","63ee59dc6e5fbabca14d3d16","bdp_rd","Tue Mar 28 2023 21:44:09 GMT-0400 (Eastern Daylight Time)","228078","","null","","","","offerFB","","<div class='trialBorder'><div class='vertical-center'><img style='vertical-align:center; align:center' src=img/fixation3.jpg></div><div class='cl'><div class='vertical-center'>$44<br>with a<br>50% chance</div></div><div class='cr'><div class='vertical-center'><font style='color:orange'>$37<br>for<br>sure</font></div></div><div class='respDivL'><div class='vertical-center'>(E)</div></div><div class='respDivR'><div class='vertical-center'><font style='color:orange'>(I)</font></div></div></div>","null","$37","$44","1","37","44",""
"html-keyboard-response","97","130100","0.0-5.0-1.31","63ee59dc6e5fbabca14d3d16","bdp_rd","Tue Mar 28 2023 21:44:09 GMT-0400 (Eastern Daylight Time)","228078","","null","","","","FIX","","<div class='trialBorder'><div class='vertical-center'><img style='vertical-align:center; align:center' src=img/fixation3.jpg></div></div>","null","","","","","",""
"html-keyboard-response","98","134069","0.0-5.0-2.31","63ee59dc6e5fbabca14d3d16","bdp_rd","Tue Mar 28 2023 21:44:09 GMT-0400 (Eastern Daylight Time)","228078","","3968","","","","offer","","<div class='trialBorder'><div class='vertical-center'><img style='vertical-align:center; align:center' src=img/fixation3.jpg></div><div class='cl'><div class='vertical-center'>$48<br>with a<br>50% chance</div></div><div class='cr'><div class='vertical-center'>$34<br>for<br>sure</div></div><div class='respDivL'><div class='vertical-center'>(E)</div></div><div class='respDivR'><div class='vertical-center'>(I)</div></div></div>","E","$34","$48","1","34","48","RISKY"
"html-keyboard-response","99","134321","0.0-5.0-3.31","63ee59dc6e5fbabca14d3d16","bdp_rd","Tue Mar 28 2023 21:44:09 GMT-0400 (Eastern Daylight Time)","228078","","null","","","","offerFB","","<div class='trialBorder'><div class='vertical-center'><img style='vertical-align:center; align:center' src=img/fixation3.jpg></div><div class='cl'><div class='vertical-center'><font style='color:orange'>$48<br>with a<br>50% chance</font></div></div><div class='cr'><div class='vertical-center'>$34<br>for<br>sure</div></div><div class='respDivL'><div class='vertical-center'><font style='color:orange'>(E)</font></div></div><div class='respDivR'><div class='vertical-center'>(I)</div></div></div>","null","$34","$48","1","34","48",""
"html-keyboard-response","100","134822","0.0-5.0-1.32","63ee59dc6e5fbabca14d3d16","bdp_rd","Tue Mar 28 2023 21:44:09 GMT-0400 (Eastern Daylight Time)","228078","","null","","","","FIX","","<div class='trialBorder'><div class='vertical-center'><img style='vertical-align:center; align:center' src=img/fixation3.jpg></div></div>","null","","","","","",""
"html-keyboard-response","101","136098","0.0-5.0-2.32","63ee59dc6e5fbabca14d3d16","bdp_rd","Tue Mar 28 2023 21:44:09 GMT-0400 (Eastern Daylight Time)","228078","","1275","","","","offer","","<div class='trialBorder'><div class='vertical-center'><img style='vertical-align:center; align:center' src=img/fixation3.jpg></div><div class='cl'><div class='vertical-center'>$26<br>for<br>sure</div></div><div class='cr'><div class='vertical-center'>$92<br>with a<br>50% chance</div></div><div class='respDivL'><div class='vertical-center'>(E)</div></div><div class='respDivR'><div class='vertical-center'>(I)</div></div></div>","I","$26","$92","0","26","92","RISKY"
"html-keyboard-response","102","136350","0.0-5.0-3.32","63ee59dc6e5fbabca14d3d16","bdp_rd","Tue Mar 28 2023 21:44:09 GMT-0400 (Eastern Daylight Time)","228078","","null","","","","offerFB","","<div class='trialBorder'><div class='vertical-center'><img style='vertical-align:center; align:center' src=img/fixation3.jpg></div><div class='cl'><div class='vertical-center'>$26<br>for<br>sure</div></div><div class='cr'><div class='vertical-center'><font style='color:orange'>$92<br>with a<br>50% chance</font></div></div><div class='respDivL'><div class='vertical-center'>(E)</div></div><div class='respDivR'><div class='vertical-center'><font style='color:orange'>(I)</font></div></div></div>","null","$26","$92","0","26","92",""
"html-keyboard-response","103","136851","0.0-5.0-1.33","63ee59dc6e5fbabca14d3d16","bdp_rd","Tue Mar 28 2023 21:44:09 GMT-0400 (Eastern Daylight Time)","228078","","null","","","","FIX","","<div class='trialBorder'><div class='vertical-center'><img style='vertical-align:center; align:center' src=img/fixation3.jpg></div></div>","null","","","","","",""
"html-keyboard-response","104","140357","0.0-5.0-2.33","63ee59dc6e5fbabca14d3d16","bdp_rd","Tue Mar 28 2023 21:44:09 GMT-0400 (Eastern Daylight Time)","228078","","3505","","","","offer","","<div class='trialBorder'><div class='vertical-center'><img style='vertical-align:center; align:center' src=img/fixation3.jpg></div><div class='cl'><div class='vertical-center'>$39<br>for<br>sure</div></div><div class='cr'><div class='vertical-center'>$81<br>with a<br>50% chance</div></div><div class='respDivL'><div class='vertical-center'>(E)</div></div><div class='respDivR'><div class='vertical-center'>(I)</div></div></div>","I","$39","$81","0","39","81","RISKY"
"html-keyboard-response","105","140608","0.0-5.0-3.33","63ee59dc6e5fbabca14d3d16","bdp_rd","Tue Mar 28 2023 21:44:09 GMT-0400 (Eastern Daylight Time)","228078","","null","","","","offerFB","","<div class='trialBorder'><div class='vertical-center'><img style='vertical-align:center; align:center' src=img/fixation3.jpg></div><div class='cl'><div class='vertical-center'>$39<br>for<br>sure</div></div><div class='cr'><div class='vertical-center'><font style='color:orange'>$81<br>with a<br>50% chance</font></div></div><div class='respDivL'><div class='vertical-center'>(E)</div></div><div class='respDivR'><div class='vertical-center'><font style='color:orange'>(I)</font></div></div></div>","null","$39","$81","0","39","81",""
"html-keyboard-response","106","141110","0.0-5.0-1.34","63ee59dc6e5fbabca14d3d16","bdp_rd","Tue Mar 28 2023 21:44:09 GMT-0400 (Eastern Daylight Time)","228078","","null","","","","FIX","","<div class='trialBorder'><div class='vertical-center'><img style='vertical-align:center; align:center' src=img/fixation3.jpg></div></div>","null","","","","","",""
"html-keyboard-response","107","142198","0.0-5.0-2.34","63ee59dc6e5fbabca14d3d16","bdp_rd","Tue Mar 28 2023 21:44:09 GMT-0400 (Eastern Daylight Time)","228078","","1087","","","","offer","","<div class='trialBorder'><div class='vertical-center'><img style='vertical-align:center; align:center' src=img/fixation3.jpg></div><div class='cl'><div class='vertical-center'>$7<br>for<br>sure</div></div><div class='cr'><div class='vertical-center'>$71<br>with a<br>50% chance</div></div><div class='respDivL'><div class='vertical-center'>(E)</div></div><div class='respDivR'><div class='vertical-center'>(I)</div></div></div>","I","$7","$71","0","7","71","RISKY"
"html-keyboard-response","108","142450","0.0-5.0-3.34","63ee59dc6e5fbabca14d3d16","bdp_rd","Tue Mar 28 2023 21:44:09 GMT-0400 (Eastern Daylight Time)","228078","","null","","","","offerFB","","<div class='trialBorder'><div class='vertical-center'><img style='vertical-align:center; align:center' src=img/fixation3.jpg></div><div class='cl'><div class='vertical-center'>$7<br>for<br>sure</div></div><div class='cr'><div class='vertical-center'><font style='color:orange'>$71<br>with a<br>50% chance</font></div></div><div class='respDivL'><div class='vertical-center'>(E)</div></div><div class='respDivR'><div class='vertical-center'><font style='color:orange'>(I)</font></div></div></div>","null","$7","$71","0","7","71",""
"html-keyboard-response","109","142951","0.0-5.0-1.35","63ee59dc6e5fbabca14d3d16","bdp_rd","Tue Mar 28 2023 21:44:09 GMT-0400 (Eastern Daylight Time)","228078","","null","","","","FIX","","<div class='trialBorder'><div class='vertical-center'><img style='vertical-align:center; align:center' src=img/fixation3.jpg></div></div>","null","","","","","",""
"html-keyboard-response","110","144384","0.0-5.0-2.35","63ee59dc6e5fbabca14d3d16","bdp_rd","Tue Mar 28 2023 21:44:09 GMT-0400 (Eastern Daylight Time)","228078","","1431","","","","offer","","<div class='trialBorder'><div class='vertical-center'><img style='vertical-align:center; align:center' src=img/fixation3.jpg></div><div class='cl'><div class='vertical-center'>$26<br>with a<br>50% chance</div></div><div class='cr'><div class='vertical-center'>$11<br>for<br>sure</div></div><div class='respDivL'><div class='vertical-center'>(E)</div></div><div class='respDivR'><div class='vertical-center'>(I)</div></div></div>","E","$11","$26","1","11","26","RISKY"
"html-keyboard-response","111","144635","0.0-5.0-3.35","63ee59dc6e5fbabca14d3d16","bdp_rd","Tue Mar 28 2023 21:44:09 GMT-0400 (Eastern Daylight Time)","228078","","null","","","","offerFB","","<div class='trialBorder'><div class='vertical-center'><img style='vertical-align:center; align:center' src=img/fixation3.jpg></div><div class='cl'><div class='vertical-center'><font style='color:orange'>$26<br>with a<br>50% chance</font></div></div><div class='cr'><div class='vertical-center'>$11<br>for<br>sure</div></div><div class='respDivL'><div class='vertical-center'><font style='color:orange'>(E)</font></div></div><div class='respDivR'><div class='vertical-center'>(I)</div></div></div>","null","$11","$26","1","11","26",""
"html-keyboard-response","112","145136","0.0-5.0-1.36","63ee59dc6e5fbabca14d3d16","bdp_rd","Tue Mar 28 2023 21:44:09 GMT-0400 (Eastern Daylight Time)","228078","","null","","","","FIX","","<div class='trialBorder'><div class='vertical-center'><img style='vertical-align:center; align:center' src=img/fixation3.jpg></div></div>","null","","","","","",""
"html-keyboard-response","113","147577","0.0-5.0-2.36","63ee59dc6e5fbabca14d3d16","bdp_rd","Tue Mar 28 2023 21:44:09 GMT-0400 (Eastern Daylight Time)","228078","","2440","","","","offer","","<div class='trialBorder'><div class='vertical-center'><img style='vertical-align:center; align:center' src=img/fixation3.jpg></div><div class='cl'><div class='vertical-center'>$29<br>for<br>sure</div></div><div class='cr'><div class='vertical-center'>$46<br>with a<br>50% chance</div></div><div class='respDivL'><div class='vertical-center'>(E)</div></div><div class='respDivR'><div class='vertical-center'>(I)</div></div></div>","I","$29","$46","0","29","46","RISKY"
"html-keyboard-response","114","147828","0.0-5.0-3.36","63ee59dc6e5fbabca14d3d16","bdp_rd","Tue Mar 28 2023 21:44:09 GMT-0400 (Eastern Daylight Time)","228078","","null","","","","offerFB","","<div class='trialBorder'><div class='vertical-center'><img style='vertical-align:center; align:center' src=img/fixation3.jpg></div><div class='cl'><div class='vertical-center'>$29<br>for<br>sure</div></div><div class='cr'><div class='vertical-center'><font style='color:orange'>$46<br>with a<br>50% chance</font></div></div><div class='respDivL'><div class='vertical-center'>(E)</div></div><div class='respDivR'><div class='vertical-center'><font style='color:orange'>(I)</font></div></div></div>","null","$29","$46","0","29","46",""
"html-keyboard-response","115","148330","0.0-5.0-1.37","63ee59dc6e5fbabca14d3d16","bdp_rd","Tue Mar 28 2023 21:44:09 GMT-0400 (Eastern Daylight Time)","228078","","null","","","","FIX","","<div class='trialBorder'><div class='vertical-center'><img style='vertical-align:center; align:center' src=img/fixation3.jpg></div></div>","null","","","","","",""
"html-keyboard-response","116","152314","0.0-5.0-2.37","63ee59dc6e5fbabca14d3d16","bdp_rd","Tue Mar 28 2023 21:44:09 GMT-0400 (Eastern Daylight Time)","228078","","3983","","","","offer","","<div class='trialBorder'><div class='vertical-center'><img style='vertical-align:center; align:center' src=img/fixation3.jpg></div><div class='cl'><div class='vertical-center'>$17<br>with a<br>50% chance</div></div><div class='cr'><div class='vertical-center'>$3<br>for<br>sure</div></div><div class='respDivL'><div class='vertical-center'>(E)</div></div><div class='respDivR'><div class='vertical-center'>(I)</div></div></div>","E","$3","$17","1","3","17","RISKY"
"html-keyboard-response","117","152566","0.0-5.0-3.37","63ee59dc6e5fbabca14d3d16","bdp_rd","Tue Mar 28 2023 21:44:09 GMT-0400 (Eastern Daylight Time)","228078","","null","","","","offerFB","","<div class='trialBorder'><div class='vertical-center'><img style='vertical-align:center; align:center' src=img/fixation3.jpg></div><div class='cl'><div class='vertical-center'><font style='color:orange'>$17<br>with a<br>50% chance</font></div></div><div class='cr'><div class='vertical-center'>$3<br>for<br>sure</div></div><div class='respDivL'><div class='vertical-center'><font style='color:orange'>(E)</font></div></div><div class='respDivR'><div class='vertical-center'>(I)</div></div></div>","null","$3","$17","1","3","17",""
"html-keyboard-response","118","153068","0.0-5.0-1.38","63ee59dc6e5fbabca14d3d16","bdp_rd","Tue Mar 28 2023 21:44:09 GMT-0400 (Eastern Daylight Time)","228078","","null","","","","FIX","","<div class='trialBorder'><div class='vertical-center'><img style='vertical-align:center; align:center' src=img/fixation3.jpg></div></div>","null","","","","","",""
"html-keyboard-response","119","154177","0.0-5.0-2.38","63ee59dc6e5fbabca14d3d16","bdp_rd","Tue Mar 28 2023 21:44:09 GMT-0400 (Eastern Daylight Time)","228078","","1109","","","","offer","","<div class='trialBorder'><div class='vertical-center'><img style='vertical-align:center; align:center' src=img/fixation3.jpg></div><div class='cl'><div class='vertical-center'>$15<br>with a<br>50% chance</div></div><div class='cr'><div class='vertical-center'>$6<br>for<br>sure</div></div><div class='respDivL'><div class='vertical-center'>(E)</div></div><div class='respDivR'><div class='vertical-center'>(I)</div></div></div>","E","$6","$15","1","6","15","RISKY"
"html-keyboard-response","120","154428","0.0-5.0-3.38","63ee59dc6e5fbabca14d3d16","bdp_rd","Tue Mar 28 2023 21:44:09 GMT-0400 (Eastern Daylight Time)","228078","","null","","","","offerFB","","<div class='trialBorder'><div class='vertical-center'><img style='vertical-align:center; align:center' src=img/fixation3.jpg></div><div class='cl'><div class='vertical-center'><font style='color:orange'>$15<br>with a<br>50% chance</font></div></div><div class='cr'><div class='vertical-center'>$6<br>for<br>sure</div></div><div class='respDivL'><div class='vertical-center'><font style='color:orange'>(E)</font></div></div><div class='respDivR'><div class='vertical-center'>(I)</div></div></div>","null","$6","$15","1","6","15",""
"html-keyboard-response","121","154931","0.0-5.0-1.39","63ee59dc6e5fbabca14d3d16","bdp_rd","Tue Mar 28 2023 21:44:09 GMT-0400 (Eastern Daylight Time)","228078","","null","","","","FIX","","<div class='trialBorder'><div class='vertical-center'><img style='vertical-align:center; align:center' src=img/fixation3.jpg></div></div>","null","","","","","",""
"html-keyboard-response","122","158102","0.0-5.0-2.39","63ee59dc6e5fbabca14d3d16","bdp_rd","Tue Mar 28 2023 21:44:09 GMT-0400 (Eastern Daylight Time)","228078","","3170","","","","offer","","<div class='trialBorder'><div class='vertical-center'><img style='vertical-align:center; align:center' src=img/fixation3.jpg></div><div class='cl'><div class='vertical-center'>$86<br>with a<br>50% chance</div></div><div class='cr'><div class='vertical-center'>$45<br>for<br>sure</div></div><div class='respDivL'><div class='vertical-center'>(E)</div></div><div class='respDivR'><div class='vertical-center'>(I)</div></div></div>","E","$45","$86","1","45","86","RISKY"
"html-keyboard-response","123","158353","0.0-5.0-3.39","63ee59dc6e5fbabca14d3d16","bdp_rd","Tue Mar 28 2023 21:44:09 GMT-0400 (Eastern Daylight Time)","228078","","null","","","","offerFB","","<div class='trialBorder'><div class='vertical-center'><img style='vertical-align:center; align:center' src=img/fixation3.jpg></div><div class='cl'><div class='vertical-center'><font style='color:orange'>$86<br>with a<br>50% chance</font></div></div><div class='cr'><div class='vertical-center'>$45<br>for<br>sure</div></div><div class='respDivL'><div class='vertical-center'><font style='color:orange'>(E)</font></div></div><div class='respDivR'><div class='vertical-center'>(I)</div></div></div>","null","$45","$86","1","45","86",""
"html-keyboard-response","124","158854","0.0-5.0-1.40","63ee59dc6e5fbabca14d3d16","bdp_rd","Tue Mar 28 2023 21:44:09 GMT-0400 (Eastern Daylight Time)","228078","","null","","","","FIX","","<div class='trialBorder'><div class='vertical-center'><img style='vertical-align:center; align:center' src=img/fixation3.jpg></div></div>","null","","","","","",""
"html-keyboard-response","125","161164","0.0-5.0-2.40","63ee59dc6e5fbabca14d3d16","bdp_rd","Tue Mar 28 2023 21:44:09 GMT-0400 (Eastern Daylight Time)","228078","","2309","","","","offer","","<div class='trialBorder'><div class='vertical-center'><img style='vertical-align:center; align:center' src=img/fixation3.jpg></div><div class='cl'><div class='vertical-center'>$10<br>for<br>sure</div></div><div class='cr'><div class='vertical-center'>$19<br>with a<br>50% chance</div></div><div class='respDivL'><div class='vertical-center'>(E)</div></div><div class='respDivR'><div class='vertical-center'>(I)</div></div></div>","E","$10","$19","0","10","19","SURE"
"html-keyboard-response","126","161416","0.0-5.0-3.40","63ee59dc6e5fbabca14d3d16","bdp_rd","Tue Mar 28 2023 21:44:09 GMT-0400 (Eastern Daylight Time)","228078","","null","","","","offerFB","","<div class='trialBorder'><div class='vertical-center'><img style='vertical-align:center; align:center' src=img/fixation3.jpg></div><div class='cl'><div class='vertical-center'><font style='color:orange'>$10<br>for<br>sure</font></div></div><div class='cr'><div class='vertical-center'>$19<br>with a<br>50% chance</div></div><div class='respDivL'><div class='vertical-center'><font style='color:orange'>(E)</font></div></div><div class='respDivR'><div class='vertical-center'>(I)</div></div></div>","null","$10","$19","0","10","19",""
"html-keyboard-response","127","161918","0.0-5.0-1.41","63ee59dc6e5fbabca14d3d16","bdp_rd","Tue Mar 28 2023 21:44:09 GMT-0400 (Eastern Daylight Time)","228078","","null","","","","FIX","","<div class='trialBorder'><div class='vertical-center'><img style='vertical-align:center; align:center' src=img/fixation3.jpg></div></div>","null","","","","","",""
"html-keyboard-response","128","163707","0.0-5.0-2.41","63ee59dc6e5fbabca14d3d16","bdp_rd","Tue Mar 28 2023 21:44:09 GMT-0400 (Eastern Daylight Time)","228078","","1789","","","","offer","","<div class='trialBorder'><div class='vertical-center'><img style='vertical-align:center; align:center' src=img/fixation3.jpg></div><div class='cl'><div class='vertical-center'>$64<br>with a<br>50% chance</div></div><div class='cr'><div class='vertical-center'>$2<br>for<br>sure</div></div><div class='respDivL'><div class='vertical-center'>(E)</div></div><div class='respDivR'><div class='vertical-center'>(I)</div></div></div>","E","$2","$64","1","2","64","RISKY"
"html-keyboard-response","129","163958","0.0-5.0-3.41","63ee59dc6e5fbabca14d3d16","bdp_rd","Tue Mar 28 2023 21:44:09 GMT-0400 (Eastern Daylight Time)","228078","","null","","","","offerFB","","<div class='trialBorder'><div class='vertical-center'><img style='vertical-align:center; align:center' src=img/fixation3.jpg></div><div class='cl'><div class='vertical-center'><font style='color:orange'>$64<br>with a<br>50% chance</font></div></div><div class='cr'><div class='vertical-center'>$2<br>for<br>sure</div></div><div class='respDivL'><div class='vertical-center'><font style='color:orange'>(E)</font></div></div><div class='respDivR'><div class='vertical-center'>(I)</div></div></div>","null","$2","$64","1","2","64",""
"html-keyboard-response","130","164460","0.0-5.0-1.42","63ee59dc6e5fbabca14d3d16","bdp_rd","Tue Mar 28 2023 21:44:09 GMT-0400 (Eastern Daylight Time)","228078","","null","","","","FIX","","<div class='trialBorder'><div class='vertical-center'><img style='vertical-align:center; align:center' src=img/fixation3.jpg></div></div>","null","","","","","",""
"html-keyboard-response","131","168566","0.0-5.0-2.42","63ee59dc6e5fbabca14d3d16","bdp_rd","Tue Mar 28 2023 21:44:09 GMT-0400 (Eastern Daylight Time)","228078","","4105","","","","offer","","<div class='trialBorder'><div class='vertical-center'><img style='vertical-align:center; align:center' src=img/fixation3.jpg></div><div class='cl'><div class='vertical-center'>$27<br>for<br>sure</div></div><div class='cr'><div class='vertical-center'>$47<br>with a<br>50% chance</div></div><div class='respDivL'><div class='vertical-center'>(E)</div></div><div class='respDivR'><div class='vertical-center'>(I)</div></div></div>","I","$27","$47","0","27","47","RISKY"
"html-keyboard-response","132","168818","0.0-5.0-3.42","63ee59dc6e5fbabca14d3d16","bdp_rd","Tue Mar 28 2023 21:44:09 GMT-0400 (Eastern Daylight Time)","228078","","null","","","","offerFB","","<div class='trialBorder'><div class='vertical-center'><img style='vertical-align:center; align:center' src=img/fixation3.jpg></div><div class='cl'><div class='vertical-center'>$27<br>for<br>sure</div></div><div class='cr'><div class='vertical-center'><font style='color:orange'>$47<br>with a<br>50% chance</font></div></div><div class='respDivL'><div class='vertical-center'>(E)</div></div><div class='respDivR'><div class='vertical-center'><font style='color:orange'>(I)</font></div></div></div>","null","$27","$47","0","27","47",""
"html-keyboard-response","133","169319","0.0-5.0-1.43","63ee59dc6e5fbabca14d3d16","bdp_rd","Tue Mar 28 2023 21:44:09 GMT-0400 (Eastern Daylight Time)","228078","","null","","","","FIX","","<div class='trialBorder'><div class='vertical-center'><img style='vertical-align:center; align:center' src=img/fixation3.jpg></div></div>","null","","","","","",""
"html-keyboard-response","134","173202","0.0-5.0-2.43","63ee59dc6e5fbabca14d3d16","bdp_rd","Tue Mar 28 2023 21:44:09 GMT-0400 (Eastern Daylight Time)","228078","","3882","","","","offer","","<div class='trialBorder'><div class='vertical-center'><img style='vertical-align:center; align:center' src=img/fixation3.jpg></div><div class='cl'><div class='vertical-center'>$10<br>with a<br>50% chance</div></div><div class='cr'><div class='vertical-center'>$7<br>for<br>sure</div></div><div class='respDivL'><div class='vertical-center'>(E)</div></div><div class='respDivR'><div class='vertical-center'>(I)</div></div></div>","E","$7","$10","1","7","10","RISKY"
"html-keyboard-response","135","173454","0.0-5.0-3.43","63ee59dc6e5fbabca14d3d16","bdp_rd","Tue Mar 28 2023 21:44:09 GMT-0400 (Eastern Daylight Time)","228078","","null","","","","offerFB","","<div class='trialBorder'><div class='vertical-center'><img style='vertical-align:center; align:center' src=img/fixation3.jpg></div><div class='cl'><div class='vertical-center'><font style='color:orange'>$10<br>with a<br>50% chance</font></div></div><div class='cr'><div class='vertical-center'>$7<br>for<br>sure</div></div><div class='respDivL'><div class='vertical-center'><font style='color:orange'>(E)</font></div></div><div class='respDivR'><div class='vertical-center'>(I)</div></div></div>","null","$7","$10","1","7","10",""
"html-keyboard-response","136","173956","0.0-5.0-1.44","63ee59dc6e5fbabca14d3d16","bdp_rd","Tue Mar 28 2023 21:44:09 GMT-0400 (Eastern Daylight Time)","228078","","null","","","","FIX","","<div class='trialBorder'><div class='vertical-center'><img style='vertical-align:center; align:center' src=img/fixation3.jpg></div></div>","null","","","","","",""
"html-keyboard-response","137","176378","0.0-5.0-2.44","63ee59dc6e5fbabca14d3d16","bdp_rd","Tue Mar 28 2023 21:44:09 GMT-0400 (Eastern Daylight Time)","228078","","2422","","","","offer","","<div class='trialBorder'><div class='vertical-center'><img style='vertical-align:center; align:center' src=img/fixation3.jpg></div><div class='cl'><div class='vertical-center'>$36<br>with a<br>50% chance</div></div><div class='cr'><div class='vertical-center'>$18<br>for<br>sure</div></div><div class='respDivL'><div class='vertical-center'>(E)</div></div><div class='respDivR'><div class='vertical-center'>(I)</div></div></div>","E","$18","$36","1","18","36","RISKY"
"html-keyboard-response","138","176629","0.0-5.0-3.44","63ee59dc6e5fbabca14d3d16","bdp_rd","Tue Mar 28 2023 21:44:09 GMT-0400 (Eastern Daylight Time)","228078","","null","","","","offerFB","","<div class='trialBorder'><div class='vertical-center'><img style='vertical-align:center; align:center' src=img/fixation3.jpg></div><div class='cl'><div class='vertical-center'><font style='color:orange'>$36<br>with a<br>50% chance</font></div></div><div class='cr'><div class='vertical-center'>$18<br>for<br>sure</div></div><div class='respDivL'><div class='vertical-center'><font style='color:orange'>(E)</font></div></div><div class='respDivR'><div class='vertical-center'>(I)</div></div></div>","null","$18","$36","1","18","36",""
"html-keyboard-response","139","177131","0.0-5.0-1.45","63ee59dc6e5fbabca14d3d16","bdp_rd","Tue Mar 28 2023 21:44:09 GMT-0400 (Eastern Daylight Time)","228078","","null","","","","FIX","","<div class='trialBorder'><div class='vertical-center'><img style='vertical-align:center; align:center' src=img/fixation3.jpg></div></div>","null","","","","","",""
"html-keyboard-response","140","180908","0.0-5.0-2.45","63ee59dc6e5fbabca14d3d16","bdp_rd","Tue Mar 28 2023 21:44:09 GMT-0400 (Eastern Daylight Time)","228078","","3777","","","","offer","","<div class='trialBorder'><div class='vertical-center'><img style='vertical-align:center; align:center' src=img/fixation3.jpg></div><div class='cl'><div class='vertical-center'>$5<br>for<br>sure</div></div><div class='cr'><div class='vertical-center'>$16<br>with a<br>50% chance</div></div><div class='respDivL'><div class='vertical-center'>(E)</div></div><div class='respDivR'><div class='vertical-center'>(I)</div></div></div>","I","$5","$16","0","5","16","RISKY"
"html-keyboard-response","141","181160","0.0-5.0-3.45","63ee59dc6e5fbabca14d3d16","bdp_rd","Tue Mar 28 2023 21:44:09 GMT-0400 (Eastern Daylight Time)","228078","","null","","","","offerFB","","<div class='trialBorder'><div class='vertical-center'><img style='vertical-align:center; align:center' src=img/fixation3.jpg></div><div class='cl'><div class='vertical-center'>$5<br>for<br>sure</div></div><div class='cr'><div class='vertical-center'><font style='color:orange'>$16<br>with a<br>50% chance</font></div></div><div class='respDivL'><div class='vertical-center'>(E)</div></div><div class='respDivR'><div class='vertical-center'><font style='color:orange'>(I)</font></div></div></div>","null","$5","$16","0","5","16",""
"html-keyboard-response","142","181662","0.0-5.0-1.46","63ee59dc6e5fbabca14d3d16","bdp_rd","Tue Mar 28 2023 21:44:09 GMT-0400 (Eastern Daylight Time)","228078","","null","","","","FIX","","<div class='trialBorder'><div class='vertical-center'><img style='vertical-align:center; align:center' src=img/fixation3.jpg></div></div>","null","","","","","",""
"html-keyboard-response","143","184758","0.0-5.0-2.46","63ee59dc6e5fbabca14d3d16","bdp_rd","Tue Mar 28 2023 21:44:09 GMT-0400 (Eastern Daylight Time)","228078","","3096","","","","offer","","<div class='trialBorder'><div class='vertical-center'><img style='vertical-align:center; align:center' src=img/fixation3.jpg></div><div class='cl'><div class='vertical-center'>$22<br>with a<br>50% chance</div></div><div class='cr'><div class='vertical-center'>$14<br>for<br>sure</div></div><div class='respDivL'><div class='vertical-center'>(E)</div></div><div class='respDivR'><div class='vertical-center'>(I)</div></div></div>","I","$14","$22","1","14","22","SURE"
"html-keyboard-response","144","185009","0.0-5.0-3.46","63ee59dc6e5fbabca14d3d16","bdp_rd","Tue Mar 28 2023 21:44:09 GMT-0400 (Eastern Daylight Time)","228078","","null","","","","offerFB","","<div class='trialBorder'><div class='vertical-center'><img style='vertical-align:center; align:center' src=img/fixation3.jpg></div><div class='cl'><div class='vertical-center'>$22<br>with a<br>50% chance</div></div><div class='cr'><div class='vertical-center'><font style='color:orange'>$14<br>for<br>sure</font></div></div><div class='respDivL'><div class='vertical-center'>(E)</div></div><div class='respDivR'><div class='vertical-center'><font style='color:orange'>(I)</font></div></div></div>","null","$14","$22","1","14","22",""
"html-keyboard-response","145","185511","0.0-5.0-1.47","63ee59dc6e5fbabca14d3d16","bdp_rd","Tue Mar 28 2023 21:44:09 GMT-0400 (Eastern Daylight Time)","228078","","null","","","","FIX","","<div class='trialBorder'><div class='vertical-center'><img style='vertical-align:center; align:center' src=img/fixation3.jpg></div></div>","null","","","","","",""
"html-keyboard-response","146","186678","0.0-5.0-2.47","63ee59dc6e5fbabca14d3d16","bdp_rd","Tue Mar 28 2023 21:44:09 GMT-0400 (Eastern Daylight Time)","228078","","1167","","","","offer","","<div class='trialBorder'><div class='vertical-center'><img style='vertical-align:center; align:center' src=img/fixation3.jpg></div><div class='cl'><div class='vertical-center'>$53<br>for<br>sure</div></div><div class='cr'><div class='vertical-center'>$98<br>with a<br>50% chance</div></div><div class='respDivL'><div class='vertical-center'>(E)</div></div><div class='respDivR'><div class='vertical-center'>(I)</div></div></div>","I","$53","$98","0","53","98","RISKY"
"html-keyboard-response","147","186929","0.0-5.0-3.47","63ee59dc6e5fbabca14d3d16","bdp_rd","Tue Mar 28 2023 21:44:09 GMT-0400 (Eastern Daylight Time)","228078","","null","","","","offerFB","","<div class='trialBorder'><div class='vertical-center'><img style='vertical-align:center; align:center' src=img/fixation3.jpg></div><div class='cl'><div class='vertical-center'>$53<br>for<br>sure</div></div><div class='cr'><div class='vertical-center'><font style='color:orange'>$98<br>with a<br>50% chance</font></div></div><div class='respDivL'><div class='vertical-center'>(E)</div></div><div class='respDivR'><div class='vertical-center'><font style='color:orange'>(I)</font></div></div></div>","null","$53","$98","0","53","98",""
"html-keyboard-response","148","187431","0.0-5.0-1.48","63ee59dc6e5fbabca14d3d16","bdp_rd","Tue Mar 28 2023 21:44:09 GMT-0400 (Eastern Daylight Time)","228078","","null","","","","FIX","","<div class='trialBorder'><div class='vertical-center'><img style='vertical-align:center; align:center' src=img/fixation3.jpg></div></div>","null","","","","","",""
"html-keyboard-response","149","190172","0.0-5.0-2.48","63ee59dc6e5fbabca14d3d16","bdp_rd","Tue Mar 28 2023 21:44:09 GMT-0400 (Eastern Daylight Time)","228078","","2741","","","","offer","","<div class='trialBorder'><div class='vertical-center'><img style='vertical-align:center; align:center' src=img/fixation3.jpg></div><div class='cl'><div class='vertical-center'>$8<br>for<br>sure</div></div><div class='cr'><div class='vertical-center'>$23<br>with a<br>50% chance</div></div><div class='respDivL'><div class='vertical-center'>(E)</div></div><div class='respDivR'><div class='vertical-center'>(I)</div></div></div>","I","$8","$23","0","8","23","RISKY"
"html-keyboard-response","150","190423","0.0-5.0-3.48","63ee59dc6e5fbabca14d3d16","bdp_rd","Tue Mar 28 2023 21:44:09 GMT-0400 (Eastern Daylight Time)","228078","","null","","","","offerFB","","<div class='trialBorder'><div class='vertical-center'><img style='vertical-align:center; align:center' src=img/fixation3.jpg></div><div class='cl'><div class='vertical-center'>$8<br>for<br>sure</div></div><div class='cr'><div class='vertical-center'><font style='color:orange'>$23<br>with a<br>50% chance</font></div></div><div class='respDivL'><div class='vertical-center'>(E)</div></div><div class='respDivR'><div class='vertical-center'><font style='color:orange'>(I)</font></div></div></div>","null","$8","$23","0","8","23",""
"html-keyboard-response","151","190924","0.0-5.0-1.49","63ee59dc6e5fbabca14d3d16","bdp_rd","Tue Mar 28 2023 21:44:09 GMT-0400 (Eastern Daylight Time)","228078","","null","","","","FIX","","<div class='trialBorder'><div class='vertical-center'><img style='vertical-align:center; align:center' src=img/fixation3.jpg></div></div>","null","","","","","",""
"html-keyboard-response","152","195368","0.0-5.0-2.49","63ee59dc6e5fbabca14d3d16","bdp_rd","Tue Mar 28 2023 21:44:09 GMT-0400 (Eastern Daylight Time)","228078","","4443","","","","offer","","<div class='trialBorder'><div class='vertical-center'><img style='vertical-align:center; align:center' src=img/fixation3.jpg></div><div class='cl'><div class='vertical-center'>$25<br>with a<br>50% chance</div></div><div class='cr'><div class='vertical-center'>$21<br>for<br>sure</div></div><div class='respDivL'><div class='vertical-center'>(E)</div></div><div class='respDivR'><div class='vertical-center'>(I)</div></div></div>","I","$21","$25","1","21","25","SURE"
"html-keyboard-response","153","195620","0.0-5.0-3.49","63ee59dc6e5fbabca14d3d16","bdp_rd","Tue Mar 28 2023 21:44:09 GMT-0400 (Eastern Daylight Time)","228078","","null","","","","offerFB","","<div class='trialBorder'><div class='vertical-center'><img style='vertical-align:center; align:center' src=img/fixation3.jpg></div><div class='cl'><div class='vertical-center'>$25<br>with a<br>50% chance</div></div><div class='cr'><div class='vertical-center'><font style='color:orange'>$21<br>for<br>sure</font></div></div><div class='respDivL'><div class='vertical-center'>(E)</div></div><div class='respDivR'><div class='vertical-center'><font style='color:orange'>(I)</font></div></div></div>","null","$21","$25","1","21","25",""
"html-keyboard-response","154","196121","0.0-5.0-1.50","63ee59dc6e5fbabca14d3d16","bdp_rd","Tue Mar 28 2023 21:44:09 GMT-0400 (Eastern Daylight Time)","228078","","null","","","","FIX","","<div class='trialBorder'><div class='vertical-center'><img style='vertical-align:center; align:center' src=img/fixation3.jpg></div></div>","null","","","","","",""
"html-keyboard-response","155","197715","0.0-5.0-2.50","63ee59dc6e5fbabca14d3d16","bdp_rd","Tue Mar 28 2023 21:44:09 GMT-0400 (Eastern Daylight Time)","228078","","1592","","","","offer","","<div class='trialBorder'><div class='vertical-center'><img style='vertical-align:center; align:center' src=img/fixation3.jpg></div><div class='cl'><div class='vertical-center'>$4<br>for<br>sure</div></div><div class='cr'><div class='vertical-center'>$11<br>with a<br>50% chance</div></div><div class='respDivL'><div class='vertical-center'>(E)</div></div><div class='respDivR'><div class='vertical-center'>(I)</div></div></div>","I","$4","$11","0","4","11","RISKY"
"html-keyboard-response","156","197966","0.0-5.0-3.50","63ee59dc6e5fbabca14d3d16","bdp_rd","Tue Mar 28 2023 21:44:09 GMT-0400 (Eastern Daylight Time)","228078","","null","","","","offerFB","","<div class='trialBorder'><div class='vertical-center'><img style='vertical-align:center; align:center' src=img/fixation3.jpg></div><div class='cl'><div class='vertical-center'>$4<br>for<br>sure</div></div><div class='cr'><div class='vertical-center'><font style='color:orange'>$11<br>with a<br>50% chance</font></div></div><div class='respDivL'><div class='vertical-center'>(E)</div></div><div class='respDivR'><div class='vertical-center'><font style='color:orange'>(I)</font></div></div></div>","null","$4","$11","0","4","11",""
"html-keyboard-response","157","198468","0.0-5.0-1.51","63ee59dc6e5fbabca14d3d16","bdp_rd","Tue Mar 28 2023 21:44:09 GMT-0400 (Eastern Daylight Time)","228078","","null","","","","FIX","","<div class='trialBorder'><div class='vertical-center'><img style='vertical-align:center; align:center' src=img/fixation3.jpg></div></div>","null","","","","","",""
"html-keyboard-response","158","201608","0.0-5.0-2.51","63ee59dc6e5fbabca14d3d16","bdp_rd","Tue Mar 28 2023 21:44:09 GMT-0400 (Eastern Daylight Time)","228078","","3140","","","","offer","","<div class='trialBorder'><div class='vertical-center'><img style='vertical-align:center; align:center' src=img/fixation3.jpg></div><div class='cl'><div class='vertical-center'>$18<br>with a<br>50% chance</div></div><div class='cr'><div class='vertical-center'>$9<br>for<br>sure</div></div><div class='respDivL'><div class='vertical-center'>(E)</div></div><div class='respDivR'><div class='vertical-center'>(I)</div></div></div>","I","$9","$18","1","9","18","SURE"
"html-keyboard-response","159","201860","0.0-5.0-3.51","63ee59dc6e5fbabca14d3d16","bdp_rd","Tue Mar 28 2023 21:44:09 GMT-0400 (Eastern Daylight Time)","228078","","null","","","","offerFB","","<div class='trialBorder'><div class='vertical-center'><img style='vertical-align:center; align:center' src=img/fixation3.jpg></div><div class='cl'><div class='vertical-center'>$18<br>with a<br>50% chance</div></div><div class='cr'><div class='vertical-center'><font style='color:orange'>$9<br>for<br>sure</font></div></div><div class='respDivL'><div class='vertical-center'>(E)</div></div><div class='respDivR'><div class='vertical-center'><font style='color:orange'>(I)</font></div></div></div>","null","$9","$18","1","9","18",""
"html-keyboard-response","160","202362","0.0-5.0-1.52","63ee59dc6e5fbabca14d3d16","bdp_rd","Tue Mar 28 2023 21:44:09 GMT-0400 (Eastern Daylight Time)","228078","","null","","","","FIX","","<div class='trialBorder'><div class='vertical-center'><img style='vertical-align:center; align:center' src=img/fixation3.jpg></div></div>","null","","","","","",""
"html-keyboard-response","161","206410","0.0-5.0-2.52","63ee59dc6e5fbabca14d3d16","bdp_rd","Tue Mar 28 2023 21:44:09 GMT-0400 (Eastern Daylight Time)","228078","","4048","","","","offer","","<div class='trialBorder'><div class='vertical-center'><img style='vertical-align:center; align:center' src=img/fixation3.jpg></div><div class='cl'><div class='vertical-center'>$14<br>for<br>sure</div></div><div class='cr'><div class='vertical-center'>$29<br>with a<br>50% chance</div></div><div class='respDivL'><div class='vertical-center'>(E)</div></div><div class='respDivR'><div class='vertical-center'>(I)</div></div></div>","I","$14","$29","0","14","29","RISKY"
"html-keyboard-response","162","206662","0.0-5.0-3.52","63ee59dc6e5fbabca14d3d16","bdp_rd","Tue Mar 28 2023 21:44:09 GMT-0400 (Eastern Daylight Time)","228078","","null","","","","offerFB","","<div class='trialBorder'><div class='vertical-center'><img style='vertical-align:center; align:center' src=img/fixation3.jpg></div><div class='cl'><div class='vertical-center'>$14<br>for<br>sure</div></div><div class='cr'><div class='vertical-center'><font style='color:orange'>$29<br>with a<br>50% chance</font></div></div><div class='respDivL'><div class='vertical-center'>(E)</div></div><div class='respDivR'><div class='vertical-center'><font style='color:orange'>(I)</font></div></div></div>","null","$14","$29","0","14","29",""
"html-keyboard-response","163","207164","0.0-5.0-1.53","63ee59dc6e5fbabca14d3d16","bdp_rd","Tue Mar 28 2023 21:44:09 GMT-0400 (Eastern Daylight Time)","228078","","null","","","","FIX","","<div class='trialBorder'><div class='vertical-center'><img style='vertical-align:center; align:center' src=img/fixation3.jpg></div></div>","null","","","","","",""
"html-keyboard-response","164","208598","0.0-5.0-2.53","63ee59dc6e5fbabca14d3d16","bdp_rd","Tue Mar 28 2023 21:44:09 GMT-0400 (Eastern Daylight Time)","228078","","1433","","","","offer","","<div class='trialBorder'><div class='vertical-center'><img style='vertical-align:center; align:center' src=img/fixation3.jpg></div><div class='cl'><div class='vertical-center'>$2<br>for<br>sure</div></div><div class='cr'><div class='vertical-center'>$21<br>with a<br>50% chance</div></div><div class='respDivL'><div class='vertical-center'>(E)</div></div><div class='respDivR'><div class='vertical-center'>(I)</div></div></div>","I","$2","$21","0","2","21","RISKY"
"html-keyboard-response","165","208850","0.0-5.0-3.53","63ee59dc6e5fbabca14d3d16","bdp_rd","Tue Mar 28 2023 21:44:09 GMT-0400 (Eastern Daylight Time)","228078","","null","","","","offerFB","","<div class='trialBorder'><div class='vertical-center'><img style='vertical-align:center; align:center' src=img/fixation3.jpg></div><div class='cl'><div class='vertical-center'>$2<br>for<br>sure</div></div><div class='cr'><div class='vertical-center'><font style='color:orange'>$21<br>with a<br>50% chance</font></div></div><div class='respDivL'><div class='vertical-center'>(E)</div></div><div class='respDivR'><div class='vertical-center'><font style='color:orange'>(I)</font></div></div></div>","null","$2","$21","0","2","21",""
"html-keyboard-response","166","209352","0.0-5.0-1.54","63ee59dc6e5fbabca14d3d16","bdp_rd","Tue Mar 28 2023 21:44:09 GMT-0400 (Eastern Daylight Time)","228078","","null","","","","FIX","","<div class='trialBorder'><div class='vertical-center'><img style='vertical-align:center; align:center' src=img/fixation3.jpg></div></div>","null","","","","","",""
"html-keyboard-response","167","211940","0.0-5.0-2.54","63ee59dc6e5fbabca14d3d16","bdp_rd","Tue Mar 28 2023 21:44:09 GMT-0400 (Eastern Daylight Time)","228078","","2588","","","","offer","","<div class='trialBorder'><div class='vertical-center'><img style='vertical-align:center; align:center' src=img/fixation3.jpg></div><div class='cl'><div class='vertical-center'>$3<br>for<br>sure</div></div><div class='cr'><div class='vertical-center'>$12<br>with a<br>50% chance</div></div><div class='respDivL'><div class='vertical-center'>(E)</div></div><div class='respDivR'><div class='vertical-center'>(I)</div></div></div>","I","$3","$12","0","3","12","RISKY"
"html-keyboard-response","168","212192","0.0-5.0-3.54","63ee59dc6e5fbabca14d3d16","bdp_rd","Tue Mar 28 2023 21:44:09 GMT-0400 (Eastern Daylight Time)","228078","","null","","","","offerFB","","<div class='trialBorder'><div class='vertical-center'><img style='vertical-align:center; align:center' src=img/fixation3.jpg></div><div class='cl'><div class='vertical-center'>$3<br>for<br>sure</div></div><div class='cr'><div class='vertical-center'><font style='color:orange'>$12<br>with a<br>50% chance</font></div></div><div class='respDivL'><div class='vertical-center'>(E)</div></div><div class='respDivR'><div class='vertical-center'><font style='color:orange'>(I)</font></div></div></div>","null","$3","$12","0","3","12",""
"html-keyboard-response","169","212694","0.0-5.0-1.55","63ee59dc6e5fbabca14d3d16","bdp_rd","Tue Mar 28 2023 21:44:09 GMT-0400 (Eastern Daylight Time)","228078","","null","","","","FIX","","<div class='trialBorder'><div class='vertical-center'><img style='vertical-align:center; align:center' src=img/fixation3.jpg></div></div>","null","","","","","",""
"html-keyboard-response","170","215050","0.0-5.0-2.55","63ee59dc6e5fbabca14d3d16","bdp_rd","Tue Mar 28 2023 21:44:09 GMT-0400 (Eastern Daylight Time)","228078","","2355","","","","offer","","<div class='trialBorder'><div class='vertical-center'><img style='vertical-align:center; align:center' src=img/fixation3.jpg></div><div class='cl'><div class='vertical-center'>$100<br>with a<br>50% chance</div></div><div class='cr'><div class='vertical-center'>$63<br>for<br>sure</div></div><div class='respDivL'><div class='vertical-center'>(E)</div></div><div class='respDivR'><div class='vertical-center'>(I)</div></div></div>","I","$63","$100","1","63","10","SURE"
"html-keyboard-response","171","215302","0.0-5.0-3.55","63ee59dc6e5fbabca14d3d16","bdp_rd","Tue Mar 28 2023 21:44:09 GMT-0400 (Eastern Daylight Time)","228078","","null","","","","offerFB","","<div class='trialBorder'><div class='vertical-center'><img style='vertical-align:center; align:center' src=img/fixation3.jpg></div><div class='cl'><div class='vertical-center'>$100<br>with a<br>50% chance</div></div><div class='cr'><div class='vertical-center'><font style='color:orange'>$63<br>for<br>sure</font></div></div><div class='respDivL'><div class='vertical-center'>(E)</div></div><div class='respDivR'><div class='vertical-center'><font style='color:orange'>(I)</font></div></div></div>","null","$63","$100","1","63","10",""
"html-keyboard-response","172","215803","0.0-5.0-1.56","63ee59dc6e5fbabca14d3d16","bdp_rd","Tue Mar 28 2023 21:44:09 GMT-0400 (Eastern Daylight Time)","228078","","null","","","","FIX","","<div class='trialBorder'><div class='vertical-center'><img style='vertical-align:center; align:center' src=img/fixation3.jpg></div></div>","null","","","","","",""
"html-keyboard-response","173","216972","0.0-5.0-2.56","63ee59dc6e5fbabca14d3d16","bdp_rd","Tue Mar 28 2023 21:44:09 GMT-0400 (Eastern Daylight Time)","228078","","1168","","","","offer","","<div class='trialBorder'><div class='vertical-center'><img style='vertical-align:center; align:center' src=img/fixation3.jpg></div><div class='cl'><div class='vertical-center'>$11<br>for<br>sure</div></div><div class='cr'><div class='vertical-center'>$62<br>with a<br>50% chance</div></div><div class='respDivL'><div class='vertical-center'>(E)</div></div><div class='respDivR'><div class='vertical-center'>(I)</div></div></div>","I","$11","$62","0","11","62","RISKY"
