"trial_type","trial_index","time_elapsed","internal_node_id","subject_id","task","startTime","totalTime","view_history","rt","event","trial","time","trialtype","success","stimulus","key_press","sureOffer","riskyOffer","riskyLeft","sureAmt","riskyAmt","chosen"
"pavlovia","0","6","0.0-0.0","6340d2fa46f2d707e146b63b","bdp_rd","Mon Mar 27 2023 23:17:48 GMT-0400 (Eastern Daylight Time)","186350","","","","","","","","","","","","","","",""
"instructions","1","1023","0.0-1.0","6340d2fa46f2d707e146b63b","bdp_rd","Mon Mar 27 2023 23:17:48 GMT-0400 (Eastern Daylight Time)","186350","[{""page_index"":0,""viewing_time"":1015}]","1016","","","","","","","","","","","","",""
"","","","","6340d2fa46f2d707e146b63b","bdp_rd","Mon Mar 27 2023 23:17:48 GMT-0400 (Eastern Daylight Time)","186350","","","fullscreenenter","2","2731","fullscreenenter","","","","","","","","",""
"fullscreen","2","3708","0.0-2.0","6340d2fa46f2d707e146b63b","bdp_rd","Mon Mar 27 2023 23:17:48 GMT-0400 (Eastern Daylight Time)","186350","","","","","","","true","","","","","","","",""
"instructions","3","41664","0.0-4.0","6340d2fa46f2d707e146b63b","bdp_rd","Mon Mar 27 2023 23:17:48 GMT-0400 (Eastern Daylight Time)","186350","[{""page_index"":0,""viewing_time"":14588},{""page_index"":1,""viewing_time"":8670},{""page_index"":2,""viewing_time"":14696}]","37954","","","","","","","","","","","","",""
"html-keyboard-response","4","42171","0.0-5.0-1.0","6340d2fa46f2d707e146b63b","bdp_rd","Mon Mar 27 2023 23:17:48 GMT-0400 (Eastern Daylight Time)","186350","","null","","","","FIX","","<div class='trialBorder'><div class='vertical-center'><img style='vertical-align:center; align:center' src=img/fixation3.jpg></div></div>","null","","","","","",""
"html-keyboard-response","5","43842","0.0-5.0-2.0","6340d2fa46f2d707e146b63b","bdp_rd","Mon Mar 27 2023 23:17:48 GMT-0400 (Eastern Daylight Time)","186350","","1669","","","","offer","","<div class='trialBorder'><div class='vertical-center'><img style='vertical-align:center; align:center' src=img/fixation3.jpg></div><div class='cl'><div class='vertical-center'>$10<br>for<br>sure</div></div><div class='cr'><div class='vertical-center'>$19<br>with a<br>50% chance</div></div><div class='respDivL'><div class='vertical-center'>(E)</div></div><div class='respDivR'><div class='vertical-center'>(I)</div></div></div>","E","$10","$19","0","10","19","SURE"
"html-keyboard-response","6","44098","0.0-5.0-3.0","6340d2fa46f2d707e146b63b","bdp_rd","Mon Mar 27 2023 23:17:48 GMT-0400 (Eastern Daylight Time)","186350","","null","","","","offerFB","","<div class='trialBorder'><div class='vertical-center'><img style='vertical-align:center; align:center' src=img/fixation3.jpg></div><div class='cl'><div class='vertical-center'><font style='color:orange'>$10<br>for<br>sure</font></div></div><div class='cr'><div class='vertical-center'>$19<br>with a<br>50% chance</div></div><div class='respDivL'><div class='vertical-center'><font style='color:orange'>(E)</font></div></div><div class='respDivR'><div class='vertical-center'>(I)</div></div></div>","null","$10","$19","0","10","19",""
"html-keyboard-response","7","44607","0.0-5.0-1.1","6340d2fa46f2d707e146b63b","bdp_rd","Mon Mar 27 2023 23:17:48 GMT-0400 (Eastern Daylight Time)","186350","","null","","","","FIX","","<div class='trialBorder'><div class='vertical-center'><img style='vertical-align:center; align:center' src=img/fixation3.jpg></div></div>","null","","","","","",""
"html-keyboard-response","8","50266","0.0-5.0-2.1","6340d2fa46f2d707e146b63b","bdp_rd","Mon Mar 27 2023 23:17:48 GMT-0400 (Eastern Daylight Time)","186350","","5657","","","","offer","","<div class='trialBorder'><div class='vertical-center'><img style='vertical-align:center; align:center' src=img/fixation3.jpg></div><div class='cl'><div class='vertical-center'>$14<br>for<br>sure</div></div><div class='cr'><div class='vertical-center'>$29<br>with a<br>50% chance</div></div><div class='respDivL'><div class='vertical-center'>(E)</div></div><div class='respDivR'><div class='vertical-center'>(I)</div></div></div>","E","$14","$29","0","14","29","SURE"
"html-keyboard-response","9","50526","0.0-5.0-3.1","6340d2fa46f2d707e146b63b","bdp_rd","Mon Mar 27 2023 23:17:48 GMT-0400 (Eastern Daylight Time)","186350","","null","","","","offerFB","","<div class='trialBorder'><div class='vertical-center'><img style='vertical-align:center; align:center' src=img/fixation3.jpg></div><div class='cl'><div class='vertical-center'><font style='color:orange'>$14<br>for<br>sure</font></div></div><div class='cr'><div class='vertical-center'>$29<br>with a<br>50% chance</div></div><div class='respDivL'><div class='vertical-center'><font style='color:orange'>(E)</font></div></div><div class='respDivR'><div class='vertical-center'>(I)</div></div></div>","null","$14","$29","0","14","29",""
"html-keyboard-response","10","51032","0.0-5.0-1.2","6340d2fa46f2d707e146b63b","bdp_rd","Mon Mar 27 2023 23:17:48 GMT-0400 (Eastern Daylight Time)","186350","","null","","","","FIX","","<div class='trialBorder'><div class='vertical-center'><img style='vertical-align:center; align:center' src=img/fixation3.jpg></div></div>","null","","","","","",""
"html-keyboard-response","11","54411","0.0-5.0-2.2","6340d2fa46f2d707e146b63b","bdp_rd","Mon Mar 27 2023 23:17:48 GMT-0400 (Eastern Daylight Time)","186350","","3376","","","","offer","","<div class='trialBorder'><div class='vertical-center'><img style='vertical-align:center; align:center' src=img/fixation3.jpg></div><div class='cl'><div class='vertical-center'>$13<br>with a<br>50% chance</div></div><div class='cr'><div class='vertical-center'>$6<br>for<br>sure</div></div><div class='respDivL'><div class='vertical-center'>(E)</div></div><div class='respDivR'><div class='vertical-center'>(I)</div></div></div>","I","$6","$13","1","6","13","SURE"
"html-keyboard-response","12","54664","0.0-5.0-3.2","6340d2fa46f2d707e146b63b","bdp_rd","Mon Mar 27 2023 23:17:48 GMT-0400 (Eastern Daylight Time)","186350","","null","","","","offerFB","","<div class='trialBorder'><div class='vertical-center'><img style='vertical-align:center; align:center' src=img/fixation3.jpg></div><div class='cl'><div class='vertical-center'>$13<br>with a<br>50% chance</div></div><div class='cr'><div class='vertical-center'><font style='color:orange'>$6<br>for<br>sure</font></div></div><div class='respDivL'><div class='vertical-center'>(E)</div></div><div class='respDivR'><div class='vertical-center'><font style='color:orange'>(I)</font></div></div></div>","null","$6","$13","1","6","13",""
"html-keyboard-response","13","55172","0.0-5.0-1.3","6340d2fa46f2d707e146b63b","bdp_rd","Mon Mar 27 2023 23:17:48 GMT-0400 (Eastern Daylight Time)","186350","","null","","","","FIX","","<div class='trialBorder'><div class='vertical-center'><img style='vertical-align:center; align:center' src=img/fixation3.jpg></div></div>","null","","","","","",""
"html-keyboard-response","14","56689","0.0-5.0-2.3","6340d2fa46f2d707e146b63b","bdp_rd","Mon Mar 27 2023 23:17:48 GMT-0400 (Eastern Daylight Time)","186350","","1516","","","","offer","","<div class='trialBorder'><div class='vertical-center'><img style='vertical-align:center; align:center' src=img/fixation3.jpg></div><div class='cl'><div class='vertical-center'>$6<br>for<br>sure</div></div><div class='cr'><div class='vertical-center'>$15<br>with a<br>50% chance</div></div><div class='respDivL'><div class='vertical-center'>(E)</div></div><div class='respDivR'><div class='vertical-center'>(I)</div></div></div>","E","$6","$15","0","6","15","SURE"
"html-keyboard-response","15","56945","0.0-5.0-3.3","6340d2fa46f2d707e146b63b","bdp_rd","Mon Mar 27 2023 23:17:48 GMT-0400 (Eastern Daylight Time)","186350","","null","","","","offerFB","","<div class='trialBorder'><div class='vertical-center'><img style='vertical-align:center; align:center' src=img/fixation3.jpg></div><div class='cl'><div class='vertical-center'><font style='color:orange'>$6<br>for<br>sure</font></div></div><div class='cr'><div class='vertical-center'>$15<br>with a<br>50% chance</div></div><div class='respDivL'><div class='vertical-center'><font style='color:orange'>(E)</font></div></div><div class='respDivR'><div class='vertical-center'>(I)</div></div></div>","null","$6","$15","0","6","15",""
"html-keyboard-response","16","57450","0.0-5.0-1.4","6340d2fa46f2d707e146b63b","bdp_rd","Mon Mar 27 2023 23:17:48 GMT-0400 (Eastern Daylight Time)","186350","","null","","","","FIX","","<div class='trialBorder'><div class='vertical-center'><img style='vertical-align:center; align:center' src=img/fixation3.jpg></div></div>","null","","","","","",""
"html-keyboard-response","17","58867","0.0-5.0-2.4","6340d2fa46f2d707e146b63b","bdp_rd","Mon Mar 27 2023 23:17:48 GMT-0400 (Eastern Daylight Time)","186350","","1414","","","","offer","","<div class='trialBorder'><div class='vertical-center'><img style='vertical-align:center; align:center' src=img/fixation3.jpg></div><div class='cl'><div class='vertical-center'>$66<br>with a<br>50% chance</div></div><div class='cr'><div class='vertical-center'>$33<br>for<br>sure</div></div><div class='respDivL'><div class='vertical-center'>(E)</div></div><div class='respDivR'><div class='vertical-center'>(I)</div></div></div>","E","$33","$66","1","33","66","RISKY"
"html-keyboard-response","18","59123","0.0-5.0-3.4","6340d2fa46f2d707e146b63b","bdp_rd","Mon Mar 27 2023 23:17:48 GMT-0400 (Eastern Daylight Time)","186350","","null","","","","offerFB","","<div class='trialBorder'><div class='vertical-center'><img style='vertical-align:center; align:center' src=img/fixation3.jpg></div><div class='cl'><div class='vertical-center'><font style='color:orange'>$66<br>with a<br>50% chance</font></div></div><div class='cr'><div class='vertical-center'>$33<br>for<br>sure</div></div><div class='respDivL'><div class='vertical-center'><font style='color:orange'>(E)</font></div></div><div class='respDivR'><div class='vertical-center'>(I)</div></div></div>","null","$33","$66","1","33","66",""
"html-keyboard-response","19","59628","0.0-5.0-1.5","6340d2fa46f2d707e146b63b","bdp_rd","Mon Mar 27 2023 23:17:48 GMT-0400 (Eastern Daylight Time)","186350","","null","","","","FIX","","<div class='trialBorder'><div class='vertical-center'><img style='vertical-align:center; align:center' src=img/fixation3.jpg></div></div>","null","","","","","",""
"html-keyboard-response","20","63633","0.0-5.0-2.5","6340d2fa46f2d707e146b63b","bdp_rd","Mon Mar 27 2023 23:17:48 GMT-0400 (Eastern Daylight Time)","186350","","4002","","","","offer","","<div class='trialBorder'><div class='vertical-center'><img style='vertical-align:center; align:center' src=img/fixation3.jpg></div><div class='cl'><div class='vertical-center'>$12<br>for<br>sure</div></div><div class='cr'><div class='vertical-center'>$35<br>with a<br>50% chance</div></div><div class='respDivL'><div class='vertical-center'>(E)</div></div><div class='respDivR'><div class='vertical-center'>(I)</div></div></div>","I","$12","$35","0","12","35","RISKY"
"html-keyboard-response","21","63893","0.0-5.0-3.5","6340d2fa46f2d707e146b63b","bdp_rd","Mon Mar 27 2023 23:17:48 GMT-0400 (Eastern Daylight Time)","186350","","null","","","","offerFB","","<div class='trialBorder'><div class='vertical-center'><img style='vertical-align:center; align:center' src=img/fixation3.jpg></div><div class='cl'><div class='vertical-center'>$12<br>for<br>sure</div></div><div class='cr'><div class='vertical-center'><font style='color:orange'>$35<br>with a<br>50% chance</font></div></div><div class='respDivL'><div class='vertical-center'>(E)</div></div><div class='respDivR'><div class='vertical-center'><font style='color:orange'>(I)</font></div></div></div>","null","$12","$35","0","12","35",""
"html-keyboard-response","22","64398","0.0-5.0-1.6","6340d2fa46f2d707e146b63b","bdp_rd","Mon Mar 27 2023 23:17:48 GMT-0400 (Eastern Daylight Time)","186350","","null","","","","FIX","","<div class='trialBorder'><div class='vertical-center'><img style='vertical-align:center; align:center' src=img/fixation3.jpg></div></div>","null","","","","","",""
"html-keyboard-response","23","65762","0.0-5.0-2.6","6340d2fa46f2d707e146b63b","bdp_rd","Mon Mar 27 2023 23:17:48 GMT-0400 (Eastern Daylight Time)","186350","","1363","","","","offer","","<div class='trialBorder'><div class='vertical-center'><img style='vertical-align:center; align:center' src=img/fixation3.jpg></div><div class='cl'><div class='vertical-center'>$21<br>for<br>sure</div></div><div class='cr'><div class='vertical-center'>$25<br>with a<br>50% chance</div></div><div class='respDivL'><div class='vertical-center'>(E)</div></div><div class='respDivR'><div class='vertical-center'>(I)</div></div></div>","E","$21","$25","0","21","25","SURE"
"html-keyboard-response","24","66017","0.0-5.0-3.6","6340d2fa46f2d707e146b63b","bdp_rd","Mon Mar 27 2023 23:17:48 GMT-0400 (Eastern Daylight Time)","186350","","null","","","","offerFB","","<div class='trialBorder'><div class='vertical-center'><img style='vertical-align:center; align:center' src=img/fixation3.jpg></div><div class='cl'><div class='vertical-center'><font style='color:orange'>$21<br>for<br>sure</font></div></div><div class='cr'><div class='vertical-center'>$25<br>with a<br>50% chance</div></div><div class='respDivL'><div class='vertical-center'><font style='color:orange'>(E)</font></div></div><div class='respDivR'><div class='vertical-center'>(I)</div></div></div>","null","$21","$25","0","21","25",""
"html-keyboard-response","25","66521","0.0-5.0-1.7","6340d2fa46f2d707e146b63b","bdp_rd","Mon Mar 27 2023 23:17:48 GMT-0400 (Eastern Daylight Time)","186350","","null","","","","FIX","","<div class='trialBorder'><div class='vertical-center'><img style='vertical-align:center; align:center' src=img/fixation3.jpg></div></div>","null","","","","","",""
"html-keyboard-response","26","68974","0.0-5.0-2.7","6340d2fa46f2d707e146b63b","bdp_rd","Mon Mar 27 2023 23:17:48 GMT-0400 (Eastern Daylight Time)","186350","","2450","","","","offer","","<div class='trialBorder'><div class='vertical-center'><img style='vertical-align:center; align:center' src=img/fixation3.jpg></div><div class='cl'><div class='vertical-center'>$48<br>with a<br>50% chance</div></div><div class='cr'><div class='vertical-center'>$34<br>for<br>sure</div></div><div class='respDivL'><div class='vertical-center'>(E)</div></div><div class='respDivR'><div class='vertical-center'>(I)</div></div></div>","I","$34","$48","1","34","48","SURE"
"html-keyboard-response","27","69230","0.0-5.0-3.7","6340d2fa46f2d707e146b63b","bdp_rd","Mon Mar 27 2023 23:17:48 GMT-0400 (Eastern Daylight Time)","186350","","null","","","","offerFB","","<div class='trialBorder'><div class='vertical-center'><img style='vertical-align:center; align:center' src=img/fixation3.jpg></div><div class='cl'><div class='vertical-center'>$48<br>with a<br>50% chance</div></div><div class='cr'><div class='vertical-center'><font style='color:orange'>$34<br>for<br>sure</font></div></div><div class='respDivL'><div class='vertical-center'>(E)</div></div><div class='respDivR'><div class='vertical-center'><font style='color:orange'>(I)</font></div></div></div>","null","$34","$48","1","34","48",""
"html-keyboard-response","28","69738","0.0-5.0-1.8","6340d2fa46f2d707e146b63b","bdp_rd","Mon Mar 27 2023 23:17:48 GMT-0400 (Eastern Daylight Time)","186350","","null","","","","FIX","","<div class='trialBorder'><div class='vertical-center'><img style='vertical-align:center; align:center' src=img/fixation3.jpg></div></div>","null","","","","","",""
"html-keyboard-response","29","70758","0.0-5.0-2.8","6340d2fa46f2d707e146b63b","bdp_rd","Mon Mar 27 2023 23:17:48 GMT-0400 (Eastern Daylight Time)","186350","","1018","","","","offer","","<div class='trialBorder'><div class='vertical-center'><img style='vertical-align:center; align:center' src=img/fixation3.jpg></div><div class='cl'><div class='vertical-center'>$43<br>with a<br>50% chance</div></div><div class='cr'><div class='vertical-center'>$17<br>for<br>sure</div></div><div class='respDivL'><div class='vertical-center'>(E)</div></div><div class='respDivR'><div class='vertical-center'>(I)</div></div></div>","E","$17","$43","1","17","43","RISKY"
"html-keyboard-response","30","71012","0.0-5.0-3.8","6340d2fa46f2d707e146b63b","bdp_rd","Mon Mar 27 2023 23:17:48 GMT-0400 (Eastern Daylight Time)","186350","","null","","","","offerFB","","<div class='trialBorder'><div class='vertical-center'><img style='vertical-align:center; align:center' src=img/fixation3.jpg></div><div class='cl'><div class='vertical-center'><font style='color:orange'>$43<br>with a<br>50% chance</font></div></div><div class='cr'><div class='vertical-center'>$17<br>for<br>sure</div></div><div class='respDivL'><div class='vertical-center'><font style='color:orange'>(E)</font></div></div><div class='respDivR'><div class='vertical-center'>(I)</div></div></div>","null","$17","$43","1","17","43",""
"html-keyboard-response","31","71522","0.0-5.0-1.9","6340d2fa46f2d707e146b63b","bdp_rd","Mon Mar 27 2023 23:17:48 GMT-0400 (Eastern Daylight Time)","186350","","null","","","","FIX","","<div class='trialBorder'><div class='vertical-center'><img style='vertical-align:center; align:center' src=img/fixation3.jpg></div></div>","null","","","","","",""
"html-keyboard-response","32","72593","0.0-5.0-2.9","6340d2fa46f2d707e146b63b","bdp_rd","Mon Mar 27 2023 23:17:48 GMT-0400 (Eastern Daylight Time)","186350","","1070","","","","offer","","<div class='trialBorder'><div class='vertical-center'><img style='vertical-align:center; align:center' src=img/fixation3.jpg></div><div class='cl'><div class='vertical-center'>$13<br>for<br>sure</div></div><div class='cr'><div class='vertical-center'>$41<br>with a<br>50% chance</div></div><div class='respDivL'><div class='vertical-center'>(E)</div></div><div class='respDivR'><div class='vertical-center'>(I)</div></div></div>","I","$13","$41","0","13","41","RISKY"
"html-keyboard-response","33","72851","0.0-5.0-3.9","6340d2fa46f2d707e146b63b","bdp_rd","Mon Mar 27 2023 23:17:48 GMT-0400 (Eastern Daylight Time)","186350","","null","","","","offerFB","","<div class='trialBorder'><div class='vertical-center'><img style='vertical-align:center; align:center' src=img/fixation3.jpg></div><div class='cl'><div class='vertical-center'>$13<br>for<br>sure</div></div><div class='cr'><div class='vertical-center'><font style='color:orange'>$41<br>with a<br>50% chance</font></div></div><div class='respDivL'><div class='vertical-center'>(E)</div></div><div class='respDivR'><div class='vertical-center'><font style='color:orange'>(I)</font></div></div></div>","null","$13","$41","0","13","41",""
"html-keyboard-response","34","73356","0.0-5.0-1.10","6340d2fa46f2d707e146b63b","bdp_rd","Mon Mar 27 2023 23:17:48 GMT-0400 (Eastern Daylight Time)","186350","","null","","","","FIX","","<div class='trialBorder'><div class='vertical-center'><img style='vertical-align:center; align:center' src=img/fixation3.jpg></div></div>","null","","","","","",""
"html-keyboard-response","35","75394","0.0-5.0-2.10","6340d2fa46f2d707e146b63b","bdp_rd","Mon Mar 27 2023 23:17:48 GMT-0400 (Eastern Daylight Time)","186350","","2036","","","","offer","","<div class='trialBorder'><div class='vertical-center'><img style='vertical-align:center; align:center' src=img/fixation3.jpg></div><div class='cl'><div class='vertical-center'>$4<br>for<br>sure</div></div><div class='cr'><div class='vertical-center'>$14<br>with a<br>50% chance</div></div><div class='respDivL'><div class='vertical-center'>(E)</div></div><div class='respDivR'><div class='vertical-center'>(I)</div></div></div>","I","$4","$14","0","4","14","RISKY"
"html-keyboard-response","36","75650","0.0-5.0-3.10","6340d2fa46f2d707e146b63b","bdp_rd","Mon Mar 27 2023 23:17:48 GMT-0400 (Eastern Daylight Time)","186350","","null","","","","offerFB","","<div class='trialBorder'><div class='vertical-center'><img style='vertical-align:center; align:center' src=img/fixation3.jpg></div><div class='cl'><div class='vertical-center'>$4<br>for<br>sure</div></div><div class='cr'><div class='vertical-center'><font style='color:orange'>$14<br>with a<br>50% chance</font></div></div><div class='respDivL'><div class='vertical-center'>(E)</div></div><div class='respDivR'><div class='vertical-center'><font style='color:orange'>(I)</font></div></div></div>","null","$4","$14","0","4","14",""
"html-keyboard-response","37","76159","0.0-5.0-1.11","6340d2fa46f2d707e146b63b","bdp_rd","Mon Mar 27 2023 23:17:48 GMT-0400 (Eastern Daylight Time)","186350","","null","","","","FIX","","<div class='trialBorder'><div class='vertical-center'><img style='vertical-align:center; align:center' src=img/fixation3.jpg></div></div>","null","","","","","",""
"html-keyboard-response","38","78471","0.0-5.0-2.11","6340d2fa46f2d707e146b63b","bdp_rd","Mon Mar 27 2023 23:17:48 GMT-0400 (Eastern Daylight Time)","186350","","2310","","","","offer","","<div class='trialBorder'><div class='vertical-center'><img style='vertical-align:center; align:center' src=img/fixation3.jpg></div><div class='cl'><div class='vertical-center'>$10<br>with a<br>50% chance</div></div><div class='cr'><div class='vertical-center'>$7<br>for<br>sure</div></div><div class='respDivL'><div class='vertical-center'>(E)</div></div><div class='respDivR'><div class='vertical-center'>(I)</div></div></div>","I","$7","$10","1","7","10","SURE"
"html-keyboard-response","39","78738","0.0-5.0-3.11","6340d2fa46f2d707e146b63b","bdp_rd","Mon Mar 27 2023 23:17:48 GMT-0400 (Eastern Daylight Time)","186350","","null","","","","offerFB","","<div class='trialBorder'><div class='vertical-center'><img style='vertical-align:center; align:center' src=img/fixation3.jpg></div><div class='cl'><div class='vertical-center'>$10<br>with a<br>50% chance</div></div><div class='cr'><div class='vertical-center'><font style='color:orange'>$7<br>for<br>sure</font></div></div><div class='respDivL'><div class='vertical-center'>(E)</div></div><div class='respDivR'><div class='vertical-center'><font style='color:orange'>(I)</font></div></div></div>","null","$7","$10","1","7","10",""
"html-keyboard-response","40","79242","0.0-5.0-1.12","6340d2fa46f2d707e146b63b","bdp_rd","Mon Mar 27 2023 23:17:48 GMT-0400 (Eastern Daylight Time)","186350","","null","","","","FIX","","<div class='trialBorder'><div class='vertical-center'><img style='vertical-align:center; align:center' src=img/fixation3.jpg></div></div>","null","","","","","",""
"html-keyboard-response","41","80412","0.0-5.0-2.12","6340d2fa46f2d707e146b63b","bdp_rd","Mon Mar 27 2023 23:17:48 GMT-0400 (Eastern Daylight Time)","186350","","1168","","","","offer","","<div class='trialBorder'><div class='vertical-center'><img style='vertical-align:center; align:center' src=img/fixation3.jpg></div><div class='cl'><div class='vertical-center'>$24<br>for<br>sure</div></div><div class='cr'><div class='vertical-center'>$70<br>with a<br>50% chance</div></div><div class='respDivL'><div class='vertical-center'>(E)</div></div><div class='respDivR'><div class='vertical-center'>(I)</div></div></div>","I","$24","$70","0","24","70","RISKY"
"html-keyboard-response","42","80667","0.0-5.0-3.12","6340d2fa46f2d707e146b63b","bdp_rd","Mon Mar 27 2023 23:17:48 GMT-0400 (Eastern Daylight Time)","186350","","null","","","","offerFB","","<div class='trialBorder'><div class='vertical-center'><img style='vertical-align:center; align:center' src=img/fixation3.jpg></div><div class='cl'><div class='vertical-center'>$24<br>for<br>sure</div></div><div class='cr'><div class='vertical-center'><font style='color:orange'>$70<br>with a<br>50% chance</font></div></div><div class='respDivL'><div class='vertical-center'>(E)</div></div><div class='respDivR'><div class='vertical-center'><font style='color:orange'>(I)</font></div></div></div>","null","$24","$70","0","24","70",""
"html-keyboard-response","43","81176","0.0-5.0-1.13","6340d2fa46f2d707e146b63b","bdp_rd","Mon Mar 27 2023 23:17:48 GMT-0400 (Eastern Daylight Time)","186350","","null","","","","FIX","","<div class='trialBorder'><div class='vertical-center'><img style='vertical-align:center; align:center' src=img/fixation3.jpg></div></div>","null","","","","","",""
"html-keyboard-response","44","82091","0.0-5.0-2.13","6340d2fa46f2d707e146b63b","bdp_rd","Mon Mar 27 2023 23:17:48 GMT-0400 (Eastern Daylight Time)","186350","","912","","","","offer","","<div class='trialBorder'><div class='vertical-center'><img style='vertical-align:center; align:center' src=img/fixation3.jpg></div><div class='cl'><div class='vertical-center'>$5<br>for<br>sure</div></div><div class='cr'><div class='vertical-center'>$16<br>with a<br>50% chance</div></div><div class='respDivL'><div class='vertical-center'>(E)</div></div><div class='respDivR'><div class='vertical-center'>(I)</div></div></div>","I","$5","$16","0","5","16","RISKY"
"html-keyboard-response","45","82345","0.0-5.0-3.13","6340d2fa46f2d707e146b63b","bdp_rd","Mon Mar 27 2023 23:17:48 GMT-0400 (Eastern Daylight Time)","186350","","null","","","","offerFB","","<div class='trialBorder'><div class='vertical-center'><img style='vertical-align:center; align:center' src=img/fixation3.jpg></div><div class='cl'><div class='vertical-center'>$5<br>for<br>sure</div></div><div class='cr'><div class='vertical-center'><font style='color:orange'>$16<br>with a<br>50% chance</font></div></div><div class='respDivL'><div class='vertical-center'>(E)</div></div><div class='respDivR'><div class='vertical-center'><font style='color:orange'>(I)</font></div></div></div>","null","$5","$16","0","5","16",""
"html-keyboard-response","46","82849","0.0-5.0-1.14","6340d2fa46f2d707e146b63b","bdp_rd","Mon Mar 27 2023 23:17:48 GMT-0400 (Eastern Daylight Time)","186350","","null","","","","FIX","","<div class='trialBorder'><div class='vertical-center'><img style='vertical-align:center; align:center' src=img/fixation3.jpg></div></div>","null","","","","","",""
"html-keyboard-response","47","84709","0.0-5.0-2.14","6340d2fa46f2d707e146b63b","bdp_rd","Mon Mar 27 2023 23:17:48 GMT-0400 (Eastern Daylight Time)","186350","","1858","","","","offer","","<div class='trialBorder'><div class='vertical-center'><img style='vertical-align:center; align:center' src=img/fixation3.jpg></div><div class='cl'><div class='vertical-center'>$25<br>for<br>sure</div></div><div class='cr'><div class='vertical-center'>$54<br>with a<br>50% chance</div></div><div class='respDivL'><div class='vertical-center'>(E)</div></div><div class='respDivR'><div class='vertical-center'>(I)</div></div></div>","I","$25","$54","0","25","54","RISKY"
"html-keyboard-response","48","84962","0.0-5.0-3.14","6340d2fa46f2d707e146b63b","bdp_rd","Mon Mar 27 2023 23:17:48 GMT-0400 (Eastern Daylight Time)","186350","","null","","","","offerFB","","<div class='trialBorder'><div class='vertical-center'><img style='vertical-align:center; align:center' src=img/fixation3.jpg></div><div class='cl'><div class='vertical-center'>$25<br>for<br>sure</div></div><div class='cr'><div class='vertical-center'><font style='color:orange'>$54<br>with a<br>50% chance</font></div></div><div class='respDivL'><div class='vertical-center'>(E)</div></div><div class='respDivR'><div class='vertical-center'><font style='color:orange'>(I)</font></div></div></div>","null","$25","$54","0","25","54",""
"html-keyboard-response","49","85465","0.0-5.0-1.15","6340d2fa46f2d707e146b63b","bdp_rd","Mon Mar 27 2023 23:17:48 GMT-0400 (Eastern Daylight Time)","186350","","null","","","","FIX","","<div class='trialBorder'><div class='vertical-center'><img style='vertical-align:center; align:center' src=img/fixation3.jpg></div></div>","null","","","","","",""
"html-keyboard-response","50","86389","0.0-5.0-2.15","6340d2fa46f2d707e146b63b","bdp_rd","Mon Mar 27 2023 23:17:48 GMT-0400 (Eastern Daylight Time)","186350","","923","","","","offer","","<div class='trialBorder'><div class='vertical-center'><img style='vertical-align:center; align:center' src=img/fixation3.jpg></div><div class='cl'><div class='vertical-center'>$45<br>with a<br>50% chance</div></div><div class='cr'><div class='vertical-center'>$8<br>for<br>sure</div></div><div class='respDivL'><div class='vertical-center'>(E)</div></div><div class='respDivR'><div class='vertical-center'>(I)</div></div></div>","E","$8","$45","1","8","45","RISKY"
"html-keyboard-response","51","86648","0.0-5.0-3.15","6340d2fa46f2d707e146b63b","bdp_rd","Mon Mar 27 2023 23:17:48 GMT-0400 (Eastern Daylight Time)","186350","","null","","","","offerFB","","<div class='trialBorder'><div class='vertical-center'><img style='vertical-align:center; align:center' src=img/fixation3.jpg></div><div class='cl'><div class='vertical-center'><font style='color:orange'>$45<br>with a<br>50% chance</font></div></div><div class='cr'><div class='vertical-center'>$8<br>for<br>sure</div></div><div class='respDivL'><div class='vertical-center'><font style='color:orange'>(E)</font></div></div><div class='respDivR'><div class='vertical-center'>(I)</div></div></div>","null","$8","$45","1","8","45",""
"html-keyboard-response","52","87160","0.0-5.0-1.16","6340d2fa46f2d707e146b63b","bdp_rd","Mon Mar 27 2023 23:17:48 GMT-0400 (Eastern Daylight Time)","186350","","null","","","","FIX","","<div class='trialBorder'><div class='vertical-center'><img style='vertical-align:center; align:center' src=img/fixation3.jpg></div></div>","null","","","","","",""
"html-keyboard-response","53","87995","0.0-5.0-2.16","6340d2fa46f2d707e146b63b","bdp_rd","Mon Mar 27 2023 23:17:48 GMT-0400 (Eastern Daylight Time)","186350","","833","","","","offer","","<div class='trialBorder'><div class='vertical-center'><img style='vertical-align:center; align:center' src=img/fixation3.jpg></div><div class='cl'><div class='vertical-center'>$2<br>for<br>sure</div></div><div class='cr'><div class='vertical-center'>$21<br>with a<br>50% chance</div></div><div class='respDivL'><div class='vertical-center'>(E)</div></div><div class='respDivR'><div class='vertical-center'>(I)</div></div></div>","I","$2","$21","0","2","21","RISKY"
"html-keyboard-response","54","88254","0.0-5.0-3.16","6340d2fa46f2d707e146b63b","bdp_rd","Mon Mar 27 2023 23:17:48 GMT-0400 (Eastern Daylight Time)","186350","","null","","","","offerFB","","<div class='trialBorder'><div class='vertical-center'><img style='vertical-align:center; align:center' src=img/fixation3.jpg></div><div class='cl'><div class='vertical-center'>$2<br>for<br>sure</div></div><div class='cr'><div class='vertical-center'><font style='color:orange'>$21<br>with a<br>50% chance</font></div></div><div class='respDivL'><div class='vertical-center'>(E)</div></div><div class='respDivR'><div class='vertical-center'><font style='color:orange'>(I)</font></div></div></div>","null","$2","$21","0","2","21",""
"html-keyboard-response","55","88758","0.0-5.0-1.17","6340d2fa46f2d707e146b63b","bdp_rd","Mon Mar 27 2023 23:17:48 GMT-0400 (Eastern Daylight Time)","186350","","null","","","","FIX","","<div class='trialBorder'><div class='vertical-center'><img style='vertical-align:center; align:center' src=img/fixation3.jpg></div></div>","null","","","","","",""
"html-keyboard-response","56","91228","0.0-5.0-2.17","6340d2fa46f2d707e146b63b","bdp_rd","Mon Mar 27 2023 23:17:48 GMT-0400 (Eastern Daylight Time)","186350","","2467","","","","offer","","<div class='trialBorder'><div class='vertical-center'><img style='vertical-align:center; align:center' src=img/fixation3.jpg></div><div class='cl'><div class='vertical-center'>$73<br>with a<br>50% chance</div></div><div class='cr'><div class='vertical-center'>$42<br>for<br>sure</div></div><div class='respDivL'><div class='vertical-center'>(E)</div></div><div class='respDivR'><div class='vertical-center'>(I)</div></div></div>","I","$42","$73","1","42","73","SURE"
"html-keyboard-response","57","91485","0.0-5.0-3.17","6340d2fa46f2d707e146b63b","bdp_rd","Mon Mar 27 2023 23:17:48 GMT-0400 (Eastern Daylight Time)","186350","","null","","","","offerFB","","<div class='trialBorder'><div class='vertical-center'><img style='vertical-align:center; align:center' src=img/fixation3.jpg></div><div class='cl'><div class='vertical-center'>$73<br>with a<br>50% chance</div></div><div class='cr'><div class='vertical-center'><font style='color:orange'>$42<br>for<br>sure</font></div></div><div class='respDivL'><div class='vertical-center'>(E)</div></div><div class='respDivR'><div class='vertical-center'><font style='color:orange'>(I)</font></div></div></div>","null","$42","$73","1","42","73",""
"html-keyboard-response","58","91989","0.0-5.0-1.18","6340d2fa46f2d707e146b63b","bdp_rd","Mon Mar 27 2023 23:17:48 GMT-0400 (Eastern Daylight Time)","186350","","null","","","","FIX","","<div class='trialBorder'><div class='vertical-center'><img style='vertical-align:center; align:center' src=img/fixation3.jpg></div></div>","null","","","","","",""
"html-keyboard-response","59","92916","0.0-5.0-2.18","6340d2fa46f2d707e146b63b","bdp_rd","Mon Mar 27 2023 23:17:48 GMT-0400 (Eastern Daylight Time)","186350","","924","","","","offer","","<div class='trialBorder'><div class='vertical-center'><img style='vertical-align:center; align:center' src=img/fixation3.jpg></div><div class='cl'><div class='vertical-center'>$2<br>for<br>sure</div></div><div class='cr'><div class='vertical-center'>$64<br>with a<br>50% chance</div></div><div class='respDivL'><div class='vertical-center'>(E)</div></div><div class='respDivR'><div class='vertical-center'>(I)</div></div></div>","I","$2","$64","0","2","64","RISKY"
"html-keyboard-response","60","93174","0.0-5.0-3.18","6340d2fa46f2d707e146b63b","bdp_rd","Mon Mar 27 2023 23:17:48 GMT-0400 (Eastern Daylight Time)","186350","","null","","","","offerFB","","<div class='trialBorder'><div class='vertical-center'><img style='vertical-align:center; align:center' src=img/fixation3.jpg></div><div class='cl'><div class='vertical-center'>$2<br>for<br>sure</div></div><div class='cr'><div class='vertical-center'><font style='color:orange'>$64<br>with a<br>50% chance</font></div></div><div class='respDivL'><div class='vertical-center'>(E)</div></div><div class='respDivR'><div class='vertical-center'><font style='color:orange'>(I)</font></div></div></div>","null","$2","$64","0","2","64",""
"html-keyboard-response","61","93681","0.0-5.0-1.19","6340d2fa46f2d707e146b63b","bdp_rd","Mon Mar 27 2023 23:17:48 GMT-0400 (Eastern Daylight Time)","186350","","null","","","","FIX","","<div class='trialBorder'><div class='vertical-center'><img style='vertical-align:center; align:center' src=img/fixation3.jpg></div></div>","null","","","","","",""
"html-keyboard-response","62","95807","0.0-5.0-2.19","6340d2fa46f2d707e146b63b","bdp_rd","Mon Mar 27 2023 23:17:48 GMT-0400 (Eastern Daylight Time)","186350","","2123","","","","offer","","<div class='trialBorder'><div class='vertical-center'><img style='vertical-align:center; align:center' src=img/fixation3.jpg></div><div class='cl'><div class='vertical-center'>$18<br>with a<br>50% chance</div></div><div class='cr'><div class='vertical-center'>$9<br>for<br>sure</div></div><div class='respDivL'><div class='vertical-center'>(E)</div></div><div class='respDivR'><div class='vertical-center'>(I)</div></div></div>","I","$9","$18","1","9","18","SURE"
"html-keyboard-response","63","96061","0.0-5.0-3.19","6340d2fa46f2d707e146b63b","bdp_rd","Mon Mar 27 2023 23:17:48 GMT-0400 (Eastern Daylight Time)","186350","","null","","","","offerFB","","<div class='trialBorder'><div class='vertical-center'><img style='vertical-align:center; align:center' src=img/fixation3.jpg></div><div class='cl'><div class='vertical-center'>$18<br>with a<br>50% chance</div></div><div class='cr'><div class='vertical-center'><font style='color:orange'>$9<br>for<br>sure</font></div></div><div class='respDivL'><div class='vertical-center'>(E)</div></div><div class='respDivR'><div class='vertical-center'><font style='color:orange'>(I)</font></div></div></div>","null","$9","$18","1","9","18",""
"html-keyboard-response","64","96567","0.0-5.0-1.20","6340d2fa46f2d707e146b63b","bdp_rd","Mon Mar 27 2023 23:17:48 GMT-0400 (Eastern Daylight Time)","186350","","null","","","","FIX","","<div class='trialBorder'><div class='vertical-center'><img style='vertical-align:center; align:center' src=img/fixation3.jpg></div></div>","null","","","","","",""
"html-keyboard-response","65","98594","0.0-5.0-2.20","6340d2fa46f2d707e146b63b","bdp_rd","Mon Mar 27 2023 23:17:48 GMT-0400 (Eastern Daylight Time)","186350","","2025","","","","offer","","<div class='trialBorder'><div class='vertical-center'><img style='vertical-align:center; align:center' src=img/fixation3.jpg></div><div class='cl'><div class='vertical-center'>$17<br>with a<br>50% chance</div></div><div class='cr'><div class='vertical-center'>$3<br>for<br>sure</div></div><div class='respDivL'><div class='vertical-center'>(E)</div></div><div class='respDivR'><div class='vertical-center'>(I)</div></div></div>","E","$3","$17","1","3","17","RISKY"
"html-keyboard-response","66","98848","0.0-5.0-3.20","6340d2fa46f2d707e146b63b","bdp_rd","Mon Mar 27 2023 23:17:48 GMT-0400 (Eastern Daylight Time)","186350","","null","","","","offerFB","","<div class='trialBorder'><div class='vertical-center'><img style='vertical-align:center; align:center' src=img/fixation3.jpg></div><div class='cl'><div class='vertical-center'><font style='color:orange'>$17<br>with a<br>50% chance</font></div></div><div class='cr'><div class='vertical-center'>$3<br>for<br>sure</div></div><div class='respDivL'><div class='vertical-center'><font style='color:orange'>(E)</font></div></div><div class='respDivR'><div class='vertical-center'>(I)</div></div></div>","null","$3","$17","1","3","17",""
"html-keyboard-response","67","99360","0.0-5.0-1.21","6340d2fa46f2d707e146b63b","bdp_rd","Mon Mar 27 2023 23:17:48 GMT-0400 (Eastern Daylight Time)","186350","","null","","","","FIX","","<div class='trialBorder'><div class='vertical-center'><img style='vertical-align:center; align:center' src=img/fixation3.jpg></div></div>","null","","","","","",""
"html-keyboard-response","68","100527","0.0-5.0-2.21","6340d2fa46f2d707e146b63b","bdp_rd","Mon Mar 27 2023 23:17:48 GMT-0400 (Eastern Daylight Time)","186350","","1165","","","","offer","","<div class='trialBorder'><div class='vertical-center'><img style='vertical-align:center; align:center' src=img/fixation3.jpg></div><div class='cl'><div class='vertical-center'>$81<br>with a<br>50% chance</div></div><div class='cr'><div class='vertical-center'>$39<br>for<br>sure</div></div><div class='respDivL'><div class='vertical-center'>(E)</div></div><div class='respDivR'><div class='vertical-center'>(I)</div></div></div>","E","$39","$81","1","39","81","RISKY"
"html-keyboard-response","69","100783","0.0-5.0-3.21","6340d2fa46f2d707e146b63b","bdp_rd","Mon Mar 27 2023 23:17:48 GMT-0400 (Eastern Daylight Time)","186350","","null","","","","offerFB","","<div class='trialBorder'><div class='vertical-center'><img style='vertical-align:center; align:center' src=img/fixation3.jpg></div><div class='cl'><div class='vertical-center'><font style='color:orange'>$81<br>with a<br>50% chance</font></div></div><div class='cr'><div class='vertical-center'>$39<br>for<br>sure</div></div><div class='respDivL'><div class='vertical-center'><font style='color:orange'>(E)</font></div></div><div class='respDivR'><div class='vertical-center'>(I)</div></div></div>","null","$39","$81","1","39","81",""
"html-keyboard-response","70","101287","0.0-5.0-1.22","6340d2fa46f2d707e146b63b","bdp_rd","Mon Mar 27 2023 23:17:48 GMT-0400 (Eastern Daylight Time)","186350","","null","","","","FIX","","<div class='trialBorder'><div class='vertical-center'><img style='vertical-align:center; align:center' src=img/fixation3.jpg></div></div>","null","","","","","",""
"html-keyboard-response","71","104084","0.0-5.0-2.22","6340d2fa46f2d707e146b63b","bdp_rd","Mon Mar 27 2023 23:17:48 GMT-0400 (Eastern Daylight Time)","186350","","2796","","","","offer","","<div class='trialBorder'><div class='vertical-center'><img style='vertical-align:center; align:center' src=img/fixation3.jpg></div><div class='cl'><div class='vertical-center'>$37<br>with a<br>50% chance</div></div><div class='cr'><div class='vertical-center'>$20<br>for<br>sure</div></div><div class='respDivL'><div class='vertical-center'>(E)</div></div><div class='respDivR'><div class='vertical-center'>(I)</div></div></div>","I","$20","$37","1","20","37","SURE"
"html-keyboard-response","72","104337","0.0-5.0-3.22","6340d2fa46f2d707e146b63b","bdp_rd","Mon Mar 27 2023 23:17:48 GMT-0400 (Eastern Daylight Time)","186350","","null","","","","offerFB","","<div class='trialBorder'><div class='vertical-center'><img style='vertical-align:center; align:center' src=img/fixation3.jpg></div><div class='cl'><div class='vertical-center'>$37<br>with a<br>50% chance</div></div><div class='cr'><div class='vertical-center'><font style='color:orange'>$20<br>for<br>sure</font></div></div><div class='respDivL'><div class='vertical-center'>(E)</div></div><div class='respDivR'><div class='vertical-center'><font style='color:orange'>(I)</font></div></div></div>","null","$20","$37","1","20","37",""
"html-keyboard-response","73","104848","0.0-5.0-1.23","6340d2fa46f2d707e146b63b","bdp_rd","Mon Mar 27 2023 23:17:48 GMT-0400 (Eastern Daylight Time)","186350","","null","","","","FIX","","<div class='trialBorder'><div class='vertical-center'><img style='vertical-align:center; align:center' src=img/fixation3.jpg></div></div>","null","","","","","",""
"html-keyboard-response","74","107768","0.0-5.0-2.23","6340d2fa46f2d707e146b63b","bdp_rd","Mon Mar 27 2023 23:17:48 GMT-0400 (Eastern Daylight Time)","186350","","2918","","","","offer","","<div class='trialBorder'><div class='vertical-center'><img style='vertical-align:center; align:center' src=img/fixation3.jpg></div><div class='cl'><div class='vertical-center'>$22<br>for<br>sure</div></div><div class='cr'><div class='vertical-center'>$42<br>with a<br>50% chance</div></div><div class='respDivL'><div class='vertical-center'>(E)</div></div><div class='respDivR'><div class='vertical-center'>(I)</div></div></div>","I","$22","$42","0","22","42","RISKY"
"html-keyboard-response","75","108028","0.0-5.0-3.23","6340d2fa46f2d707e146b63b","bdp_rd","Mon Mar 27 2023 23:17:48 GMT-0400 (Eastern Daylight Time)","186350","","null","","","","offerFB","","<div class='trialBorder'><div class='vertical-center'><img style='vertical-align:center; align:center' src=img/fixation3.jpg></div><div class='cl'><div class='vertical-center'>$22<br>for<br>sure</div></div><div class='cr'><div class='vertical-center'><font style='color:orange'>$42<br>with a<br>50% chance</font></div></div><div class='respDivL'><div class='vertical-center'>(E)</div></div><div class='respDivR'><div class='vertical-center'><font style='color:orange'>(I)</font></div></div></div>","null","$22","$42","0","22","42",""
"html-keyboard-response","76","108532","0.0-5.0-1.24","6340d2fa46f2d707e146b63b","bdp_rd","Mon Mar 27 2023 23:17:48 GMT-0400 (Eastern Daylight Time)","186350","","null","","","","FIX","","<div class='trialBorder'><div class='vertical-center'><img style='vertical-align:center; align:center' src=img/fixation3.jpg></div></div>","null","","","","","",""
"html-keyboard-response","77","112732","0.0-5.0-2.24","6340d2fa46f2d707e146b63b","bdp_rd","Mon Mar 27 2023 23:17:48 GMT-0400 (Eastern Daylight Time)","186350","","4199","","","","offer","","<div class='trialBorder'><div class='vertical-center'><img style='vertical-align:center; align:center' src=img/fixation3.jpg></div><div class='cl'><div class='vertical-center'>$16<br>for<br>sure</div></div><div class='cr'><div class='vertical-center'>$28<br>with a<br>50% chance</div></div><div class='respDivL'><div class='vertical-center'>(E)</div></div><div class='respDivR'><div class='vertical-center'>(I)</div></div></div>","E","$16","$28","0","16","28","SURE"
"html-keyboard-response","78","112993","0.0-5.0-3.24","6340d2fa46f2d707e146b63b","bdp_rd","Mon Mar 27 2023 23:17:48 GMT-0400 (Eastern Daylight Time)","186350","","null","","","","offerFB","","<div class='trialBorder'><div class='vertical-center'><img style='vertical-align:center; align:center' src=img/fixation3.jpg></div><div class='cl'><div class='vertical-center'><font style='color:orange'>$16<br>for<br>sure</font></div></div><div class='cr'><div class='vertical-center'>$28<br>with a<br>50% chance</div></div><div class='respDivL'><div class='vertical-center'><font style='color:orange'>(E)</font></div></div><div class='respDivR'><div class='vertical-center'>(I)</div></div></div>","null","$16","$28","0","16","28",""
"html-keyboard-response","79","113497","0.0-5.0-1.25","6340d2fa46f2d707e146b63b","bdp_rd","Mon Mar 27 2023 23:17:48 GMT-0400 (Eastern Daylight Time)","186350","","null","","","","FIX","","<div class='trialBorder'><div class='vertical-center'><img style='vertical-align:center; align:center' src=img/fixation3.jpg></div></div>","null","","","","","",""
"html-keyboard-response","80","114275","0.0-5.0-2.25","6340d2fa46f2d707e146b63b","bdp_rd","Mon Mar 27 2023 23:17:48 GMT-0400 (Eastern Daylight Time)","186350","","776","","","","offer","","<div class='trialBorder'><div class='vertical-center'><img style='vertical-align:center; align:center' src=img/fixation3.jpg></div><div class='cl'><div class='vertical-center'>$33<br>with a<br>50% chance</div></div><div class='cr'><div class='vertical-center'>$1<br>for<br>sure</div></div><div class='respDivL'><div class='vertical-center'>(E)</div></div><div class='respDivR'><div class='vertical-center'>(I)</div></div></div>","E","$1","$33","1","1","33","RISKY"
"html-keyboard-response","81","114538","0.0-5.0-3.25","6340d2fa46f2d707e146b63b","bdp_rd","Mon Mar 27 2023 23:17:48 GMT-0400 (Eastern Daylight Time)","186350","","null","","","","offerFB","","<div class='trialBorder'><div class='vertical-center'><img style='vertical-align:center; align:center' src=img/fixation3.jpg></div><div class='cl'><div class='vertical-center'><font style='color:orange'>$33<br>with a<br>50% chance</font></div></div><div class='cr'><div class='vertical-center'>$1<br>for<br>sure</div></div><div class='respDivL'><div class='vertical-center'><font style='color:orange'>(E)</font></div></div><div class='respDivR'><div class='vertical-center'>(I)</div></div></div>","null","$1","$33","1","1","33",""
"html-keyboard-response","82","115042","0.0-5.0-1.26","6340d2fa46f2d707e146b63b","bdp_rd","Mon Mar 27 2023 23:17:48 GMT-0400 (Eastern Daylight Time)","186350","","null","","","","FIX","","<div class='trialBorder'><div class='vertical-center'><img style='vertical-align:center; align:center' src=img/fixation3.jpg></div></div>","null","","","","","",""
"html-keyboard-response","83","116569","0.0-5.0-2.26","6340d2fa46f2d707e146b63b","bdp_rd","Mon Mar 27 2023 23:17:48 GMT-0400 (Eastern Daylight Time)","186350","","1525","","","","offer","","<div class='trialBorder'><div class='vertical-center'><img style='vertical-align:center; align:center' src=img/fixation3.jpg></div><div class='cl'><div class='vertical-center'>$58<br>for<br>sure</div></div><div class='cr'><div class='vertical-center'>$69<br>with a<br>50% chance</div></div><div class='respDivL'><div class='vertical-center'>(E)</div></div><div class='respDivR'><div class='vertical-center'>(I)</div></div></div>","E","$58","$69","0","58","69","SURE"
"html-keyboard-response","84","116823","0.0-5.0-3.26","6340d2fa46f2d707e146b63b","bdp_rd","Mon Mar 27 2023 23:17:48 GMT-0400 (Eastern Daylight Time)","186350","","null","","","","offerFB","","<div class='trialBorder'><div class='vertical-center'><img style='vertical-align:center; align:center' src=img/fixation3.jpg></div><div class='cl'><div class='vertical-center'><font style='color:orange'>$58<br>for<br>sure</font></div></div><div class='cr'><div class='vertical-center'>$69<br>with a<br>50% chance</div></div><div class='respDivL'><div class='vertical-center'><font style='color:orange'>(E)</font></div></div><div class='respDivR'><div class='vertical-center'>(I)</div></div></div>","null","$58","$69","0","58","69",""
"html-keyboard-response","85","117332","0.0-5.0-1.27","6340d2fa46f2d707e146b63b","bdp_rd","Mon Mar 27 2023 23:17:48 GMT-0400 (Eastern Daylight Time)","186350","","null","","","","FIX","","<div class='trialBorder'><div class='vertical-center'><img style='vertical-align:center; align:center' src=img/fixation3.jpg></div></div>","null","","","","","",""
"html-keyboard-response","86","119154","0.0-5.0-2.27","6340d2fa46f2d707e146b63b","bdp_rd","Mon Mar 27 2023 23:17:48 GMT-0400 (Eastern Daylight Time)","186350","","1821","","","","offer","","<div class='trialBorder'><div class='vertical-center'><img style='vertical-align:center; align:center' src=img/fixation3.jpg></div><div class='cl'><div class='vertical-center'>$46<br>for<br>sure</div></div><div class='cr'><div class='vertical-center'>$65<br>with a<br>50% chance</div></div><div class='respDivL'><div class='vertical-center'>(E)</div></div><div class='respDivR'><div class='vertical-center'>(I)</div></div></div>","E","$46","$65","0","46","65","SURE"
"html-keyboard-response","87","119414","0.0-5.0-3.27","6340d2fa46f2d707e146b63b","bdp_rd","Mon Mar 27 2023 23:17:48 GMT-0400 (Eastern Daylight Time)","186350","","null","","","","offerFB","","<div class='trialBorder'><div class='vertical-center'><img style='vertical-align:center; align:center' src=img/fixation3.jpg></div><div class='cl'><div class='vertical-center'><font style='color:orange'>$46<br>for<br>sure</font></div></div><div class='cr'><div class='vertical-center'>$65<br>with a<br>50% chance</div></div><div class='respDivL'><div class='vertical-center'><font style='color:orange'>(E)</font></div></div><div class='respDivR'><div class='vertical-center'>(I)</div></div></div>","null","$46","$65","0","46","65",""
"html-keyboard-response","88","119917","0.0-5.0-1.28","6340d2fa46f2d707e146b63b","bdp_rd","Mon Mar 27 2023 23:17:48 GMT-0400 (Eastern Daylight Time)","186350","","null","","","","FIX","","<div class='trialBorder'><div class='vertical-center'><img style='vertical-align:center; align:center' src=img/fixation3.jpg></div></div>","null","","","","","",""
"html-keyboard-response","89","121227","0.0-5.0-2.28","6340d2fa46f2d707e146b63b","bdp_rd","Mon Mar 27 2023 23:17:48 GMT-0400 (Eastern Daylight Time)","186350","","1308","","","","offer","","<div class='trialBorder'><div class='vertical-center'><img style='vertical-align:center; align:center' src=img/fixation3.jpg></div><div class='cl'><div class='vertical-center'>$16<br>for<br>sure</div></div><div class='cr'><div class='vertical-center'>$38<br>with a<br>50% chance</div></div><div class='respDivL'><div class='vertical-center'>(E)</div></div><div class='respDivR'><div class='vertical-center'>(I)</div></div></div>","I","$16","$38","0","16","38","RISKY"
"html-keyboard-response","90","121486","0.0-5.0-3.28","6340d2fa46f2d707e146b63b","bdp_rd","Mon Mar 27 2023 23:17:48 GMT-0400 (Eastern Daylight Time)","186350","","null","","","","offerFB","","<div class='trialBorder'><div class='vertical-center'><img style='vertical-align:center; align:center' src=img/fixation3.jpg></div><div class='cl'><div class='vertical-center'>$16<br>for<br>sure</div></div><div class='cr'><div class='vertical-center'><font style='color:orange'>$38<br>with a<br>50% chance</font></div></div><div class='respDivL'><div class='vertical-center'>(E)</div></div><div class='respDivR'><div class='vertical-center'><font style='color:orange'>(I)</font></div></div></div>","null","$16","$38","0","16","38",""
"html-keyboard-response","91","121995","0.0-5.0-1.29","6340d2fa46f2d707e146b63b","bdp_rd","Mon Mar 27 2023 23:17:48 GMT-0400 (Eastern Daylight Time)","186350","","null","","","","FIX","","<div class='trialBorder'><div class='vertical-center'><img style='vertical-align:center; align:center' src=img/fixation3.jpg></div></div>","null","","","","","",""
"html-keyboard-response","92","122768","0.0-5.0-2.29","6340d2fa46f2d707e146b63b","bdp_rd","Mon Mar 27 2023 23:17:48 GMT-0400 (Eastern Daylight Time)","186350","","770","","","","offer","","<div class='trialBorder'><div class='vertical-center'><img style='vertical-align:center; align:center' src=img/fixation3.jpg></div><div class='cl'><div class='vertical-center'>$26<br>with a<br>50% chance</div></div><div class='cr'><div class='vertical-center'>$11<br>for<br>sure</div></div><div class='respDivL'><div class='vertical-center'>(E)</div></div><div class='respDivR'><div class='vertical-center'>(I)</div></div></div>","E","$11","$26","1","11","26","RISKY"
"html-keyboard-response","93","123028","0.0-5.0-3.29","6340d2fa46f2d707e146b63b","bdp_rd","Mon Mar 27 2023 23:17:48 GMT-0400 (Eastern Daylight Time)","186350","","null","","","","offerFB","","<div class='trialBorder'><div class='vertical-center'><img style='vertical-align:center; align:center' src=img/fixation3.jpg></div><div class='cl'><div class='vertical-center'><font style='color:orange'>$26<br>with a<br>50% chance</font></div></div><div class='cr'><div class='vertical-center'>$11<br>for<br>sure</div></div><div class='respDivL'><div class='vertical-center'><font style='color:orange'>(E)</font></div></div><div class='respDivR'><div class='vertical-center'>(I)</div></div></div>","null","$11","$26","1","11","26",""
"html-keyboard-response","94","123532","0.0-5.0-1.30","6340d2fa46f2d707e146b63b","bdp_rd","Mon Mar 27 2023 23:17:48 GMT-0400 (Eastern Daylight Time)","186350","","null","","","","FIX","","<div class='trialBorder'><div class='vertical-center'><img style='vertical-align:center; align:center' src=img/fixation3.jpg></div></div>","null","","","","","",""
"html-keyboard-response","95","126456","0.0-5.0-2.30","6340d2fa46f2d707e146b63b","bdp_rd","Mon Mar 27 2023 23:17:48 GMT-0400 (Eastern Daylight Time)","186350","","2921","","","","offer","","<div class='trialBorder'><div class='vertical-center'><img style='vertical-align:center; align:center' src=img/fixation3.jpg></div><div class='cl'><div class='vertical-center'>$22<br>with a<br>50% chance</div></div><div class='cr'><div class='vertical-center'>$14<br>for<br>sure</div></div><div class='respDivL'><div class='vertical-center'>(E)</div></div><div class='respDivR'><div class='vertical-center'>(I)</div></div></div>","I","$14","$22","1","14","22","SURE"
"html-keyboard-response","96","126711","0.0-5.0-3.30","6340d2fa46f2d707e146b63b","bdp_rd","Mon Mar 27 2023 23:17:48 GMT-0400 (Eastern Daylight Time)","186350","","null","","","","offerFB","","<div class='trialBorder'><div class='vertical-center'><img style='vertical-align:center; align:center' src=img/fixation3.jpg></div><div class='cl'><div class='vertical-center'>$22<br>with a<br>50% chance</div></div><div class='cr'><div class='vertical-center'><font style='color:orange'>$14<br>for<br>sure</font></div></div><div class='respDivL'><div class='vertical-center'>(E)</div></div><div class='respDivR'><div class='vertical-center'><font style='color:orange'>(I)</font></div></div></div>","null","$14","$22","1","14","22",""
"html-keyboard-response","97","127215","0.0-5.0-1.31","6340d2fa46f2d707e146b63b","bdp_rd","Mon Mar 27 2023 23:17:48 GMT-0400 (Eastern Daylight Time)","186350","","null","","","","FIX","","<div class='trialBorder'><div class='vertical-center'><img style='vertical-align:center; align:center' src=img/fixation3.jpg></div></div>","null","","","","","",""
"html-keyboard-response","98","129589","0.0-5.0-2.31","6340d2fa46f2d707e146b63b","bdp_rd","Mon Mar 27 2023 23:17:48 GMT-0400 (Eastern Daylight Time)","186350","","2372","","","","offer","","<div class='trialBorder'><div class='vertical-center'><img style='vertical-align:center; align:center' src=img/fixation3.jpg></div><div class='cl'><div class='vertical-center'>$15<br>for<br>sure</div></div><div class='cr'><div class='vertical-center'>$31<br>with a<br>50% chance</div></div><div class='respDivL'><div class='vertical-center'>(E)</div></div><div class='respDivR'><div class='vertical-center'>(I)</div></div></div>","I","$15","$31","0","15","31","RISKY"
"html-keyboard-response","99","129844","0.0-5.0-3.31","6340d2fa46f2d707e146b63b","bdp_rd","Mon Mar 27 2023 23:17:48 GMT-0400 (Eastern Daylight Time)","186350","","null","","","","offerFB","","<div class='trialBorder'><div class='vertical-center'><img style='vertical-align:center; align:center' src=img/fixation3.jpg></div><div class='cl'><div class='vertical-center'>$15<br>for<br>sure</div></div><div class='cr'><div class='vertical-center'><font style='color:orange'>$31<br>with a<br>50% chance</font></div></div><div class='respDivL'><div class='vertical-center'>(E)</div></div><div class='respDivR'><div class='vertical-center'><font style='color:orange'>(I)</font></div></div></div>","null","$15","$31","0","15","31",""
"html-keyboard-response","100","130348","0.0-5.0-1.32","6340d2fa46f2d707e146b63b","bdp_rd","Mon Mar 27 2023 23:17:48 GMT-0400 (Eastern Daylight Time)","186350","","null","","","","FIX","","<div class='trialBorder'><div class='vertical-center'><img style='vertical-align:center; align:center' src=img/fixation3.jpg></div></div>","null","","","","","",""
"html-keyboard-response","101","131580","0.0-5.0-2.32","6340d2fa46f2d707e146b63b","bdp_rd","Mon Mar 27 2023 23:17:48 GMT-0400 (Eastern Daylight Time)","186350","","1231","","","","offer","","<div class='trialBorder'><div class='vertical-center'><img style='vertical-align:center; align:center' src=img/fixation3.jpg></div><div class='cl'><div class='vertical-center'>$8<br>for<br>sure</div></div><div class='cr'><div class='vertical-center'>$23<br>with a<br>50% chance</div></div><div class='respDivL'><div class='vertical-center'>(E)</div></div><div class='respDivR'><div class='vertical-center'>(I)</div></div></div>","I","$8","$23","0","8","23","RISKY"
"html-keyboard-response","102","131833","0.0-5.0-3.32","6340d2fa46f2d707e146b63b","bdp_rd","Mon Mar 27 2023 23:17:48 GMT-0400 (Eastern Daylight Time)","186350","","null","","","","offerFB","","<div class='trialBorder'><div class='vertical-center'><img style='vertical-align:center; align:center' src=img/fixation3.jpg></div><div class='cl'><div class='vertical-center'>$8<br>for<br>sure</div></div><div class='cr'><div class='vertical-center'><font style='color:orange'>$23<br>with a<br>50% chance</font></div></div><div class='respDivL'><div class='vertical-center'>(E)</div></div><div class='respDivR'><div class='vertical-center'><font style='color:orange'>(I)</font></div></div></div>","null","$8","$23","0","8","23",""
"html-keyboard-response","103","132335","0.0-5.0-1.33","6340d2fa46f2d707e146b63b","bdp_rd","Mon Mar 27 2023 23:17:48 GMT-0400 (Eastern Daylight Time)","186350","","null","","","","FIX","","<div class='trialBorder'><div class='vertical-center'><img style='vertical-align:center; align:center' src=img/fixation3.jpg></div></div>","null","","","","","",""
"html-keyboard-response","104","134118","0.0-5.0-2.33","6340d2fa46f2d707e146b63b","bdp_rd","Mon Mar 27 2023 23:17:48 GMT-0400 (Eastern Daylight Time)","186350","","1782","","","","offer","","<div class='trialBorder'><div class='vertical-center'><img style='vertical-align:center; align:center' src=img/fixation3.jpg></div><div class='cl'><div class='vertical-center'>$78<br>with a<br>50% chance</div></div><div class='cr'><div class='vertical-center'>$31<br>for<br>sure</div></div><div class='respDivL'><div class='vertical-center'>(E)</div></div><div class='respDivR'><div class='vertical-center'>(I)</div></div></div>","E","$31","$78","1","31","78","RISKY"
"html-keyboard-response","105","134377","0.0-5.0-3.33","6340d2fa46f2d707e146b63b","bdp_rd","Mon Mar 27 2023 23:17:48 GMT-0400 (Eastern Daylight Time)","186350","","null","","","","offerFB","","<div class='trialBorder'><div class='vertical-center'><img style='vertical-align:center; align:center' src=img/fixation3.jpg></div><div class='cl'><div class='vertical-center'><font style='color:orange'>$78<br>with a<br>50% chance</font></div></div><div class='cr'><div class='vertical-center'>$31<br>for<br>sure</div></div><div class='respDivL'><div class='vertical-center'><font style='color:orange'>(E)</font></div></div><div class='respDivR'><div class='vertical-center'>(I)</div></div></div>","null","$31","$78","1","31","78",""
"html-keyboard-response","106","134881","0.0-5.0-1.34","6340d2fa46f2d707e146b63b","bdp_rd","Mon Mar 27 2023 23:17:48 GMT-0400 (Eastern Daylight Time)","186350","","null","","","","FIX","","<div class='trialBorder'><div class='vertical-center'><img style='vertical-align:center; align:center' src=img/fixation3.jpg></div></div>","null","","","","","",""
"html-keyboard-response","107","135721","0.0-5.0-2.34","6340d2fa46f2d707e146b63b","bdp_rd","Mon Mar 27 2023 23:17:48 GMT-0400 (Eastern Daylight Time)","186350","","839","","","","offer","","<div class='trialBorder'><div class='vertical-center'><img style='vertical-align:center; align:center' src=img/fixation3.jpg></div><div class='cl'><div class='vertical-center'>$9<br>for<br>sure</div></div><div class='cr'><div class='vertical-center'>$32<br>with a<br>50% chance</div></div><div class='respDivL'><div class='vertical-center'>(E)</div></div><div class='respDivR'><div class='vertical-center'>(I)</div></div></div>","I","$9","$32","0","9","32","RISKY"
"html-keyboard-response","108","135977","0.0-5.0-3.34","6340d2fa46f2d707e146b63b","bdp_rd","Mon Mar 27 2023 23:17:48 GMT-0400 (Eastern Daylight Time)","186350","","null","","","","offerFB","","<div class='trialBorder'><div class='vertical-center'><img style='vertical-align:center; align:center' src=img/fixation3.jpg></div><div class='cl'><div class='vertical-center'>$9<br>for<br>sure</div></div><div class='cr'><div class='vertical-center'><font style='color:orange'>$32<br>with a<br>50% chance</font></div></div><div class='respDivL'><div class='vertical-center'>(E)</div></div><div class='respDivR'><div class='vertical-center'><font style='color:orange'>(I)</font></div></div></div>","null","$9","$32","0","9","32",""
"html-keyboard-response","109","136483","0.0-5.0-1.35","6340d2fa46f2d707e146b63b","bdp_rd","Mon Mar 27 2023 23:17:48 GMT-0400 (Eastern Daylight Time)","186350","","null","","","","FIX","","<div class='trialBorder'><div class='vertical-center'><img style='vertical-align:center; align:center' src=img/fixation3.jpg></div></div>","null","","","","","",""
"html-keyboard-response","110","137149","0.0-5.0-2.35","6340d2fa46f2d707e146b63b","bdp_rd","Mon Mar 27 2023 23:17:48 GMT-0400 (Eastern Daylight Time)","186350","","664","","","","offer","","<div class='trialBorder'><div class='vertical-center'><img style='vertical-align:center; align:center' src=img/fixation3.jpg></div><div class='cl'><div class='vertical-center'>$5<br>for<br>sure</div></div><div class='cr'><div class='vertical-center'>$50<br>with a<br>50% chance</div></div><div class='respDivL'><div class='vertical-center'>(E)</div></div><div class='respDivR'><div class='vertical-center'>(I)</div></div></div>","I","$5","$50","0","5","50","RISKY"
"html-keyboard-response","111","137407","0.0-5.0-3.35","6340d2fa46f2d707e146b63b","bdp_rd","Mon Mar 27 2023 23:17:48 GMT-0400 (Eastern Daylight Time)","186350","","null","","","","offerFB","","<div class='trialBorder'><div class='vertical-center'><img style='vertical-align:center; align:center' src=img/fixation3.jpg></div><div class='cl'><div class='vertical-center'>$5<br>for<br>sure</div></div><div class='cr'><div class='vertical-center'><font style='color:orange'>$50<br>with a<br>50% chance</font></div></div><div class='respDivL'><div class='vertical-center'>(E)</div></div><div class='respDivR'><div class='vertical-center'><font style='color:orange'>(I)</font></div></div></div>","null","$5","$50","0","5","50",""
"html-keyboard-response","112","137911","0.0-5.0-1.36","6340d2fa46f2d707e146b63b","bdp_rd","Mon Mar 27 2023 23:17:48 GMT-0400 (Eastern Daylight Time)","186350","","null","","","","FIX","","<div class='trialBorder'><div class='vertical-center'><img style='vertical-align:center; align:center' src=img/fixation3.jpg></div></div>","null","","","","","",""
"html-keyboard-response","113","139188","0.0-5.0-2.36","6340d2fa46f2d707e146b63b","bdp_rd","Mon Mar 27 2023 23:17:48 GMT-0400 (Eastern Daylight Time)","186350","","1276","","","","offer","","<div class='trialBorder'><div class='vertical-center'><img style='vertical-align:center; align:center' src=img/fixation3.jpg></div><div class='cl'><div class='vertical-center'>$37<br>for<br>sure</div></div><div class='cr'><div class='vertical-center'>$44<br>with a<br>50% chance</div></div><div class='respDivL'><div class='vertical-center'>(E)</div></div><div class='respDivR'><div class='vertical-center'>(I)</div></div></div>","E","$37","$44","0","37","44","SURE"
"html-keyboard-response","114","139446","0.0-5.0-3.36","6340d2fa46f2d707e146b63b","bdp_rd","Mon Mar 27 2023 23:17:48 GMT-0400 (Eastern Daylight Time)","186350","","null","","","","offerFB","","<div class='trialBorder'><div class='vertical-center'><img style='vertical-align:center; align:center' src=img/fixation3.jpg></div><div class='cl'><div class='vertical-center'><font style='color:orange'>$37<br>for<br>sure</font></div></div><div class='cr'><div class='vertical-center'>$44<br>with a<br>50% chance</div></div><div class='respDivL'><div class='vertical-center'><font style='color:orange'>(E)</font></div></div><div class='respDivR'><div class='vertical-center'>(I)</div></div></div>","null","$37","$44","0","37","44",""
"html-keyboard-response","115","139953","0.0-5.0-1.37","6340d2fa46f2d707e146b63b","bdp_rd","Mon Mar 27 2023 23:17:48 GMT-0400 (Eastern Daylight Time)","186350","","null","","","","FIX","","<div class='trialBorder'><div class='vertical-center'><img style='vertical-align:center; align:center' src=img/fixation3.jpg></div></div>","null","","","","","",""
"html-keyboard-response","116","140669","0.0-5.0-2.37","6340d2fa46f2d707e146b63b","bdp_rd","Mon Mar 27 2023 23:17:48 GMT-0400 (Eastern Daylight Time)","186350","","713","","","","offer","","<div class='trialBorder'><div class='vertical-center'><img style='vertical-align:center; align:center' src=img/fixation3.jpg></div><div class='cl'><div class='vertical-center'>$30<br>with a<br>50% chance</div></div><div class='cr'><div class='vertical-center'>$1<br>for<br>sure</div></div><div class='respDivL'><div class='vertical-center'>(E)</div></div><div class='respDivR'><div class='vertical-center'>(I)</div></div></div>","E","$1","$30","1","1","30","RISKY"
"html-keyboard-response","117","140922","0.0-5.0-3.37","6340d2fa46f2d707e146b63b","bdp_rd","Mon Mar 27 2023 23:17:48 GMT-0400 (Eastern Daylight Time)","186350","","null","","","","offerFB","","<div class='trialBorder'><div class='vertical-center'><img style='vertical-align:center; align:center' src=img/fixation3.jpg></div><div class='cl'><div class='vertical-center'><font style='color:orange'>$30<br>with a<br>50% chance</font></div></div><div class='cr'><div class='vertical-center'>$1<br>for<br>sure</div></div><div class='respDivL'><div class='vertical-center'><font style='color:orange'>(E)</font></div></div><div class='respDivR'><div class='vertical-center'>(I)</div></div></div>","null","$1","$30","1","1","30",""
"html-keyboard-response","118","141428","0.0-5.0-1.38","6340d2fa46f2d707e146b63b","bdp_rd","Mon Mar 27 2023 23:17:48 GMT-0400 (Eastern Daylight Time)","186350","","null","","","","FIX","","<div class='trialBorder'><div class='vertical-center'><img style='vertical-align:center; align:center' src=img/fixation3.jpg></div></div>","null","","","","","",""
"html-keyboard-response","119","142697","0.0-5.0-2.38","6340d2fa46f2d707e146b63b","bdp_rd","Mon Mar 27 2023 23:17:48 GMT-0400 (Eastern Daylight Time)","186350","","1267","","","","offer","","<div class='trialBorder'><div class='vertical-center'><img style='vertical-align:center; align:center' src=img/fixation3.jpg></div><div class='cl'><div class='vertical-center'>$53<br>for<br>sure</div></div><div class='cr'><div class='vertical-center'>$98<br>with a<br>50% chance</div></div><div class='respDivL'><div class='vertical-center'>(E)</div></div><div class='respDivR'><div class='vertical-center'>(I)</div></div></div>","I","$53","$98","0","53","98","RISKY"
"html-keyboard-response","120","142964","0.0-5.0-3.38","6340d2fa46f2d707e146b63b","bdp_rd","Mon Mar 27 2023 23:17:48 GMT-0400 (Eastern Daylight Time)","186350","","null","","","","offerFB","","<div class='trialBorder'><div class='vertical-center'><img style='vertical-align:center; align:center' src=img/fixation3.jpg></div><div class='cl'><div class='vertical-center'>$53<br>for<br>sure</div></div><div class='cr'><div class='vertical-center'><font style='color:orange'>$98<br>with a<br>50% chance</font></div></div><div class='respDivL'><div class='vertical-center'>(E)</div></div><div class='respDivR'><div class='vertical-center'><font style='color:orange'>(I)</font></div></div></div>","null","$53","$98","0","53","98",""
"html-keyboard-response","121","143465","0.0-5.0-1.39","6340d2fa46f2d707e146b63b","bdp_rd","Mon Mar 27 2023 23:17:48 GMT-0400 (Eastern Daylight Time)","186350","","null","","","","FIX","","<div class='trialBorder'><div class='vertical-center'><img style='vertical-align:center; align:center' src=img/fixation3.jpg></div></div>","null","","","","","",""
"html-keyboard-response","122","144600","0.0-5.0-2.39","6340d2fa46f2d707e146b63b","bdp_rd","Mon Mar 27 2023 23:17:48 GMT-0400 (Eastern Daylight Time)","186350","","1132","","","","offer","","<div class='trialBorder'><div class='vertical-center'><img style='vertical-align:center; align:center' src=img/fixation3.jpg></div><div class='cl'><div class='vertical-center'>$68<br>with a<br>50% chance</div></div><div class='cr'><div class='vertical-center'>$30<br>for<br>sure</div></div><div class='respDivL'><div class='vertical-center'>(E)</div></div><div class='respDivR'><div class='vertical-center'>(I)</div></div></div>","E","$30","$68","1","30","68","RISKY"
"html-keyboard-response","123","144853","0.0-5.0-3.39","6340d2fa46f2d707e146b63b","bdp_rd","Mon Mar 27 2023 23:17:48 GMT-0400 (Eastern Daylight Time)","186350","","null","","","","offerFB","","<div class='trialBorder'><div class='vertical-center'><img style='vertical-align:center; align:center' src=img/fixation3.jpg></div><div class='cl'><div class='vertical-center'><font style='color:orange'>$68<br>with a<br>50% chance</font></div></div><div class='cr'><div class='vertical-center'>$30<br>for<br>sure</div></div><div class='respDivL'><div class='vertical-center'><font style='color:orange'>(E)</font></div></div><div class='respDivR'><div class='vertical-center'>(I)</div></div></div>","null","$30","$68","1","30","68",""
"html-keyboard-response","124","145356","0.0-5.0-1.40","6340d2fa46f2d707e146b63b","bdp_rd","Mon Mar 27 2023 23:17:48 GMT-0400 (Eastern Daylight Time)","186350","","null","","","","FIX","","<div class='trialBorder'><div class='vertical-center'><img style='vertical-align:center; align:center' src=img/fixation3.jpg></div></div>","null","","","","","",""
"html-keyboard-response","125","146057","0.0-5.0-2.40","6340d2fa46f2d707e146b63b","bdp_rd","Mon Mar 27 2023 23:17:48 GMT-0400 (Eastern Daylight Time)","186350","","699","","","","offer","","<div class='trialBorder'><div class='vertical-center'><img style='vertical-align:center; align:center' src=img/fixation3.jpg></div><div class='cl'><div class='vertical-center'>$40<br>with a<br>50% chance</div></div><div class='cr'><div class='vertical-center'>$10<br>for<br>sure</div></div><div class='respDivL'><div class='vertical-center'>(E)</div></div><div class='respDivR'><div class='vertical-center'>(I)</div></div></div>","E","$10","$40","1","10","40","RISKY"
"html-keyboard-response","126","146312","0.0-5.0-3.40","6340d2fa46f2d707e146b63b","bdp_rd","Mon Mar 27 2023 23:17:48 GMT-0400 (Eastern Daylight Time)","186350","","null","","","","offerFB","","<div class='trialBorder'><div class='vertical-center'><img style='vertical-align:center; align:center' src=img/fixation3.jpg></div><div class='cl'><div class='vertical-center'><font style='color:orange'>$40<br>with a<br>50% chance</font></div></div><div class='cr'><div class='vertical-center'>$10<br>for<br>sure</div></div><div class='respDivL'><div class='vertical-center'><font style='color:orange'>(E)</font></div></div><div class='respDivR'><div class='vertical-center'>(I)</div></div></div>","null","$10","$40","1","10","40",""
"html-keyboard-response","127","146814","0.0-5.0-1.41","6340d2fa46f2d707e146b63b","bdp_rd","Mon Mar 27 2023 23:17:48 GMT-0400 (Eastern Daylight Time)","186350","","null","","","","FIX","","<div class='trialBorder'><div class='vertical-center'><img style='vertical-align:center; align:center' src=img/fixation3.jpg></div></div>","null","","","","","",""
"html-keyboard-response","128","147578","0.0-5.0-2.41","6340d2fa46f2d707e146b63b","bdp_rd","Mon Mar 27 2023 23:17:48 GMT-0400 (Eastern Daylight Time)","186350","","762","","","","offer","","<div class='trialBorder'><div class='vertical-center'><img style='vertical-align:center; align:center' src=img/fixation3.jpg></div><div class='cl'><div class='vertical-center'>$40<br>for<br>sure</div></div><div class='cr'><div class='vertical-center'>$95<br>with a<br>50% chance</div></div><div class='respDivL'><div class='vertical-center'>(E)</div></div><div class='respDivR'><div class='vertical-center'>(I)</div></div></div>","I","$40","$95","0","40","95","RISKY"
"html-keyboard-response","129","147835","0.0-5.0-3.41","6340d2fa46f2d707e146b63b","bdp_rd","Mon Mar 27 2023 23:17:48 GMT-0400 (Eastern Daylight Time)","186350","","null","","","","offerFB","","<div class='trialBorder'><div class='vertical-center'><img style='vertical-align:center; align:center' src=img/fixation3.jpg></div><div class='cl'><div class='vertical-center'>$40<br>for<br>sure</div></div><div class='cr'><div class='vertical-center'><font style='color:orange'>$95<br>with a<br>50% chance</font></div></div><div class='respDivL'><div class='vertical-center'>(E)</div></div><div class='respDivR'><div class='vertical-center'><font style='color:orange'>(I)</font></div></div></div>","null","$40","$95","0","40","95",""
"html-keyboard-response","130","148338","0.0-5.0-1.42","6340d2fa46f2d707e146b63b","bdp_rd","Mon Mar 27 2023 23:17:48 GMT-0400 (Eastern Daylight Time)","186350","","null","","","","FIX","","<div class='trialBorder'><div class='vertical-center'><img style='vertical-align:center; align:center' src=img/fixation3.jpg></div></div>","null","","","","","",""
"html-keyboard-response","131","149884","0.0-5.0-2.42","6340d2fa46f2d707e146b63b","bdp_rd","Mon Mar 27 2023 23:17:48 GMT-0400 (Eastern Daylight Time)","186350","","1544","","","","offer","","<div class='trialBorder'><div class='vertical-center'><img style='vertical-align:center; align:center' src=img/fixation3.jpg></div><div class='cl'><div class='vertical-center'>$47<br>with a<br>50% chance</div></div><div class='cr'><div class='vertical-center'>$27<br>for<br>sure</div></div><div class='respDivL'><div class='vertical-center'>(E)</div></div><div class='respDivR'><div class='vertical-center'>(I)</div></div></div>","I","$27","$47","1","27","47","SURE"
"html-keyboard-response","132","150144","0.0-5.0-3.42","6340d2fa46f2d707e146b63b","bdp_rd","Mon Mar 27 2023 23:17:48 GMT-0400 (Eastern Daylight Time)","186350","","null","","","","offerFB","","<div class='trialBorder'><div class='vertical-center'><img style='vertical-align:center; align:center' src=img/fixation3.jpg></div><div class='cl'><div class='vertical-center'>$47<br>with a<br>50% chance</div></div><div class='cr'><div class='vertical-center'><font style='color:orange'>$27<br>for<br>sure</font></div></div><div class='respDivL'><div class='vertical-center'>(E)</div></div><div class='respDivR'><div class='vertical-center'><font style='color:orange'>(I)</font></div></div></div>","null","$27","$47","1","27","47",""
"html-keyboard-response","133","150649","0.0-5.0-1.43","6340d2fa46f2d707e146b63b","bdp_rd","Mon Mar 27 2023 23:17:48 GMT-0400 (Eastern Daylight Time)","186350","","null","","","","FIX","","<div class='trialBorder'><div class='vertical-center'><img style='vertical-align:center; align:center' src=img/fixation3.jpg></div></div>","null","","","","","",""
"html-keyboard-response","134","151689","0.0-5.0-2.43","6340d2fa46f2d707e146b63b","bdp_rd","Mon Mar 27 2023 23:17:48 GMT-0400 (Eastern Daylight Time)","186350","","1039","","","","offer","","<div class='trialBorder'><div class='vertical-center'><img style='vertical-align:center; align:center' src=img/fixation3.jpg></div><div class='cl'><div class='vertical-center'>$11<br>with a<br>50% chance</div></div><div class='cr'><div class='vertical-center'>$4<br>for<br>sure</div></div><div class='respDivL'><div class='vertical-center'>(E)</div></div><div class='respDivR'><div class='vertical-center'>(I)</div></div></div>","E","$4","$11","1","4","11","RISKY"
"html-keyboard-response","135","151947","0.0-5.0-3.43","6340d2fa46f2d707e146b63b","bdp_rd","Mon Mar 27 2023 23:17:48 GMT-0400 (Eastern Daylight Time)","186350","","null","","","","offerFB","","<div class='trialBorder'><div class='vertical-center'><img style='vertical-align:center; align:center' src=img/fixation3.jpg></div><div class='cl'><div class='vertical-center'><font style='color:orange'>$11<br>with a<br>50% chance</font></div></div><div class='cr'><div class='vertical-center'>$4<br>for<br>sure</div></div><div class='respDivL'><div class='vertical-center'><font style='color:orange'>(E)</font></div></div><div class='respDivR'><div class='vertical-center'>(I)</div></div></div>","null","$4","$11","1","4","11",""
"html-keyboard-response","136","152459","0.0-5.0-1.44","6340d2fa46f2d707e146b63b","bdp_rd","Mon Mar 27 2023 23:17:48 GMT-0400 (Eastern Daylight Time)","186350","","null","","","","FIX","","<div class='trialBorder'><div class='vertical-center'><img style='vertical-align:center; align:center' src=img/fixation3.jpg></div></div>","null","","","","","",""
"html-keyboard-response","137","154437","0.0-5.0-2.44","6340d2fa46f2d707e146b63b","bdp_rd","Mon Mar 27 2023 23:17:48 GMT-0400 (Eastern Daylight Time)","186350","","1976","","","","offer","","<div class='trialBorder'><div class='vertical-center'><img style='vertical-align:center; align:center' src=img/fixation3.jpg></div><div class='cl'><div class='vertical-center'>$20<br>for<br>sure</div></div><div class='cr'><div class='vertical-center'>$80<br>with a<br>50% chance</div></div><div class='respDivL'><div class='vertical-center'>(E)</div></div><div class='respDivR'><div class='vertical-center'>(I)</div></div></div>","I","$20","$80","0","20","80","RISKY"
"html-keyboard-response","138","154690","0.0-5.0-3.44","6340d2fa46f2d707e146b63b","bdp_rd","Mon Mar 27 2023 23:17:48 GMT-0400 (Eastern Daylight Time)","186350","","null","","","","offerFB","","<div class='trialBorder'><div class='vertical-center'><img style='vertical-align:center; align:center' src=img/fixation3.jpg></div><div class='cl'><div class='vertical-center'>$20<br>for<br>sure</div></div><div class='cr'><div class='vertical-center'><font style='color:orange'>$80<br>with a<br>50% chance</font></div></div><div class='respDivL'><div class='vertical-center'>(E)</div></div><div class='respDivR'><div class='vertical-center'><font style='color:orange'>(I)</font></div></div></div>","null","$20","$80","0","20","80",""
"html-keyboard-response","139","155194","0.0-5.0-1.45","6340d2fa46f2d707e146b63b","bdp_rd","Mon Mar 27 2023 23:17:48 GMT-0400 (Eastern Daylight Time)","186350","","null","","","","FIX","","<div class='trialBorder'><div class='vertical-center'><img style='vertical-align:center; align:center' src=img/fixation3.jpg></div></div>","null","","","","","",""
"html-keyboard-response","140","156435","0.0-5.0-2.45","6340d2fa46f2d707e146b63b","bdp_rd","Mon Mar 27 2023 23:17:48 GMT-0400 (Eastern Daylight Time)","186350","","1240","","","","offer","","<div class='trialBorder'><div class='vertical-center'><img style='vertical-align:center; align:center' src=img/fixation3.jpg></div><div class='cl'><div class='vertical-center'>$51<br>with a<br>50% chance</div></div><div class='cr'><div class='vertical-center'>$19<br>for<br>sure</div></div><div class='respDivL'><div class='vertical-center'>(E)</div></div><div class='respDivR'><div class='vertical-center'>(I)</div></div></div>","E","$19","$51","1","19","51","RISKY"
"html-keyboard-response","141","156694","0.0-5.0-3.45","6340d2fa46f2d707e146b63b","bdp_rd","Mon Mar 27 2023 23:17:48 GMT-0400 (Eastern Daylight Time)","186350","","null","","","","offerFB","","<div class='trialBorder'><div class='vertical-center'><img style='vertical-align:center; align:center' src=img/fixation3.jpg></div><div class='cl'><div class='vertical-center'><font style='color:orange'>$51<br>with a<br>50% chance</font></div></div><div class='cr'><div class='vertical-center'>$19<br>for<br>sure</div></div><div class='respDivL'><div class='vertical-center'><font style='color:orange'>(E)</font></div></div><div class='respDivR'><div class='vertical-center'>(I)</div></div></div>","null","$19","$51","1","19","51",""
"html-keyboard-response","142","157207","0.0-5.0-1.46","6340d2fa46f2d707e146b63b","bdp_rd","Mon Mar 27 2023 23:17:48 GMT-0400 (Eastern Daylight Time)","186350","","null","","","","FIX","","<div class='trialBorder'><div class='vertical-center'><img style='vertical-align:center; align:center' src=img/fixation3.jpg></div></div>","null","","","","","",""
"html-keyboard-response","143","157916","0.0-5.0-2.46","6340d2fa46f2d707e146b63b","bdp_rd","Mon Mar 27 2023 23:17:48 GMT-0400 (Eastern Daylight Time)","186350","","707","","","","offer","","<div class='trialBorder'><div class='vertical-center'><img style='vertical-align:center; align:center' src=img/fixation3.jpg></div><div class='cl'><div class='vertical-center'>$3<br>for<br>sure</div></div><div class='cr'><div class='vertical-center'>$12<br>with a<br>50% chance</div></div><div class='respDivL'><div class='vertical-center'>(E)</div></div><div class='respDivR'><div class='vertical-center'>(I)</div></div></div>","I","$3","$12","0","3","12","RISKY"
"html-keyboard-response","144","158176","0.0-5.0-3.46","6340d2fa46f2d707e146b63b","bdp_rd","Mon Mar 27 2023 23:17:48 GMT-0400 (Eastern Daylight Time)","186350","","null","","","","offerFB","","<div class='trialBorder'><div class='vertical-center'><img style='vertical-align:center; align:center' src=img/fixation3.jpg></div><div class='cl'><div class='vertical-center'>$3<br>for<br>sure</div></div><div class='cr'><div class='vertical-center'><font style='color:orange'>$12<br>with a<br>50% chance</font></div></div><div class='respDivL'><div class='vertical-center'>(E)</div></div><div class='respDivR'><div class='vertical-center'><font style='color:orange'>(I)</font></div></div></div>","null","$3","$12","0","3","12",""
"html-keyboard-response","145","158681","0.0-5.0-1.47","6340d2fa46f2d707e146b63b","bdp_rd","Mon Mar 27 2023 23:17:48 GMT-0400 (Eastern Daylight Time)","186350","","null","","","","FIX","","<div class='trialBorder'><div class='vertical-center'><img style='vertical-align:center; align:center' src=img/fixation3.jpg></div></div>","null","","","","","",""
"html-keyboard-response","146","160024","0.0-5.0-2.47","6340d2fa46f2d707e146b63b","bdp_rd","Mon Mar 27 2023 23:17:48 GMT-0400 (Eastern Daylight Time)","186350","","1342","","","","offer","","<div class='trialBorder'><div class='vertical-center'><img style='vertical-align:center; align:center' src=img/fixation3.jpg></div><div class='cl'><div class='vertical-center'>$59<br>with a<br>50% chance</div></div><div class='cr'><div class='vertical-center'>$22<br>for<br>sure</div></div><div class='respDivL'><div class='vertical-center'>(E)</div></div><div class='respDivR'><div class='vertical-center'>(I)</div></div></div>","E","$22","$59","1","22","59","RISKY"
"html-keyboard-response","147","160277","0.0-5.0-3.47","6340d2fa46f2d707e146b63b","bdp_rd","Mon Mar 27 2023 23:17:48 GMT-0400 (Eastern Daylight Time)","186350","","null","","","","offerFB","","<div class='trialBorder'><div class='vertical-center'><img style='vertical-align:center; align:center' src=img/fixation3.jpg></div><div class='cl'><div class='vertical-center'><font style='color:orange'>$59<br>with a<br>50% chance</font></div></div><div class='cr'><div class='vertical-center'>$22<br>for<br>sure</div></div><div class='respDivL'><div class='vertical-center'><font style='color:orange'>(E)</font></div></div><div class='respDivR'><div class='vertical-center'>(I)</div></div></div>","null","$22","$59","1","22","59",""
"html-keyboard-response","148","160778","0.0-5.0-1.48","6340d2fa46f2d707e146b63b","bdp_rd","Mon Mar 27 2023 23:17:48 GMT-0400 (Eastern Daylight Time)","186350","","null","","","","FIX","","<div class='trialBorder'><div class='vertical-center'><img style='vertical-align:center; align:center' src=img/fixation3.jpg></div></div>","null","","","","","",""
"html-keyboard-response","149","161536","0.0-5.0-2.48","6340d2fa46f2d707e146b63b","bdp_rd","Mon Mar 27 2023 23:17:48 GMT-0400 (Eastern Daylight Time)","186350","","756","","","","offer","","<div class='trialBorder'><div class='vertical-center'><img style='vertical-align:center; align:center' src=img/fixation3.jpg></div><div class='cl'><div class='vertical-center'>$15<br>for<br>sure</div></div><div class='cr'><div class='vertical-center'>$34<br>with a<br>50% chance</div></div><div class='respDivL'><div class='vertical-center'>(E)</div></div><div class='respDivR'><div class='vertical-center'>(I)</div></div></div>","I","$15","$34","0","15","34","RISKY"
"html-keyboard-response","150","161790","0.0-5.0-3.48","6340d2fa46f2d707e146b63b","bdp_rd","Mon Mar 27 2023 23:17:48 GMT-0400 (Eastern Daylight Time)","186350","","null","","","","offerFB","","<div class='trialBorder'><div class='vertical-center'><img style='vertical-align:center; align:center' src=img/fixation3.jpg></div><div class='cl'><div class='vertical-center'>$15<br>for<br>sure</div></div><div class='cr'><div class='vertical-center'><font style='color:orange'>$34<br>with a<br>50% chance</font></div></div><div class='respDivL'><div class='vertical-center'>(E)</div></div><div class='respDivR'><div class='vertical-center'><font style='color:orange'>(I)</font></div></div></div>","null","$15","$34","0","15","34",""
"html-keyboard-response","151","162293","0.0-5.0-1.49","6340d2fa46f2d707e146b63b","bdp_rd","Mon Mar 27 2023 23:17:48 GMT-0400 (Eastern Daylight Time)","186350","","null","","","","FIX","","<div class='trialBorder'><div class='vertical-center'><img style='vertical-align:center; align:center' src=img/fixation3.jpg></div></div>","null","","","","","",""
"html-keyboard-response","152","163448","0.0-5.0-2.49","6340d2fa46f2d707e146b63b","bdp_rd","Mon Mar 27 2023 23:17:48 GMT-0400 (Eastern Daylight Time)","186350","","1154","","","","offer","","<div class='trialBorder'><div class='vertical-center'><img style='vertical-align:center; align:center' src=img/fixation3.jpg></div><div class='cl'><div class='vertical-center'>$86<br>with a<br>50% chance</div></div><div class='cr'><div class='vertical-center'>$45<br>for<br>sure</div></div><div class='respDivL'><div class='vertical-center'>(E)</div></div><div class='respDivR'><div class='vertical-center'>(I)</div></div></div>","E","$45","$86","1","45","86","RISKY"
"html-keyboard-response","153","163701","0.0-5.0-3.49","6340d2fa46f2d707e146b63b","bdp_rd","Mon Mar 27 2023 23:17:48 GMT-0400 (Eastern Daylight Time)","186350","","null","","","","offerFB","","<div class='trialBorder'><div class='vertical-center'><img style='vertical-align:center; align:center' src=img/fixation3.jpg></div><div class='cl'><div class='vertical-center'><font style='color:orange'>$86<br>with a<br>50% chance</font></div></div><div class='cr'><div class='vertical-center'>$45<br>for<br>sure</div></div><div class='respDivL'><div class='vertical-center'><font style='color:orange'>(E)</font></div></div><div class='respDivR'><div class='vertical-center'>(I)</div></div></div>","null","$45","$86","1","45","86",""
"html-keyboard-response","154","164205","0.0-5.0-1.50","6340d2fa46f2d707e146b63b","bdp_rd","Mon Mar 27 2023 23:17:48 GMT-0400 (Eastern Daylight Time)","186350","","null","","","","FIX","","<div class='trialBorder'><div class='vertical-center'><img style='vertical-align:center; align:center' src=img/fixation3.jpg></div></div>","null","","","","","",""
"html-keyboard-response","155","166100","0.0-5.0-2.50","6340d2fa46f2d707e146b63b","bdp_rd","Mon Mar 27 2023 23:17:48 GMT-0400 (Eastern Daylight Time)","186350","","1893","","","","offer","","<div class='trialBorder'><div class='vertical-center'><img style='vertical-align:center; align:center' src=img/fixation3.jpg></div><div class='cl'><div class='vertical-center'>$89<br>with a<br>50% chance</div></div><div class='cr'><div class='vertical-center'>$28<br>for<br>sure</div></div><div class='respDivL'><div class='vertical-center'>(E)</div></div><div class='respDivR'><div class='vertical-center'>(I)</div></div></div>","E","$28","$89","1","28","89","RISKY"
"html-keyboard-response","156","166356","0.0-5.0-3.50","6340d2fa46f2d707e146b63b","bdp_rd","Mon Mar 27 2023 23:17:48 GMT-0400 (Eastern Daylight Time)","186350","","null","","","","offerFB","","<div class='trialBorder'><div class='vertical-center'><img style='vertical-align:center; align:center' src=img/fixation3.jpg></div><div class='cl'><div class='vertical-center'><font style='color:orange'>$89<br>with a<br>50% chance</font></div></div><div class='cr'><div class='vertical-center'>$28<br>for<br>sure</div></div><div class='respDivL'><div class='vertical-center'><font style='color:orange'>(E)</font></div></div><div class='respDivR'><div class='vertical-center'>(I)</div></div></div>","null","$28","$89","1","28","89",""
"html-keyboard-response","157","166862","0.0-5.0-1.51","6340d2fa46f2d707e146b63b","bdp_rd","Mon Mar 27 2023 23:17:48 GMT-0400 (Eastern Daylight Time)","186350","","null","","","","FIX","","<div class='trialBorder'><div class='vertical-center'><img style='vertical-align:center; align:center' src=img/fixation3.jpg></div></div>","null","","","","","",""
"html-keyboard-response","158","168256","0.0-5.0-2.51","6340d2fa46f2d707e146b63b","bdp_rd","Mon Mar 27 2023 23:17:48 GMT-0400 (Eastern Daylight Time)","186350","","1392","","","","offer","","<div class='trialBorder'><div class='vertical-center'><img style='vertical-align:center; align:center' src=img/fixation3.jpg></div><div class='cl'><div class='vertical-center'>$39<br>with a<br>50% chance</div></div><div class='cr'><div class='vertical-center'>$18<br>for<br>sure</div></div><div class='respDivL'><div class='vertical-center'>(E)</div></div><div class='respDivR'><div class='vertical-center'>(I)</div></div></div>","E","$18","$39","1","18","39","RISKY"
"html-keyboard-response","159","168517","0.0-5.0-3.51","6340d2fa46f2d707e146b63b","bdp_rd","Mon Mar 27 2023 23:17:48 GMT-0400 (Eastern Daylight Time)","186350","","null","","","","offerFB","","<div class='trialBorder'><div class='vertical-center'><img style='vertical-align:center; align:center' src=img/fixation3.jpg></div><div class='cl'><div class='vertical-center'><font style='color:orange'>$39<br>with a<br>50% chance</font></div></div><div class='cr'><div class='vertical-center'>$18<br>for<br>sure</div></div><div class='respDivL'><div class='vertical-center'><font style='color:orange'>(E)</font></div></div><div class='respDivR'><div class='vertical-center'>(I)</div></div></div>","null","$18","$39","1","18","39",""
"html-keyboard-response","160","169021","0.0-5.0-1.52","6340d2fa46f2d707e146b63b","bdp_rd","Mon Mar 27 2023 23:17:48 GMT-0400 (Eastern Daylight Time)","186350","","null","","","","FIX","","<div class='trialBorder'><div class='vertical-center'><img style='vertical-align:center; align:center' src=img/fixation3.jpg></div></div>","null","","","","","",""
"html-keyboard-response","161","169735","0.0-5.0-2.52","6340d2fa46f2d707e146b63b","bdp_rd","Mon Mar 27 2023 23:17:48 GMT-0400 (Eastern Daylight Time)","186350","","712","","","","offer","","<div class='trialBorder'><div class='vertical-center'><img style='vertical-align:center; align:center' src=img/fixation3.jpg></div><div class='cl'><div class='vertical-center'>$71<br>with a<br>50% chance</div></div><div class='cr'><div class='vertical-center'>$7<br>for<br>sure</div></div><div class='respDivL'><div class='vertical-center'>(E)</div></div><div class='respDivR'><div class='vertical-center'>(I)</div></div></div>","E","$7","$71","1","7","71","RISKY"
"html-keyboard-response","162","169989","0.0-5.0-3.52","6340d2fa46f2d707e146b63b","bdp_rd","Mon Mar 27 2023 23:17:48 GMT-0400 (Eastern Daylight Time)","186350","","null","","","","offerFB","","<div class='trialBorder'><div class='vertical-center'><img style='vertical-align:center; align:center' src=img/fixation3.jpg></div><div class='cl'><div class='vertical-center'><font style='color:orange'>$71<br>with a<br>50% chance</font></div></div><div class='cr'><div class='vertical-center'>$7<br>for<br>sure</div></div><div class='respDivL'><div class='vertical-center'><font style='color:orange'>(E)</font></div></div><div class='respDivR'><div class='vertical-center'>(I)</div></div></div>","null","$7","$71","1","7","71",""
"html-keyboard-response","163","170494","0.0-5.0-1.53","6340d2fa46f2d707e146b63b","bdp_rd","Mon Mar 27 2023 23:17:48 GMT-0400 (Eastern Daylight Time)","186350","","null","","","","FIX","","<div class='trialBorder'><div class='vertical-center'><img style='vertical-align:center; align:center' src=img/fixation3.jpg></div></div>","null","","","","","",""
"html-keyboard-response","164","171995","0.0-5.0-2.53","6340d2fa46f2d707e146b63b","bdp_rd","Mon Mar 27 2023 23:17:48 GMT-0400 (Eastern Daylight Time)","186350","","1499","","","","offer","","<div class='trialBorder'><div class='vertical-center'><img style='vertical-align:center; align:center' src=img/fixation3.jpg></div><div class='cl'><div class='vertical-center'>$27<br>with a<br>50% chance</div></div><div class='cr'><div class='vertical-center'>$12<br>for<br>sure</div></div><div class='respDivL'><div class='vertical-center'>(E)</div></div><div class='respDivR'><div class='vertical-center'>(I)</div></div></div>","E","$12","$27","1","12","27","RISKY"
"html-keyboard-response","165","172253","0.0-5.0-3.53","6340d2fa46f2d707e146b63b","bdp_rd","Mon Mar 27 2023 23:17:48 GMT-0400 (Eastern Daylight Time)","186350","","null","","","","offerFB","","<div class='trialBorder'><div class='vertical-center'><img style='vertical-align:center; align:center' src=img/fixation3.jpg></div><div class='cl'><div class='vertical-center'><font style='color:orange'>$27<br>with a<br>50% chance</font></div></div><div class='cr'><div class='vertical-center'>$12<br>for<br>sure</div></div><div class='respDivL'><div class='vertical-center'><font style='color:orange'>(E)</font></div></div><div class='respDivR'><div class='vertical-center'>(I)</div></div></div>","null","$12","$27","1","12","27",""
"html-keyboard-response","166","172758","0.0-5.0-1.54","6340d2fa46f2d707e146b63b","bdp_rd","Mon Mar 27 2023 23:17:48 GMT-0400 (Eastern Daylight Time)","186350","","null","","","","FIX","","<div class='trialBorder'><div class='vertical-center'><img style='vertical-align:center; align:center' src=img/fixation3.jpg></div></div>","null","","","","","",""
"html-keyboard-response","167","173700","0.0-5.0-2.54","6340d2fa46f2d707e146b63b","bdp_rd","Mon Mar 27 2023 23:17:48 GMT-0400 (Eastern Daylight Time)","186350","","940","","","","offer","","<div class='trialBorder'><div class='vertical-center'><img style='vertical-align:center; align:center' src=img/fixation3.jpg></div><div class='cl'><div class='vertical-center'>$11<br>for<br>sure</div></div><div class='cr'><div class='vertical-center'>$62<br>with a<br>50% chance</div></div><div class='respDivL'><div class='vertical-center'>(E)</div></div><div class='respDivR'><div class='vertical-center'>(I)</div></div></div>","I","$11","$62","0","11","62","RISKY"
"html-keyboard-response","168","173958","0.0-5.0-3.54","6340d2fa46f2d707e146b63b","bdp_rd","Mon Mar 27 2023 23:17:48 GMT-0400 (Eastern Daylight Time)","186350","","null","","","","offerFB","","<div class='trialBorder'><div class='vertical-center'><img style='vertical-align:center; align:center' src=img/fixation3.jpg></div><div class='cl'><div class='vertical-center'>$11<br>for<br>sure</div></div><div class='cr'><div class='vertical-center'><font style='color:orange'>$62<br>with a<br>50% chance</font></div></div><div class='respDivL'><div class='vertical-center'>(E)</div></div><div class='respDivR'><div class='vertical-center'><font style='color:orange'>(I)</font></div></div></div>","null","$11","$62","0","11","62",""
"html-keyboard-response","169","174462","0.0-5.0-1.55","6340d2fa46f2d707e146b63b","bdp_rd","Mon Mar 27 2023 23:17:48 GMT-0400 (Eastern Daylight Time)","186350","","null","","","","FIX","","<div class='trialBorder'><div class='vertical-center'><img style='vertical-align:center; align:center' src=img/fixation3.jpg></div></div>","null","","","","","",""
"html-keyboard-response","170","176053","0.0-5.0-2.55","6340d2fa46f2d707e146b63b","bdp_rd","Mon Mar 27 2023 23:17:48 GMT-0400 (Eastern Daylight Time)","186350","","1589","","","","offer","","<div class='trialBorder'><div class='vertical-center'><img style='vertical-align:center; align:center' src=img/fixation3.jpg></div><div class='cl'><div class='vertical-center'>$18<br>for<br>sure</div></div><div class='cr'><div class='vertical-center'>$36<br>with a<br>50% chance</div></div><div class='respDivL'><div class='vertical-center'>(E)</div></div><div class='respDivR'><div class='vertical-center'>(I)</div></div></div>","I","$18","$36","0","18","36","RISKY"
"html-keyboard-response","171","176312","0.0-5.0-3.55","6340d2fa46f2d707e146b63b","bdp_rd","Mon Mar 27 2023 23:17:48 GMT-0400 (Eastern Daylight Time)","186350","","null","","","","offerFB","","<div class='trialBorder'><div class='vertical-center'><img style='vertical-align:center; align:center' src=img/fixation3.jpg></div><div class='cl'><div class='vertical-center'>$18<br>for<br>sure</div></div><div class='cr'><div class='vertical-center'><font style='color:orange'>$36<br>with a<br>50% chance</font></div></div><div class='respDivL'><div class='vertical-center'>(E)</div></div><div class='respDivR'><div class='vertical-center'><font style='color:orange'>(I)</font></div></div></div>","null","$18","$36","0","18","36",""
"html-keyboard-response","172","176829","0.0-5.0-1.56","6340d2fa46f2d707e146b63b","bdp_rd","Mon Mar 27 2023 23:17:48 GMT-0400 (Eastern Daylight Time)","186350","","null","","","","FIX","","<div class='trialBorder'><div class='vertical-center'><img style='vertical-align:center; align:center' src=img/fixation3.jpg></div></div>","null","","","","","",""
"html-keyboard-response","173","177907","0.0-5.0-2.56","6340d2fa46f2d707e146b63b","bdp_rd","Mon Mar 27 2023 23:17:48 GMT-0400 (Eastern Daylight Time)","186350","","1077","","","","offer","","<div class='trialBorder'><div class='vertical-center'><img style='vertical-align:center; align:center' src=img/fixation3.jpg></div><div class='cl'><div class='vertical-center'>$26<br>for<br>sure</div></div><div class='cr'><div class='vertical-center'>$92<br>with a<br>50% chance</div></div><div class='respDivL'><div class='vertical-center'>(E)</div></div><div class='respDivR'><div class='vertical-center'>(I)</div></div></div>","I","$26","$92","0","26","92","RISKY"
