"trial_type","trial_index","time_elapsed","internal_node_id","subject_id","task","startTime","totalTime","view_history","rt","event","trial","time","trialtype","success","stimulus","key_press","sureOffer","riskyOffer","riskyLeft","sureAmt","riskyAmt","chosen"
"pavlovia","0","9","0.0-0.0","60fc9ce95a59b3400b38e2a7","bdp_rd","Mon Mar 27 2023 23:23:10 GMT-0400 (Eastern Daylight Time)","191577","","","","","","","","","","","","","","",""
"instructions","1","1854","0.0-1.0","60fc9ce95a59b3400b38e2a7","bdp_rd","Mon Mar 27 2023 23:23:10 GMT-0400 (Eastern Daylight Time)","191577","[{""page_index"":0,""viewing_time"":1844}]","1844","","","","","","","","","","","","",""
"","","","","60fc9ce95a59b3400b38e2a7","bdp_rd","Mon Mar 27 2023 23:23:10 GMT-0400 (Eastern Daylight Time)","191577","","","fullscreenenter","2","2875","fullscreenenter","","","","","","","","",""
"fullscreen","2","3822","0.0-2.0","60fc9ce95a59b3400b38e2a7","bdp_rd","Mon Mar 27 2023 23:23:10 GMT-0400 (Eastern Daylight Time)","191577","","","","","","","true","","","","","","","",""
"instructions","3","44880","0.0-4.0","60fc9ce95a59b3400b38e2a7","bdp_rd","Mon Mar 27 2023 23:23:10 GMT-0400 (Eastern Daylight Time)","191577","[{""page_index"":0,""viewing_time"":25167},{""page_index"":1,""viewing_time"":3232},{""page_index"":2,""viewing_time"":2194},{""page_index"":1,""viewing_time"":3882},{""page_index"":2,""viewing_time"":6580}]","41056","","","","","","","","","","","","",""
"html-keyboard-response","4","45399","0.0-5.0-1.0","60fc9ce95a59b3400b38e2a7","bdp_rd","Mon Mar 27 2023 23:23:10 GMT-0400 (Eastern Daylight Time)","191577","","null","","","","FIX","","<div class='trialBorder'><div class='vertical-center'><img style='vertical-align:center; align:center' src=img/fixation3.jpg></div></div>","null","","","","","",""
"html-keyboard-response","5","48852","0.0-5.0-2.0","60fc9ce95a59b3400b38e2a7","bdp_rd","Mon Mar 27 2023 23:23:10 GMT-0400 (Eastern Daylight Time)","191577","","3450","","","","offer","","<div class='trialBorder'><div class='vertical-center'><img style='vertical-align:center; align:center' src=img/fixation3.jpg></div><div class='cl'><div class='vertical-center'>$24<br>for<br>sure</div></div><div class='cr'><div class='vertical-center'>$70<br>with a<br>50% chance</div></div><div class='respDivL'><div class='vertical-center'>(E)</div></div><div class='respDivR'><div class='vertical-center'>(I)</div></div></div>","E","$24","$70","0","24","70","SURE"
"html-keyboard-response","6","49106","0.0-5.0-3.0","60fc9ce95a59b3400b38e2a7","bdp_rd","Mon Mar 27 2023 23:23:10 GMT-0400 (Eastern Daylight Time)","191577","","null","","","","offerFB","","<div class='trialBorder'><div class='vertical-center'><img style='vertical-align:center; align:center' src=img/fixation3.jpg></div><div class='cl'><div class='vertical-center'><font style='color:orange'>$24<br>for<br>sure</font></div></div><div class='cr'><div class='vertical-center'>$70<br>with a<br>50% chance</div></div><div class='respDivL'><div class='vertical-center'><font style='color:orange'>(E)</font></div></div><div class='respDivR'><div class='vertical-center'>(I)</div></div></div>","null","$24","$70","0","24","70",""
"html-keyboard-response","7","49615","0.0-5.0-1.1","60fc9ce95a59b3400b38e2a7","bdp_rd","Mon Mar 27 2023 23:23:10 GMT-0400 (Eastern Daylight Time)","191577","","null","","","","FIX","","<div class='trialBorder'><div class='vertical-center'><img style='vertical-align:center; align:center' src=img/fixation3.jpg></div></div>","null","","","","","",""
"html-keyboard-response","8","52837","0.0-5.0-2.1","60fc9ce95a59b3400b38e2a7","bdp_rd","Mon Mar 27 2023 23:23:10 GMT-0400 (Eastern Daylight Time)","191577","","3218","","","","offer","","<div class='trialBorder'><div class='vertical-center'><img style='vertical-align:center; align:center' src=img/fixation3.jpg></div><div class='cl'><div class='vertical-center'>$3<br>for<br>sure</div></div><div class='cr'><div class='vertical-center'>$17<br>with a<br>50% chance</div></div><div class='respDivL'><div class='vertical-center'>(E)</div></div><div class='respDivR'><div class='vertical-center'>(I)</div></div></div>","E","$3","$17","0","3","17","SURE"
"html-keyboard-response","9","53095","0.0-5.0-3.1","60fc9ce95a59b3400b38e2a7","bdp_rd","Mon Mar 27 2023 23:23:10 GMT-0400 (Eastern Daylight Time)","191577","","null","","","","offerFB","","<div class='trialBorder'><div class='vertical-center'><img style='vertical-align:center; align:center' src=img/fixation3.jpg></div><div class='cl'><div class='vertical-center'><font style='color:orange'>$3<br>for<br>sure</font></div></div><div class='cr'><div class='vertical-center'>$17<br>with a<br>50% chance</div></div><div class='respDivL'><div class='vertical-center'><font style='color:orange'>(E)</font></div></div><div class='respDivR'><div class='vertical-center'>(I)</div></div></div>","null","$3","$17","0","3","17",""
"html-keyboard-response","10","53601","0.0-5.0-1.2","60fc9ce95a59b3400b38e2a7","bdp_rd","Mon Mar 27 2023 23:23:10 GMT-0400 (Eastern Daylight Time)","191577","","null","","","","FIX","","<div class='trialBorder'><div class='vertical-center'><img style='vertical-align:center; align:center' src=img/fixation3.jpg></div></div>","null","","","","","",""
"html-keyboard-response","11","56094","0.0-5.0-2.2","60fc9ce95a59b3400b38e2a7","bdp_rd","Mon Mar 27 2023 23:23:10 GMT-0400 (Eastern Daylight Time)","191577","","2491","","","","offer","","<div class='trialBorder'><div class='vertical-center'><img style='vertical-align:center; align:center' src=img/fixation3.jpg></div><div class='cl'><div class='vertical-center'>$68<br>with a<br>50% chance</div></div><div class='cr'><div class='vertical-center'>$30<br>for<br>sure</div></div><div class='respDivL'><div class='vertical-center'>(E)</div></div><div class='respDivR'><div class='vertical-center'>(I)</div></div></div>","I","$30","$68","1","30","68","SURE"
"html-keyboard-response","12","56355","0.0-5.0-3.2","60fc9ce95a59b3400b38e2a7","bdp_rd","Mon Mar 27 2023 23:23:10 GMT-0400 (Eastern Daylight Time)","191577","","null","","","","offerFB","","<div class='trialBorder'><div class='vertical-center'><img style='vertical-align:center; align:center' src=img/fixation3.jpg></div><div class='cl'><div class='vertical-center'>$68<br>with a<br>50% chance</div></div><div class='cr'><div class='vertical-center'><font style='color:orange'>$30<br>for<br>sure</font></div></div><div class='respDivL'><div class='vertical-center'>(E)</div></div><div class='respDivR'><div class='vertical-center'><font style='color:orange'>(I)</font></div></div></div>","null","$30","$68","1","30","68",""
"html-keyboard-response","13","56861","0.0-5.0-1.3","60fc9ce95a59b3400b38e2a7","bdp_rd","Mon Mar 27 2023 23:23:10 GMT-0400 (Eastern Daylight Time)","191577","","null","","","","FIX","","<div class='trialBorder'><div class='vertical-center'><img style='vertical-align:center; align:center' src=img/fixation3.jpg></div></div>","null","","","","","",""
"html-keyboard-response","14","59158","0.0-5.0-2.3","60fc9ce95a59b3400b38e2a7","bdp_rd","Mon Mar 27 2023 23:23:10 GMT-0400 (Eastern Daylight Time)","191577","","2293","","","","offer","","<div class='trialBorder'><div class='vertical-center'><img style='vertical-align:center; align:center' src=img/fixation3.jpg></div><div class='cl'><div class='vertical-center'>$5<br>for<br>sure</div></div><div class='cr'><div class='vertical-center'>$50<br>with a<br>50% chance</div></div><div class='respDivL'><div class='vertical-center'>(E)</div></div><div class='respDivR'><div class='vertical-center'>(I)</div></div></div>","I","$5","$50","0","5","50","RISKY"
"html-keyboard-response","15","59427","0.0-5.0-3.3","60fc9ce95a59b3400b38e2a7","bdp_rd","Mon Mar 27 2023 23:23:10 GMT-0400 (Eastern Daylight Time)","191577","","null","","","","offerFB","","<div class='trialBorder'><div class='vertical-center'><img style='vertical-align:center; align:center' src=img/fixation3.jpg></div><div class='cl'><div class='vertical-center'>$5<br>for<br>sure</div></div><div class='cr'><div class='vertical-center'><font style='color:orange'>$50<br>with a<br>50% chance</font></div></div><div class='respDivL'><div class='vertical-center'>(E)</div></div><div class='respDivR'><div class='vertical-center'><font style='color:orange'>(I)</font></div></div></div>","null","$5","$50","0","5","50",""
"html-keyboard-response","16","59933","0.0-5.0-1.4","60fc9ce95a59b3400b38e2a7","bdp_rd","Mon Mar 27 2023 23:23:10 GMT-0400 (Eastern Daylight Time)","191577","","null","","","","FIX","","<div class='trialBorder'><div class='vertical-center'><img style='vertical-align:center; align:center' src=img/fixation3.jpg></div></div>","null","","","","","",""
"html-keyboard-response","17","61785","0.0-5.0-2.4","60fc9ce95a59b3400b38e2a7","bdp_rd","Mon Mar 27 2023 23:23:10 GMT-0400 (Eastern Daylight Time)","191577","","1848","","","","offer","","<div class='trialBorder'><div class='vertical-center'><img style='vertical-align:center; align:center' src=img/fixation3.jpg></div><div class='cl'><div class='vertical-center'>$64<br>with a<br>50% chance</div></div><div class='cr'><div class='vertical-center'>$2<br>for<br>sure</div></div><div class='respDivL'><div class='vertical-center'>(E)</div></div><div class='respDivR'><div class='vertical-center'>(I)</div></div></div>","E","$2","$64","1","2","64","RISKY"
"html-keyboard-response","18","62043","0.0-5.0-3.4","60fc9ce95a59b3400b38e2a7","bdp_rd","Mon Mar 27 2023 23:23:10 GMT-0400 (Eastern Daylight Time)","191577","","null","","","","offerFB","","<div class='trialBorder'><div class='vertical-center'><img style='vertical-align:center; align:center' src=img/fixation3.jpg></div><div class='cl'><div class='vertical-center'><font style='color:orange'>$64<br>with a<br>50% chance</font></div></div><div class='cr'><div class='vertical-center'>$2<br>for<br>sure</div></div><div class='respDivL'><div class='vertical-center'><font style='color:orange'>(E)</font></div></div><div class='respDivR'><div class='vertical-center'>(I)</div></div></div>","null","$2","$64","1","2","64",""
"html-keyboard-response","19","62555","0.0-5.0-1.5","60fc9ce95a59b3400b38e2a7","bdp_rd","Mon Mar 27 2023 23:23:10 GMT-0400 (Eastern Daylight Time)","191577","","null","","","","FIX","","<div class='trialBorder'><div class='vertical-center'><img style='vertical-align:center; align:center' src=img/fixation3.jpg></div></div>","null","","","","","",""
"html-keyboard-response","20","64458","0.0-5.0-2.5","60fc9ce95a59b3400b38e2a7","bdp_rd","Mon Mar 27 2023 23:23:10 GMT-0400 (Eastern Daylight Time)","191577","","1900","","","","offer","","<div class='trialBorder'><div class='vertical-center'><img style='vertical-align:center; align:center' src=img/fixation3.jpg></div><div class='cl'><div class='vertical-center'>$81<br>with a<br>50% chance</div></div><div class='cr'><div class='vertical-center'>$39<br>for<br>sure</div></div><div class='respDivL'><div class='vertical-center'>(E)</div></div><div class='respDivR'><div class='vertical-center'>(I)</div></div></div>","I","$39","$81","1","39","81","SURE"
"html-keyboard-response","21","64715","0.0-5.0-3.5","60fc9ce95a59b3400b38e2a7","bdp_rd","Mon Mar 27 2023 23:23:10 GMT-0400 (Eastern Daylight Time)","191577","","null","","","","offerFB","","<div class='trialBorder'><div class='vertical-center'><img style='vertical-align:center; align:center' src=img/fixation3.jpg></div><div class='cl'><div class='vertical-center'>$81<br>with a<br>50% chance</div></div><div class='cr'><div class='vertical-center'><font style='color:orange'>$39<br>for<br>sure</font></div></div><div class='respDivL'><div class='vertical-center'>(E)</div></div><div class='respDivR'><div class='vertical-center'><font style='color:orange'>(I)</font></div></div></div>","null","$39","$81","1","39","81",""
"html-keyboard-response","22","65220","0.0-5.0-1.6","60fc9ce95a59b3400b38e2a7","bdp_rd","Mon Mar 27 2023 23:23:10 GMT-0400 (Eastern Daylight Time)","191577","","null","","","","FIX","","<div class='trialBorder'><div class='vertical-center'><img style='vertical-align:center; align:center' src=img/fixation3.jpg></div></div>","null","","","","","",""
"html-keyboard-response","23","67028","0.0-5.0-2.6","60fc9ce95a59b3400b38e2a7","bdp_rd","Mon Mar 27 2023 23:23:10 GMT-0400 (Eastern Daylight Time)","191577","","1806","","","","offer","","<div class='trialBorder'><div class='vertical-center'><img style='vertical-align:center; align:center' src=img/fixation3.jpg></div><div class='cl'><div class='vertical-center'>$15<br>for<br>sure</div></div><div class='cr'><div class='vertical-center'>$31<br>with a<br>50% chance</div></div><div class='respDivL'><div class='vertical-center'>(E)</div></div><div class='respDivR'><div class='vertical-center'>(I)</div></div></div>","E","$15","$31","0","15","31","SURE"
"html-keyboard-response","24","67287","0.0-5.0-3.6","60fc9ce95a59b3400b38e2a7","bdp_rd","Mon Mar 27 2023 23:23:10 GMT-0400 (Eastern Daylight Time)","191577","","null","","","","offerFB","","<div class='trialBorder'><div class='vertical-center'><img style='vertical-align:center; align:center' src=img/fixation3.jpg></div><div class='cl'><div class='vertical-center'><font style='color:orange'>$15<br>for<br>sure</font></div></div><div class='cr'><div class='vertical-center'>$31<br>with a<br>50% chance</div></div><div class='respDivL'><div class='vertical-center'><font style='color:orange'>(E)</font></div></div><div class='respDivR'><div class='vertical-center'>(I)</div></div></div>","null","$15","$31","0","15","31",""
"html-keyboard-response","25","67790","0.0-5.0-1.7","60fc9ce95a59b3400b38e2a7","bdp_rd","Mon Mar 27 2023 23:23:10 GMT-0400 (Eastern Daylight Time)","191577","","null","","","","FIX","","<div class='trialBorder'><div class='vertical-center'><img style='vertical-align:center; align:center' src=img/fixation3.jpg></div></div>","null","","","","","",""
"html-keyboard-response","26","69424","0.0-5.0-2.7","60fc9ce95a59b3400b38e2a7","bdp_rd","Mon Mar 27 2023 23:23:10 GMT-0400 (Eastern Daylight Time)","191577","","1632","","","","offer","","<div class='trialBorder'><div class='vertical-center'><img style='vertical-align:center; align:center' src=img/fixation3.jpg></div><div class='cl'><div class='vertical-center'>$65<br>with a<br>50% chance</div></div><div class='cr'><div class='vertical-center'>$46<br>for<br>sure</div></div><div class='respDivL'><div class='vertical-center'>(E)</div></div><div class='respDivR'><div class='vertical-center'>(I)</div></div></div>","I","$46","$65","1","46","65","SURE"
"html-keyboard-response","27","69681","0.0-5.0-3.7","60fc9ce95a59b3400b38e2a7","bdp_rd","Mon Mar 27 2023 23:23:10 GMT-0400 (Eastern Daylight Time)","191577","","null","","","","offerFB","","<div class='trialBorder'><div class='vertical-center'><img style='vertical-align:center; align:center' src=img/fixation3.jpg></div><div class='cl'><div class='vertical-center'>$65<br>with a<br>50% chance</div></div><div class='cr'><div class='vertical-center'><font style='color:orange'>$46<br>for<br>sure</font></div></div><div class='respDivL'><div class='vertical-center'>(E)</div></div><div class='respDivR'><div class='vertical-center'><font style='color:orange'>(I)</font></div></div></div>","null","$46","$65","1","46","65",""
"html-keyboard-response","28","70193","0.0-5.0-1.8","60fc9ce95a59b3400b38e2a7","bdp_rd","Mon Mar 27 2023 23:23:10 GMT-0400 (Eastern Daylight Time)","191577","","null","","","","FIX","","<div class='trialBorder'><div class='vertical-center'><img style='vertical-align:center; align:center' src=img/fixation3.jpg></div></div>","null","","","","","",""
"html-keyboard-response","29","71895","0.0-5.0-2.8","60fc9ce95a59b3400b38e2a7","bdp_rd","Mon Mar 27 2023 23:23:10 GMT-0400 (Eastern Daylight Time)","191577","","1699","","","","offer","","<div class='trialBorder'><div class='vertical-center'><img style='vertical-align:center; align:center' src=img/fixation3.jpg></div><div class='cl'><div class='vertical-center'>$19<br>with a<br>50% chance</div></div><div class='cr'><div class='vertical-center'>$10<br>for<br>sure</div></div><div class='respDivL'><div class='vertical-center'>(E)</div></div><div class='respDivR'><div class='vertical-center'>(I)</div></div></div>","I","$10","$19","1","10","19","SURE"
"html-keyboard-response","30","72153","0.0-5.0-3.8","60fc9ce95a59b3400b38e2a7","bdp_rd","Mon Mar 27 2023 23:23:10 GMT-0400 (Eastern Daylight Time)","191577","","null","","","","offerFB","","<div class='trialBorder'><div class='vertical-center'><img style='vertical-align:center; align:center' src=img/fixation3.jpg></div><div class='cl'><div class='vertical-center'>$19<br>with a<br>50% chance</div></div><div class='cr'><div class='vertical-center'><font style='color:orange'>$10<br>for<br>sure</font></div></div><div class='respDivL'><div class='vertical-center'>(E)</div></div><div class='respDivR'><div class='vertical-center'><font style='color:orange'>(I)</font></div></div></div>","null","$10","$19","1","10","19",""
"html-keyboard-response","31","72658","0.0-5.0-1.9","60fc9ce95a59b3400b38e2a7","bdp_rd","Mon Mar 27 2023 23:23:10 GMT-0400 (Eastern Daylight Time)","191577","","null","","","","FIX","","<div class='trialBorder'><div class='vertical-center'><img style='vertical-align:center; align:center' src=img/fixation3.jpg></div></div>","null","","","","","",""
"html-keyboard-response","32","74484","0.0-5.0-2.9","60fc9ce95a59b3400b38e2a7","bdp_rd","Mon Mar 27 2023 23:23:10 GMT-0400 (Eastern Daylight Time)","191577","","1823","","","","offer","","<div class='trialBorder'><div class='vertical-center'><img style='vertical-align:center; align:center' src=img/fixation3.jpg></div><div class='cl'><div class='vertical-center'>$37<br>with a<br>50% chance</div></div><div class='cr'><div class='vertical-center'>$20<br>for<br>sure</div></div><div class='respDivL'><div class='vertical-center'>(E)</div></div><div class='respDivR'><div class='vertical-center'>(I)</div></div></div>","I","$20","$37","1","20","37","SURE"
"html-keyboard-response","33","74737","0.0-5.0-3.9","60fc9ce95a59b3400b38e2a7","bdp_rd","Mon Mar 27 2023 23:23:10 GMT-0400 (Eastern Daylight Time)","191577","","null","","","","offerFB","","<div class='trialBorder'><div class='vertical-center'><img style='vertical-align:center; align:center' src=img/fixation3.jpg></div><div class='cl'><div class='vertical-center'>$37<br>with a<br>50% chance</div></div><div class='cr'><div class='vertical-center'><font style='color:orange'>$20<br>for<br>sure</font></div></div><div class='respDivL'><div class='vertical-center'>(E)</div></div><div class='respDivR'><div class='vertical-center'><font style='color:orange'>(I)</font></div></div></div>","null","$20","$37","1","20","37",""
"html-keyboard-response","34","75243","0.0-5.0-1.10","60fc9ce95a59b3400b38e2a7","bdp_rd","Mon Mar 27 2023 23:23:10 GMT-0400 (Eastern Daylight Time)","191577","","null","","","","FIX","","<div class='trialBorder'><div class='vertical-center'><img style='vertical-align:center; align:center' src=img/fixation3.jpg></div></div>","null","","","","","",""
"html-keyboard-response","35","76474","0.0-5.0-2.10","60fc9ce95a59b3400b38e2a7","bdp_rd","Mon Mar 27 2023 23:23:10 GMT-0400 (Eastern Daylight Time)","191577","","1228","","","","offer","","<div class='trialBorder'><div class='vertical-center'><img style='vertical-align:center; align:center' src=img/fixation3.jpg></div><div class='cl'><div class='vertical-center'>$25<br>for<br>sure</div></div><div class='cr'><div class='vertical-center'>$54<br>with a<br>50% chance</div></div><div class='respDivL'><div class='vertical-center'>(E)</div></div><div class='respDivR'><div class='vertical-center'>(I)</div></div></div>","E","$25","$54","0","25","54","SURE"
"html-keyboard-response","36","76738","0.0-5.0-3.10","60fc9ce95a59b3400b38e2a7","bdp_rd","Mon Mar 27 2023 23:23:10 GMT-0400 (Eastern Daylight Time)","191577","","null","","","","offerFB","","<div class='trialBorder'><div class='vertical-center'><img style='vertical-align:center; align:center' src=img/fixation3.jpg></div><div class='cl'><div class='vertical-center'><font style='color:orange'>$25<br>for<br>sure</font></div></div><div class='cr'><div class='vertical-center'>$54<br>with a<br>50% chance</div></div><div class='respDivL'><div class='vertical-center'><font style='color:orange'>(E)</font></div></div><div class='respDivR'><div class='vertical-center'>(I)</div></div></div>","null","$25","$54","0","25","54",""
"html-keyboard-response","37","77244","0.0-5.0-1.11","60fc9ce95a59b3400b38e2a7","bdp_rd","Mon Mar 27 2023 23:23:10 GMT-0400 (Eastern Daylight Time)","191577","","null","","","","FIX","","<div class='trialBorder'><div class='vertical-center'><img style='vertical-align:center; align:center' src=img/fixation3.jpg></div></div>","null","","","","","",""
"html-keyboard-response","38","78916","0.0-5.0-2.11","60fc9ce95a59b3400b38e2a7","bdp_rd","Mon Mar 27 2023 23:23:10 GMT-0400 (Eastern Daylight Time)","191577","","1670","","","","offer","","<div class='trialBorder'><div class='vertical-center'><img style='vertical-align:center; align:center' src=img/fixation3.jpg></div><div class='cl'><div class='vertical-center'>$24<br>with a<br>50% chance</div></div><div class='cr'><div class='vertical-center'>$13<br>for<br>sure</div></div><div class='respDivL'><div class='vertical-center'>(E)</div></div><div class='respDivR'><div class='vertical-center'>(I)</div></div></div>","I","$13","$24","1","13","24","SURE"
"html-keyboard-response","39","79168","0.0-5.0-3.11","60fc9ce95a59b3400b38e2a7","bdp_rd","Mon Mar 27 2023 23:23:10 GMT-0400 (Eastern Daylight Time)","191577","","null","","","","offerFB","","<div class='trialBorder'><div class='vertical-center'><img style='vertical-align:center; align:center' src=img/fixation3.jpg></div><div class='cl'><div class='vertical-center'>$24<br>with a<br>50% chance</div></div><div class='cr'><div class='vertical-center'><font style='color:orange'>$13<br>for<br>sure</font></div></div><div class='respDivL'><div class='vertical-center'>(E)</div></div><div class='respDivR'><div class='vertical-center'><font style='color:orange'>(I)</font></div></div></div>","null","$13","$24","1","13","24",""
"html-keyboard-response","40","79682","0.0-5.0-1.12","60fc9ce95a59b3400b38e2a7","bdp_rd","Mon Mar 27 2023 23:23:10 GMT-0400 (Eastern Daylight Time)","191577","","null","","","","FIX","","<div class='trialBorder'><div class='vertical-center'><img style='vertical-align:center; align:center' src=img/fixation3.jpg></div></div>","null","","","","","",""
"html-keyboard-response","41","81679","0.0-5.0-2.12","60fc9ce95a59b3400b38e2a7","bdp_rd","Mon Mar 27 2023 23:23:10 GMT-0400 (Eastern Daylight Time)","191577","","1994","","","","offer","","<div class='trialBorder'><div class='vertical-center'><img style='vertical-align:center; align:center' src=img/fixation3.jpg></div><div class='cl'><div class='vertical-center'>$26<br>for<br>sure</div></div><div class='cr'><div class='vertical-center'>$92<br>with a<br>50% chance</div></div><div class='respDivL'><div class='vertical-center'>(E)</div></div><div class='respDivR'><div class='vertical-center'>(I)</div></div></div>","I","$26","$92","0","26","92","RISKY"
"html-keyboard-response","42","81938","0.0-5.0-3.12","60fc9ce95a59b3400b38e2a7","bdp_rd","Mon Mar 27 2023 23:23:10 GMT-0400 (Eastern Daylight Time)","191577","","null","","","","offerFB","","<div class='trialBorder'><div class='vertical-center'><img style='vertical-align:center; align:center' src=img/fixation3.jpg></div><div class='cl'><div class='vertical-center'>$26<br>for<br>sure</div></div><div class='cr'><div class='vertical-center'><font style='color:orange'>$92<br>with a<br>50% chance</font></div></div><div class='respDivL'><div class='vertical-center'>(E)</div></div><div class='respDivR'><div class='vertical-center'><font style='color:orange'>(I)</font></div></div></div>","null","$26","$92","0","26","92",""
"html-keyboard-response","43","82443","0.0-5.0-1.13","60fc9ce95a59b3400b38e2a7","bdp_rd","Mon Mar 27 2023 23:23:10 GMT-0400 (Eastern Daylight Time)","191577","","null","","","","FIX","","<div class='trialBorder'><div class='vertical-center'><img style='vertical-align:center; align:center' src=img/fixation3.jpg></div></div>","null","","","","","",""
"html-keyboard-response","44","84963","0.0-5.0-2.13","60fc9ce95a59b3400b38e2a7","bdp_rd","Mon Mar 27 2023 23:23:10 GMT-0400 (Eastern Daylight Time)","191577","","2518","","","","offer","","<div class='trialBorder'><div class='vertical-center'><img style='vertical-align:center; align:center' src=img/fixation3.jpg></div><div class='cl'><div class='vertical-center'>$4<br>for<br>sure</div></div><div class='cr'><div class='vertical-center'>$14<br>with a<br>50% chance</div></div><div class='respDivL'><div class='vertical-center'>(E)</div></div><div class='respDivR'><div class='vertical-center'>(I)</div></div></div>","I","$4","$14","0","4","14","RISKY"
"html-keyboard-response","45","85223","0.0-5.0-3.13","60fc9ce95a59b3400b38e2a7","bdp_rd","Mon Mar 27 2023 23:23:10 GMT-0400 (Eastern Daylight Time)","191577","","null","","","","offerFB","","<div class='trialBorder'><div class='vertical-center'><img style='vertical-align:center; align:center' src=img/fixation3.jpg></div><div class='cl'><div class='vertical-center'>$4<br>for<br>sure</div></div><div class='cr'><div class='vertical-center'><font style='color:orange'>$14<br>with a<br>50% chance</font></div></div><div class='respDivL'><div class='vertical-center'>(E)</div></div><div class='respDivR'><div class='vertical-center'><font style='color:orange'>(I)</font></div></div></div>","null","$4","$14","0","4","14",""
"html-keyboard-response","46","85729","0.0-5.0-1.14","60fc9ce95a59b3400b38e2a7","bdp_rd","Mon Mar 27 2023 23:23:10 GMT-0400 (Eastern Daylight Time)","191577","","null","","","","FIX","","<div class='trialBorder'><div class='vertical-center'><img style='vertical-align:center; align:center' src=img/fixation3.jpg></div></div>","null","","","","","",""
"html-keyboard-response","47","87407","0.0-5.0-2.14","60fc9ce95a59b3400b38e2a7","bdp_rd","Mon Mar 27 2023 23:23:10 GMT-0400 (Eastern Daylight Time)","191577","","1674","","","","offer","","<div class='trialBorder'><div class='vertical-center'><img style='vertical-align:center; align:center' src=img/fixation3.jpg></div><div class='cl'><div class='vertical-center'>$45<br>with a<br>50% chance</div></div><div class='cr'><div class='vertical-center'>$8<br>for<br>sure</div></div><div class='respDivL'><div class='vertical-center'>(E)</div></div><div class='respDivR'><div class='vertical-center'>(I)</div></div></div>","E","$8","$45","1","8","45","RISKY"
"html-keyboard-response","48","87668","0.0-5.0-3.14","60fc9ce95a59b3400b38e2a7","bdp_rd","Mon Mar 27 2023 23:23:10 GMT-0400 (Eastern Daylight Time)","191577","","null","","","","offerFB","","<div class='trialBorder'><div class='vertical-center'><img style='vertical-align:center; align:center' src=img/fixation3.jpg></div><div class='cl'><div class='vertical-center'><font style='color:orange'>$45<br>with a<br>50% chance</font></div></div><div class='cr'><div class='vertical-center'>$8<br>for<br>sure</div></div><div class='respDivL'><div class='vertical-center'><font style='color:orange'>(E)</font></div></div><div class='respDivR'><div class='vertical-center'>(I)</div></div></div>","null","$8","$45","1","8","45",""
"html-keyboard-response","49","88171","0.0-5.0-1.15","60fc9ce95a59b3400b38e2a7","bdp_rd","Mon Mar 27 2023 23:23:10 GMT-0400 (Eastern Daylight Time)","191577","","null","","","","FIX","","<div class='trialBorder'><div class='vertical-center'><img style='vertical-align:center; align:center' src=img/fixation3.jpg></div></div>","null","","","","","",""
"html-keyboard-response","50","91246","0.0-5.0-2.15","60fc9ce95a59b3400b38e2a7","bdp_rd","Mon Mar 27 2023 23:23:10 GMT-0400 (Eastern Daylight Time)","191577","","3072","","","","offer","","<div class='trialBorder'><div class='vertical-center'><img style='vertical-align:center; align:center' src=img/fixation3.jpg></div><div class='cl'><div class='vertical-center'>$35<br>with a<br>50% chance</div></div><div class='cr'><div class='vertical-center'>$12<br>for<br>sure</div></div><div class='respDivL'><div class='vertical-center'>(E)</div></div><div class='respDivR'><div class='vertical-center'>(I)</div></div></div>","I","$12","$35","1","12","35","SURE"
"html-keyboard-response","51","91503","0.0-5.0-3.15","60fc9ce95a59b3400b38e2a7","bdp_rd","Mon Mar 27 2023 23:23:10 GMT-0400 (Eastern Daylight Time)","191577","","null","","","","offerFB","","<div class='trialBorder'><div class='vertical-center'><img style='vertical-align:center; align:center' src=img/fixation3.jpg></div><div class='cl'><div class='vertical-center'>$35<br>with a<br>50% chance</div></div><div class='cr'><div class='vertical-center'><font style='color:orange'>$12<br>for<br>sure</font></div></div><div class='respDivL'><div class='vertical-center'>(E)</div></div><div class='respDivR'><div class='vertical-center'><font style='color:orange'>(I)</font></div></div></div>","null","$12","$35","1","12","35",""
"html-keyboard-response","52","92014","0.0-5.0-1.16","60fc9ce95a59b3400b38e2a7","bdp_rd","Mon Mar 27 2023 23:23:10 GMT-0400 (Eastern Daylight Time)","191577","","null","","","","FIX","","<div class='trialBorder'><div class='vertical-center'><img style='vertical-align:center; align:center' src=img/fixation3.jpg></div></div>","null","","","","","",""
"html-keyboard-response","53","93363","0.0-5.0-2.16","60fc9ce95a59b3400b38e2a7","bdp_rd","Mon Mar 27 2023 23:23:10 GMT-0400 (Eastern Daylight Time)","191577","","1347","","","","offer","","<div class='trialBorder'><div class='vertical-center'><img style='vertical-align:center; align:center' src=img/fixation3.jpg></div><div class='cl'><div class='vertical-center'>$1<br>for<br>sure</div></div><div class='cr'><div class='vertical-center'>$33<br>with a<br>50% chance</div></div><div class='respDivL'><div class='vertical-center'>(E)</div></div><div class='respDivR'><div class='vertical-center'>(I)</div></div></div>","I","$1","$33","0","1","33","RISKY"
"html-keyboard-response","54","93625","0.0-5.0-3.16","60fc9ce95a59b3400b38e2a7","bdp_rd","Mon Mar 27 2023 23:23:10 GMT-0400 (Eastern Daylight Time)","191577","","null","","","","offerFB","","<div class='trialBorder'><div class='vertical-center'><img style='vertical-align:center; align:center' src=img/fixation3.jpg></div><div class='cl'><div class='vertical-center'>$1<br>for<br>sure</div></div><div class='cr'><div class='vertical-center'><font style='color:orange'>$33<br>with a<br>50% chance</font></div></div><div class='respDivL'><div class='vertical-center'>(E)</div></div><div class='respDivR'><div class='vertical-center'><font style='color:orange'>(I)</font></div></div></div>","null","$1","$33","0","1","33",""
"html-keyboard-response","55","94130","0.0-5.0-1.17","60fc9ce95a59b3400b38e2a7","bdp_rd","Mon Mar 27 2023 23:23:10 GMT-0400 (Eastern Daylight Time)","191577","","null","","","","FIX","","<div class='trialBorder'><div class='vertical-center'><img style='vertical-align:center; align:center' src=img/fixation3.jpg></div></div>","null","","","","","",""
"html-keyboard-response","56","96477","0.0-5.0-2.17","60fc9ce95a59b3400b38e2a7","bdp_rd","Mon Mar 27 2023 23:23:10 GMT-0400 (Eastern Daylight Time)","191577","","2345","","","","offer","","<div class='trialBorder'><div class='vertical-center'><img style='vertical-align:center; align:center' src=img/fixation3.jpg></div><div class='cl'><div class='vertical-center'>$51<br>with a<br>50% chance</div></div><div class='cr'><div class='vertical-center'>$19<br>for<br>sure</div></div><div class='respDivL'><div class='vertical-center'>(E)</div></div><div class='respDivR'><div class='vertical-center'>(I)</div></div></div>","E","$19","$51","1","19","51","RISKY"
"html-keyboard-response","57","96738","0.0-5.0-3.17","60fc9ce95a59b3400b38e2a7","bdp_rd","Mon Mar 27 2023 23:23:10 GMT-0400 (Eastern Daylight Time)","191577","","null","","","","offerFB","","<div class='trialBorder'><div class='vertical-center'><img style='vertical-align:center; align:center' src=img/fixation3.jpg></div><div class='cl'><div class='vertical-center'><font style='color:orange'>$51<br>with a<br>50% chance</font></div></div><div class='cr'><div class='vertical-center'>$19<br>for<br>sure</div></div><div class='respDivL'><div class='vertical-center'><font style='color:orange'>(E)</font></div></div><div class='respDivR'><div class='vertical-center'>(I)</div></div></div>","null","$19","$51","1","19","51",""
"html-keyboard-response","58","97246","0.0-5.0-1.18","60fc9ce95a59b3400b38e2a7","bdp_rd","Mon Mar 27 2023 23:23:10 GMT-0400 (Eastern Daylight Time)","191577","","null","","","","FIX","","<div class='trialBorder'><div class='vertical-center'><img style='vertical-align:center; align:center' src=img/fixation3.jpg></div></div>","null","","","","","",""
"html-keyboard-response","59","98419","0.0-5.0-2.18","60fc9ce95a59b3400b38e2a7","bdp_rd","Mon Mar 27 2023 23:23:10 GMT-0400 (Eastern Daylight Time)","191577","","1170","","","","offer","","<div class='trialBorder'><div class='vertical-center'><img style='vertical-align:center; align:center' src=img/fixation3.jpg></div><div class='cl'><div class='vertical-center'>$38<br>with a<br>50% chance</div></div><div class='cr'><div class='vertical-center'>$16<br>for<br>sure</div></div><div class='respDivL'><div class='vertical-center'>(E)</div></div><div class='respDivR'><div class='vertical-center'>(I)</div></div></div>","E","$16","$38","1","16","38","RISKY"
"html-keyboard-response","60","98678","0.0-5.0-3.18","60fc9ce95a59b3400b38e2a7","bdp_rd","Mon Mar 27 2023 23:23:10 GMT-0400 (Eastern Daylight Time)","191577","","null","","","","offerFB","","<div class='trialBorder'><div class='vertical-center'><img style='vertical-align:center; align:center' src=img/fixation3.jpg></div><div class='cl'><div class='vertical-center'><font style='color:orange'>$38<br>with a<br>50% chance</font></div></div><div class='cr'><div class='vertical-center'>$16<br>for<br>sure</div></div><div class='respDivL'><div class='vertical-center'><font style='color:orange'>(E)</font></div></div><div class='respDivR'><div class='vertical-center'>(I)</div></div></div>","null","$16","$38","1","16","38",""
"html-keyboard-response","61","99188","0.0-5.0-1.19","60fc9ce95a59b3400b38e2a7","bdp_rd","Mon Mar 27 2023 23:23:10 GMT-0400 (Eastern Daylight Time)","191577","","null","","","","FIX","","<div class='trialBorder'><div class='vertical-center'><img style='vertical-align:center; align:center' src=img/fixation3.jpg></div></div>","null","","","","","",""
"html-keyboard-response","62","100562","0.0-5.0-2.19","60fc9ce95a59b3400b38e2a7","bdp_rd","Mon Mar 27 2023 23:23:10 GMT-0400 (Eastern Daylight Time)","191577","","1372","","","","offer","","<div class='trialBorder'><div class='vertical-center'><img style='vertical-align:center; align:center' src=img/fixation3.jpg></div><div class='cl'><div class='vertical-center'>$63<br>for<br>sure</div></div><div class='cr'><div class='vertical-center'>$100<br>with a<br>50% chance</div></div><div class='respDivL'><div class='vertical-center'>(E)</div></div><div class='respDivR'><div class='vertical-center'>(I)</div></div></div>","I","$63","$100","0","63","10","RISKY"
"html-keyboard-response","63","100823","0.0-5.0-3.19","60fc9ce95a59b3400b38e2a7","bdp_rd","Mon Mar 27 2023 23:23:10 GMT-0400 (Eastern Daylight Time)","191577","","null","","","","offerFB","","<div class='trialBorder'><div class='vertical-center'><img style='vertical-align:center; align:center' src=img/fixation3.jpg></div><div class='cl'><div class='vertical-center'>$63<br>for<br>sure</div></div><div class='cr'><div class='vertical-center'><font style='color:orange'>$100<br>with a<br>50% chance</font></div></div><div class='respDivL'><div class='vertical-center'>(E)</div></div><div class='respDivR'><div class='vertical-center'><font style='color:orange'>(I)</font></div></div></div>","null","$63","$100","0","63","10",""
"html-keyboard-response","64","101333","0.0-5.0-1.20","60fc9ce95a59b3400b38e2a7","bdp_rd","Mon Mar 27 2023 23:23:10 GMT-0400 (Eastern Daylight Time)","191577","","null","","","","FIX","","<div class='trialBorder'><div class='vertical-center'><img style='vertical-align:center; align:center' src=img/fixation3.jpg></div></div>","null","","","","","",""
"html-keyboard-response","65","103272","0.0-5.0-2.20","60fc9ce95a59b3400b38e2a7","bdp_rd","Mon Mar 27 2023 23:23:10 GMT-0400 (Eastern Daylight Time)","191577","","1937","","","","offer","","<div class='trialBorder'><div class='vertical-center'><img style='vertical-align:center; align:center' src=img/fixation3.jpg></div><div class='cl'><div class='vertical-center'>$36<br>with a<br>50% chance</div></div><div class='cr'><div class='vertical-center'>$18<br>for<br>sure</div></div><div class='respDivL'><div class='vertical-center'>(E)</div></div><div class='respDivR'><div class='vertical-center'>(I)</div></div></div>","E","$18","$36","1","18","36","RISKY"
"html-keyboard-response","66","103528","0.0-5.0-3.20","60fc9ce95a59b3400b38e2a7","bdp_rd","Mon Mar 27 2023 23:23:10 GMT-0400 (Eastern Daylight Time)","191577","","null","","","","offerFB","","<div class='trialBorder'><div class='vertical-center'><img style='vertical-align:center; align:center' src=img/fixation3.jpg></div><div class='cl'><div class='vertical-center'><font style='color:orange'>$36<br>with a<br>50% chance</font></div></div><div class='cr'><div class='vertical-center'>$18<br>for<br>sure</div></div><div class='respDivL'><div class='vertical-center'><font style='color:orange'>(E)</font></div></div><div class='respDivR'><div class='vertical-center'>(I)</div></div></div>","null","$18","$36","1","18","36",""
"html-keyboard-response","67","104032","0.0-5.0-1.21","60fc9ce95a59b3400b38e2a7","bdp_rd","Mon Mar 27 2023 23:23:10 GMT-0400 (Eastern Daylight Time)","191577","","null","","","","FIX","","<div class='trialBorder'><div class='vertical-center'><img style='vertical-align:center; align:center' src=img/fixation3.jpg></div></div>","null","","","","","",""
"html-keyboard-response","68","105844","0.0-5.0-2.21","60fc9ce95a59b3400b38e2a7","bdp_rd","Mon Mar 27 2023 23:23:10 GMT-0400 (Eastern Daylight Time)","191577","","1809","","","","offer","","<div class='trialBorder'><div class='vertical-center'><img style='vertical-align:center; align:center' src=img/fixation3.jpg></div><div class='cl'><div class='vertical-center'>$40<br>for<br>sure</div></div><div class='cr'><div class='vertical-center'>$95<br>with a<br>50% chance</div></div><div class='respDivL'><div class='vertical-center'>(E)</div></div><div class='respDivR'><div class='vertical-center'>(I)</div></div></div>","I","$40","$95","0","40","95","RISKY"
"html-keyboard-response","69","106099","0.0-5.0-3.21","60fc9ce95a59b3400b38e2a7","bdp_rd","Mon Mar 27 2023 23:23:10 GMT-0400 (Eastern Daylight Time)","191577","","null","","","","offerFB","","<div class='trialBorder'><div class='vertical-center'><img style='vertical-align:center; align:center' src=img/fixation3.jpg></div><div class='cl'><div class='vertical-center'>$40<br>for<br>sure</div></div><div class='cr'><div class='vertical-center'><font style='color:orange'>$95<br>with a<br>50% chance</font></div></div><div class='respDivL'><div class='vertical-center'>(E)</div></div><div class='respDivR'><div class='vertical-center'><font style='color:orange'>(I)</font></div></div></div>","null","$40","$95","0","40","95",""
"html-keyboard-response","70","106604","0.0-5.0-1.22","60fc9ce95a59b3400b38e2a7","bdp_rd","Mon Mar 27 2023 23:23:10 GMT-0400 (Eastern Daylight Time)","191577","","null","","","","FIX","","<div class='trialBorder'><div class='vertical-center'><img style='vertical-align:center; align:center' src=img/fixation3.jpg></div></div>","null","","","","","",""
"html-keyboard-response","71","108536","0.0-5.0-2.22","60fc9ce95a59b3400b38e2a7","bdp_rd","Mon Mar 27 2023 23:23:10 GMT-0400 (Eastern Daylight Time)","191577","","1928","","","","offer","","<div class='trialBorder'><div class='vertical-center'><img style='vertical-align:center; align:center' src=img/fixation3.jpg></div><div class='cl'><div class='vertical-center'>$13<br>with a<br>50% chance</div></div><div class='cr'><div class='vertical-center'>$6<br>for<br>sure</div></div><div class='respDivL'><div class='vertical-center'>(E)</div></div><div class='respDivR'><div class='vertical-center'>(I)</div></div></div>","I","$6","$13","1","6","13","SURE"
"html-keyboard-response","72","108791","0.0-5.0-3.22","60fc9ce95a59b3400b38e2a7","bdp_rd","Mon Mar 27 2023 23:23:10 GMT-0400 (Eastern Daylight Time)","191577","","null","","","","offerFB","","<div class='trialBorder'><div class='vertical-center'><img style='vertical-align:center; align:center' src=img/fixation3.jpg></div><div class='cl'><div class='vertical-center'>$13<br>with a<br>50% chance</div></div><div class='cr'><div class='vertical-center'><font style='color:orange'>$6<br>for<br>sure</font></div></div><div class='respDivL'><div class='vertical-center'>(E)</div></div><div class='respDivR'><div class='vertical-center'><font style='color:orange'>(I)</font></div></div></div>","null","$6","$13","1","6","13",""
"html-keyboard-response","73","109303","0.0-5.0-1.23","60fc9ce95a59b3400b38e2a7","bdp_rd","Mon Mar 27 2023 23:23:10 GMT-0400 (Eastern Daylight Time)","191577","","null","","","","FIX","","<div class='trialBorder'><div class='vertical-center'><img style='vertical-align:center; align:center' src=img/fixation3.jpg></div></div>","null","","","","","",""
"html-keyboard-response","74","110702","0.0-5.0-2.23","60fc9ce95a59b3400b38e2a7","bdp_rd","Mon Mar 27 2023 23:23:10 GMT-0400 (Eastern Daylight Time)","191577","","1396","","","","offer","","<div class='trialBorder'><div class='vertical-center'><img style='vertical-align:center; align:center' src=img/fixation3.jpg></div><div class='cl'><div class='vertical-center'>$69<br>with a<br>50% chance</div></div><div class='cr'><div class='vertical-center'>$58<br>for<br>sure</div></div><div class='respDivL'><div class='vertical-center'>(E)</div></div><div class='respDivR'><div class='vertical-center'>(I)</div></div></div>","I","$58","$69","1","58","69","SURE"
"html-keyboard-response","75","110960","0.0-5.0-3.23","60fc9ce95a59b3400b38e2a7","bdp_rd","Mon Mar 27 2023 23:23:10 GMT-0400 (Eastern Daylight Time)","191577","","null","","","","offerFB","","<div class='trialBorder'><div class='vertical-center'><img style='vertical-align:center; align:center' src=img/fixation3.jpg></div><div class='cl'><div class='vertical-center'>$69<br>with a<br>50% chance</div></div><div class='cr'><div class='vertical-center'><font style='color:orange'>$58<br>for<br>sure</font></div></div><div class='respDivL'><div class='vertical-center'>(E)</div></div><div class='respDivR'><div class='vertical-center'><font style='color:orange'>(I)</font></div></div></div>","null","$58","$69","1","58","69",""
"html-keyboard-response","76","111464","0.0-5.0-1.24","60fc9ce95a59b3400b38e2a7","bdp_rd","Mon Mar 27 2023 23:23:10 GMT-0400 (Eastern Daylight Time)","191577","","null","","","","FIX","","<div class='trialBorder'><div class='vertical-center'><img style='vertical-align:center; align:center' src=img/fixation3.jpg></div></div>","null","","","","","",""
"html-keyboard-response","77","113238","0.0-5.0-2.24","60fc9ce95a59b3400b38e2a7","bdp_rd","Mon Mar 27 2023 23:23:10 GMT-0400 (Eastern Daylight Time)","191577","","1771","","","","offer","","<div class='trialBorder'><div class='vertical-center'><img style='vertical-align:center; align:center' src=img/fixation3.jpg></div><div class='cl'><div class='vertical-center'>$10<br>for<br>sure</div></div><div class='cr'><div class='vertical-center'>$40<br>with a<br>50% chance</div></div><div class='respDivL'><div class='vertical-center'>(E)</div></div><div class='respDivR'><div class='vertical-center'>(I)</div></div></div>","I","$10","$40","0","10","40","RISKY"
"html-keyboard-response","78","113500","0.0-5.0-3.24","60fc9ce95a59b3400b38e2a7","bdp_rd","Mon Mar 27 2023 23:23:10 GMT-0400 (Eastern Daylight Time)","191577","","null","","","","offerFB","","<div class='trialBorder'><div class='vertical-center'><img style='vertical-align:center; align:center' src=img/fixation3.jpg></div><div class='cl'><div class='vertical-center'>$10<br>for<br>sure</div></div><div class='cr'><div class='vertical-center'><font style='color:orange'>$40<br>with a<br>50% chance</font></div></div><div class='respDivL'><div class='vertical-center'>(E)</div></div><div class='respDivR'><div class='vertical-center'><font style='color:orange'>(I)</font></div></div></div>","null","$10","$40","0","10","40",""
"html-keyboard-response","79","114004","0.0-5.0-1.25","60fc9ce95a59b3400b38e2a7","bdp_rd","Mon Mar 27 2023 23:23:10 GMT-0400 (Eastern Daylight Time)","191577","","null","","","","FIX","","<div class='trialBorder'><div class='vertical-center'><img style='vertical-align:center; align:center' src=img/fixation3.jpg></div></div>","null","","","","","",""
"html-keyboard-response","80","115738","0.0-5.0-2.25","60fc9ce95a59b3400b38e2a7","bdp_rd","Mon Mar 27 2023 23:23:10 GMT-0400 (Eastern Daylight Time)","191577","","1730","","","","offer","","<div class='trialBorder'><div class='vertical-center'><img style='vertical-align:center; align:center' src=img/fixation3.jpg></div><div class='cl'><div class='vertical-center'>$27<br>for<br>sure</div></div><div class='cr'><div class='vertical-center'>$47<br>with a<br>50% chance</div></div><div class='respDivL'><div class='vertical-center'>(E)</div></div><div class='respDivR'><div class='vertical-center'>(I)</div></div></div>","E","$27","$47","0","27","47","SURE"
"html-keyboard-response","81","116003","0.0-5.0-3.25","60fc9ce95a59b3400b38e2a7","bdp_rd","Mon Mar 27 2023 23:23:10 GMT-0400 (Eastern Daylight Time)","191577","","null","","","","offerFB","","<div class='trialBorder'><div class='vertical-center'><img style='vertical-align:center; align:center' src=img/fixation3.jpg></div><div class='cl'><div class='vertical-center'><font style='color:orange'>$27<br>for<br>sure</font></div></div><div class='cr'><div class='vertical-center'>$47<br>with a<br>50% chance</div></div><div class='respDivL'><div class='vertical-center'><font style='color:orange'>(E)</font></div></div><div class='respDivR'><div class='vertical-center'>(I)</div></div></div>","null","$27","$47","0","27","47",""
"html-keyboard-response","82","116512","0.0-5.0-1.26","60fc9ce95a59b3400b38e2a7","bdp_rd","Mon Mar 27 2023 23:23:10 GMT-0400 (Eastern Daylight Time)","191577","","null","","","","FIX","","<div class='trialBorder'><div class='vertical-center'><img style='vertical-align:center; align:center' src=img/fixation3.jpg></div></div>","null","","","","","",""
"html-keyboard-response","83","118170","0.0-5.0-2.26","60fc9ce95a59b3400b38e2a7","bdp_rd","Mon Mar 27 2023 23:23:10 GMT-0400 (Eastern Daylight Time)","191577","","1656","","","","offer","","<div class='trialBorder'><div class='vertical-center'><img style='vertical-align:center; align:center' src=img/fixation3.jpg></div><div class='cl'><div class='vertical-center'>$25<br>with a<br>50% chance</div></div><div class='cr'><div class='vertical-center'>$21<br>for<br>sure</div></div><div class='respDivL'><div class='vertical-center'>(E)</div></div><div class='respDivR'><div class='vertical-center'>(I)</div></div></div>","I","$21","$25","1","21","25","SURE"
"html-keyboard-response","84","118433","0.0-5.0-3.26","60fc9ce95a59b3400b38e2a7","bdp_rd","Mon Mar 27 2023 23:23:10 GMT-0400 (Eastern Daylight Time)","191577","","null","","","","offerFB","","<div class='trialBorder'><div class='vertical-center'><img style='vertical-align:center; align:center' src=img/fixation3.jpg></div><div class='cl'><div class='vertical-center'>$25<br>with a<br>50% chance</div></div><div class='cr'><div class='vertical-center'><font style='color:orange'>$21<br>for<br>sure</font></div></div><div class='respDivL'><div class='vertical-center'>(E)</div></div><div class='respDivR'><div class='vertical-center'><font style='color:orange'>(I)</font></div></div></div>","null","$21","$25","1","21","25",""
"html-keyboard-response","85","118936","0.0-5.0-1.27","60fc9ce95a59b3400b38e2a7","bdp_rd","Mon Mar 27 2023 23:23:10 GMT-0400 (Eastern Daylight Time)","191577","","null","","","","FIX","","<div class='trialBorder'><div class='vertical-center'><img style='vertical-align:center; align:center' src=img/fixation3.jpg></div></div>","null","","","","","",""
"html-keyboard-response","86","120101","0.0-5.0-2.27","60fc9ce95a59b3400b38e2a7","bdp_rd","Mon Mar 27 2023 23:23:10 GMT-0400 (Eastern Daylight Time)","191577","","1163","","","","offer","","<div class='trialBorder'><div class='vertical-center'><img style='vertical-align:center; align:center' src=img/fixation3.jpg></div><div class='cl'><div class='vertical-center'>$71<br>with a<br>50% chance</div></div><div class='cr'><div class='vertical-center'>$7<br>for<br>sure</div></div><div class='respDivL'><div class='vertical-center'>(E)</div></div><div class='respDivR'><div class='vertical-center'>(I)</div></div></div>","E","$7","$71","1","7","71","RISKY"
"html-keyboard-response","87","120357","0.0-5.0-3.27","60fc9ce95a59b3400b38e2a7","bdp_rd","Mon Mar 27 2023 23:23:10 GMT-0400 (Eastern Daylight Time)","191577","","null","","","","offerFB","","<div class='trialBorder'><div class='vertical-center'><img style='vertical-align:center; align:center' src=img/fixation3.jpg></div><div class='cl'><div class='vertical-center'><font style='color:orange'>$71<br>with a<br>50% chance</font></div></div><div class='cr'><div class='vertical-center'>$7<br>for<br>sure</div></div><div class='respDivL'><div class='vertical-center'><font style='color:orange'>(E)</font></div></div><div class='respDivR'><div class='vertical-center'>(I)</div></div></div>","null","$7","$71","1","7","71",""
"html-keyboard-response","88","120868","0.0-5.0-1.28","60fc9ce95a59b3400b38e2a7","bdp_rd","Mon Mar 27 2023 23:23:10 GMT-0400 (Eastern Daylight Time)","191577","","null","","","","FIX","","<div class='trialBorder'><div class='vertical-center'><img style='vertical-align:center; align:center' src=img/fixation3.jpg></div></div>","null","","","","","",""
"html-keyboard-response","89","122095","0.0-5.0-2.28","60fc9ce95a59b3400b38e2a7","bdp_rd","Mon Mar 27 2023 23:23:10 GMT-0400 (Eastern Daylight Time)","191577","","1224","","","","offer","","<div class='trialBorder'><div class='vertical-center'><img style='vertical-align:center; align:center' src=img/fixation3.jpg></div><div class='cl'><div class='vertical-center'>$27<br>with a<br>50% chance</div></div><div class='cr'><div class='vertical-center'>$12<br>for<br>sure</div></div><div class='respDivL'><div class='vertical-center'>(E)</div></div><div class='respDivR'><div class='vertical-center'>(I)</div></div></div>","E","$12","$27","1","12","27","RISKY"
"html-keyboard-response","90","122355","0.0-5.0-3.28","60fc9ce95a59b3400b38e2a7","bdp_rd","Mon Mar 27 2023 23:23:10 GMT-0400 (Eastern Daylight Time)","191577","","null","","","","offerFB","","<div class='trialBorder'><div class='vertical-center'><img style='vertical-align:center; align:center' src=img/fixation3.jpg></div><div class='cl'><div class='vertical-center'><font style='color:orange'>$27<br>with a<br>50% chance</font></div></div><div class='cr'><div class='vertical-center'>$12<br>for<br>sure</div></div><div class='respDivL'><div class='vertical-center'><font style='color:orange'>(E)</font></div></div><div class='respDivR'><div class='vertical-center'>(I)</div></div></div>","null","$12","$27","1","12","27",""
"html-keyboard-response","91","122858","0.0-5.0-1.29","60fc9ce95a59b3400b38e2a7","bdp_rd","Mon Mar 27 2023 23:23:10 GMT-0400 (Eastern Daylight Time)","191577","","null","","","","FIX","","<div class='trialBorder'><div class='vertical-center'><img style='vertical-align:center; align:center' src=img/fixation3.jpg></div></div>","null","","","","","",""
"html-keyboard-response","92","124085","0.0-5.0-2.29","60fc9ce95a59b3400b38e2a7","bdp_rd","Mon Mar 27 2023 23:23:10 GMT-0400 (Eastern Daylight Time)","191577","","1224","","","","offer","","<div class='trialBorder'><div class='vertical-center'><img style='vertical-align:center; align:center' src=img/fixation3.jpg></div><div class='cl'><div class='vertical-center'>$34<br>with a<br>50% chance</div></div><div class='cr'><div class='vertical-center'>$15<br>for<br>sure</div></div><div class='respDivL'><div class='vertical-center'>(E)</div></div><div class='respDivR'><div class='vertical-center'>(I)</div></div></div>","I","$15","$34","1","15","34","SURE"
"html-keyboard-response","93","124343","0.0-5.0-3.29","60fc9ce95a59b3400b38e2a7","bdp_rd","Mon Mar 27 2023 23:23:10 GMT-0400 (Eastern Daylight Time)","191577","","null","","","","offerFB","","<div class='trialBorder'><div class='vertical-center'><img style='vertical-align:center; align:center' src=img/fixation3.jpg></div><div class='cl'><div class='vertical-center'>$34<br>with a<br>50% chance</div></div><div class='cr'><div class='vertical-center'><font style='color:orange'>$15<br>for<br>sure</font></div></div><div class='respDivL'><div class='vertical-center'>(E)</div></div><div class='respDivR'><div class='vertical-center'><font style='color:orange'>(I)</font></div></div></div>","null","$15","$34","1","15","34",""
"html-keyboard-response","94","124846","0.0-5.0-1.30","60fc9ce95a59b3400b38e2a7","bdp_rd","Mon Mar 27 2023 23:23:10 GMT-0400 (Eastern Daylight Time)","191577","","null","","","","FIX","","<div class='trialBorder'><div class='vertical-center'><img style='vertical-align:center; align:center' src=img/fixation3.jpg></div></div>","null","","","","","",""
"html-keyboard-response","95","125971","0.0-5.0-2.30","60fc9ce95a59b3400b38e2a7","bdp_rd","Mon Mar 27 2023 23:23:10 GMT-0400 (Eastern Daylight Time)","191577","","1122","","","","offer","","<div class='trialBorder'><div class='vertical-center'><img style='vertical-align:center; align:center' src=img/fixation3.jpg></div><div class='cl'><div class='vertical-center'>$48<br>with a<br>50% chance</div></div><div class='cr'><div class='vertical-center'>$34<br>for<br>sure</div></div><div class='respDivL'><div class='vertical-center'>(E)</div></div><div class='respDivR'><div class='vertical-center'>(I)</div></div></div>","I","$34","$48","1","34","48","SURE"
"html-keyboard-response","96","126231","0.0-5.0-3.30","60fc9ce95a59b3400b38e2a7","bdp_rd","Mon Mar 27 2023 23:23:10 GMT-0400 (Eastern Daylight Time)","191577","","null","","","","offerFB","","<div class='trialBorder'><div class='vertical-center'><img style='vertical-align:center; align:center' src=img/fixation3.jpg></div><div class='cl'><div class='vertical-center'>$48<br>with a<br>50% chance</div></div><div class='cr'><div class='vertical-center'><font style='color:orange'>$34<br>for<br>sure</font></div></div><div class='respDivL'><div class='vertical-center'>(E)</div></div><div class='respDivR'><div class='vertical-center'><font style='color:orange'>(I)</font></div></div></div>","null","$34","$48","1","34","48",""
"html-keyboard-response","97","126748","0.0-5.0-1.31","60fc9ce95a59b3400b38e2a7","bdp_rd","Mon Mar 27 2023 23:23:10 GMT-0400 (Eastern Daylight Time)","191577","","null","","","","FIX","","<div class='trialBorder'><div class='vertical-center'><img style='vertical-align:center; align:center' src=img/fixation3.jpg></div></div>","null","","","","","",""
"html-keyboard-response","98","127628","0.0-5.0-2.31","60fc9ce95a59b3400b38e2a7","bdp_rd","Mon Mar 27 2023 23:23:10 GMT-0400 (Eastern Daylight Time)","191577","","878","","","","offer","","<div class='trialBorder'><div class='vertical-center'><img style='vertical-align:center; align:center' src=img/fixation3.jpg></div><div class='cl'><div class='vertical-center'>$53<br>for<br>sure</div></div><div class='cr'><div class='vertical-center'>$98<br>with a<br>50% chance</div></div><div class='respDivL'><div class='vertical-center'>(E)</div></div><div class='respDivR'><div class='vertical-center'>(I)</div></div></div>","E","$53","$98","0","53","98","SURE"
"html-keyboard-response","99","127880","0.0-5.0-3.31","60fc9ce95a59b3400b38e2a7","bdp_rd","Mon Mar 27 2023 23:23:10 GMT-0400 (Eastern Daylight Time)","191577","","null","","","","offerFB","","<div class='trialBorder'><div class='vertical-center'><img style='vertical-align:center; align:center' src=img/fixation3.jpg></div><div class='cl'><div class='vertical-center'><font style='color:orange'>$53<br>for<br>sure</font></div></div><div class='cr'><div class='vertical-center'>$98<br>with a<br>50% chance</div></div><div class='respDivL'><div class='vertical-center'><font style='color:orange'>(E)</font></div></div><div class='respDivR'><div class='vertical-center'>(I)</div></div></div>","null","$53","$98","0","53","98",""
"html-keyboard-response","100","128384","0.0-5.0-1.32","60fc9ce95a59b3400b38e2a7","bdp_rd","Mon Mar 27 2023 23:23:10 GMT-0400 (Eastern Daylight Time)","191577","","null","","","","FIX","","<div class='trialBorder'><div class='vertical-center'><img style='vertical-align:center; align:center' src=img/fixation3.jpg></div></div>","null","","","","","",""
"html-keyboard-response","101","130897","0.0-5.0-2.32","60fc9ce95a59b3400b38e2a7","bdp_rd","Mon Mar 27 2023 23:23:10 GMT-0400 (Eastern Daylight Time)","191577","","2510","","","","offer","","<div class='trialBorder'><div class='vertical-center'><img style='vertical-align:center; align:center' src=img/fixation3.jpg></div><div class='cl'><div class='vertical-center'>$13<br>for<br>sure</div></div><div class='cr'><div class='vertical-center'>$41<br>with a<br>50% chance</div></div><div class='respDivL'><div class='vertical-center'>(E)</div></div><div class='respDivR'><div class='vertical-center'>(I)</div></div></div>","E","$13","$41","0","13","41","SURE"
"html-keyboard-response","102","131156","0.0-5.0-3.32","60fc9ce95a59b3400b38e2a7","bdp_rd","Mon Mar 27 2023 23:23:10 GMT-0400 (Eastern Daylight Time)","191577","","null","","","","offerFB","","<div class='trialBorder'><div class='vertical-center'><img style='vertical-align:center; align:center' src=img/fixation3.jpg></div><div class='cl'><div class='vertical-center'><font style='color:orange'>$13<br>for<br>sure</font></div></div><div class='cr'><div class='vertical-center'>$41<br>with a<br>50% chance</div></div><div class='respDivL'><div class='vertical-center'><font style='color:orange'>(E)</font></div></div><div class='respDivR'><div class='vertical-center'>(I)</div></div></div>","null","$13","$41","0","13","41",""
"html-keyboard-response","103","131668","0.0-5.0-1.33","60fc9ce95a59b3400b38e2a7","bdp_rd","Mon Mar 27 2023 23:23:10 GMT-0400 (Eastern Daylight Time)","191577","","null","","","","FIX","","<div class='trialBorder'><div class='vertical-center'><img style='vertical-align:center; align:center' src=img/fixation3.jpg></div></div>","null","","","","","",""
"html-keyboard-response","104","133171","0.0-5.0-2.33","60fc9ce95a59b3400b38e2a7","bdp_rd","Mon Mar 27 2023 23:23:10 GMT-0400 (Eastern Daylight Time)","191577","","1500","","","","offer","","<div class='trialBorder'><div class='vertical-center'><img style='vertical-align:center; align:center' src=img/fixation3.jpg></div><div class='cl'><div class='vertical-center'>$43<br>with a<br>50% chance</div></div><div class='cr'><div class='vertical-center'>$17<br>for<br>sure</div></div><div class='respDivL'><div class='vertical-center'>(E)</div></div><div class='respDivR'><div class='vertical-center'>(I)</div></div></div>","I","$17","$43","1","17","43","SURE"
"html-keyboard-response","105","133428","0.0-5.0-3.33","60fc9ce95a59b3400b38e2a7","bdp_rd","Mon Mar 27 2023 23:23:10 GMT-0400 (Eastern Daylight Time)","191577","","null","","","","offerFB","","<div class='trialBorder'><div class='vertical-center'><img style='vertical-align:center; align:center' src=img/fixation3.jpg></div><div class='cl'><div class='vertical-center'>$43<br>with a<br>50% chance</div></div><div class='cr'><div class='vertical-center'><font style='color:orange'>$17<br>for<br>sure</font></div></div><div class='respDivL'><div class='vertical-center'>(E)</div></div><div class='respDivR'><div class='vertical-center'><font style='color:orange'>(I)</font></div></div></div>","null","$17","$43","1","17","43",""
"html-keyboard-response","106","133933","0.0-5.0-1.34","60fc9ce95a59b3400b38e2a7","bdp_rd","Mon Mar 27 2023 23:23:10 GMT-0400 (Eastern Daylight Time)","191577","","null","","","","FIX","","<div class='trialBorder'><div class='vertical-center'><img style='vertical-align:center; align:center' src=img/fixation3.jpg></div></div>","null","","","","","",""
"html-keyboard-response","107","135384","0.0-5.0-2.34","60fc9ce95a59b3400b38e2a7","bdp_rd","Mon Mar 27 2023 23:23:10 GMT-0400 (Eastern Daylight Time)","191577","","1447","","","","offer","","<div class='trialBorder'><div class='vertical-center'><img style='vertical-align:center; align:center' src=img/fixation3.jpg></div><div class='cl'><div class='vertical-center'>$14<br>for<br>sure</div></div><div class='cr'><div class='vertical-center'>$29<br>with a<br>50% chance</div></div><div class='respDivL'><div class='vertical-center'>(E)</div></div><div class='respDivR'><div class='vertical-center'>(I)</div></div></div>","E","$14","$29","0","14","29","SURE"
"html-keyboard-response","108","135643","0.0-5.0-3.34","60fc9ce95a59b3400b38e2a7","bdp_rd","Mon Mar 27 2023 23:23:10 GMT-0400 (Eastern Daylight Time)","191577","","null","","","","offerFB","","<div class='trialBorder'><div class='vertical-center'><img style='vertical-align:center; align:center' src=img/fixation3.jpg></div><div class='cl'><div class='vertical-center'><font style='color:orange'>$14<br>for<br>sure</font></div></div><div class='cr'><div class='vertical-center'>$29<br>with a<br>50% chance</div></div><div class='respDivL'><div class='vertical-center'><font style='color:orange'>(E)</font></div></div><div class='respDivR'><div class='vertical-center'>(I)</div></div></div>","null","$14","$29","0","14","29",""
"html-keyboard-response","109","136151","0.0-5.0-1.35","60fc9ce95a59b3400b38e2a7","bdp_rd","Mon Mar 27 2023 23:23:10 GMT-0400 (Eastern Daylight Time)","191577","","null","","","","FIX","","<div class='trialBorder'><div class='vertical-center'><img style='vertical-align:center; align:center' src=img/fixation3.jpg></div></div>","null","","","","","",""
"html-keyboard-response","110","137329","0.0-5.0-2.35","60fc9ce95a59b3400b38e2a7","bdp_rd","Mon Mar 27 2023 23:23:10 GMT-0400 (Eastern Daylight Time)","191577","","1175","","","","offer","","<div class='trialBorder'><div class='vertical-center'><img style='vertical-align:center; align:center' src=img/fixation3.jpg></div><div class='cl'><div class='vertical-center'>$30<br>with a<br>50% chance</div></div><div class='cr'><div class='vertical-center'>$1<br>for<br>sure</div></div><div class='respDivL'><div class='vertical-center'>(E)</div></div><div class='respDivR'><div class='vertical-center'>(I)</div></div></div>","E","$1","$30","1","1","30","RISKY"
"html-keyboard-response","111","137584","0.0-5.0-3.35","60fc9ce95a59b3400b38e2a7","bdp_rd","Mon Mar 27 2023 23:23:10 GMT-0400 (Eastern Daylight Time)","191577","","null","","","","offerFB","","<div class='trialBorder'><div class='vertical-center'><img style='vertical-align:center; align:center' src=img/fixation3.jpg></div><div class='cl'><div class='vertical-center'><font style='color:orange'>$30<br>with a<br>50% chance</font></div></div><div class='cr'><div class='vertical-center'>$1<br>for<br>sure</div></div><div class='respDivL'><div class='vertical-center'><font style='color:orange'>(E)</font></div></div><div class='respDivR'><div class='vertical-center'>(I)</div></div></div>","null","$1","$30","1","1","30",""
"html-keyboard-response","112","138092","0.0-5.0-1.36","60fc9ce95a59b3400b38e2a7","bdp_rd","Mon Mar 27 2023 23:23:10 GMT-0400 (Eastern Daylight Time)","191577","","null","","","","FIX","","<div class='trialBorder'><div class='vertical-center'><img style='vertical-align:center; align:center' src=img/fixation3.jpg></div></div>","null","","","","","",""
"html-keyboard-response","113","140074","0.0-5.0-2.36","60fc9ce95a59b3400b38e2a7","bdp_rd","Mon Mar 27 2023 23:23:10 GMT-0400 (Eastern Daylight Time)","191577","","1979","","","","offer","","<div class='trialBorder'><div class='vertical-center'><img style='vertical-align:center; align:center' src=img/fixation3.jpg></div><div class='cl'><div class='vertical-center'>$9<br>for<br>sure</div></div><div class='cr'><div class='vertical-center'>$18<br>with a<br>50% chance</div></div><div class='respDivL'><div class='vertical-center'>(E)</div></div><div class='respDivR'><div class='vertical-center'>(I)</div></div></div>","E","$9","$18","0","9","18","SURE"
"html-keyboard-response","114","140331","0.0-5.0-3.36","60fc9ce95a59b3400b38e2a7","bdp_rd","Mon Mar 27 2023 23:23:10 GMT-0400 (Eastern Daylight Time)","191577","","null","","","","offerFB","","<div class='trialBorder'><div class='vertical-center'><img style='vertical-align:center; align:center' src=img/fixation3.jpg></div><div class='cl'><div class='vertical-center'><font style='color:orange'>$9<br>for<br>sure</font></div></div><div class='cr'><div class='vertical-center'>$18<br>with a<br>50% chance</div></div><div class='respDivL'><div class='vertical-center'><font style='color:orange'>(E)</font></div></div><div class='respDivR'><div class='vertical-center'>(I)</div></div></div>","null","$9","$18","0","9","18",""
"html-keyboard-response","115","140836","0.0-5.0-1.37","60fc9ce95a59b3400b38e2a7","bdp_rd","Mon Mar 27 2023 23:23:10 GMT-0400 (Eastern Daylight Time)","191577","","null","","","","FIX","","<div class='trialBorder'><div class='vertical-center'><img style='vertical-align:center; align:center' src=img/fixation3.jpg></div></div>","null","","","","","",""
"html-keyboard-response","116","142687","0.0-5.0-2.37","60fc9ce95a59b3400b38e2a7","bdp_rd","Mon Mar 27 2023 23:23:10 GMT-0400 (Eastern Daylight Time)","191577","","1849","","","","offer","","<div class='trialBorder'><div class='vertical-center'><img style='vertical-align:center; align:center' src=img/fixation3.jpg></div><div class='cl'><div class='vertical-center'>$66<br>with a<br>50% chance</div></div><div class='cr'><div class='vertical-center'>$33<br>for<br>sure</div></div><div class='respDivL'><div class='vertical-center'>(E)</div></div><div class='respDivR'><div class='vertical-center'>(I)</div></div></div>","E","$33","$66","1","33","66","RISKY"
"html-keyboard-response","117","142942","0.0-5.0-3.37","60fc9ce95a59b3400b38e2a7","bdp_rd","Mon Mar 27 2023 23:23:10 GMT-0400 (Eastern Daylight Time)","191577","","null","","","","offerFB","","<div class='trialBorder'><div class='vertical-center'><img style='vertical-align:center; align:center' src=img/fixation3.jpg></div><div class='cl'><div class='vertical-center'><font style='color:orange'>$66<br>with a<br>50% chance</font></div></div><div class='cr'><div class='vertical-center'>$33<br>for<br>sure</div></div><div class='respDivL'><div class='vertical-center'><font style='color:orange'>(E)</font></div></div><div class='respDivR'><div class='vertical-center'>(I)</div></div></div>","null","$33","$66","1","33","66",""
"html-keyboard-response","118","143447","0.0-5.0-1.38","60fc9ce95a59b3400b38e2a7","bdp_rd","Mon Mar 27 2023 23:23:10 GMT-0400 (Eastern Daylight Time)","191577","","null","","","","FIX","","<div class='trialBorder'><div class='vertical-center'><img style='vertical-align:center; align:center' src=img/fixation3.jpg></div></div>","null","","","","","",""
"html-keyboard-response","119","144974","0.0-5.0-2.38","60fc9ce95a59b3400b38e2a7","bdp_rd","Mon Mar 27 2023 23:23:10 GMT-0400 (Eastern Daylight Time)","191577","","1524","","","","offer","","<div class='trialBorder'><div class='vertical-center'><img style='vertical-align:center; align:center' src=img/fixation3.jpg></div><div class='cl'><div class='vertical-center'>$12<br>with a<br>50% chance</div></div><div class='cr'><div class='vertical-center'>$3<br>for<br>sure</div></div><div class='respDivL'><div class='vertical-center'>(E)</div></div><div class='respDivR'><div class='vertical-center'>(I)</div></div></div>","E","$3","$12","1","3","12","RISKY"
"html-keyboard-response","120","145230","0.0-5.0-3.38","60fc9ce95a59b3400b38e2a7","bdp_rd","Mon Mar 27 2023 23:23:10 GMT-0400 (Eastern Daylight Time)","191577","","null","","","","offerFB","","<div class='trialBorder'><div class='vertical-center'><img style='vertical-align:center; align:center' src=img/fixation3.jpg></div><div class='cl'><div class='vertical-center'><font style='color:orange'>$12<br>with a<br>50% chance</font></div></div><div class='cr'><div class='vertical-center'>$3<br>for<br>sure</div></div><div class='respDivL'><div class='vertical-center'><font style='color:orange'>(E)</font></div></div><div class='respDivR'><div class='vertical-center'>(I)</div></div></div>","null","$3","$12","1","3","12",""
"html-keyboard-response","121","145745","0.0-5.0-1.39","60fc9ce95a59b3400b38e2a7","bdp_rd","Mon Mar 27 2023 23:23:10 GMT-0400 (Eastern Daylight Time)","191577","","null","","","","FIX","","<div class='trialBorder'><div class='vertical-center'><img style='vertical-align:center; align:center' src=img/fixation3.jpg></div></div>","null","","","","","",""
"html-keyboard-response","122","146765","0.0-5.0-2.39","60fc9ce95a59b3400b38e2a7","bdp_rd","Mon Mar 27 2023 23:23:10 GMT-0400 (Eastern Daylight Time)","191577","","1017","","","","offer","","<div class='trialBorder'><div class='vertical-center'><img style='vertical-align:center; align:center' src=img/fixation3.jpg></div><div class='cl'><div class='vertical-center'>$20<br>for<br>sure</div></div><div class='cr'><div class='vertical-center'>$80<br>with a<br>50% chance</div></div><div class='respDivL'><div class='vertical-center'>(E)</div></div><div class='respDivR'><div class='vertical-center'>(I)</div></div></div>","I","$20","$80","0","20","80","RISKY"
"html-keyboard-response","123","147027","0.0-5.0-3.39","60fc9ce95a59b3400b38e2a7","bdp_rd","Mon Mar 27 2023 23:23:10 GMT-0400 (Eastern Daylight Time)","191577","","null","","","","offerFB","","<div class='trialBorder'><div class='vertical-center'><img style='vertical-align:center; align:center' src=img/fixation3.jpg></div><div class='cl'><div class='vertical-center'>$20<br>for<br>sure</div></div><div class='cr'><div class='vertical-center'><font style='color:orange'>$80<br>with a<br>50% chance</font></div></div><div class='respDivL'><div class='vertical-center'>(E)</div></div><div class='respDivR'><div class='vertical-center'><font style='color:orange'>(I)</font></div></div></div>","null","$20","$80","0","20","80",""
"html-keyboard-response","124","147535","0.0-5.0-1.40","60fc9ce95a59b3400b38e2a7","bdp_rd","Mon Mar 27 2023 23:23:10 GMT-0400 (Eastern Daylight Time)","191577","","null","","","","FIX","","<div class='trialBorder'><div class='vertical-center'><img style='vertical-align:center; align:center' src=img/fixation3.jpg></div></div>","null","","","","","",""
"html-keyboard-response","125","148499","0.0-5.0-2.40","60fc9ce95a59b3400b38e2a7","bdp_rd","Mon Mar 27 2023 23:23:10 GMT-0400 (Eastern Daylight Time)","191577","","960","","","","offer","","<div class='trialBorder'><div class='vertical-center'><img style='vertical-align:center; align:center' src=img/fixation3.jpg></div><div class='cl'><div class='vertical-center'>$16<br>with a<br>50% chance</div></div><div class='cr'><div class='vertical-center'>$5<br>for<br>sure</div></div><div class='respDivL'><div class='vertical-center'>(E)</div></div><div class='respDivR'><div class='vertical-center'>(I)</div></div></div>","E","$5","$16","1","5","16","RISKY"
"html-keyboard-response","126","148760","0.0-5.0-3.40","60fc9ce95a59b3400b38e2a7","bdp_rd","Mon Mar 27 2023 23:23:10 GMT-0400 (Eastern Daylight Time)","191577","","null","","","","offerFB","","<div class='trialBorder'><div class='vertical-center'><img style='vertical-align:center; align:center' src=img/fixation3.jpg></div><div class='cl'><div class='vertical-center'><font style='color:orange'>$16<br>with a<br>50% chance</font></div></div><div class='cr'><div class='vertical-center'>$5<br>for<br>sure</div></div><div class='respDivL'><div class='vertical-center'><font style='color:orange'>(E)</font></div></div><div class='respDivR'><div class='vertical-center'>(I)</div></div></div>","null","$5","$16","1","5","16",""
"html-keyboard-response","127","149266","0.0-5.0-1.41","60fc9ce95a59b3400b38e2a7","bdp_rd","Mon Mar 27 2023 23:23:10 GMT-0400 (Eastern Daylight Time)","191577","","null","","","","FIX","","<div class='trialBorder'><div class='vertical-center'><img style='vertical-align:center; align:center' src=img/fixation3.jpg></div></div>","null","","","","","",""
"html-keyboard-response","128","150298","0.0-5.0-2.41","60fc9ce95a59b3400b38e2a7","bdp_rd","Mon Mar 27 2023 23:23:10 GMT-0400 (Eastern Daylight Time)","191577","","1028","","","","offer","","<div class='trialBorder'><div class='vertical-center'><img style='vertical-align:center; align:center' src=img/fixation3.jpg></div><div class='cl'><div class='vertical-center'>$8<br>for<br>sure</div></div><div class='cr'><div class='vertical-center'>$23<br>with a<br>50% chance</div></div><div class='respDivL'><div class='vertical-center'>(E)</div></div><div class='respDivR'><div class='vertical-center'>(I)</div></div></div>","I","$8","$23","0","8","23","RISKY"
"html-keyboard-response","129","150558","0.0-5.0-3.41","60fc9ce95a59b3400b38e2a7","bdp_rd","Mon Mar 27 2023 23:23:10 GMT-0400 (Eastern Daylight Time)","191577","","null","","","","offerFB","","<div class='trialBorder'><div class='vertical-center'><img style='vertical-align:center; align:center' src=img/fixation3.jpg></div><div class='cl'><div class='vertical-center'>$8<br>for<br>sure</div></div><div class='cr'><div class='vertical-center'><font style='color:orange'>$23<br>with a<br>50% chance</font></div></div><div class='respDivL'><div class='vertical-center'>(E)</div></div><div class='respDivR'><div class='vertical-center'><font style='color:orange'>(I)</font></div></div></div>","null","$8","$23","0","8","23",""
"html-keyboard-response","130","151068","0.0-5.0-1.42","60fc9ce95a59b3400b38e2a7","bdp_rd","Mon Mar 27 2023 23:23:10 GMT-0400 (Eastern Daylight Time)","191577","","null","","","","FIX","","<div class='trialBorder'><div class='vertical-center'><img style='vertical-align:center; align:center' src=img/fixation3.jpg></div></div>","null","","","","","",""
"html-keyboard-response","131","152466","0.0-5.0-2.42","60fc9ce95a59b3400b38e2a7","bdp_rd","Mon Mar 27 2023 23:23:10 GMT-0400 (Eastern Daylight Time)","191577","","1395","","","","offer","","<div class='trialBorder'><div class='vertical-center'><img style='vertical-align:center; align:center' src=img/fixation3.jpg></div><div class='cl'><div class='vertical-center'>$4<br>for<br>sure</div></div><div class='cr'><div class='vertical-center'>$11<br>with a<br>50% chance</div></div><div class='respDivL'><div class='vertical-center'>(E)</div></div><div class='respDivR'><div class='vertical-center'>(I)</div></div></div>","E","$4","$11","0","4","11","SURE"
"html-keyboard-response","132","152727","0.0-5.0-3.42","60fc9ce95a59b3400b38e2a7","bdp_rd","Mon Mar 27 2023 23:23:10 GMT-0400 (Eastern Daylight Time)","191577","","null","","","","offerFB","","<div class='trialBorder'><div class='vertical-center'><img style='vertical-align:center; align:center' src=img/fixation3.jpg></div><div class='cl'><div class='vertical-center'><font style='color:orange'>$4<br>for<br>sure</font></div></div><div class='cr'><div class='vertical-center'>$11<br>with a<br>50% chance</div></div><div class='respDivL'><div class='vertical-center'><font style='color:orange'>(E)</font></div></div><div class='respDivR'><div class='vertical-center'>(I)</div></div></div>","null","$4","$11","0","4","11",""
"html-keyboard-response","133","153232","0.0-5.0-1.43","60fc9ce95a59b3400b38e2a7","bdp_rd","Mon Mar 27 2023 23:23:10 GMT-0400 (Eastern Daylight Time)","191577","","null","","","","FIX","","<div class='trialBorder'><div class='vertical-center'><img style='vertical-align:center; align:center' src=img/fixation3.jpg></div></div>","null","","","","","",""
"html-keyboard-response","134","154648","0.0-5.0-2.43","60fc9ce95a59b3400b38e2a7","bdp_rd","Mon Mar 27 2023 23:23:10 GMT-0400 (Eastern Daylight Time)","191577","","1414","","","","offer","","<div class='trialBorder'><div class='vertical-center'><img style='vertical-align:center; align:center' src=img/fixation3.jpg></div><div class='cl'><div class='vertical-center'>$59<br>with a<br>50% chance</div></div><div class='cr'><div class='vertical-center'>$22<br>for<br>sure</div></div><div class='respDivL'><div class='vertical-center'>(E)</div></div><div class='respDivR'><div class='vertical-center'>(I)</div></div></div>","I","$22","$59","1","22","59","SURE"
"html-keyboard-response","135","154907","0.0-5.0-3.43","60fc9ce95a59b3400b38e2a7","bdp_rd","Mon Mar 27 2023 23:23:10 GMT-0400 (Eastern Daylight Time)","191577","","null","","","","offerFB","","<div class='trialBorder'><div class='vertical-center'><img style='vertical-align:center; align:center' src=img/fixation3.jpg></div><div class='cl'><div class='vertical-center'>$59<br>with a<br>50% chance</div></div><div class='cr'><div class='vertical-center'><font style='color:orange'>$22<br>for<br>sure</font></div></div><div class='respDivL'><div class='vertical-center'>(E)</div></div><div class='respDivR'><div class='vertical-center'><font style='color:orange'>(I)</font></div></div></div>","null","$22","$59","1","22","59",""
"html-keyboard-response","136","155417","0.0-5.0-1.44","60fc9ce95a59b3400b38e2a7","bdp_rd","Mon Mar 27 2023 23:23:10 GMT-0400 (Eastern Daylight Time)","191577","","null","","","","FIX","","<div class='trialBorder'><div class='vertical-center'><img style='vertical-align:center; align:center' src=img/fixation3.jpg></div></div>","null","","","","","",""
"html-keyboard-response","137","157109","0.0-5.0-2.44","60fc9ce95a59b3400b38e2a7","bdp_rd","Mon Mar 27 2023 23:23:10 GMT-0400 (Eastern Daylight Time)","191577","","1690","","","","offer","","<div class='trialBorder'><div class='vertical-center'><img style='vertical-align:center; align:center' src=img/fixation3.jpg></div><div class='cl'><div class='vertical-center'>$37<br>for<br>sure</div></div><div class='cr'><div class='vertical-center'>$44<br>with a<br>50% chance</div></div><div class='respDivL'><div class='vertical-center'>(E)</div></div><div class='respDivR'><div class='vertical-center'>(I)</div></div></div>","E","$37","$44","0","37","44","SURE"
"html-keyboard-response","138","157367","0.0-5.0-3.44","60fc9ce95a59b3400b38e2a7","bdp_rd","Mon Mar 27 2023 23:23:10 GMT-0400 (Eastern Daylight Time)","191577","","null","","","","offerFB","","<div class='trialBorder'><div class='vertical-center'><img style='vertical-align:center; align:center' src=img/fixation3.jpg></div><div class='cl'><div class='vertical-center'><font style='color:orange'>$37<br>for<br>sure</font></div></div><div class='cr'><div class='vertical-center'>$44<br>with a<br>50% chance</div></div><div class='respDivL'><div class='vertical-center'><font style='color:orange'>(E)</font></div></div><div class='respDivR'><div class='vertical-center'>(I)</div></div></div>","null","$37","$44","0","37","44",""
"html-keyboard-response","139","157871","0.0-5.0-1.45","60fc9ce95a59b3400b38e2a7","bdp_rd","Mon Mar 27 2023 23:23:10 GMT-0400 (Eastern Daylight Time)","191577","","null","","","","FIX","","<div class='trialBorder'><div class='vertical-center'><img style='vertical-align:center; align:center' src=img/fixation3.jpg></div></div>","null","","","","","",""
"html-keyboard-response","140","159544","0.0-5.0-2.45","60fc9ce95a59b3400b38e2a7","bdp_rd","Mon Mar 27 2023 23:23:10 GMT-0400 (Eastern Daylight Time)","191577","","1670","","","","offer","","<div class='trialBorder'><div class='vertical-center'><img style='vertical-align:center; align:center' src=img/fixation3.jpg></div><div class='cl'><div class='vertical-center'>$45<br>for<br>sure</div></div><div class='cr'><div class='vertical-center'>$86<br>with a<br>50% chance</div></div><div class='respDivL'><div class='vertical-center'>(E)</div></div><div class='respDivR'><div class='vertical-center'>(I)</div></div></div>","I","$45","$86","0","45","86","RISKY"
"html-keyboard-response","141","159797","0.0-5.0-3.45","60fc9ce95a59b3400b38e2a7","bdp_rd","Mon Mar 27 2023 23:23:10 GMT-0400 (Eastern Daylight Time)","191577","","null","","","","offerFB","","<div class='trialBorder'><div class='vertical-center'><img style='vertical-align:center; align:center' src=img/fixation3.jpg></div><div class='cl'><div class='vertical-center'>$45<br>for<br>sure</div></div><div class='cr'><div class='vertical-center'><font style='color:orange'>$86<br>with a<br>50% chance</font></div></div><div class='respDivL'><div class='vertical-center'>(E)</div></div><div class='respDivR'><div class='vertical-center'><font style='color:orange'>(I)</font></div></div></div>","null","$45","$86","0","45","86",""
"html-keyboard-response","142","160301","0.0-5.0-1.46","60fc9ce95a59b3400b38e2a7","bdp_rd","Mon Mar 27 2023 23:23:10 GMT-0400 (Eastern Daylight Time)","191577","","null","","","","FIX","","<div class='trialBorder'><div class='vertical-center'><img style='vertical-align:center; align:center' src=img/fixation3.jpg></div></div>","null","","","","","",""
"html-keyboard-response","143","161702","0.0-5.0-2.46","60fc9ce95a59b3400b38e2a7","bdp_rd","Mon Mar 27 2023 23:23:10 GMT-0400 (Eastern Daylight Time)","191577","","1397","","","","offer","","<div class='trialBorder'><div class='vertical-center'><img style='vertical-align:center; align:center' src=img/fixation3.jpg></div><div class='cl'><div class='vertical-center'>$42<br>with a<br>50% chance</div></div><div class='cr'><div class='vertical-center'>$22<br>for<br>sure</div></div><div class='respDivL'><div class='vertical-center'>(E)</div></div><div class='respDivR'><div class='vertical-center'>(I)</div></div></div>","E","$22","$42","1","22","42","RISKY"
"html-keyboard-response","144","161957","0.0-5.0-3.46","60fc9ce95a59b3400b38e2a7","bdp_rd","Mon Mar 27 2023 23:23:10 GMT-0400 (Eastern Daylight Time)","191577","","null","","","","offerFB","","<div class='trialBorder'><div class='vertical-center'><img style='vertical-align:center; align:center' src=img/fixation3.jpg></div><div class='cl'><div class='vertical-center'><font style='color:orange'>$42<br>with a<br>50% chance</font></div></div><div class='cr'><div class='vertical-center'>$22<br>for<br>sure</div></div><div class='respDivL'><div class='vertical-center'><font style='color:orange'>(E)</font></div></div><div class='respDivR'><div class='vertical-center'>(I)</div></div></div>","null","$22","$42","1","22","42",""
"html-keyboard-response","145","162464","0.0-5.0-1.47","60fc9ce95a59b3400b38e2a7","bdp_rd","Mon Mar 27 2023 23:23:10 GMT-0400 (Eastern Daylight Time)","191577","","null","","","","FIX","","<div class='trialBorder'><div class='vertical-center'><img style='vertical-align:center; align:center' src=img/fixation3.jpg></div></div>","null","","","","","",""
"html-keyboard-response","146","164209","0.0-5.0-2.47","60fc9ce95a59b3400b38e2a7","bdp_rd","Mon Mar 27 2023 23:23:10 GMT-0400 (Eastern Daylight Time)","191577","","1742","","","","offer","","<div class='trialBorder'><div class='vertical-center'><img style='vertical-align:center; align:center' src=img/fixation3.jpg></div><div class='cl'><div class='vertical-center'>$42<br>for<br>sure</div></div><div class='cr'><div class='vertical-center'>$73<br>with a<br>50% chance</div></div><div class='respDivL'><div class='vertical-center'>(E)</div></div><div class='respDivR'><div class='vertical-center'>(I)</div></div></div>","I","$42","$73","0","42","73","RISKY"
"html-keyboard-response","147","164463","0.0-5.0-3.47","60fc9ce95a59b3400b38e2a7","bdp_rd","Mon Mar 27 2023 23:23:10 GMT-0400 (Eastern Daylight Time)","191577","","null","","","","offerFB","","<div class='trialBorder'><div class='vertical-center'><img style='vertical-align:center; align:center' src=img/fixation3.jpg></div><div class='cl'><div class='vertical-center'>$42<br>for<br>sure</div></div><div class='cr'><div class='vertical-center'><font style='color:orange'>$73<br>with a<br>50% chance</font></div></div><div class='respDivL'><div class='vertical-center'>(E)</div></div><div class='respDivR'><div class='vertical-center'><font style='color:orange'>(I)</font></div></div></div>","null","$42","$73","0","42","73",""
"html-keyboard-response","148","164973","0.0-5.0-1.48","60fc9ce95a59b3400b38e2a7","bdp_rd","Mon Mar 27 2023 23:23:10 GMT-0400 (Eastern Daylight Time)","191577","","null","","","","FIX","","<div class='trialBorder'><div class='vertical-center'><img style='vertical-align:center; align:center' src=img/fixation3.jpg></div></div>","null","","","","","",""
"html-keyboard-response","149","166257","0.0-5.0-2.48","60fc9ce95a59b3400b38e2a7","bdp_rd","Mon Mar 27 2023 23:23:10 GMT-0400 (Eastern Daylight Time)","191577","","1280","","","","offer","","<div class='trialBorder'><div class='vertical-center'><img style='vertical-align:center; align:center' src=img/fixation3.jpg></div><div class='cl'><div class='vertical-center'>$21<br>with a<br>50% chance</div></div><div class='cr'><div class='vertical-center'>$2<br>for<br>sure</div></div><div class='respDivL'><div class='vertical-center'>(E)</div></div><div class='respDivR'><div class='vertical-center'>(I)</div></div></div>","E","$2","$21","1","2","21","RISKY"
"html-keyboard-response","150","166515","0.0-5.0-3.48","60fc9ce95a59b3400b38e2a7","bdp_rd","Mon Mar 27 2023 23:23:10 GMT-0400 (Eastern Daylight Time)","191577","","null","","","","offerFB","","<div class='trialBorder'><div class='vertical-center'><img style='vertical-align:center; align:center' src=img/fixation3.jpg></div><div class='cl'><div class='vertical-center'><font style='color:orange'>$21<br>with a<br>50% chance</font></div></div><div class='cr'><div class='vertical-center'>$2<br>for<br>sure</div></div><div class='respDivL'><div class='vertical-center'><font style='color:orange'>(E)</font></div></div><div class='respDivR'><div class='vertical-center'>(I)</div></div></div>","null","$2","$21","1","2","21",""
"html-keyboard-response","151","167024","0.0-5.0-1.49","60fc9ce95a59b3400b38e2a7","bdp_rd","Mon Mar 27 2023 23:23:10 GMT-0400 (Eastern Daylight Time)","191577","","null","","","","FIX","","<div class='trialBorder'><div class='vertical-center'><img style='vertical-align:center; align:center' src=img/fixation3.jpg></div></div>","null","","","","","",""
"html-keyboard-response","152","168075","0.0-5.0-2.49","60fc9ce95a59b3400b38e2a7","bdp_rd","Mon Mar 27 2023 23:23:10 GMT-0400 (Eastern Daylight Time)","191577","","1047","","","","offer","","<div class='trialBorder'><div class='vertical-center'><img style='vertical-align:center; align:center' src=img/fixation3.jpg></div><div class='cl'><div class='vertical-center'>$7<br>for<br>sure</div></div><div class='cr'><div class='vertical-center'>$10<br>with a<br>50% chance</div></div><div class='respDivL'><div class='vertical-center'>(E)</div></div><div class='respDivR'><div class='vertical-center'>(I)</div></div></div>","I","$7","$10","0","7","10","RISKY"
"html-keyboard-response","153","168334","0.0-5.0-3.49","60fc9ce95a59b3400b38e2a7","bdp_rd","Mon Mar 27 2023 23:23:10 GMT-0400 (Eastern Daylight Time)","191577","","null","","","","offerFB","","<div class='trialBorder'><div class='vertical-center'><img style='vertical-align:center; align:center' src=img/fixation3.jpg></div><div class='cl'><div class='vertical-center'>$7<br>for<br>sure</div></div><div class='cr'><div class='vertical-center'><font style='color:orange'>$10<br>with a<br>50% chance</font></div></div><div class='respDivL'><div class='vertical-center'>(E)</div></div><div class='respDivR'><div class='vertical-center'><font style='color:orange'>(I)</font></div></div></div>","null","$7","$10","0","7","10",""
"html-keyboard-response","154","168838","0.0-5.0-1.50","60fc9ce95a59b3400b38e2a7","bdp_rd","Mon Mar 27 2023 23:23:10 GMT-0400 (Eastern Daylight Time)","191577","","null","","","","FIX","","<div class='trialBorder'><div class='vertical-center'><img style='vertical-align:center; align:center' src=img/fixation3.jpg></div></div>","null","","","","","",""
"html-keyboard-response","155","170045","0.0-5.0-2.50","60fc9ce95a59b3400b38e2a7","bdp_rd","Mon Mar 27 2023 23:23:10 GMT-0400 (Eastern Daylight Time)","191577","","1204","","","","offer","","<div class='trialBorder'><div class='vertical-center'><img style='vertical-align:center; align:center' src=img/fixation3.jpg></div><div class='cl'><div class='vertical-center'>$28<br>for<br>sure</div></div><div class='cr'><div class='vertical-center'>$89<br>with a<br>50% chance</div></div><div class='respDivL'><div class='vertical-center'>(E)</div></div><div class='respDivR'><div class='vertical-center'>(I)</div></div></div>","I","$28","$89","0","28","89","RISKY"
"html-keyboard-response","156","170306","0.0-5.0-3.50","60fc9ce95a59b3400b38e2a7","bdp_rd","Mon Mar 27 2023 23:23:10 GMT-0400 (Eastern Daylight Time)","191577","","null","","","","offerFB","","<div class='trialBorder'><div class='vertical-center'><img style='vertical-align:center; align:center' src=img/fixation3.jpg></div><div class='cl'><div class='vertical-center'>$28<br>for<br>sure</div></div><div class='cr'><div class='vertical-center'><font style='color:orange'>$89<br>with a<br>50% chance</font></div></div><div class='respDivL'><div class='vertical-center'>(E)</div></div><div class='respDivR'><div class='vertical-center'><font style='color:orange'>(I)</font></div></div></div>","null","$28","$89","0","28","89",""
"html-keyboard-response","157","170812","0.0-5.0-1.51","60fc9ce95a59b3400b38e2a7","bdp_rd","Mon Mar 27 2023 23:23:10 GMT-0400 (Eastern Daylight Time)","191577","","null","","","","FIX","","<div class='trialBorder'><div class='vertical-center'><img style='vertical-align:center; align:center' src=img/fixation3.jpg></div></div>","null","","","","","",""
"html-keyboard-response","158","172205","0.0-5.0-2.51","60fc9ce95a59b3400b38e2a7","bdp_rd","Mon Mar 27 2023 23:23:10 GMT-0400 (Eastern Daylight Time)","191577","","1391","","","","offer","","<div class='trialBorder'><div class='vertical-center'><img style='vertical-align:center; align:center' src=img/fixation3.jpg></div><div class='cl'><div class='vertical-center'>$29<br>for<br>sure</div></div><div class='cr'><div class='vertical-center'>$46<br>with a<br>50% chance</div></div><div class='respDivL'><div class='vertical-center'>(E)</div></div><div class='respDivR'><div class='vertical-center'>(I)</div></div></div>","E","$29","$46","0","29","46","SURE"
"html-keyboard-response","159","172461","0.0-5.0-3.51","60fc9ce95a59b3400b38e2a7","bdp_rd","Mon Mar 27 2023 23:23:10 GMT-0400 (Eastern Daylight Time)","191577","","null","","","","offerFB","","<div class='trialBorder'><div class='vertical-center'><img style='vertical-align:center; align:center' src=img/fixation3.jpg></div><div class='cl'><div class='vertical-center'><font style='color:orange'>$29<br>for<br>sure</font></div></div><div class='cr'><div class='vertical-center'>$46<br>with a<br>50% chance</div></div><div class='respDivL'><div class='vertical-center'><font style='color:orange'>(E)</font></div></div><div class='respDivR'><div class='vertical-center'>(I)</div></div></div>","null","$29","$46","0","29","46",""
"html-keyboard-response","160","172967","0.0-5.0-1.52","60fc9ce95a59b3400b38e2a7","bdp_rd","Mon Mar 27 2023 23:23:10 GMT-0400 (Eastern Daylight Time)","191577","","null","","","","FIX","","<div class='trialBorder'><div class='vertical-center'><img style='vertical-align:center; align:center' src=img/fixation3.jpg></div></div>","null","","","","","",""
"html-keyboard-response","161","174376","0.0-5.0-2.52","60fc9ce95a59b3400b38e2a7","bdp_rd","Mon Mar 27 2023 23:23:10 GMT-0400 (Eastern Daylight Time)","191577","","1407","","","","offer","","<div class='trialBorder'><div class='vertical-center'><img style='vertical-align:center; align:center' src=img/fixation3.jpg></div><div class='cl'><div class='vertical-center'>$18<br>for<br>sure</div></div><div class='cr'><div class='vertical-center'>$39<br>with a<br>50% chance</div></div><div class='respDivL'><div class='vertical-center'>(E)</div></div><div class='respDivR'><div class='vertical-center'>(I)</div></div></div>","E","$18","$39","0","18","39","SURE"
"html-keyboard-response","162","174628","0.0-5.0-3.52","60fc9ce95a59b3400b38e2a7","bdp_rd","Mon Mar 27 2023 23:23:10 GMT-0400 (Eastern Daylight Time)","191577","","null","","","","offerFB","","<div class='trialBorder'><div class='vertical-center'><img style='vertical-align:center; align:center' src=img/fixation3.jpg></div><div class='cl'><div class='vertical-center'><font style='color:orange'>$18<br>for<br>sure</font></div></div><div class='cr'><div class='vertical-center'>$39<br>with a<br>50% chance</div></div><div class='respDivL'><div class='vertical-center'><font style='color:orange'>(E)</font></div></div><div class='respDivR'><div class='vertical-center'>(I)</div></div></div>","null","$18","$39","0","18","39",""
"html-keyboard-response","163","175138","0.0-5.0-1.53","60fc9ce95a59b3400b38e2a7","bdp_rd","Mon Mar 27 2023 23:23:10 GMT-0400 (Eastern Daylight Time)","191577","","null","","","","FIX","","<div class='trialBorder'><div class='vertical-center'><img style='vertical-align:center; align:center' src=img/fixation3.jpg></div></div>","null","","","","","",""
"html-keyboard-response","164","176286","0.0-5.0-2.53","60fc9ce95a59b3400b38e2a7","bdp_rd","Mon Mar 27 2023 23:23:10 GMT-0400 (Eastern Daylight Time)","191577","","1145","","","","offer","","<div class='trialBorder'><div class='vertical-center'><img style='vertical-align:center; align:center' src=img/fixation3.jpg></div><div class='cl'><div class='vertical-center'>$14<br>for<br>sure</div></div><div class='cr'><div class='vertical-center'>$22<br>with a<br>50% chance</div></div><div class='respDivL'><div class='vertical-center'>(E)</div></div><div class='respDivR'><div class='vertical-center'>(I)</div></div></div>","I","$14","$22","0","14","22","RISKY"
"html-keyboard-response","165","176544","0.0-5.0-3.53","60fc9ce95a59b3400b38e2a7","bdp_rd","Mon Mar 27 2023 23:23:10 GMT-0400 (Eastern Daylight Time)","191577","","null","","","","offerFB","","<div class='trialBorder'><div class='vertical-center'><img style='vertical-align:center; align:center' src=img/fixation3.jpg></div><div class='cl'><div class='vertical-center'>$14<br>for<br>sure</div></div><div class='cr'><div class='vertical-center'><font style='color:orange'>$22<br>with a<br>50% chance</font></div></div><div class='respDivL'><div class='vertical-center'>(E)</div></div><div class='respDivR'><div class='vertical-center'><font style='color:orange'>(I)</font></div></div></div>","null","$14","$22","0","14","22",""
"html-keyboard-response","166","177047","0.0-5.0-1.54","60fc9ce95a59b3400b38e2a7","bdp_rd","Mon Mar 27 2023 23:23:10 GMT-0400 (Eastern Daylight Time)","191577","","null","","","","FIX","","<div class='trialBorder'><div class='vertical-center'><img style='vertical-align:center; align:center' src=img/fixation3.jpg></div></div>","null","","","","","",""
"html-keyboard-response","167","178561","0.0-5.0-2.54","60fc9ce95a59b3400b38e2a7","bdp_rd","Mon Mar 27 2023 23:23:10 GMT-0400 (Eastern Daylight Time)","191577","","1510","","","","offer","","<div class='trialBorder'><div class='vertical-center'><img style='vertical-align:center; align:center' src=img/fixation3.jpg></div><div class='cl'><div class='vertical-center'>$78<br>with a<br>50% chance</div></div><div class='cr'><div class='vertical-center'>$31<br>for<br>sure</div></div><div class='respDivL'><div class='vertical-center'>(E)</div></div><div class='respDivR'><div class='vertical-center'>(I)</div></div></div>","I","$31","$78","1","31","78","SURE"
"html-keyboard-response","168","178818","0.0-5.0-3.54","60fc9ce95a59b3400b38e2a7","bdp_rd","Mon Mar 27 2023 23:23:10 GMT-0400 (Eastern Daylight Time)","191577","","null","","","","offerFB","","<div class='trialBorder'><div class='vertical-center'><img style='vertical-align:center; align:center' src=img/fixation3.jpg></div><div class='cl'><div class='vertical-center'>$78<br>with a<br>50% chance</div></div><div class='cr'><div class='vertical-center'><font style='color:orange'>$31<br>for<br>sure</font></div></div><div class='respDivL'><div class='vertical-center'>(E)</div></div><div class='respDivR'><div class='vertical-center'><font style='color:orange'>(I)</font></div></div></div>","null","$31","$78","1","31","78",""
"html-keyboard-response","169","179323","0.0-5.0-1.55","60fc9ce95a59b3400b38e2a7","bdp_rd","Mon Mar 27 2023 23:23:10 GMT-0400 (Eastern Daylight Time)","191577","","null","","","","FIX","","<div class='trialBorder'><div class='vertical-center'><img style='vertical-align:center; align:center' src=img/fixation3.jpg></div></div>","null","","","","","",""
"html-keyboard-response","170","181446","0.0-5.0-2.55","60fc9ce95a59b3400b38e2a7","bdp_rd","Mon Mar 27 2023 23:23:10 GMT-0400 (Eastern Daylight Time)","191577","","2122","","","","offer","","<div class='trialBorder'><div class='vertical-center'><img style='vertical-align:center; align:center' src=img/fixation3.jpg></div><div class='cl'><div class='vertical-center'>$9<br>for<br>sure</div></div><div class='cr'><div class='vertical-center'>$32<br>with a<br>50% chance</div></div><div class='respDivL'><div class='vertical-center'>(E)</div></div><div class='respDivR'><div class='vertical-center'>(I)</div></div></div>","I","$9","$32","0","9","32","RISKY"
"html-keyboard-response","171","181702","0.0-5.0-3.55","60fc9ce95a59b3400b38e2a7","bdp_rd","Mon Mar 27 2023 23:23:10 GMT-0400 (Eastern Daylight Time)","191577","","null","","","","offerFB","","<div class='trialBorder'><div class='vertical-center'><img style='vertical-align:center; align:center' src=img/fixation3.jpg></div><div class='cl'><div class='vertical-center'>$9<br>for<br>sure</div></div><div class='cr'><div class='vertical-center'><font style='color:orange'>$32<br>with a<br>50% chance</font></div></div><div class='respDivL'><div class='vertical-center'>(E)</div></div><div class='respDivR'><div class='vertical-center'><font style='color:orange'>(I)</font></div></div></div>","null","$9","$32","0","9","32",""
"html-keyboard-response","172","182210","0.0-5.0-1.56","60fc9ce95a59b3400b38e2a7","bdp_rd","Mon Mar 27 2023 23:23:10 GMT-0400 (Eastern Daylight Time)","191577","","null","","","","FIX","","<div class='trialBorder'><div class='vertical-center'><img style='vertical-align:center; align:center' src=img/fixation3.jpg></div></div>","null","","","","","",""
"html-keyboard-response","173","184049","0.0-5.0-2.56","60fc9ce95a59b3400b38e2a7","bdp_rd","Mon Mar 27 2023 23:23:10 GMT-0400 (Eastern Daylight Time)","191577","","1838","","","","offer","","<div class='trialBorder'><div class='vertical-center'><img style='vertical-align:center; align:center' src=img/fixation3.jpg></div><div class='cl'><div class='vertical-center'>$28<br>with a<br>50% chance</div></div><div class='cr'><div class='vertical-center'>$16<br>for<br>sure</div></div><div class='respDivL'><div class='vertical-center'>(E)</div></div><div class='respDivR'><div class='vertical-center'>(I)</div></div></div>","I","$16","$28","1","16","28","SURE"
