"trial_type","trial_index","time_elapsed","internal_node_id","subject_id","task","startTime","totalTime","view_history","rt","event","trial","time","trialtype","success","stimulus","key_press","sureOffer","riskyOffer","riskyLeft","sureAmt","riskyAmt","chosen"
"pavlovia","0","2","0.0-0.0","6362c4beb39ee39d15890c5c","bdp_rd","Mon Mar 27 2023 23:14:34 GMT-0400 (GMT-04:00)","245994","","","","","","","","","","","","","","",""
"instructions","1","4094","0.0-1.0","6362c4beb39ee39d15890c5c","bdp_rd","Mon Mar 27 2023 23:14:34 GMT-0400 (GMT-04:00)","245994","[{""page_index"":0,""viewing_time"":4092}]","4092","","","","","","","","","","","","",""
"","","","","6362c4beb39ee39d15890c5c","bdp_rd","Mon Mar 27 2023 23:14:34 GMT-0400 (GMT-04:00)","245994","","","fullscreenenter","2","8572","fullscreenenter","","","","","","","","",""
"fullscreen","2","9554","0.0-2.0","6362c4beb39ee39d15890c5c","bdp_rd","Mon Mar 27 2023 23:14:34 GMT-0400 (GMT-04:00)","245994","","","","","","","true","","","","","","","",""
"instructions","3","48093","0.0-4.0","6362c4beb39ee39d15890c5c","bdp_rd","Mon Mar 27 2023 23:14:34 GMT-0400 (GMT-04:00)","245994","[{""page_index"":0,""viewing_time"":24057},{""page_index"":1,""viewing_time"":6953},{""page_index"":2,""viewing_time"":7527}]","38538","","","","","","","","","","","","",""
"html-keyboard-response","4","48594","0.0-5.0-1.0","6362c4beb39ee39d15890c5c","bdp_rd","Mon Mar 27 2023 23:14:34 GMT-0400 (GMT-04:00)","245994","","null","","","","FIX","","<div class='trialBorder'><div class='vertical-center'><img style='vertical-align:center; align:center' src=img/fixation3.jpg></div></div>","null","","","","","",""
"html-keyboard-response","5","53381","0.0-5.0-2.0","6362c4beb39ee39d15890c5c","bdp_rd","Mon Mar 27 2023 23:14:34 GMT-0400 (GMT-04:00)","245994","","4786","","","","offer","","<div class='trialBorder'><div class='vertical-center'><img style='vertical-align:center; align:center' src=img/fixation3.jpg></div><div class='cl'><div class='vertical-center'>$40<br>with a<br>50% chance</div></div><div class='cr'><div class='vertical-center'>$10<br>for<br>sure</div></div><div class='respDivL'><div class='vertical-center'>(E)</div></div><div class='respDivR'><div class='vertical-center'>(I)</div></div></div>","E","$10","$40","1","10","40","RISKY"
"html-keyboard-response","6","53633","0.0-5.0-3.0","6362c4beb39ee39d15890c5c","bdp_rd","Mon Mar 27 2023 23:14:34 GMT-0400 (GMT-04:00)","245994","","null","","","","offerFB","","<div class='trialBorder'><div class='vertical-center'><img style='vertical-align:center; align:center' src=img/fixation3.jpg></div><div class='cl'><div class='vertical-center'><font style='color:orange'>$40<br>with a<br>50% chance</font></div></div><div class='cr'><div class='vertical-center'>$10<br>for<br>sure</div></div><div class='respDivL'><div class='vertical-center'><font style='color:orange'>(E)</font></div></div><div class='respDivR'><div class='vertical-center'>(I)</div></div></div>","null","$10","$40","1","10","40",""
"html-keyboard-response","7","54134","0.0-5.0-1.1","6362c4beb39ee39d15890c5c","bdp_rd","Mon Mar 27 2023 23:14:34 GMT-0400 (GMT-04:00)","245994","","null","","","","FIX","","<div class='trialBorder'><div class='vertical-center'><img style='vertical-align:center; align:center' src=img/fixation3.jpg></div></div>","null","","","","","",""
"html-keyboard-response","8","58516","0.0-5.0-2.1","6362c4beb39ee39d15890c5c","bdp_rd","Mon Mar 27 2023 23:14:34 GMT-0400 (GMT-04:00)","245994","","4381","","","","offer","","<div class='trialBorder'><div class='vertical-center'><img style='vertical-align:center; align:center' src=img/fixation3.jpg></div><div class='cl'><div class='vertical-center'>$36<br>with a<br>50% chance</div></div><div class='cr'><div class='vertical-center'>$18<br>for<br>sure</div></div><div class='respDivL'><div class='vertical-center'>(E)</div></div><div class='respDivR'><div class='vertical-center'>(I)</div></div></div>","E","$18","$36","1","18","36","RISKY"
"html-keyboard-response","9","58767","0.0-5.0-3.1","6362c4beb39ee39d15890c5c","bdp_rd","Mon Mar 27 2023 23:14:34 GMT-0400 (GMT-04:00)","245994","","null","","","","offerFB","","<div class='trialBorder'><div class='vertical-center'><img style='vertical-align:center; align:center' src=img/fixation3.jpg></div><div class='cl'><div class='vertical-center'><font style='color:orange'>$36<br>with a<br>50% chance</font></div></div><div class='cr'><div class='vertical-center'>$18<br>for<br>sure</div></div><div class='respDivL'><div class='vertical-center'><font style='color:orange'>(E)</font></div></div><div class='respDivR'><div class='vertical-center'>(I)</div></div></div>","null","$18","$36","1","18","36",""
"html-keyboard-response","10","59269","0.0-5.0-1.2","6362c4beb39ee39d15890c5c","bdp_rd","Mon Mar 27 2023 23:14:34 GMT-0400 (GMT-04:00)","245994","","null","","","","FIX","","<div class='trialBorder'><div class='vertical-center'><img style='vertical-align:center; align:center' src=img/fixation3.jpg></div></div>","null","","","","","",""
"html-keyboard-response","11","60780","0.0-5.0-2.2","6362c4beb39ee39d15890c5c","bdp_rd","Mon Mar 27 2023 23:14:34 GMT-0400 (GMT-04:00)","245994","","1511","","","","offer","","<div class='trialBorder'><div class='vertical-center'><img style='vertical-align:center; align:center' src=img/fixation3.jpg></div><div class='cl'><div class='vertical-center'>$73<br>with a<br>50% chance</div></div><div class='cr'><div class='vertical-center'>$42<br>for<br>sure</div></div><div class='respDivL'><div class='vertical-center'>(E)</div></div><div class='respDivR'><div class='vertical-center'>(I)</div></div></div>","I","$42","$73","1","42","73","SURE"
"html-keyboard-response","12","61031","0.0-5.0-3.2","6362c4beb39ee39d15890c5c","bdp_rd","Mon Mar 27 2023 23:14:34 GMT-0400 (GMT-04:00)","245994","","null","","","","offerFB","","<div class='trialBorder'><div class='vertical-center'><img style='vertical-align:center; align:center' src=img/fixation3.jpg></div><div class='cl'><div class='vertical-center'>$73<br>with a<br>50% chance</div></div><div class='cr'><div class='vertical-center'><font style='color:orange'>$42<br>for<br>sure</font></div></div><div class='respDivL'><div class='vertical-center'>(E)</div></div><div class='respDivR'><div class='vertical-center'><font style='color:orange'>(I)</font></div></div></div>","null","$42","$73","1","42","73",""
"html-keyboard-response","13","61534","0.0-5.0-1.3","6362c4beb39ee39d15890c5c","bdp_rd","Mon Mar 27 2023 23:14:34 GMT-0400 (GMT-04:00)","245994","","null","","","","FIX","","<div class='trialBorder'><div class='vertical-center'><img style='vertical-align:center; align:center' src=img/fixation3.jpg></div></div>","null","","","","","",""
"html-keyboard-response","14","65972","0.0-5.0-2.3","6362c4beb39ee39d15890c5c","bdp_rd","Mon Mar 27 2023 23:14:34 GMT-0400 (GMT-04:00)","245994","","4438","","","","offer","","<div class='trialBorder'><div class='vertical-center'><img style='vertical-align:center; align:center' src=img/fixation3.jpg></div><div class='cl'><div class='vertical-center'>$6<br>for<br>sure</div></div><div class='cr'><div class='vertical-center'>$15<br>with a<br>50% chance</div></div><div class='respDivL'><div class='vertical-center'>(E)</div></div><div class='respDivR'><div class='vertical-center'>(I)</div></div></div>","I","$6","$15","0","6","15","RISKY"
"html-keyboard-response","15","66224","0.0-5.0-3.3","6362c4beb39ee39d15890c5c","bdp_rd","Mon Mar 27 2023 23:14:34 GMT-0400 (GMT-04:00)","245994","","null","","","","offerFB","","<div class='trialBorder'><div class='vertical-center'><img style='vertical-align:center; align:center' src=img/fixation3.jpg></div><div class='cl'><div class='vertical-center'>$6<br>for<br>sure</div></div><div class='cr'><div class='vertical-center'><font style='color:orange'>$15<br>with a<br>50% chance</font></div></div><div class='respDivL'><div class='vertical-center'>(E)</div></div><div class='respDivR'><div class='vertical-center'><font style='color:orange'>(I)</font></div></div></div>","null","$6","$15","0","6","15",""
"html-keyboard-response","16","66726","0.0-5.0-1.4","6362c4beb39ee39d15890c5c","bdp_rd","Mon Mar 27 2023 23:14:34 GMT-0400 (GMT-04:00)","245994","","null","","","","FIX","","<div class='trialBorder'><div class='vertical-center'><img style='vertical-align:center; align:center' src=img/fixation3.jpg></div></div>","null","","","","","",""
"html-keyboard-response","17","69006","0.0-5.0-2.4","6362c4beb39ee39d15890c5c","bdp_rd","Mon Mar 27 2023 23:14:34 GMT-0400 (GMT-04:00)","245994","","2280","","","","offer","","<div class='trialBorder'><div class='vertical-center'><img style='vertical-align:center; align:center' src=img/fixation3.jpg></div><div class='cl'><div class='vertical-center'>$100<br>with a<br>50% chance</div></div><div class='cr'><div class='vertical-center'>$63<br>for<br>sure</div></div><div class='respDivL'><div class='vertical-center'>(E)</div></div><div class='respDivR'><div class='vertical-center'>(I)</div></div></div>","I","$63","$100","1","63","10","SURE"
"html-keyboard-response","18","69257","0.0-5.0-3.4","6362c4beb39ee39d15890c5c","bdp_rd","Mon Mar 27 2023 23:14:34 GMT-0400 (GMT-04:00)","245994","","null","","","","offerFB","","<div class='trialBorder'><div class='vertical-center'><img style='vertical-align:center; align:center' src=img/fixation3.jpg></div><div class='cl'><div class='vertical-center'>$100<br>with a<br>50% chance</div></div><div class='cr'><div class='vertical-center'><font style='color:orange'>$63<br>for<br>sure</font></div></div><div class='respDivL'><div class='vertical-center'>(E)</div></div><div class='respDivR'><div class='vertical-center'><font style='color:orange'>(I)</font></div></div></div>","null","$63","$100","1","63","10",""
"html-keyboard-response","19","69760","0.0-5.0-1.5","6362c4beb39ee39d15890c5c","bdp_rd","Mon Mar 27 2023 23:14:34 GMT-0400 (GMT-04:00)","245994","","null","","","","FIX","","<div class='trialBorder'><div class='vertical-center'><img style='vertical-align:center; align:center' src=img/fixation3.jpg></div></div>","null","","","","","",""
"html-keyboard-response","20","71861","0.0-5.0-2.5","6362c4beb39ee39d15890c5c","bdp_rd","Mon Mar 27 2023 23:14:34 GMT-0400 (GMT-04:00)","245994","","2101","","","","offer","","<div class='trialBorder'><div class='vertical-center'><img style='vertical-align:center; align:center' src=img/fixation3.jpg></div><div class='cl'><div class='vertical-center'>$71<br>with a<br>50% chance</div></div><div class='cr'><div class='vertical-center'>$7<br>for<br>sure</div></div><div class='respDivL'><div class='vertical-center'>(E)</div></div><div class='respDivR'><div class='vertical-center'>(I)</div></div></div>","E","$7","$71","1","7","71","RISKY"
"html-keyboard-response","21","72114","0.0-5.0-3.5","6362c4beb39ee39d15890c5c","bdp_rd","Mon Mar 27 2023 23:14:34 GMT-0400 (GMT-04:00)","245994","","null","","","","offerFB","","<div class='trialBorder'><div class='vertical-center'><img style='vertical-align:center; align:center' src=img/fixation3.jpg></div><div class='cl'><div class='vertical-center'><font style='color:orange'>$71<br>with a<br>50% chance</font></div></div><div class='cr'><div class='vertical-center'>$7<br>for<br>sure</div></div><div class='respDivL'><div class='vertical-center'><font style='color:orange'>(E)</font></div></div><div class='respDivR'><div class='vertical-center'>(I)</div></div></div>","null","$7","$71","1","7","71",""
"html-keyboard-response","22","72616","0.0-5.0-1.6","6362c4beb39ee39d15890c5c","bdp_rd","Mon Mar 27 2023 23:14:34 GMT-0400 (GMT-04:00)","245994","","null","","","","FIX","","<div class='trialBorder'><div class='vertical-center'><img style='vertical-align:center; align:center' src=img/fixation3.jpg></div></div>","null","","","","","",""
"html-keyboard-response","23","75172","0.0-5.0-2.6","6362c4beb39ee39d15890c5c","bdp_rd","Mon Mar 27 2023 23:14:34 GMT-0400 (GMT-04:00)","245994","","2555","","","","offer","","<div class='trialBorder'><div class='vertical-center'><img style='vertical-align:center; align:center' src=img/fixation3.jpg></div><div class='cl'><div class='vertical-center'>$86<br>with a<br>50% chance</div></div><div class='cr'><div class='vertical-center'>$45<br>for<br>sure</div></div><div class='respDivL'><div class='vertical-center'>(E)</div></div><div class='respDivR'><div class='vertical-center'>(I)</div></div></div>","I","$45","$86","1","45","86","SURE"
"html-keyboard-response","24","75424","0.0-5.0-3.6","6362c4beb39ee39d15890c5c","bdp_rd","Mon Mar 27 2023 23:14:34 GMT-0400 (GMT-04:00)","245994","","null","","","","offerFB","","<div class='trialBorder'><div class='vertical-center'><img style='vertical-align:center; align:center' src=img/fixation3.jpg></div><div class='cl'><div class='vertical-center'>$86<br>with a<br>50% chance</div></div><div class='cr'><div class='vertical-center'><font style='color:orange'>$45<br>for<br>sure</font></div></div><div class='respDivL'><div class='vertical-center'>(E)</div></div><div class='respDivR'><div class='vertical-center'><font style='color:orange'>(I)</font></div></div></div>","null","$45","$86","1","45","86",""
"html-keyboard-response","25","75925","0.0-5.0-1.7","6362c4beb39ee39d15890c5c","bdp_rd","Mon Mar 27 2023 23:14:34 GMT-0400 (GMT-04:00)","245994","","null","","","","FIX","","<div class='trialBorder'><div class='vertical-center'><img style='vertical-align:center; align:center' src=img/fixation3.jpg></div></div>","null","","","","","",""
"html-keyboard-response","26","82388","0.0-5.0-2.7","6362c4beb39ee39d15890c5c","bdp_rd","Mon Mar 27 2023 23:14:34 GMT-0400 (GMT-04:00)","245994","","6463","","","","offer","","<div class='trialBorder'><div class='vertical-center'><img style='vertical-align:center; align:center' src=img/fixation3.jpg></div><div class='cl'><div class='vertical-center'>$46<br>with a<br>50% chance</div></div><div class='cr'><div class='vertical-center'>$29<br>for<br>sure</div></div><div class='respDivL'><div class='vertical-center'>(E)</div></div><div class='respDivR'><div class='vertical-center'>(I)</div></div></div>","I","$29","$46","1","29","46","SURE"
"html-keyboard-response","27","82640","0.0-5.0-3.7","6362c4beb39ee39d15890c5c","bdp_rd","Mon Mar 27 2023 23:14:34 GMT-0400 (GMT-04:00)","245994","","null","","","","offerFB","","<div class='trialBorder'><div class='vertical-center'><img style='vertical-align:center; align:center' src=img/fixation3.jpg></div><div class='cl'><div class='vertical-center'>$46<br>with a<br>50% chance</div></div><div class='cr'><div class='vertical-center'><font style='color:orange'>$29<br>for<br>sure</font></div></div><div class='respDivL'><div class='vertical-center'>(E)</div></div><div class='respDivR'><div class='vertical-center'><font style='color:orange'>(I)</font></div></div></div>","null","$29","$46","1","29","46",""
"html-keyboard-response","28","83142","0.0-5.0-1.8","6362c4beb39ee39d15890c5c","bdp_rd","Mon Mar 27 2023 23:14:34 GMT-0400 (GMT-04:00)","245994","","null","","","","FIX","","<div class='trialBorder'><div class='vertical-center'><img style='vertical-align:center; align:center' src=img/fixation3.jpg></div></div>","null","","","","","",""
"html-keyboard-response","29","89804","0.0-5.0-2.8","6362c4beb39ee39d15890c5c","bdp_rd","Mon Mar 27 2023 23:14:34 GMT-0400 (GMT-04:00)","245994","","6662","","","","offer","","<div class='trialBorder'><div class='vertical-center'><img style='vertical-align:center; align:center' src=img/fixation3.jpg></div><div class='cl'><div class='vertical-center'>$12<br>for<br>sure</div></div><div class='cr'><div class='vertical-center'>$27<br>with a<br>50% chance</div></div><div class='respDivL'><div class='vertical-center'>(E)</div></div><div class='respDivR'><div class='vertical-center'>(I)</div></div></div>","E","$12","$27","0","12","27","SURE"
"html-keyboard-response","30","90057","0.0-5.0-3.8","6362c4beb39ee39d15890c5c","bdp_rd","Mon Mar 27 2023 23:14:34 GMT-0400 (GMT-04:00)","245994","","null","","","","offerFB","","<div class='trialBorder'><div class='vertical-center'><img style='vertical-align:center; align:center' src=img/fixation3.jpg></div><div class='cl'><div class='vertical-center'><font style='color:orange'>$12<br>for<br>sure</font></div></div><div class='cr'><div class='vertical-center'>$27<br>with a<br>50% chance</div></div><div class='respDivL'><div class='vertical-center'><font style='color:orange'>(E)</font></div></div><div class='respDivR'><div class='vertical-center'>(I)</div></div></div>","null","$12","$27","0","12","27",""
"html-keyboard-response","31","90559","0.0-5.0-1.9","6362c4beb39ee39d15890c5c","bdp_rd","Mon Mar 27 2023 23:14:34 GMT-0400 (GMT-04:00)","245994","","null","","","","FIX","","<div class='trialBorder'><div class='vertical-center'><img style='vertical-align:center; align:center' src=img/fixation3.jpg></div></div>","null","","","","","",""
"html-keyboard-response","32","96717","0.0-5.0-2.9","6362c4beb39ee39d15890c5c","bdp_rd","Mon Mar 27 2023 23:14:34 GMT-0400 (GMT-04:00)","245994","","6157","","","","offer","","<div class='trialBorder'><div class='vertical-center'><img style='vertical-align:center; align:center' src=img/fixation3.jpg></div><div class='cl'><div class='vertical-center'>$18<br>with a<br>50% chance</div></div><div class='cr'><div class='vertical-center'>$9<br>for<br>sure</div></div><div class='respDivL'><div class='vertical-center'>(E)</div></div><div class='respDivR'><div class='vertical-center'>(I)</div></div></div>","I","$9","$18","1","9","18","SURE"
"html-keyboard-response","33","96969","0.0-5.0-3.9","6362c4beb39ee39d15890c5c","bdp_rd","Mon Mar 27 2023 23:14:34 GMT-0400 (GMT-04:00)","245994","","null","","","","offerFB","","<div class='trialBorder'><div class='vertical-center'><img style='vertical-align:center; align:center' src=img/fixation3.jpg></div><div class='cl'><div class='vertical-center'>$18<br>with a<br>50% chance</div></div><div class='cr'><div class='vertical-center'><font style='color:orange'>$9<br>for<br>sure</font></div></div><div class='respDivL'><div class='vertical-center'>(E)</div></div><div class='respDivR'><div class='vertical-center'><font style='color:orange'>(I)</font></div></div></div>","null","$9","$18","1","9","18",""
"html-keyboard-response","34","97470","0.0-5.0-1.10","6362c4beb39ee39d15890c5c","bdp_rd","Mon Mar 27 2023 23:14:34 GMT-0400 (GMT-04:00)","245994","","null","","","","FIX","","<div class='trialBorder'><div class='vertical-center'><img style='vertical-align:center; align:center' src=img/fixation3.jpg></div></div>","null","","","","","",""
"html-keyboard-response","35","99443","0.0-5.0-2.10","6362c4beb39ee39d15890c5c","bdp_rd","Mon Mar 27 2023 23:14:34 GMT-0400 (GMT-04:00)","245994","","1973","","","","offer","","<div class='trialBorder'><div class='vertical-center'><img style='vertical-align:center; align:center' src=img/fixation3.jpg></div><div class='cl'><div class='vertical-center'>$4<br>for<br>sure</div></div><div class='cr'><div class='vertical-center'>$14<br>with a<br>50% chance</div></div><div class='respDivL'><div class='vertical-center'>(E)</div></div><div class='respDivR'><div class='vertical-center'>(I)</div></div></div>","I","$4","$14","0","4","14","RISKY"
"html-keyboard-response","36","99696","0.0-5.0-3.10","6362c4beb39ee39d15890c5c","bdp_rd","Mon Mar 27 2023 23:14:34 GMT-0400 (GMT-04:00)","245994","","null","","","","offerFB","","<div class='trialBorder'><div class='vertical-center'><img style='vertical-align:center; align:center' src=img/fixation3.jpg></div><div class='cl'><div class='vertical-center'>$4<br>for<br>sure</div></div><div class='cr'><div class='vertical-center'><font style='color:orange'>$14<br>with a<br>50% chance</font></div></div><div class='respDivL'><div class='vertical-center'>(E)</div></div><div class='respDivR'><div class='vertical-center'><font style='color:orange'>(I)</font></div></div></div>","null","$4","$14","0","4","14",""
"html-keyboard-response","37","100197","0.0-5.0-1.11","6362c4beb39ee39d15890c5c","bdp_rd","Mon Mar 27 2023 23:14:34 GMT-0400 (GMT-04:00)","245994","","null","","","","FIX","","<div class='trialBorder'><div class='vertical-center'><img style='vertical-align:center; align:center' src=img/fixation3.jpg></div></div>","null","","","","","",""
"html-keyboard-response","38","104109","0.0-5.0-2.11","6362c4beb39ee39d15890c5c","bdp_rd","Mon Mar 27 2023 23:14:34 GMT-0400 (GMT-04:00)","245994","","3911","","","","offer","","<div class='trialBorder'><div class='vertical-center'><img style='vertical-align:center; align:center' src=img/fixation3.jpg></div><div class='cl'><div class='vertical-center'>$26<br>with a<br>50% chance</div></div><div class='cr'><div class='vertical-center'>$11<br>for<br>sure</div></div><div class='respDivL'><div class='vertical-center'>(E)</div></div><div class='respDivR'><div class='vertical-center'>(I)</div></div></div>","I","$11","$26","1","11","26","SURE"
"html-keyboard-response","39","104361","0.0-5.0-3.11","6362c4beb39ee39d15890c5c","bdp_rd","Mon Mar 27 2023 23:14:34 GMT-0400 (GMT-04:00)","245994","","null","","","","offerFB","","<div class='trialBorder'><div class='vertical-center'><img style='vertical-align:center; align:center' src=img/fixation3.jpg></div><div class='cl'><div class='vertical-center'>$26<br>with a<br>50% chance</div></div><div class='cr'><div class='vertical-center'><font style='color:orange'>$11<br>for<br>sure</font></div></div><div class='respDivL'><div class='vertical-center'>(E)</div></div><div class='respDivR'><div class='vertical-center'><font style='color:orange'>(I)</font></div></div></div>","null","$11","$26","1","11","26",""
"html-keyboard-response","40","104863","0.0-5.0-1.12","6362c4beb39ee39d15890c5c","bdp_rd","Mon Mar 27 2023 23:14:34 GMT-0400 (GMT-04:00)","245994","","null","","","","FIX","","<div class='trialBorder'><div class='vertical-center'><img style='vertical-align:center; align:center' src=img/fixation3.jpg></div></div>","null","","","","","",""
"html-keyboard-response","41","107757","0.0-5.0-2.12","6362c4beb39ee39d15890c5c","bdp_rd","Mon Mar 27 2023 23:14:34 GMT-0400 (GMT-04:00)","245994","","2894","","","","offer","","<div class='trialBorder'><div class='vertical-center'><img style='vertical-align:center; align:center' src=img/fixation3.jpg></div><div class='cl'><div class='vertical-center'>$34<br>with a<br>50% chance</div></div><div class='cr'><div class='vertical-center'>$15<br>for<br>sure</div></div><div class='respDivL'><div class='vertical-center'>(E)</div></div><div class='respDivR'><div class='vertical-center'>(I)</div></div></div>","I","$15","$34","1","15","34","SURE"
"html-keyboard-response","42","108009","0.0-5.0-3.12","6362c4beb39ee39d15890c5c","bdp_rd","Mon Mar 27 2023 23:14:34 GMT-0400 (GMT-04:00)","245994","","null","","","","offerFB","","<div class='trialBorder'><div class='vertical-center'><img style='vertical-align:center; align:center' src=img/fixation3.jpg></div><div class='cl'><div class='vertical-center'>$34<br>with a<br>50% chance</div></div><div class='cr'><div class='vertical-center'><font style='color:orange'>$15<br>for<br>sure</font></div></div><div class='respDivL'><div class='vertical-center'>(E)</div></div><div class='respDivR'><div class='vertical-center'><font style='color:orange'>(I)</font></div></div></div>","null","$15","$34","1","15","34",""
"html-keyboard-response","43","108510","0.0-5.0-1.13","6362c4beb39ee39d15890c5c","bdp_rd","Mon Mar 27 2023 23:14:34 GMT-0400 (GMT-04:00)","245994","","null","","","","FIX","","<div class='trialBorder'><div class='vertical-center'><img style='vertical-align:center; align:center' src=img/fixation3.jpg></div></div>","null","","","","","",""
"html-keyboard-response","44","110077","0.0-5.0-2.13","6362c4beb39ee39d15890c5c","bdp_rd","Mon Mar 27 2023 23:14:34 GMT-0400 (GMT-04:00)","245994","","1566","","","","offer","","<div class='trialBorder'><div class='vertical-center'><img style='vertical-align:center; align:center' src=img/fixation3.jpg></div><div class='cl'><div class='vertical-center'>$3<br>for<br>sure</div></div><div class='cr'><div class='vertical-center'>$17<br>with a<br>50% chance</div></div><div class='respDivL'><div class='vertical-center'>(E)</div></div><div class='respDivR'><div class='vertical-center'>(I)</div></div></div>","I","$3","$17","0","3","17","RISKY"
"html-keyboard-response","45","110329","0.0-5.0-3.13","6362c4beb39ee39d15890c5c","bdp_rd","Mon Mar 27 2023 23:14:34 GMT-0400 (GMT-04:00)","245994","","null","","","","offerFB","","<div class='trialBorder'><div class='vertical-center'><img style='vertical-align:center; align:center' src=img/fixation3.jpg></div><div class='cl'><div class='vertical-center'>$3<br>for<br>sure</div></div><div class='cr'><div class='vertical-center'><font style='color:orange'>$17<br>with a<br>50% chance</font></div></div><div class='respDivL'><div class='vertical-center'>(E)</div></div><div class='respDivR'><div class='vertical-center'><font style='color:orange'>(I)</font></div></div></div>","null","$3","$17","0","3","17",""
"html-keyboard-response","46","110830","0.0-5.0-1.14","6362c4beb39ee39d15890c5c","bdp_rd","Mon Mar 27 2023 23:14:34 GMT-0400 (GMT-04:00)","245994","","null","","","","FIX","","<div class='trialBorder'><div class='vertical-center'><img style='vertical-align:center; align:center' src=img/fixation3.jpg></div></div>","null","","","","","",""
"html-keyboard-response","47","113085","0.0-5.0-2.14","6362c4beb39ee39d15890c5c","bdp_rd","Mon Mar 27 2023 23:14:34 GMT-0400 (GMT-04:00)","245994","","2254","","","","offer","","<div class='trialBorder'><div class='vertical-center'><img style='vertical-align:center; align:center' src=img/fixation3.jpg></div><div class='cl'><div class='vertical-center'>$81<br>with a<br>50% chance</div></div><div class='cr'><div class='vertical-center'>$39<br>for<br>sure</div></div><div class='respDivL'><div class='vertical-center'>(E)</div></div><div class='respDivR'><div class='vertical-center'>(I)</div></div></div>","I","$39","$81","1","39","81","SURE"
"html-keyboard-response","48","113337","0.0-5.0-3.14","6362c4beb39ee39d15890c5c","bdp_rd","Mon Mar 27 2023 23:14:34 GMT-0400 (GMT-04:00)","245994","","null","","","","offerFB","","<div class='trialBorder'><div class='vertical-center'><img style='vertical-align:center; align:center' src=img/fixation3.jpg></div><div class='cl'><div class='vertical-center'>$81<br>with a<br>50% chance</div></div><div class='cr'><div class='vertical-center'><font style='color:orange'>$39<br>for<br>sure</font></div></div><div class='respDivL'><div class='vertical-center'>(E)</div></div><div class='respDivR'><div class='vertical-center'><font style='color:orange'>(I)</font></div></div></div>","null","$39","$81","1","39","81",""
"html-keyboard-response","49","113839","0.0-5.0-1.15","6362c4beb39ee39d15890c5c","bdp_rd","Mon Mar 27 2023 23:14:34 GMT-0400 (GMT-04:00)","245994","","null","","","","FIX","","<div class='trialBorder'><div class='vertical-center'><img style='vertical-align:center; align:center' src=img/fixation3.jpg></div></div>","null","","","","","",""
"html-keyboard-response","50","115437","0.0-5.0-2.15","6362c4beb39ee39d15890c5c","bdp_rd","Mon Mar 27 2023 23:14:34 GMT-0400 (GMT-04:00)","245994","","1598","","","","offer","","<div class='trialBorder'><div class='vertical-center'><img style='vertical-align:center; align:center' src=img/fixation3.jpg></div><div class='cl'><div class='vertical-center'>$17<br>for<br>sure</div></div><div class='cr'><div class='vertical-center'>$43<br>with a<br>50% chance</div></div><div class='respDivL'><div class='vertical-center'>(E)</div></div><div class='respDivR'><div class='vertical-center'>(I)</div></div></div>","I","$17","$43","0","17","43","RISKY"
"html-keyboard-response","51","115688","0.0-5.0-3.15","6362c4beb39ee39d15890c5c","bdp_rd","Mon Mar 27 2023 23:14:34 GMT-0400 (GMT-04:00)","245994","","null","","","","offerFB","","<div class='trialBorder'><div class='vertical-center'><img style='vertical-align:center; align:center' src=img/fixation3.jpg></div><div class='cl'><div class='vertical-center'>$17<br>for<br>sure</div></div><div class='cr'><div class='vertical-center'><font style='color:orange'>$43<br>with a<br>50% chance</font></div></div><div class='respDivL'><div class='vertical-center'>(E)</div></div><div class='respDivR'><div class='vertical-center'><font style='color:orange'>(I)</font></div></div></div>","null","$17","$43","0","17","43",""
"html-keyboard-response","52","116189","0.0-5.0-1.16","6362c4beb39ee39d15890c5c","bdp_rd","Mon Mar 27 2023 23:14:34 GMT-0400 (GMT-04:00)","245994","","null","","","","FIX","","<div class='trialBorder'><div class='vertical-center'><img style='vertical-align:center; align:center' src=img/fixation3.jpg></div></div>","null","","","","","",""
"html-keyboard-response","53","118701","0.0-5.0-2.16","6362c4beb39ee39d15890c5c","bdp_rd","Mon Mar 27 2023 23:14:34 GMT-0400 (GMT-04:00)","245994","","2511","","","","offer","","<div class='trialBorder'><div class='vertical-center'><img style='vertical-align:center; align:center' src=img/fixation3.jpg></div><div class='cl'><div class='vertical-center'>$13<br>for<br>sure</div></div><div class='cr'><div class='vertical-center'>$24<br>with a<br>50% chance</div></div><div class='respDivL'><div class='vertical-center'>(E)</div></div><div class='respDivR'><div class='vertical-center'>(I)</div></div></div>","E","$13","$24","0","13","24","SURE"
"html-keyboard-response","54","118953","0.0-5.0-3.16","6362c4beb39ee39d15890c5c","bdp_rd","Mon Mar 27 2023 23:14:34 GMT-0400 (GMT-04:00)","245994","","null","","","","offerFB","","<div class='trialBorder'><div class='vertical-center'><img style='vertical-align:center; align:center' src=img/fixation3.jpg></div><div class='cl'><div class='vertical-center'><font style='color:orange'>$13<br>for<br>sure</font></div></div><div class='cr'><div class='vertical-center'>$24<br>with a<br>50% chance</div></div><div class='respDivL'><div class='vertical-center'><font style='color:orange'>(E)</font></div></div><div class='respDivR'><div class='vertical-center'>(I)</div></div></div>","null","$13","$24","0","13","24",""
"html-keyboard-response","55","119454","0.0-5.0-1.17","6362c4beb39ee39d15890c5c","bdp_rd","Mon Mar 27 2023 23:14:34 GMT-0400 (GMT-04:00)","245994","","null","","","","FIX","","<div class='trialBorder'><div class='vertical-center'><img style='vertical-align:center; align:center' src=img/fixation3.jpg></div></div>","null","","","","","",""
"html-keyboard-response","56","123788","0.0-5.0-2.17","6362c4beb39ee39d15890c5c","bdp_rd","Mon Mar 27 2023 23:14:34 GMT-0400 (GMT-04:00)","245994","","4333","","","","offer","","<div class='trialBorder'><div class='vertical-center'><img style='vertical-align:center; align:center' src=img/fixation3.jpg></div><div class='cl'><div class='vertical-center'>$18<br>for<br>sure</div></div><div class='cr'><div class='vertical-center'>$39<br>with a<br>50% chance</div></div><div class='respDivL'><div class='vertical-center'>(E)</div></div><div class='respDivR'><div class='vertical-center'>(I)</div></div></div>","E","$18","$39","0","18","39","SURE"
"html-keyboard-response","57","124039","0.0-5.0-3.17","6362c4beb39ee39d15890c5c","bdp_rd","Mon Mar 27 2023 23:14:34 GMT-0400 (GMT-04:00)","245994","","null","","","","offerFB","","<div class='trialBorder'><div class='vertical-center'><img style='vertical-align:center; align:center' src=img/fixation3.jpg></div><div class='cl'><div class='vertical-center'><font style='color:orange'>$18<br>for<br>sure</font></div></div><div class='cr'><div class='vertical-center'>$39<br>with a<br>50% chance</div></div><div class='respDivL'><div class='vertical-center'><font style='color:orange'>(E)</font></div></div><div class='respDivR'><div class='vertical-center'>(I)</div></div></div>","null","$18","$39","0","18","39",""
"html-keyboard-response","58","124541","0.0-5.0-1.18","6362c4beb39ee39d15890c5c","bdp_rd","Mon Mar 27 2023 23:14:34 GMT-0400 (GMT-04:00)","245994","","null","","","","FIX","","<div class='trialBorder'><div class='vertical-center'><img style='vertical-align:center; align:center' src=img/fixation3.jpg></div></div>","null","","","","","",""
"html-keyboard-response","59","127125","0.0-5.0-2.18","6362c4beb39ee39d15890c5c","bdp_rd","Mon Mar 27 2023 23:14:34 GMT-0400 (GMT-04:00)","245994","","2583","","","","offer","","<div class='trialBorder'><div class='vertical-center'><img style='vertical-align:center; align:center' src=img/fixation3.jpg></div><div class='cl'><div class='vertical-center'>$37<br>for<br>sure</div></div><div class='cr'><div class='vertical-center'>$44<br>with a<br>50% chance</div></div><div class='respDivL'><div class='vertical-center'>(E)</div></div><div class='respDivR'><div class='vertical-center'>(I)</div></div></div>","E","$37","$44","0","37","44","SURE"
"html-keyboard-response","60","127377","0.0-5.0-3.18","6362c4beb39ee39d15890c5c","bdp_rd","Mon Mar 27 2023 23:14:34 GMT-0400 (GMT-04:00)","245994","","null","","","","offerFB","","<div class='trialBorder'><div class='vertical-center'><img style='vertical-align:center; align:center' src=img/fixation3.jpg></div><div class='cl'><div class='vertical-center'><font style='color:orange'>$37<br>for<br>sure</font></div></div><div class='cr'><div class='vertical-center'>$44<br>with a<br>50% chance</div></div><div class='respDivL'><div class='vertical-center'><font style='color:orange'>(E)</font></div></div><div class='respDivR'><div class='vertical-center'>(I)</div></div></div>","null","$37","$44","0","37","44",""
"html-keyboard-response","61","127877","0.0-5.0-1.19","6362c4beb39ee39d15890c5c","bdp_rd","Mon Mar 27 2023 23:14:34 GMT-0400 (GMT-04:00)","245994","","null","","","","FIX","","<div class='trialBorder'><div class='vertical-center'><img style='vertical-align:center; align:center' src=img/fixation3.jpg></div></div>","null","","","","","",""
"html-keyboard-response","62","129606","0.0-5.0-2.19","6362c4beb39ee39d15890c5c","bdp_rd","Mon Mar 27 2023 23:14:34 GMT-0400 (GMT-04:00)","245994","","1728","","","","offer","","<div class='trialBorder'><div class='vertical-center'><img style='vertical-align:center; align:center' src=img/fixation3.jpg></div><div class='cl'><div class='vertical-center'>$28<br>with a<br>50% chance</div></div><div class='cr'><div class='vertical-center'>$16<br>for<br>sure</div></div><div class='respDivL'><div class='vertical-center'>(E)</div></div><div class='respDivR'><div class='vertical-center'>(I)</div></div></div>","I","$16","$28","1","16","28","SURE"
"html-keyboard-response","63","129857","0.0-5.0-3.19","6362c4beb39ee39d15890c5c","bdp_rd","Mon Mar 27 2023 23:14:34 GMT-0400 (GMT-04:00)","245994","","null","","","","offerFB","","<div class='trialBorder'><div class='vertical-center'><img style='vertical-align:center; align:center' src=img/fixation3.jpg></div><div class='cl'><div class='vertical-center'>$28<br>with a<br>50% chance</div></div><div class='cr'><div class='vertical-center'><font style='color:orange'>$16<br>for<br>sure</font></div></div><div class='respDivL'><div class='vertical-center'>(E)</div></div><div class='respDivR'><div class='vertical-center'><font style='color:orange'>(I)</font></div></div></div>","null","$16","$28","1","16","28",""
"html-keyboard-response","64","130358","0.0-5.0-1.20","6362c4beb39ee39d15890c5c","bdp_rd","Mon Mar 27 2023 23:14:34 GMT-0400 (GMT-04:00)","245994","","null","","","","FIX","","<div class='trialBorder'><div class='vertical-center'><img style='vertical-align:center; align:center' src=img/fixation3.jpg></div></div>","null","","","","","",""
"html-keyboard-response","65","131773","0.0-5.0-2.20","6362c4beb39ee39d15890c5c","bdp_rd","Mon Mar 27 2023 23:14:34 GMT-0400 (GMT-04:00)","245994","","1415","","","","offer","","<div class='trialBorder'><div class='vertical-center'><img style='vertical-align:center; align:center' src=img/fixation3.jpg></div><div class='cl'><div class='vertical-center'>$5<br>for<br>sure</div></div><div class='cr'><div class='vertical-center'>$16<br>with a<br>50% chance</div></div><div class='respDivL'><div class='vertical-center'>(E)</div></div><div class='respDivR'><div class='vertical-center'>(I)</div></div></div>","I","$5","$16","0","5","16","RISKY"
"html-keyboard-response","66","132024","0.0-5.0-3.20","6362c4beb39ee39d15890c5c","bdp_rd","Mon Mar 27 2023 23:14:34 GMT-0400 (GMT-04:00)","245994","","null","","","","offerFB","","<div class='trialBorder'><div class='vertical-center'><img style='vertical-align:center; align:center' src=img/fixation3.jpg></div><div class='cl'><div class='vertical-center'>$5<br>for<br>sure</div></div><div class='cr'><div class='vertical-center'><font style='color:orange'>$16<br>with a<br>50% chance</font></div></div><div class='respDivL'><div class='vertical-center'>(E)</div></div><div class='respDivR'><div class='vertical-center'><font style='color:orange'>(I)</font></div></div></div>","null","$5","$16","0","5","16",""
"html-keyboard-response","67","132526","0.0-5.0-1.21","6362c4beb39ee39d15890c5c","bdp_rd","Mon Mar 27 2023 23:14:34 GMT-0400 (GMT-04:00)","245994","","null","","","","FIX","","<div class='trialBorder'><div class='vertical-center'><img style='vertical-align:center; align:center' src=img/fixation3.jpg></div></div>","null","","","","","",""
"html-keyboard-response","68","134157","0.0-5.0-2.21","6362c4beb39ee39d15890c5c","bdp_rd","Mon Mar 27 2023 23:14:34 GMT-0400 (GMT-04:00)","245994","","1631","","","","offer","","<div class='trialBorder'><div class='vertical-center'><img style='vertical-align:center; align:center' src=img/fixation3.jpg></div><div class='cl'><div class='vertical-center'>$11<br>for<br>sure</div></div><div class='cr'><div class='vertical-center'>$62<br>with a<br>50% chance</div></div><div class='respDivL'><div class='vertical-center'>(E)</div></div><div class='respDivR'><div class='vertical-center'>(I)</div></div></div>","I","$11","$62","0","11","62","RISKY"
"html-keyboard-response","69","134409","0.0-5.0-3.21","6362c4beb39ee39d15890c5c","bdp_rd","Mon Mar 27 2023 23:14:34 GMT-0400 (GMT-04:00)","245994","","null","","","","offerFB","","<div class='trialBorder'><div class='vertical-center'><img style='vertical-align:center; align:center' src=img/fixation3.jpg></div><div class='cl'><div class='vertical-center'>$11<br>for<br>sure</div></div><div class='cr'><div class='vertical-center'><font style='color:orange'>$62<br>with a<br>50% chance</font></div></div><div class='respDivL'><div class='vertical-center'>(E)</div></div><div class='respDivR'><div class='vertical-center'><font style='color:orange'>(I)</font></div></div></div>","null","$11","$62","0","11","62",""
"html-keyboard-response","70","134910","0.0-5.0-1.22","6362c4beb39ee39d15890c5c","bdp_rd","Mon Mar 27 2023 23:14:34 GMT-0400 (GMT-04:00)","245994","","null","","","","FIX","","<div class='trialBorder'><div class='vertical-center'><img style='vertical-align:center; align:center' src=img/fixation3.jpg></div></div>","null","","","","","",""
"html-keyboard-response","71","136541","0.0-5.0-2.22","6362c4beb39ee39d15890c5c","bdp_rd","Mon Mar 27 2023 23:14:34 GMT-0400 (GMT-04:00)","245994","","1630","","","","offer","","<div class='trialBorder'><div class='vertical-center'><img style='vertical-align:center; align:center' src=img/fixation3.jpg></div><div class='cl'><div class='vertical-center'>$21<br>with a<br>50% chance</div></div><div class='cr'><div class='vertical-center'>$2<br>for<br>sure</div></div><div class='respDivL'><div class='vertical-center'>(E)</div></div><div class='respDivR'><div class='vertical-center'>(I)</div></div></div>","E","$2","$21","1","2","21","RISKY"
"html-keyboard-response","72","136794","0.0-5.0-3.22","6362c4beb39ee39d15890c5c","bdp_rd","Mon Mar 27 2023 23:14:34 GMT-0400 (GMT-04:00)","245994","","null","","","","offerFB","","<div class='trialBorder'><div class='vertical-center'><img style='vertical-align:center; align:center' src=img/fixation3.jpg></div><div class='cl'><div class='vertical-center'><font style='color:orange'>$21<br>with a<br>50% chance</font></div></div><div class='cr'><div class='vertical-center'>$2<br>for<br>sure</div></div><div class='respDivL'><div class='vertical-center'><font style='color:orange'>(E)</font></div></div><div class='respDivR'><div class='vertical-center'>(I)</div></div></div>","null","$2","$21","1","2","21",""
"html-keyboard-response","73","137296","0.0-5.0-1.23","6362c4beb39ee39d15890c5c","bdp_rd","Mon Mar 27 2023 23:14:34 GMT-0400 (GMT-04:00)","245994","","null","","","","FIX","","<div class='trialBorder'><div class='vertical-center'><img style='vertical-align:center; align:center' src=img/fixation3.jpg></div></div>","null","","","","","",""
"html-keyboard-response","74","143829","0.0-5.0-2.23","6362c4beb39ee39d15890c5c","bdp_rd","Mon Mar 27 2023 23:14:34 GMT-0400 (GMT-04:00)","245994","","6533","","","","offer","","<div class='trialBorder'><div class='vertical-center'><img style='vertical-align:center; align:center' src=img/fixation3.jpg></div><div class='cl'><div class='vertical-center'>$22<br>for<br>sure</div></div><div class='cr'><div class='vertical-center'>$59<br>with a<br>50% chance</div></div><div class='respDivL'><div class='vertical-center'>(E)</div></div><div class='respDivR'><div class='vertical-center'>(I)</div></div></div>","I","$22","$59","0","22","59","RISKY"
"html-keyboard-response","75","144082","0.0-5.0-3.23","6362c4beb39ee39d15890c5c","bdp_rd","Mon Mar 27 2023 23:14:34 GMT-0400 (GMT-04:00)","245994","","null","","","","offerFB","","<div class='trialBorder'><div class='vertical-center'><img style='vertical-align:center; align:center' src=img/fixation3.jpg></div><div class='cl'><div class='vertical-center'>$22<br>for<br>sure</div></div><div class='cr'><div class='vertical-center'><font style='color:orange'>$59<br>with a<br>50% chance</font></div></div><div class='respDivL'><div class='vertical-center'>(E)</div></div><div class='respDivR'><div class='vertical-center'><font style='color:orange'>(I)</font></div></div></div>","null","$22","$59","0","22","59",""
"html-keyboard-response","76","144584","0.0-5.0-1.24","6362c4beb39ee39d15890c5c","bdp_rd","Mon Mar 27 2023 23:14:34 GMT-0400 (GMT-04:00)","245994","","null","","","","FIX","","<div class='trialBorder'><div class='vertical-center'><img style='vertical-align:center; align:center' src=img/fixation3.jpg></div></div>","null","","","","","",""
"html-keyboard-response","77","146564","0.0-5.0-2.24","6362c4beb39ee39d15890c5c","bdp_rd","Mon Mar 27 2023 23:14:34 GMT-0400 (GMT-04:00)","245994","","1980","","","","offer","","<div class='trialBorder'><div class='vertical-center'><img style='vertical-align:center; align:center' src=img/fixation3.jpg></div><div class='cl'><div class='vertical-center'>$69<br>with a<br>50% chance</div></div><div class='cr'><div class='vertical-center'>$58<br>for<br>sure</div></div><div class='respDivL'><div class='vertical-center'>(E)</div></div><div class='respDivR'><div class='vertical-center'>(I)</div></div></div>","I","$58","$69","1","58","69","SURE"
"html-keyboard-response","78","146815","0.0-5.0-3.24","6362c4beb39ee39d15890c5c","bdp_rd","Mon Mar 27 2023 23:14:34 GMT-0400 (GMT-04:00)","245994","","null","","","","offerFB","","<div class='trialBorder'><div class='vertical-center'><img style='vertical-align:center; align:center' src=img/fixation3.jpg></div><div class='cl'><div class='vertical-center'>$69<br>with a<br>50% chance</div></div><div class='cr'><div class='vertical-center'><font style='color:orange'>$58<br>for<br>sure</font></div></div><div class='respDivL'><div class='vertical-center'>(E)</div></div><div class='respDivR'><div class='vertical-center'><font style='color:orange'>(I)</font></div></div></div>","null","$58","$69","1","58","69",""
"html-keyboard-response","79","147317","0.0-5.0-1.25","6362c4beb39ee39d15890c5c","bdp_rd","Mon Mar 27 2023 23:14:34 GMT-0400 (GMT-04:00)","245994","","null","","","","FIX","","<div class='trialBorder'><div class='vertical-center'><img style='vertical-align:center; align:center' src=img/fixation3.jpg></div></div>","null","","","","","",""
"html-keyboard-response","80","149253","0.0-5.0-2.25","6362c4beb39ee39d15890c5c","bdp_rd","Mon Mar 27 2023 23:14:34 GMT-0400 (GMT-04:00)","245994","","1936","","","","offer","","<div class='trialBorder'><div class='vertical-center'><img style='vertical-align:center; align:center' src=img/fixation3.jpg></div><div class='cl'><div class='vertical-center'>$20<br>for<br>sure</div></div><div class='cr'><div class='vertical-center'>$80<br>with a<br>50% chance</div></div><div class='respDivL'><div class='vertical-center'>(E)</div></div><div class='respDivR'><div class='vertical-center'>(I)</div></div></div>","I","$20","$80","0","20","80","RISKY"
"html-keyboard-response","81","149504","0.0-5.0-3.25","6362c4beb39ee39d15890c5c","bdp_rd","Mon Mar 27 2023 23:14:34 GMT-0400 (GMT-04:00)","245994","","null","","","","offerFB","","<div class='trialBorder'><div class='vertical-center'><img style='vertical-align:center; align:center' src=img/fixation3.jpg></div><div class='cl'><div class='vertical-center'>$20<br>for<br>sure</div></div><div class='cr'><div class='vertical-center'><font style='color:orange'>$80<br>with a<br>50% chance</font></div></div><div class='respDivL'><div class='vertical-center'>(E)</div></div><div class='respDivR'><div class='vertical-center'><font style='color:orange'>(I)</font></div></div></div>","null","$20","$80","0","20","80",""
"html-keyboard-response","82","150006","0.0-5.0-1.26","6362c4beb39ee39d15890c5c","bdp_rd","Mon Mar 27 2023 23:14:34 GMT-0400 (GMT-04:00)","245994","","null","","","","FIX","","<div class='trialBorder'><div class='vertical-center'><img style='vertical-align:center; align:center' src=img/fixation3.jpg></div></div>","null","","","","","",""
"html-keyboard-response","83","151237","0.0-5.0-2.26","6362c4beb39ee39d15890c5c","bdp_rd","Mon Mar 27 2023 23:14:34 GMT-0400 (GMT-04:00)","245994","","1231","","","","offer","","<div class='trialBorder'><div class='vertical-center'><img style='vertical-align:center; align:center' src=img/fixation3.jpg></div><div class='cl'><div class='vertical-center'>$9<br>for<br>sure</div></div><div class='cr'><div class='vertical-center'>$32<br>with a<br>50% chance</div></div><div class='respDivL'><div class='vertical-center'>(E)</div></div><div class='respDivR'><div class='vertical-center'>(I)</div></div></div>","I","$9","$32","0","9","32","RISKY"
"html-keyboard-response","84","151488","0.0-5.0-3.26","6362c4beb39ee39d15890c5c","bdp_rd","Mon Mar 27 2023 23:14:34 GMT-0400 (GMT-04:00)","245994","","null","","","","offerFB","","<div class='trialBorder'><div class='vertical-center'><img style='vertical-align:center; align:center' src=img/fixation3.jpg></div><div class='cl'><div class='vertical-center'>$9<br>for<br>sure</div></div><div class='cr'><div class='vertical-center'><font style='color:orange'>$32<br>with a<br>50% chance</font></div></div><div class='respDivL'><div class='vertical-center'>(E)</div></div><div class='respDivR'><div class='vertical-center'><font style='color:orange'>(I)</font></div></div></div>","null","$9","$32","0","9","32",""
"html-keyboard-response","85","151989","0.0-5.0-1.27","6362c4beb39ee39d15890c5c","bdp_rd","Mon Mar 27 2023 23:14:34 GMT-0400 (GMT-04:00)","245994","","null","","","","FIX","","<div class='trialBorder'><div class='vertical-center'><img style='vertical-align:center; align:center' src=img/fixation3.jpg></div></div>","null","","","","","",""
"html-keyboard-response","86","153613","0.0-5.0-2.27","6362c4beb39ee39d15890c5c","bdp_rd","Mon Mar 27 2023 23:14:34 GMT-0400 (GMT-04:00)","245994","","1624","","","","offer","","<div class='trialBorder'><div class='vertical-center'><img style='vertical-align:center; align:center' src=img/fixation3.jpg></div><div class='cl'><div class='vertical-center'>$4<br>for<br>sure</div></div><div class='cr'><div class='vertical-center'>$11<br>with a<br>50% chance</div></div><div class='respDivL'><div class='vertical-center'>(E)</div></div><div class='respDivR'><div class='vertical-center'>(I)</div></div></div>","E","$4","$11","0","4","11","SURE"
"html-keyboard-response","87","153865","0.0-5.0-3.27","6362c4beb39ee39d15890c5c","bdp_rd","Mon Mar 27 2023 23:14:34 GMT-0400 (GMT-04:00)","245994","","null","","","","offerFB","","<div class='trialBorder'><div class='vertical-center'><img style='vertical-align:center; align:center' src=img/fixation3.jpg></div><div class='cl'><div class='vertical-center'><font style='color:orange'>$4<br>for<br>sure</font></div></div><div class='cr'><div class='vertical-center'>$11<br>with a<br>50% chance</div></div><div class='respDivL'><div class='vertical-center'><font style='color:orange'>(E)</font></div></div><div class='respDivR'><div class='vertical-center'>(I)</div></div></div>","null","$4","$11","0","4","11",""
"html-keyboard-response","88","154368","0.0-5.0-1.28","6362c4beb39ee39d15890c5c","bdp_rd","Mon Mar 27 2023 23:14:34 GMT-0400 (GMT-04:00)","245994","","null","","","","FIX","","<div class='trialBorder'><div class='vertical-center'><img style='vertical-align:center; align:center' src=img/fixation3.jpg></div></div>","null","","","","","",""
"html-keyboard-response","89","156333","0.0-5.0-2.28","6362c4beb39ee39d15890c5c","bdp_rd","Mon Mar 27 2023 23:14:34 GMT-0400 (GMT-04:00)","245994","","1965","","","","offer","","<div class='trialBorder'><div class='vertical-center'><img style='vertical-align:center; align:center' src=img/fixation3.jpg></div><div class='cl'><div class='vertical-center'>$33<br>for<br>sure</div></div><div class='cr'><div class='vertical-center'>$66<br>with a<br>50% chance</div></div><div class='respDivL'><div class='vertical-center'>(E)</div></div><div class='respDivR'><div class='vertical-center'>(I)</div></div></div>","I","$33","$66","0","33","66","RISKY"
"html-keyboard-response","90","156585","0.0-5.0-3.28","6362c4beb39ee39d15890c5c","bdp_rd","Mon Mar 27 2023 23:14:34 GMT-0400 (GMT-04:00)","245994","","null","","","","offerFB","","<div class='trialBorder'><div class='vertical-center'><img style='vertical-align:center; align:center' src=img/fixation3.jpg></div><div class='cl'><div class='vertical-center'>$33<br>for<br>sure</div></div><div class='cr'><div class='vertical-center'><font style='color:orange'>$66<br>with a<br>50% chance</font></div></div><div class='respDivL'><div class='vertical-center'>(E)</div></div><div class='respDivR'><div class='vertical-center'><font style='color:orange'>(I)</font></div></div></div>","null","$33","$66","0","33","66",""
"html-keyboard-response","91","157086","0.0-5.0-1.29","6362c4beb39ee39d15890c5c","bdp_rd","Mon Mar 27 2023 23:14:34 GMT-0400 (GMT-04:00)","245994","","null","","","","FIX","","<div class='trialBorder'><div class='vertical-center'><img style='vertical-align:center; align:center' src=img/fixation3.jpg></div></div>","null","","","","","",""
"html-keyboard-response","92","159429","0.0-5.0-2.29","6362c4beb39ee39d15890c5c","bdp_rd","Mon Mar 27 2023 23:14:34 GMT-0400 (GMT-04:00)","245994","","2342","","","","offer","","<div class='trialBorder'><div class='vertical-center'><img style='vertical-align:center; align:center' src=img/fixation3.jpg></div><div class='cl'><div class='vertical-center'>$42<br>with a<br>50% chance</div></div><div class='cr'><div class='vertical-center'>$22<br>for<br>sure</div></div><div class='respDivL'><div class='vertical-center'>(E)</div></div><div class='respDivR'><div class='vertical-center'>(I)</div></div></div>","E","$22","$42","1","22","42","RISKY"
"html-keyboard-response","93","159681","0.0-5.0-3.29","6362c4beb39ee39d15890c5c","bdp_rd","Mon Mar 27 2023 23:14:34 GMT-0400 (GMT-04:00)","245994","","null","","","","offerFB","","<div class='trialBorder'><div class='vertical-center'><img style='vertical-align:center; align:center' src=img/fixation3.jpg></div><div class='cl'><div class='vertical-center'><font style='color:orange'>$42<br>with a<br>50% chance</font></div></div><div class='cr'><div class='vertical-center'>$22<br>for<br>sure</div></div><div class='respDivL'><div class='vertical-center'><font style='color:orange'>(E)</font></div></div><div class='respDivR'><div class='vertical-center'>(I)</div></div></div>","null","$22","$42","1","22","42",""
"html-keyboard-response","94","160183","0.0-5.0-1.30","6362c4beb39ee39d15890c5c","bdp_rd","Mon Mar 27 2023 23:14:34 GMT-0400 (GMT-04:00)","245994","","null","","","","FIX","","<div class='trialBorder'><div class='vertical-center'><img style='vertical-align:center; align:center' src=img/fixation3.jpg></div></div>","null","","","","","",""
"html-keyboard-response","95","162588","0.0-5.0-2.30","6362c4beb39ee39d15890c5c","bdp_rd","Mon Mar 27 2023 23:14:34 GMT-0400 (GMT-04:00)","245994","","2405","","","","offer","","<div class='trialBorder'><div class='vertical-center'><img style='vertical-align:center; align:center' src=img/fixation3.jpg></div><div class='cl'><div class='vertical-center'>$35<br>with a<br>50% chance</div></div><div class='cr'><div class='vertical-center'>$12<br>for<br>sure</div></div><div class='respDivL'><div class='vertical-center'>(E)</div></div><div class='respDivR'><div class='vertical-center'>(I)</div></div></div>","E","$12","$35","1","12","35","RISKY"
"html-keyboard-response","96","162840","0.0-5.0-3.30","6362c4beb39ee39d15890c5c","bdp_rd","Mon Mar 27 2023 23:14:34 GMT-0400 (GMT-04:00)","245994","","null","","","","offerFB","","<div class='trialBorder'><div class='vertical-center'><img style='vertical-align:center; align:center' src=img/fixation3.jpg></div><div class='cl'><div class='vertical-center'><font style='color:orange'>$35<br>with a<br>50% chance</font></div></div><div class='cr'><div class='vertical-center'>$12<br>for<br>sure</div></div><div class='respDivL'><div class='vertical-center'><font style='color:orange'>(E)</font></div></div><div class='respDivR'><div class='vertical-center'>(I)</div></div></div>","null","$12","$35","1","12","35",""
"html-keyboard-response","97","163342","0.0-5.0-1.31","6362c4beb39ee39d15890c5c","bdp_rd","Mon Mar 27 2023 23:14:34 GMT-0400 (GMT-04:00)","245994","","null","","","","FIX","","<div class='trialBorder'><div class='vertical-center'><img style='vertical-align:center; align:center' src=img/fixation3.jpg></div></div>","null","","","","","",""
"html-keyboard-response","98","164573","0.0-5.0-2.31","6362c4beb39ee39d15890c5c","bdp_rd","Mon Mar 27 2023 23:14:34 GMT-0400 (GMT-04:00)","245994","","1231","","","","offer","","<div class='trialBorder'><div class='vertical-center'><img style='vertical-align:center; align:center' src=img/fixation3.jpg></div><div class='cl'><div class='vertical-center'>$30<br>with a<br>50% chance</div></div><div class='cr'><div class='vertical-center'>$1<br>for<br>sure</div></div><div class='respDivL'><div class='vertical-center'>(E)</div></div><div class='respDivR'><div class='vertical-center'>(I)</div></div></div>","E","$1","$30","1","1","30","RISKY"
"html-keyboard-response","99","164825","0.0-5.0-3.31","6362c4beb39ee39d15890c5c","bdp_rd","Mon Mar 27 2023 23:14:34 GMT-0400 (GMT-04:00)","245994","","null","","","","offerFB","","<div class='trialBorder'><div class='vertical-center'><img style='vertical-align:center; align:center' src=img/fixation3.jpg></div><div class='cl'><div class='vertical-center'><font style='color:orange'>$30<br>with a<br>50% chance</font></div></div><div class='cr'><div class='vertical-center'>$1<br>for<br>sure</div></div><div class='respDivL'><div class='vertical-center'><font style='color:orange'>(E)</font></div></div><div class='respDivR'><div class='vertical-center'>(I)</div></div></div>","null","$1","$30","1","1","30",""
"html-keyboard-response","100","165326","0.0-5.0-1.32","6362c4beb39ee39d15890c5c","bdp_rd","Mon Mar 27 2023 23:14:34 GMT-0400 (GMT-04:00)","245994","","null","","","","FIX","","<div class='trialBorder'><div class='vertical-center'><img style='vertical-align:center; align:center' src=img/fixation3.jpg></div></div>","null","","","","","",""
"html-keyboard-response","101","167765","0.0-5.0-2.32","6362c4beb39ee39d15890c5c","bdp_rd","Mon Mar 27 2023 23:14:34 GMT-0400 (GMT-04:00)","245994","","2438","","","","offer","","<div class='trialBorder'><div class='vertical-center'><img style='vertical-align:center; align:center' src=img/fixation3.jpg></div><div class='cl'><div class='vertical-center'>$20<br>for<br>sure</div></div><div class='cr'><div class='vertical-center'>$37<br>with a<br>50% chance</div></div><div class='respDivL'><div class='vertical-center'>(E)</div></div><div class='respDivR'><div class='vertical-center'>(I)</div></div></div>","E","$20","$37","0","20","37","SURE"
"html-keyboard-response","102","168016","0.0-5.0-3.32","6362c4beb39ee39d15890c5c","bdp_rd","Mon Mar 27 2023 23:14:34 GMT-0400 (GMT-04:00)","245994","","null","","","","offerFB","","<div class='trialBorder'><div class='vertical-center'><img style='vertical-align:center; align:center' src=img/fixation3.jpg></div><div class='cl'><div class='vertical-center'><font style='color:orange'>$20<br>for<br>sure</font></div></div><div class='cr'><div class='vertical-center'>$37<br>with a<br>50% chance</div></div><div class='respDivL'><div class='vertical-center'><font style='color:orange'>(E)</font></div></div><div class='respDivR'><div class='vertical-center'>(I)</div></div></div>","null","$20","$37","0","20","37",""
"html-keyboard-response","103","168519","0.0-5.0-1.33","6362c4beb39ee39d15890c5c","bdp_rd","Mon Mar 27 2023 23:14:34 GMT-0400 (GMT-04:00)","245994","","null","","","","FIX","","<div class='trialBorder'><div class='vertical-center'><img style='vertical-align:center; align:center' src=img/fixation3.jpg></div></div>","null","","","","","",""
"html-keyboard-response","104","173227","0.0-5.0-2.33","6362c4beb39ee39d15890c5c","bdp_rd","Mon Mar 27 2023 23:14:34 GMT-0400 (GMT-04:00)","245994","","4708","","","","offer","","<div class='trialBorder'><div class='vertical-center'><img style='vertical-align:center; align:center' src=img/fixation3.jpg></div><div class='cl'><div class='vertical-center'>$47<br>with a<br>50% chance</div></div><div class='cr'><div class='vertical-center'>$27<br>for<br>sure</div></div><div class='respDivL'><div class='vertical-center'>(E)</div></div><div class='respDivR'><div class='vertical-center'>(I)</div></div></div>","I","$27","$47","1","27","47","SURE"
"html-keyboard-response","105","173479","0.0-5.0-3.33","6362c4beb39ee39d15890c5c","bdp_rd","Mon Mar 27 2023 23:14:34 GMT-0400 (GMT-04:00)","245994","","null","","","","offerFB","","<div class='trialBorder'><div class='vertical-center'><img style='vertical-align:center; align:center' src=img/fixation3.jpg></div><div class='cl'><div class='vertical-center'>$47<br>with a<br>50% chance</div></div><div class='cr'><div class='vertical-center'><font style='color:orange'>$27<br>for<br>sure</font></div></div><div class='respDivL'><div class='vertical-center'>(E)</div></div><div class='respDivR'><div class='vertical-center'><font style='color:orange'>(I)</font></div></div></div>","null","$27","$47","1","27","47",""
"html-keyboard-response","106","173981","0.0-5.0-1.34","6362c4beb39ee39d15890c5c","bdp_rd","Mon Mar 27 2023 23:14:34 GMT-0400 (GMT-04:00)","245994","","null","","","","FIX","","<div class='trialBorder'><div class='vertical-center'><img style='vertical-align:center; align:center' src=img/fixation3.jpg></div></div>","null","","","","","",""
"html-keyboard-response","107","176284","0.0-5.0-2.34","6362c4beb39ee39d15890c5c","bdp_rd","Mon Mar 27 2023 23:14:34 GMT-0400 (GMT-04:00)","245994","","2303","","","","offer","","<div class='trialBorder'><div class='vertical-center'><img style='vertical-align:center; align:center' src=img/fixation3.jpg></div><div class='cl'><div class='vertical-center'>$22<br>with a<br>50% chance</div></div><div class='cr'><div class='vertical-center'>$14<br>for<br>sure</div></div><div class='respDivL'><div class='vertical-center'>(E)</div></div><div class='respDivR'><div class='vertical-center'>(I)</div></div></div>","I","$14","$22","1","14","22","SURE"
"html-keyboard-response","108","176535","0.0-5.0-3.34","6362c4beb39ee39d15890c5c","bdp_rd","Mon Mar 27 2023 23:14:34 GMT-0400 (GMT-04:00)","245994","","null","","","","offerFB","","<div class='trialBorder'><div class='vertical-center'><img style='vertical-align:center; align:center' src=img/fixation3.jpg></div><div class='cl'><div class='vertical-center'>$22<br>with a<br>50% chance</div></div><div class='cr'><div class='vertical-center'><font style='color:orange'>$14<br>for<br>sure</font></div></div><div class='respDivL'><div class='vertical-center'>(E)</div></div><div class='respDivR'><div class='vertical-center'><font style='color:orange'>(I)</font></div></div></div>","null","$14","$22","1","14","22",""
"html-keyboard-response","109","177037","0.0-5.0-1.35","6362c4beb39ee39d15890c5c","bdp_rd","Mon Mar 27 2023 23:14:34 GMT-0400 (GMT-04:00)","245994","","null","","","","FIX","","<div class='trialBorder'><div class='vertical-center'><img style='vertical-align:center; align:center' src=img/fixation3.jpg></div></div>","null","","","","","",""
"html-keyboard-response","110","178075","0.0-5.0-2.35","6362c4beb39ee39d15890c5c","bdp_rd","Mon Mar 27 2023 23:14:34 GMT-0400 (GMT-04:00)","245994","","1038","","","","offer","","<div class='trialBorder'><div class='vertical-center'><img style='vertical-align:center; align:center' src=img/fixation3.jpg></div><div class='cl'><div class='vertical-center'>$45<br>with a<br>50% chance</div></div><div class='cr'><div class='vertical-center'>$8<br>for<br>sure</div></div><div class='respDivL'><div class='vertical-center'>(E)</div></div><div class='respDivR'><div class='vertical-center'>(I)</div></div></div>","E","$8","$45","1","8","45","RISKY"
"html-keyboard-response","111","178327","0.0-5.0-3.35","6362c4beb39ee39d15890c5c","bdp_rd","Mon Mar 27 2023 23:14:34 GMT-0400 (GMT-04:00)","245994","","null","","","","offerFB","","<div class='trialBorder'><div class='vertical-center'><img style='vertical-align:center; align:center' src=img/fixation3.jpg></div><div class='cl'><div class='vertical-center'><font style='color:orange'>$45<br>with a<br>50% chance</font></div></div><div class='cr'><div class='vertical-center'>$8<br>for<br>sure</div></div><div class='respDivL'><div class='vertical-center'><font style='color:orange'>(E)</font></div></div><div class='respDivR'><div class='vertical-center'>(I)</div></div></div>","null","$8","$45","1","8","45",""
"html-keyboard-response","112","178830","0.0-5.0-1.36","6362c4beb39ee39d15890c5c","bdp_rd","Mon Mar 27 2023 23:14:34 GMT-0400 (GMT-04:00)","245994","","null","","","","FIX","","<div class='trialBorder'><div class='vertical-center'><img style='vertical-align:center; align:center' src=img/fixation3.jpg></div></div>","null","","","","","",""
"html-keyboard-response","113","180421","0.0-5.0-2.36","6362c4beb39ee39d15890c5c","bdp_rd","Mon Mar 27 2023 23:14:34 GMT-0400 (GMT-04:00)","245994","","1591","","","","offer","","<div class='trialBorder'><div class='vertical-center'><img style='vertical-align:center; align:center' src=img/fixation3.jpg></div><div class='cl'><div class='vertical-center'>$78<br>with a<br>50% chance</div></div><div class='cr'><div class='vertical-center'>$31<br>for<br>sure</div></div><div class='respDivL'><div class='vertical-center'>(E)</div></div><div class='respDivR'><div class='vertical-center'>(I)</div></div></div>","E","$31","$78","1","31","78","RISKY"
"html-keyboard-response","114","180673","0.0-5.0-3.36","6362c4beb39ee39d15890c5c","bdp_rd","Mon Mar 27 2023 23:14:34 GMT-0400 (GMT-04:00)","245994","","null","","","","offerFB","","<div class='trialBorder'><div class='vertical-center'><img style='vertical-align:center; align:center' src=img/fixation3.jpg></div><div class='cl'><div class='vertical-center'><font style='color:orange'>$78<br>with a<br>50% chance</font></div></div><div class='cr'><div class='vertical-center'>$31<br>for<br>sure</div></div><div class='respDivL'><div class='vertical-center'><font style='color:orange'>(E)</font></div></div><div class='respDivR'><div class='vertical-center'>(I)</div></div></div>","null","$31","$78","1","31","78",""
"html-keyboard-response","115","181175","0.0-5.0-1.37","6362c4beb39ee39d15890c5c","bdp_rd","Mon Mar 27 2023 23:14:34 GMT-0400 (GMT-04:00)","245994","","null","","","","FIX","","<div class='trialBorder'><div class='vertical-center'><img style='vertical-align:center; align:center' src=img/fixation3.jpg></div></div>","null","","","","","",""
"html-keyboard-response","116","182421","0.0-5.0-2.37","6362c4beb39ee39d15890c5c","bdp_rd","Mon Mar 27 2023 23:14:34 GMT-0400 (GMT-04:00)","245994","","1246","","","","offer","","<div class='trialBorder'><div class='vertical-center'><img style='vertical-align:center; align:center' src=img/fixation3.jpg></div><div class='cl'><div class='vertical-center'>$2<br>for<br>sure</div></div><div class='cr'><div class='vertical-center'>$64<br>with a<br>50% chance</div></div><div class='respDivL'><div class='vertical-center'>(E)</div></div><div class='respDivR'><div class='vertical-center'>(I)</div></div></div>","I","$2","$64","0","2","64","RISKY"
"html-keyboard-response","117","182672","0.0-5.0-3.37","6362c4beb39ee39d15890c5c","bdp_rd","Mon Mar 27 2023 23:14:34 GMT-0400 (GMT-04:00)","245994","","null","","","","offerFB","","<div class='trialBorder'><div class='vertical-center'><img style='vertical-align:center; align:center' src=img/fixation3.jpg></div><div class='cl'><div class='vertical-center'>$2<br>for<br>sure</div></div><div class='cr'><div class='vertical-center'><font style='color:orange'>$64<br>with a<br>50% chance</font></div></div><div class='respDivL'><div class='vertical-center'>(E)</div></div><div class='respDivR'><div class='vertical-center'><font style='color:orange'>(I)</font></div></div></div>","null","$2","$64","0","2","64",""
"html-keyboard-response","118","183174","0.0-5.0-1.38","6362c4beb39ee39d15890c5c","bdp_rd","Mon Mar 27 2023 23:14:34 GMT-0400 (GMT-04:00)","245994","","null","","","","FIX","","<div class='trialBorder'><div class='vertical-center'><img style='vertical-align:center; align:center' src=img/fixation3.jpg></div></div>","null","","","","","",""
"html-keyboard-response","119","186029","0.0-5.0-2.38","6362c4beb39ee39d15890c5c","bdp_rd","Mon Mar 27 2023 23:14:34 GMT-0400 (GMT-04:00)","245994","","2854","","","","offer","","<div class='trialBorder'><div class='vertical-center'><img style='vertical-align:center; align:center' src=img/fixation3.jpg></div><div class='cl'><div class='vertical-center'>$12<br>with a<br>50% chance</div></div><div class='cr'><div class='vertical-center'>$3<br>for<br>sure</div></div><div class='respDivL'><div class='vertical-center'>(E)</div></div><div class='respDivR'><div class='vertical-center'>(I)</div></div></div>","E","$3","$12","1","3","12","RISKY"
"html-keyboard-response","120","186280","0.0-5.0-3.38","6362c4beb39ee39d15890c5c","bdp_rd","Mon Mar 27 2023 23:14:34 GMT-0400 (GMT-04:00)","245994","","null","","","","offerFB","","<div class='trialBorder'><div class='vertical-center'><img style='vertical-align:center; align:center' src=img/fixation3.jpg></div><div class='cl'><div class='vertical-center'><font style='color:orange'>$12<br>with a<br>50% chance</font></div></div><div class='cr'><div class='vertical-center'>$3<br>for<br>sure</div></div><div class='respDivL'><div class='vertical-center'><font style='color:orange'>(E)</font></div></div><div class='respDivR'><div class='vertical-center'>(I)</div></div></div>","null","$3","$12","1","3","12",""
"html-keyboard-response","121","186781","0.0-5.0-1.39","6362c4beb39ee39d15890c5c","bdp_rd","Mon Mar 27 2023 23:14:34 GMT-0400 (GMT-04:00)","245994","","null","","","","FIX","","<div class='trialBorder'><div class='vertical-center'><img style='vertical-align:center; align:center' src=img/fixation3.jpg></div></div>","null","","","","","",""
"html-keyboard-response","122","188453","0.0-5.0-2.39","6362c4beb39ee39d15890c5c","bdp_rd","Mon Mar 27 2023 23:14:34 GMT-0400 (GMT-04:00)","245994","","1671","","","","offer","","<div class='trialBorder'><div class='vertical-center'><img style='vertical-align:center; align:center' src=img/fixation3.jpg></div><div class='cl'><div class='vertical-center'>$10<br>with a<br>50% chance</div></div><div class='cr'><div class='vertical-center'>$7<br>for<br>sure</div></div><div class='respDivL'><div class='vertical-center'>(E)</div></div><div class='respDivR'><div class='vertical-center'>(I)</div></div></div>","I","$7","$10","1","7","10","SURE"
"html-keyboard-response","123","188704","0.0-5.0-3.39","6362c4beb39ee39d15890c5c","bdp_rd","Mon Mar 27 2023 23:14:34 GMT-0400 (GMT-04:00)","245994","","null","","","","offerFB","","<div class='trialBorder'><div class='vertical-center'><img style='vertical-align:center; align:center' src=img/fixation3.jpg></div><div class='cl'><div class='vertical-center'>$10<br>with a<br>50% chance</div></div><div class='cr'><div class='vertical-center'><font style='color:orange'>$7<br>for<br>sure</font></div></div><div class='respDivL'><div class='vertical-center'>(E)</div></div><div class='respDivR'><div class='vertical-center'><font style='color:orange'>(I)</font></div></div></div>","null","$7","$10","1","7","10",""
"html-keyboard-response","124","189206","0.0-5.0-1.40","6362c4beb39ee39d15890c5c","bdp_rd","Mon Mar 27 2023 23:14:34 GMT-0400 (GMT-04:00)","245994","","null","","","","FIX","","<div class='trialBorder'><div class='vertical-center'><img style='vertical-align:center; align:center' src=img/fixation3.jpg></div></div>","null","","","","","",""
"html-keyboard-response","125","190772","0.0-5.0-2.40","6362c4beb39ee39d15890c5c","bdp_rd","Mon Mar 27 2023 23:14:34 GMT-0400 (GMT-04:00)","245994","","1566","","","","offer","","<div class='trialBorder'><div class='vertical-center'><img style='vertical-align:center; align:center' src=img/fixation3.jpg></div><div class='cl'><div class='vertical-center'>$46<br>for<br>sure</div></div><div class='cr'><div class='vertical-center'>$65<br>with a<br>50% chance</div></div><div class='respDivL'><div class='vertical-center'>(E)</div></div><div class='respDivR'><div class='vertical-center'>(I)</div></div></div>","I","$46","$65","0","46","65","RISKY"
"html-keyboard-response","126","191023","0.0-5.0-3.40","6362c4beb39ee39d15890c5c","bdp_rd","Mon Mar 27 2023 23:14:34 GMT-0400 (GMT-04:00)","245994","","null","","","","offerFB","","<div class='trialBorder'><div class='vertical-center'><img style='vertical-align:center; align:center' src=img/fixation3.jpg></div><div class='cl'><div class='vertical-center'>$46<br>for<br>sure</div></div><div class='cr'><div class='vertical-center'><font style='color:orange'>$65<br>with a<br>50% chance</font></div></div><div class='respDivL'><div class='vertical-center'>(E)</div></div><div class='respDivR'><div class='vertical-center'><font style='color:orange'>(I)</font></div></div></div>","null","$46","$65","0","46","65",""
"html-keyboard-response","127","191525","0.0-5.0-1.41","6362c4beb39ee39d15890c5c","bdp_rd","Mon Mar 27 2023 23:14:34 GMT-0400 (GMT-04:00)","245994","","null","","","","FIX","","<div class='trialBorder'><div class='vertical-center'><img style='vertical-align:center; align:center' src=img/fixation3.jpg></div></div>","null","","","","","",""
"html-keyboard-response","128","194476","0.0-5.0-2.41","6362c4beb39ee39d15890c5c","bdp_rd","Mon Mar 27 2023 23:14:34 GMT-0400 (GMT-04:00)","245994","","2950","","","","offer","","<div class='trialBorder'><div class='vertical-center'><img style='vertical-align:center; align:center' src=img/fixation3.jpg></div><div class='cl'><div class='vertical-center'>$51<br>with a<br>50% chance</div></div><div class='cr'><div class='vertical-center'>$19<br>for<br>sure</div></div><div class='respDivL'><div class='vertical-center'>(E)</div></div><div class='respDivR'><div class='vertical-center'>(I)</div></div></div>","E","$19","$51","1","19","51","RISKY"
"html-keyboard-response","129","194729","0.0-5.0-3.41","6362c4beb39ee39d15890c5c","bdp_rd","Mon Mar 27 2023 23:14:34 GMT-0400 (GMT-04:00)","245994","","null","","","","offerFB","","<div class='trialBorder'><div class='vertical-center'><img style='vertical-align:center; align:center' src=img/fixation3.jpg></div><div class='cl'><div class='vertical-center'><font style='color:orange'>$51<br>with a<br>50% chance</font></div></div><div class='cr'><div class='vertical-center'>$19<br>for<br>sure</div></div><div class='respDivL'><div class='vertical-center'><font style='color:orange'>(E)</font></div></div><div class='respDivR'><div class='vertical-center'>(I)</div></div></div>","null","$19","$51","1","19","51",""
"html-keyboard-response","130","195230","0.0-5.0-1.42","6362c4beb39ee39d15890c5c","bdp_rd","Mon Mar 27 2023 23:14:34 GMT-0400 (GMT-04:00)","245994","","null","","","","FIX","","<div class='trialBorder'><div class='vertical-center'><img style='vertical-align:center; align:center' src=img/fixation3.jpg></div></div>","null","","","","","",""
"html-keyboard-response","131","196301","0.0-5.0-2.42","6362c4beb39ee39d15890c5c","bdp_rd","Mon Mar 27 2023 23:14:34 GMT-0400 (GMT-04:00)","245994","","1070","","","","offer","","<div class='trialBorder'><div class='vertical-center'><img style='vertical-align:center; align:center' src=img/fixation3.jpg></div><div class='cl'><div class='vertical-center'>$26<br>for<br>sure</div></div><div class='cr'><div class='vertical-center'>$92<br>with a<br>50% chance</div></div><div class='respDivL'><div class='vertical-center'>(E)</div></div><div class='respDivR'><div class='vertical-center'>(I)</div></div></div>","I","$26","$92","0","26","92","RISKY"
"html-keyboard-response","132","196552","0.0-5.0-3.42","6362c4beb39ee39d15890c5c","bdp_rd","Mon Mar 27 2023 23:14:34 GMT-0400 (GMT-04:00)","245994","","null","","","","offerFB","","<div class='trialBorder'><div class='vertical-center'><img style='vertical-align:center; align:center' src=img/fixation3.jpg></div><div class='cl'><div class='vertical-center'>$26<br>for<br>sure</div></div><div class='cr'><div class='vertical-center'><font style='color:orange'>$92<br>with a<br>50% chance</font></div></div><div class='respDivL'><div class='vertical-center'>(E)</div></div><div class='respDivR'><div class='vertical-center'><font style='color:orange'>(I)</font></div></div></div>","null","$26","$92","0","26","92",""
"html-keyboard-response","133","197055","0.0-5.0-1.43","6362c4beb39ee39d15890c5c","bdp_rd","Mon Mar 27 2023 23:14:34 GMT-0400 (GMT-04:00)","245994","","null","","","","FIX","","<div class='trialBorder'><div class='vertical-center'><img style='vertical-align:center; align:center' src=img/fixation3.jpg></div></div>","null","","","","","",""
"html-keyboard-response","134","198284","0.0-5.0-2.43","6362c4beb39ee39d15890c5c","bdp_rd","Mon Mar 27 2023 23:14:34 GMT-0400 (GMT-04:00)","245994","","1229","","","","offer","","<div class='trialBorder'><div class='vertical-center'><img style='vertical-align:center; align:center' src=img/fixation3.jpg></div><div class='cl'><div class='vertical-center'>$70<br>with a<br>50% chance</div></div><div class='cr'><div class='vertical-center'>$24<br>for<br>sure</div></div><div class='respDivL'><div class='vertical-center'>(E)</div></div><div class='respDivR'><div class='vertical-center'>(I)</div></div></div>","E","$24","$70","1","24","70","RISKY"
"html-keyboard-response","135","198537","0.0-5.0-3.43","6362c4beb39ee39d15890c5c","bdp_rd","Mon Mar 27 2023 23:14:34 GMT-0400 (GMT-04:00)","245994","","null","","","","offerFB","","<div class='trialBorder'><div class='vertical-center'><img style='vertical-align:center; align:center' src=img/fixation3.jpg></div><div class='cl'><div class='vertical-center'><font style='color:orange'>$70<br>with a<br>50% chance</font></div></div><div class='cr'><div class='vertical-center'>$24<br>for<br>sure</div></div><div class='respDivL'><div class='vertical-center'><font style='color:orange'>(E)</font></div></div><div class='respDivR'><div class='vertical-center'>(I)</div></div></div>","null","$24","$70","1","24","70",""
"html-keyboard-response","136","199038","0.0-5.0-1.44","6362c4beb39ee39d15890c5c","bdp_rd","Mon Mar 27 2023 23:14:34 GMT-0400 (GMT-04:00)","245994","","null","","","","FIX","","<div class='trialBorder'><div class='vertical-center'><img style='vertical-align:center; align:center' src=img/fixation3.jpg></div></div>","null","","","","","",""
"html-keyboard-response","137","201197","0.0-5.0-2.44","6362c4beb39ee39d15890c5c","bdp_rd","Mon Mar 27 2023 23:14:34 GMT-0400 (GMT-04:00)","245994","","2158","","","","offer","","<div class='trialBorder'><div class='vertical-center'><img style='vertical-align:center; align:center' src=img/fixation3.jpg></div><div class='cl'><div class='vertical-center'>$53<br>for<br>sure</div></div><div class='cr'><div class='vertical-center'>$98<br>with a<br>50% chance</div></div><div class='respDivL'><div class='vertical-center'>(E)</div></div><div class='respDivR'><div class='vertical-center'>(I)</div></div></div>","E","$53","$98","0","53","98","SURE"
"html-keyboard-response","138","201448","0.0-5.0-3.44","6362c4beb39ee39d15890c5c","bdp_rd","Mon Mar 27 2023 23:14:34 GMT-0400 (GMT-04:00)","245994","","null","","","","offerFB","","<div class='trialBorder'><div class='vertical-center'><img style='vertical-align:center; align:center' src=img/fixation3.jpg></div><div class='cl'><div class='vertical-center'><font style='color:orange'>$53<br>for<br>sure</font></div></div><div class='cr'><div class='vertical-center'>$98<br>with a<br>50% chance</div></div><div class='respDivL'><div class='vertical-center'><font style='color:orange'>(E)</font></div></div><div class='respDivR'><div class='vertical-center'>(I)</div></div></div>","null","$53","$98","0","53","98",""
"html-keyboard-response","139","201950","0.0-5.0-1.45","6362c4beb39ee39d15890c5c","bdp_rd","Mon Mar 27 2023 23:14:34 GMT-0400 (GMT-04:00)","245994","","null","","","","FIX","","<div class='trialBorder'><div class='vertical-center'><img style='vertical-align:center; align:center' src=img/fixation3.jpg></div></div>","null","","","","","",""
"html-keyboard-response","140","204733","0.0-5.0-2.45","6362c4beb39ee39d15890c5c","bdp_rd","Mon Mar 27 2023 23:14:34 GMT-0400 (GMT-04:00)","245994","","2782","","","","offer","","<div class='trialBorder'><div class='vertical-center'><img style='vertical-align:center; align:center' src=img/fixation3.jpg></div><div class='cl'><div class='vertical-center'>$34<br>for<br>sure</div></div><div class='cr'><div class='vertical-center'>$48<br>with a<br>50% chance</div></div><div class='respDivL'><div class='vertical-center'>(E)</div></div><div class='respDivR'><div class='vertical-center'>(I)</div></div></div>","E","$34","$48","0","34","48","SURE"
"html-keyboard-response","141","204985","0.0-5.0-3.45","6362c4beb39ee39d15890c5c","bdp_rd","Mon Mar 27 2023 23:14:34 GMT-0400 (GMT-04:00)","245994","","null","","","","offerFB","","<div class='trialBorder'><div class='vertical-center'><img style='vertical-align:center; align:center' src=img/fixation3.jpg></div><div class='cl'><div class='vertical-center'><font style='color:orange'>$34<br>for<br>sure</font></div></div><div class='cr'><div class='vertical-center'>$48<br>with a<br>50% chance</div></div><div class='respDivL'><div class='vertical-center'><font style='color:orange'>(E)</font></div></div><div class='respDivR'><div class='vertical-center'>(I)</div></div></div>","null","$34","$48","0","34","48",""
"html-keyboard-response","142","205486","0.0-5.0-1.46","6362c4beb39ee39d15890c5c","bdp_rd","Mon Mar 27 2023 23:14:34 GMT-0400 (GMT-04:00)","245994","","null","","","","FIX","","<div class='trialBorder'><div class='vertical-center'><img style='vertical-align:center; align:center' src=img/fixation3.jpg></div></div>","null","","","","","",""
"html-keyboard-response","143","207013","0.0-5.0-2.46","6362c4beb39ee39d15890c5c","bdp_rd","Mon Mar 27 2023 23:14:34 GMT-0400 (GMT-04:00)","245994","","1526","","","","offer","","<div class='trialBorder'><div class='vertical-center'><img style='vertical-align:center; align:center' src=img/fixation3.jpg></div><div class='cl'><div class='vertical-center'>$40<br>for<br>sure</div></div><div class='cr'><div class='vertical-center'>$95<br>with a<br>50% chance</div></div><div class='respDivL'><div class='vertical-center'>(E)</div></div><div class='respDivR'><div class='vertical-center'>(I)</div></div></div>","I","$40","$95","0","40","95","RISKY"
"html-keyboard-response","144","207264","0.0-5.0-3.46","6362c4beb39ee39d15890c5c","bdp_rd","Mon Mar 27 2023 23:14:34 GMT-0400 (GMT-04:00)","245994","","null","","","","offerFB","","<div class='trialBorder'><div class='vertical-center'><img style='vertical-align:center; align:center' src=img/fixation3.jpg></div><div class='cl'><div class='vertical-center'>$40<br>for<br>sure</div></div><div class='cr'><div class='vertical-center'><font style='color:orange'>$95<br>with a<br>50% chance</font></div></div><div class='respDivL'><div class='vertical-center'>(E)</div></div><div class='respDivR'><div class='vertical-center'><font style='color:orange'>(I)</font></div></div></div>","null","$40","$95","0","40","95",""
"html-keyboard-response","145","207765","0.0-5.0-1.47","6362c4beb39ee39d15890c5c","bdp_rd","Mon Mar 27 2023 23:14:34 GMT-0400 (GMT-04:00)","245994","","null","","","","FIX","","<div class='trialBorder'><div class='vertical-center'><img style='vertical-align:center; align:center' src=img/fixation3.jpg></div></div>","null","","","","","",""
"html-keyboard-response","146","209405","0.0-5.0-2.47","6362c4beb39ee39d15890c5c","bdp_rd","Mon Mar 27 2023 23:14:34 GMT-0400 (GMT-04:00)","245994","","1640","","","","offer","","<div class='trialBorder'><div class='vertical-center'><img style='vertical-align:center; align:center' src=img/fixation3.jpg></div><div class='cl'><div class='vertical-center'>$23<br>with a<br>50% chance</div></div><div class='cr'><div class='vertical-center'>$8<br>for<br>sure</div></div><div class='respDivL'><div class='vertical-center'>(E)</div></div><div class='respDivR'><div class='vertical-center'>(I)</div></div></div>","E","$8","$23","1","8","23","RISKY"
"html-keyboard-response","147","209657","0.0-5.0-3.47","6362c4beb39ee39d15890c5c","bdp_rd","Mon Mar 27 2023 23:14:34 GMT-0400 (GMT-04:00)","245994","","null","","","","offerFB","","<div class='trialBorder'><div class='vertical-center'><img style='vertical-align:center; align:center' src=img/fixation3.jpg></div><div class='cl'><div class='vertical-center'><font style='color:orange'>$23<br>with a<br>50% chance</font></div></div><div class='cr'><div class='vertical-center'>$8<br>for<br>sure</div></div><div class='respDivL'><div class='vertical-center'><font style='color:orange'>(E)</font></div></div><div class='respDivR'><div class='vertical-center'>(I)</div></div></div>","null","$8","$23","1","8","23",""
"html-keyboard-response","148","210159","0.0-5.0-1.48","6362c4beb39ee39d15890c5c","bdp_rd","Mon Mar 27 2023 23:14:34 GMT-0400 (GMT-04:00)","245994","","null","","","","FIX","","<div class='trialBorder'><div class='vertical-center'><img style='vertical-align:center; align:center' src=img/fixation3.jpg></div></div>","null","","","","","",""
"html-keyboard-response","149","212812","0.0-5.0-2.48","6362c4beb39ee39d15890c5c","bdp_rd","Mon Mar 27 2023 23:14:34 GMT-0400 (GMT-04:00)","245994","","2653","","","","offer","","<div class='trialBorder'><div class='vertical-center'><img style='vertical-align:center; align:center' src=img/fixation3.jpg></div><div class='cl'><div class='vertical-center'>$30<br>for<br>sure</div></div><div class='cr'><div class='vertical-center'>$68<br>with a<br>50% chance</div></div><div class='respDivL'><div class='vertical-center'>(E)</div></div><div class='respDivR'><div class='vertical-center'>(I)</div></div></div>","I","$30","$68","0","30","68","RISKY"
"html-keyboard-response","150","213063","0.0-5.0-3.48","6362c4beb39ee39d15890c5c","bdp_rd","Mon Mar 27 2023 23:14:34 GMT-0400 (GMT-04:00)","245994","","null","","","","offerFB","","<div class='trialBorder'><div class='vertical-center'><img style='vertical-align:center; align:center' src=img/fixation3.jpg></div><div class='cl'><div class='vertical-center'>$30<br>for<br>sure</div></div><div class='cr'><div class='vertical-center'><font style='color:orange'>$68<br>with a<br>50% chance</font></div></div><div class='respDivL'><div class='vertical-center'>(E)</div></div><div class='respDivR'><div class='vertical-center'><font style='color:orange'>(I)</font></div></div></div>","null","$30","$68","0","30","68",""
"html-keyboard-response","151","213565","0.0-5.0-1.49","6362c4beb39ee39d15890c5c","bdp_rd","Mon Mar 27 2023 23:14:34 GMT-0400 (GMT-04:00)","245994","","null","","","","FIX","","<div class='trialBorder'><div class='vertical-center'><img style='vertical-align:center; align:center' src=img/fixation3.jpg></div></div>","null","","","","","",""
"html-keyboard-response","152","214636","0.0-5.0-2.49","6362c4beb39ee39d15890c5c","bdp_rd","Mon Mar 27 2023 23:14:34 GMT-0400 (GMT-04:00)","245994","","1071","","","","offer","","<div class='trialBorder'><div class='vertical-center'><img style='vertical-align:center; align:center' src=img/fixation3.jpg></div><div class='cl'><div class='vertical-center'>$5<br>for<br>sure</div></div><div class='cr'><div class='vertical-center'>$50<br>with a<br>50% chance</div></div><div class='respDivL'><div class='vertical-center'>(E)</div></div><div class='respDivR'><div class='vertical-center'>(I)</div></div></div>","I","$5","$50","0","5","50","RISKY"
"html-keyboard-response","153","214888","0.0-5.0-3.49","6362c4beb39ee39d15890c5c","bdp_rd","Mon Mar 27 2023 23:14:34 GMT-0400 (GMT-04:00)","245994","","null","","","","offerFB","","<div class='trialBorder'><div class='vertical-center'><img style='vertical-align:center; align:center' src=img/fixation3.jpg></div><div class='cl'><div class='vertical-center'>$5<br>for<br>sure</div></div><div class='cr'><div class='vertical-center'><font style='color:orange'>$50<br>with a<br>50% chance</font></div></div><div class='respDivL'><div class='vertical-center'>(E)</div></div><div class='respDivR'><div class='vertical-center'><font style='color:orange'>(I)</font></div></div></div>","null","$5","$50","0","5","50",""
"html-keyboard-response","154","215389","0.0-5.0-1.50","6362c4beb39ee39d15890c5c","bdp_rd","Mon Mar 27 2023 23:14:34 GMT-0400 (GMT-04:00)","245994","","null","","","","FIX","","<div class='trialBorder'><div class='vertical-center'><img style='vertical-align:center; align:center' src=img/fixation3.jpg></div></div>","null","","","","","",""
"html-keyboard-response","155","218475","0.0-5.0-2.50","6362c4beb39ee39d15890c5c","bdp_rd","Mon Mar 27 2023 23:14:34 GMT-0400 (GMT-04:00)","245994","","3086","","","","offer","","<div class='trialBorder'><div class='vertical-center'><img style='vertical-align:center; align:center' src=img/fixation3.jpg></div><div class='cl'><div class='vertical-center'>$31<br>with a<br>50% chance</div></div><div class='cr'><div class='vertical-center'>$15<br>for<br>sure</div></div><div class='respDivL'><div class='vertical-center'>(E)</div></div><div class='respDivR'><div class='vertical-center'>(I)</div></div></div>","I","$15","$31","1","15","31","SURE"
"html-keyboard-response","156","218726","0.0-5.0-3.50","6362c4beb39ee39d15890c5c","bdp_rd","Mon Mar 27 2023 23:14:34 GMT-0400 (GMT-04:00)","245994","","null","","","","offerFB","","<div class='trialBorder'><div class='vertical-center'><img style='vertical-align:center; align:center' src=img/fixation3.jpg></div><div class='cl'><div class='vertical-center'>$31<br>with a<br>50% chance</div></div><div class='cr'><div class='vertical-center'><font style='color:orange'>$15<br>for<br>sure</font></div></div><div class='respDivL'><div class='vertical-center'>(E)</div></div><div class='respDivR'><div class='vertical-center'><font style='color:orange'>(I)</font></div></div></div>","null","$15","$31","1","15","31",""
"html-keyboard-response","157","219228","0.0-5.0-1.51","6362c4beb39ee39d15890c5c","bdp_rd","Mon Mar 27 2023 23:14:34 GMT-0400 (GMT-04:00)","245994","","null","","","","FIX","","<div class='trialBorder'><div class='vertical-center'><img style='vertical-align:center; align:center' src=img/fixation3.jpg></div></div>","null","","","","","",""
"html-keyboard-response","158","220853","0.0-5.0-2.51","6362c4beb39ee39d15890c5c","bdp_rd","Mon Mar 27 2023 23:14:34 GMT-0400 (GMT-04:00)","245994","","1625","","","","offer","","<div class='trialBorder'><div class='vertical-center'><img style='vertical-align:center; align:center' src=img/fixation3.jpg></div><div class='cl'><div class='vertical-center'>$28<br>for<br>sure</div></div><div class='cr'><div class='vertical-center'>$89<br>with a<br>50% chance</div></div><div class='respDivL'><div class='vertical-center'>(E)</div></div><div class='respDivR'><div class='vertical-center'>(I)</div></div></div>","I","$28","$89","0","28","89","RISKY"
"html-keyboard-response","159","221106","0.0-5.0-3.51","6362c4beb39ee39d15890c5c","bdp_rd","Mon Mar 27 2023 23:14:34 GMT-0400 (GMT-04:00)","245994","","null","","","","offerFB","","<div class='trialBorder'><div class='vertical-center'><img style='vertical-align:center; align:center' src=img/fixation3.jpg></div><div class='cl'><div class='vertical-center'>$28<br>for<br>sure</div></div><div class='cr'><div class='vertical-center'><font style='color:orange'>$89<br>with a<br>50% chance</font></div></div><div class='respDivL'><div class='vertical-center'>(E)</div></div><div class='respDivR'><div class='vertical-center'><font style='color:orange'>(I)</font></div></div></div>","null","$28","$89","0","28","89",""
"html-keyboard-response","160","221609","0.0-5.0-1.52","6362c4beb39ee39d15890c5c","bdp_rd","Mon Mar 27 2023 23:14:34 GMT-0400 (GMT-04:00)","245994","","null","","","","FIX","","<div class='trialBorder'><div class='vertical-center'><img style='vertical-align:center; align:center' src=img/fixation3.jpg></div></div>","null","","","","","",""
"html-keyboard-response","161","223500","0.0-5.0-2.52","6362c4beb39ee39d15890c5c","bdp_rd","Mon Mar 27 2023 23:14:34 GMT-0400 (GMT-04:00)","245994","","1891","","","","offer","","<div class='trialBorder'><div class='vertical-center'><img style='vertical-align:center; align:center' src=img/fixation3.jpg></div><div class='cl'><div class='vertical-center'>$14<br>for<br>sure</div></div><div class='cr'><div class='vertical-center'>$29<br>with a<br>50% chance</div></div><div class='respDivL'><div class='vertical-center'>(E)</div></div><div class='respDivR'><div class='vertical-center'>(I)</div></div></div>","I","$14","$29","0","14","29","RISKY"
"html-keyboard-response","162","223753","0.0-5.0-3.52","6362c4beb39ee39d15890c5c","bdp_rd","Mon Mar 27 2023 23:14:34 GMT-0400 (GMT-04:00)","245994","","null","","","","offerFB","","<div class='trialBorder'><div class='vertical-center'><img style='vertical-align:center; align:center' src=img/fixation3.jpg></div><div class='cl'><div class='vertical-center'>$14<br>for<br>sure</div></div><div class='cr'><div class='vertical-center'><font style='color:orange'>$29<br>with a<br>50% chance</font></div></div><div class='respDivL'><div class='vertical-center'>(E)</div></div><div class='respDivR'><div class='vertical-center'><font style='color:orange'>(I)</font></div></div></div>","null","$14","$29","0","14","29",""
"html-keyboard-response","163","224255","0.0-5.0-1.53","6362c4beb39ee39d15890c5c","bdp_rd","Mon Mar 27 2023 23:14:34 GMT-0400 (GMT-04:00)","245994","","null","","","","FIX","","<div class='trialBorder'><div class='vertical-center'><img style='vertical-align:center; align:center' src=img/fixation3.jpg></div></div>","null","","","","","",""
"html-keyboard-response","164","226509","0.0-5.0-2.53","6362c4beb39ee39d15890c5c","bdp_rd","Mon Mar 27 2023 23:14:34 GMT-0400 (GMT-04:00)","245994","","2254","","","","offer","","<div class='trialBorder'><div class='vertical-center'><img style='vertical-align:center; align:center' src=img/fixation3.jpg></div><div class='cl'><div class='vertical-center'>$19<br>with a<br>50% chance</div></div><div class='cr'><div class='vertical-center'>$10<br>for<br>sure</div></div><div class='respDivL'><div class='vertical-center'>(E)</div></div><div class='respDivR'><div class='vertical-center'>(I)</div></div></div>","I","$10","$19","1","10","19","SURE"
"html-keyboard-response","165","226760","0.0-5.0-3.53","6362c4beb39ee39d15890c5c","bdp_rd","Mon Mar 27 2023 23:14:34 GMT-0400 (GMT-04:00)","245994","","null","","","","offerFB","","<div class='trialBorder'><div class='vertical-center'><img style='vertical-align:center; align:center' src=img/fixation3.jpg></div><div class='cl'><div class='vertical-center'>$19<br>with a<br>50% chance</div></div><div class='cr'><div class='vertical-center'><font style='color:orange'>$10<br>for<br>sure</font></div></div><div class='respDivL'><div class='vertical-center'>(E)</div></div><div class='respDivR'><div class='vertical-center'><font style='color:orange'>(I)</font></div></div></div>","null","$10","$19","1","10","19",""
"html-keyboard-response","166","227261","0.0-5.0-1.54","6362c4beb39ee39d15890c5c","bdp_rd","Mon Mar 27 2023 23:14:34 GMT-0400 (GMT-04:00)","245994","","null","","","","FIX","","<div class='trialBorder'><div class='vertical-center'><img style='vertical-align:center; align:center' src=img/fixation3.jpg></div></div>","null","","","","","",""
"html-keyboard-response","167","230685","0.0-5.0-2.54","6362c4beb39ee39d15890c5c","bdp_rd","Mon Mar 27 2023 23:14:34 GMT-0400 (GMT-04:00)","245994","","3424","","","","offer","","<div class='trialBorder'><div class='vertical-center'><img style='vertical-align:center; align:center' src=img/fixation3.jpg></div><div class='cl'><div class='vertical-center'>$16<br>for<br>sure</div></div><div class='cr'><div class='vertical-center'>$38<br>with a<br>50% chance</div></div><div class='respDivL'><div class='vertical-center'>(E)</div></div><div class='respDivR'><div class='vertical-center'>(I)</div></div></div>","E","$16","$38","0","16","38","SURE"
"html-keyboard-response","168","230936","0.0-5.0-3.54","6362c4beb39ee39d15890c5c","bdp_rd","Mon Mar 27 2023 23:14:34 GMT-0400 (GMT-04:00)","245994","","null","","","","offerFB","","<div class='trialBorder'><div class='vertical-center'><img style='vertical-align:center; align:center' src=img/fixation3.jpg></div><div class='cl'><div class='vertical-center'><font style='color:orange'>$16<br>for<br>sure</font></div></div><div class='cr'><div class='vertical-center'>$38<br>with a<br>50% chance</div></div><div class='respDivL'><div class='vertical-center'><font style='color:orange'>(E)</font></div></div><div class='respDivR'><div class='vertical-center'>(I)</div></div></div>","null","$16","$38","0","16","38",""
"html-keyboard-response","169","231438","0.0-5.0-1.55","6362c4beb39ee39d15890c5c","bdp_rd","Mon Mar 27 2023 23:14:34 GMT-0400 (GMT-04:00)","245994","","null","","","","FIX","","<div class='trialBorder'><div class='vertical-center'><img style='vertical-align:center; align:center' src=img/fixation3.jpg></div></div>","null","","","","","",""
"html-keyboard-response","170","234445","0.0-5.0-2.55","6362c4beb39ee39d15890c5c","bdp_rd","Mon Mar 27 2023 23:14:34 GMT-0400 (GMT-04:00)","245994","","3006","","","","offer","","<div class='trialBorder'><div class='vertical-center'><img style='vertical-align:center; align:center' src=img/fixation3.jpg></div><div class='cl'><div class='vertical-center'>$6<br>for<br>sure</div></div><div class='cr'><div class='vertical-center'>$13<br>with a<br>50% chance</div></div><div class='respDivL'><div class='vertical-center'>(E)</div></div><div class='respDivR'><div class='vertical-center'>(I)</div></div></div>","E","$6","$13","0","6","13","SURE"
"html-keyboard-response","171","234697","0.0-5.0-3.55","6362c4beb39ee39d15890c5c","bdp_rd","Mon Mar 27 2023 23:14:34 GMT-0400 (GMT-04:00)","245994","","null","","","","offerFB","","<div class='trialBorder'><div class='vertical-center'><img style='vertical-align:center; align:center' src=img/fixation3.jpg></div><div class='cl'><div class='vertical-center'><font style='color:orange'>$6<br>for<br>sure</font></div></div><div class='cr'><div class='vertical-center'>$13<br>with a<br>50% chance</div></div><div class='respDivL'><div class='vertical-center'><font style='color:orange'>(E)</font></div></div><div class='respDivR'><div class='vertical-center'>(I)</div></div></div>","null","$6","$13","0","6","13",""
"html-keyboard-response","172","235199","0.0-5.0-1.56","6362c4beb39ee39d15890c5c","bdp_rd","Mon Mar 27 2023 23:14:34 GMT-0400 (GMT-04:00)","245994","","null","","","","FIX","","<div class='trialBorder'><div class='vertical-center'><img style='vertical-align:center; align:center' src=img/fixation3.jpg></div></div>","null","","","","","",""
"html-keyboard-response","173","237109","0.0-5.0-2.56","6362c4beb39ee39d15890c5c","bdp_rd","Mon Mar 27 2023 23:14:34 GMT-0400 (GMT-04:00)","245994","","1910","","","","offer","","<div class='trialBorder'><div class='vertical-center'><img style='vertical-align:center; align:center' src=img/fixation3.jpg></div><div class='cl'><div class='vertical-center'>$1<br>for<br>sure</div></div><div class='cr'><div class='vertical-center'>$33<br>with a<br>50% chance</div></div><div class='respDivL'><div class='vertical-center'>(E)</div></div><div class='respDivR'><div class='vertical-center'>(I)</div></div></div>","I","$1","$33","0","1","33","RISKY"
"html-keyboard-response","174","237361","0.0-5.0-3.56","6362c4beb39ee39d15890c5c","bdp_rd","Mon Mar 27 2023 23:14:34 GMT-0400 (GMT-04:00)","245994","","null","","","","offerFB","","<div class='trialBorder'><div class='vertical-center'><img style='vertical-align:center; align:center' src=img/fixation3.jpg></div><div class='cl'><div class='vertical-center'>$1<br>for<br>sure</div></div><div class='cr'><div class='vertical-center'><font style='color:orange'>$33<br>with a<br>50% chance</font></div></div><div class='respDivL'><div class='vertical-center'>(E)</div></div><div class='respDivR'><div class='vertical-center'><font style='color:orange'>(I)</font></div></div></div>","null","$1","$33","0","1","33",""
"html-keyboard-response","175","237863","0.0-5.0-1.57","6362c4beb39ee39d15890c5c","bdp_rd","Mon Mar 27 2023 23:14:34 GMT-0400 (GMT-04:00)","245994","","null","","","","FIX","","<div class='trialBorder'><div class='vertical-center'><img style='vertical-align:center; align:center' src=img/fixation3.jpg></div></div>","null","","","","","",""
"html-keyboard-response","176","239517","0.0-5.0-2.57","6362c4beb39ee39d15890c5c","bdp_rd","Mon Mar 27 2023 23:14:34 GMT-0400 (GMT-04:00)","245994","","1653","","","","offer","","<div class='trialBorder'><div class='vertical-center'><img style='vertical-align:center; align:center' src=img/fixation3.jpg></div><div class='cl'><div class='vertical-center'>$41<br>with a<br>50% chance</div></div><div class='cr'><div class='vertical-center'>$13<br>for<br>sure</div></div><div class='respDivL'><div class='vertical-center'>(E)</div></div><div class='respDivR'><div class='vertical-center'>(I)</div></div></div>","E","$13","$41","1","13","41","RISKY"
"html-keyboard-response","177","239767","0.0-5.0-3.57","6362c4beb39ee39d15890c5c","bdp_rd","Mon Mar 27 2023 23:14:34 GMT-0400 (GMT-04:00)","245994","","null","","","","offerFB","","<div class='trialBorder'><div class='vertical-center'><img style='vertical-align:center; align:center' src=img/fixation3.jpg></div><div class='cl'><div class='vertical-center'><font style='color:orange'>$41<br>with a<br>50% chance</font></div></div><div class='cr'><div class='vertical-center'>$13<br>for<br>sure</div></div><div class='respDivL'><div class='vertical-center'><font style='color:orange'>(E)</font></div></div><div class='respDivR'><div class='vertical-center'>(I)</div></div></div>","null","$13","$41","1","13","41",""
