"trial_type","trial_index","time_elapsed","internal_node_id","subject_id","task","startTime","totalTime","view_history","rt","event","trial","time","trialtype","success","stimulus","key_press","sureOffer","riskyOffer","riskyLeft","sureAmt","riskyAmt","chosen"
"pavlovia","0","6","0.0-0.0","560ce65601c38a0012769e20","bdp_rd","Tue Mar 28 2023 21:00:37 GMT-0400 (Eastern Daylight Time)","211684","","","","","","","","","","","","","","",""
"instructions","1","1568","0.0-1.0","560ce65601c38a0012769e20","bdp_rd","Tue Mar 28 2023 21:00:37 GMT-0400 (Eastern Daylight Time)","211684","[{""page_index"":0,""viewing_time"":1562}]","1562","","","","","","","","","","","","",""
"","","","","560ce65601c38a0012769e20","bdp_rd","Tue Mar 28 2023 21:00:37 GMT-0400 (Eastern Daylight Time)","211684","","","fullscreenenter","2","2434","fullscreenenter","","","","","","","","",""
"fullscreen","2","3438","0.0-2.0","560ce65601c38a0012769e20","bdp_rd","Tue Mar 28 2023 21:00:37 GMT-0400 (Eastern Daylight Time)","211684","","","","","","","true","","","","","","","",""
"instructions","3","37532","0.0-4.0","560ce65601c38a0012769e20","bdp_rd","Tue Mar 28 2023 21:00:37 GMT-0400 (Eastern Daylight Time)","211684","[{""page_index"":0,""viewing_time"":17414},{""page_index"":1,""viewing_time"":13648},{""page_index"":2,""viewing_time"":3031}]","34093","","","","","","","","","","","","",""
"html-keyboard-response","4","38034","0.0-5.0-1.0","560ce65601c38a0012769e20","bdp_rd","Tue Mar 28 2023 21:00:37 GMT-0400 (Eastern Daylight Time)","211684","","null","","","","FIX","","<div class='trialBorder'><div class='vertical-center'><img style='vertical-align:center; align:center' src=img/fixation3.jpg></div></div>","null","","","","","",""
"html-keyboard-response","5","42238","0.0-5.0-2.0","560ce65601c38a0012769e20","bdp_rd","Tue Mar 28 2023 21:00:37 GMT-0400 (Eastern Daylight Time)","211684","","4201","","","","offer","","<div class='trialBorder'><div class='vertical-center'><img style='vertical-align:center; align:center' src=img/fixation3.jpg></div><div class='cl'><div class='vertical-center'>$25<br>for<br>sure</div></div><div class='cr'><div class='vertical-center'>$54<br>with a<br>50% chance</div></div><div class='respDivL'><div class='vertical-center'>(E)</div></div><div class='respDivR'><div class='vertical-center'>(I)</div></div></div>","I","$25","$54","0","25","54","RISKY"
"html-keyboard-response","6","42503","0.0-5.0-3.0","560ce65601c38a0012769e20","bdp_rd","Tue Mar 28 2023 21:00:37 GMT-0400 (Eastern Daylight Time)","211684","","null","","","","offerFB","","<div class='trialBorder'><div class='vertical-center'><img style='vertical-align:center; align:center' src=img/fixation3.jpg></div><div class='cl'><div class='vertical-center'>$25<br>for<br>sure</div></div><div class='cr'><div class='vertical-center'><font style='color:orange'>$54<br>with a<br>50% chance</font></div></div><div class='respDivL'><div class='vertical-center'>(E)</div></div><div class='respDivR'><div class='vertical-center'><font style='color:orange'>(I)</font></div></div></div>","null","$25","$54","0","25","54",""
"html-keyboard-response","7","43006","0.0-5.0-1.1","560ce65601c38a0012769e20","bdp_rd","Tue Mar 28 2023 21:00:37 GMT-0400 (Eastern Daylight Time)","211684","","null","","","","FIX","","<div class='trialBorder'><div class='vertical-center'><img style='vertical-align:center; align:center' src=img/fixation3.jpg></div></div>","null","","","","","",""
"html-keyboard-response","8","44828","0.0-5.0-2.1","560ce65601c38a0012769e20","bdp_rd","Tue Mar 28 2023 21:00:37 GMT-0400 (Eastern Daylight Time)","211684","","1822","","","","offer","","<div class='trialBorder'><div class='vertical-center'><img style='vertical-align:center; align:center' src=img/fixation3.jpg></div><div class='cl'><div class='vertical-center'>$20<br>for<br>sure</div></div><div class='cr'><div class='vertical-center'>$37<br>with a<br>50% chance</div></div><div class='respDivL'><div class='vertical-center'>(E)</div></div><div class='respDivR'><div class='vertical-center'>(I)</div></div></div>","E","$20","$37","0","20","37","SURE"
"html-keyboard-response","9","45081","0.0-5.0-3.1","560ce65601c38a0012769e20","bdp_rd","Tue Mar 28 2023 21:00:37 GMT-0400 (Eastern Daylight Time)","211684","","null","","","","offerFB","","<div class='trialBorder'><div class='vertical-center'><img style='vertical-align:center; align:center' src=img/fixation3.jpg></div><div class='cl'><div class='vertical-center'><font style='color:orange'>$20<br>for<br>sure</font></div></div><div class='cr'><div class='vertical-center'>$37<br>with a<br>50% chance</div></div><div class='respDivL'><div class='vertical-center'><font style='color:orange'>(E)</font></div></div><div class='respDivR'><div class='vertical-center'>(I)</div></div></div>","null","$20","$37","0","20","37",""
"html-keyboard-response","10","45584","0.0-5.0-1.2","560ce65601c38a0012769e20","bdp_rd","Tue Mar 28 2023 21:00:37 GMT-0400 (Eastern Daylight Time)","211684","","null","","","","FIX","","<div class='trialBorder'><div class='vertical-center'><img style='vertical-align:center; align:center' src=img/fixation3.jpg></div></div>","null","","","","","",""
"html-keyboard-response","11","47775","0.0-5.0-2.2","560ce65601c38a0012769e20","bdp_rd","Tue Mar 28 2023 21:00:37 GMT-0400 (Eastern Daylight Time)","211684","","2189","","","","offer","","<div class='trialBorder'><div class='vertical-center'><img style='vertical-align:center; align:center' src=img/fixation3.jpg></div><div class='cl'><div class='vertical-center'>$39<br>with a<br>50% chance</div></div><div class='cr'><div class='vertical-center'>$18<br>for<br>sure</div></div><div class='respDivL'><div class='vertical-center'>(E)</div></div><div class='respDivR'><div class='vertical-center'>(I)</div></div></div>","E","$18","$39","1","18","39","RISKY"
"html-keyboard-response","12","48029","0.0-5.0-3.2","560ce65601c38a0012769e20","bdp_rd","Tue Mar 28 2023 21:00:37 GMT-0400 (Eastern Daylight Time)","211684","","null","","","","offerFB","","<div class='trialBorder'><div class='vertical-center'><img style='vertical-align:center; align:center' src=img/fixation3.jpg></div><div class='cl'><div class='vertical-center'><font style='color:orange'>$39<br>with a<br>50% chance</font></div></div><div class='cr'><div class='vertical-center'>$18<br>for<br>sure</div></div><div class='respDivL'><div class='vertical-center'><font style='color:orange'>(E)</font></div></div><div class='respDivR'><div class='vertical-center'>(I)</div></div></div>","null","$18","$39","1","18","39",""
"html-keyboard-response","13","48532","0.0-5.0-1.3","560ce65601c38a0012769e20","bdp_rd","Tue Mar 28 2023 21:00:37 GMT-0400 (Eastern Daylight Time)","211684","","null","","","","FIX","","<div class='trialBorder'><div class='vertical-center'><img style='vertical-align:center; align:center' src=img/fixation3.jpg></div></div>","null","","","","","",""
"html-keyboard-response","14","50695","0.0-5.0-2.3","560ce65601c38a0012769e20","bdp_rd","Tue Mar 28 2023 21:00:37 GMT-0400 (Eastern Daylight Time)","211684","","2160","","","","offer","","<div class='trialBorder'><div class='vertical-center'><img style='vertical-align:center; align:center' src=img/fixation3.jpg></div><div class='cl'><div class='vertical-center'>$9<br>for<br>sure</div></div><div class='cr'><div class='vertical-center'>$32<br>with a<br>50% chance</div></div><div class='respDivL'><div class='vertical-center'>(E)</div></div><div class='respDivR'><div class='vertical-center'>(I)</div></div></div>","I","$9","$32","0","9","32","RISKY"
"html-keyboard-response","15","50952","0.0-5.0-3.3","560ce65601c38a0012769e20","bdp_rd","Tue Mar 28 2023 21:00:37 GMT-0400 (Eastern Daylight Time)","211684","","null","","","","offerFB","","<div class='trialBorder'><div class='vertical-center'><img style='vertical-align:center; align:center' src=img/fixation3.jpg></div><div class='cl'><div class='vertical-center'>$9<br>for<br>sure</div></div><div class='cr'><div class='vertical-center'><font style='color:orange'>$32<br>with a<br>50% chance</font></div></div><div class='respDivL'><div class='vertical-center'>(E)</div></div><div class='respDivR'><div class='vertical-center'><font style='color:orange'>(I)</font></div></div></div>","null","$9","$32","0","9","32",""
"html-keyboard-response","16","51456","0.0-5.0-1.4","560ce65601c38a0012769e20","bdp_rd","Tue Mar 28 2023 21:00:37 GMT-0400 (Eastern Daylight Time)","211684","","null","","","","FIX","","<div class='trialBorder'><div class='vertical-center'><img style='vertical-align:center; align:center' src=img/fixation3.jpg></div></div>","null","","","","","",""
"html-keyboard-response","17","54356","0.0-5.0-2.4","560ce65601c38a0012769e20","bdp_rd","Tue Mar 28 2023 21:00:37 GMT-0400 (Eastern Daylight Time)","211684","","2899","","","","offer","","<div class='trialBorder'><div class='vertical-center'><img style='vertical-align:center; align:center' src=img/fixation3.jpg></div><div class='cl'><div class='vertical-center'>$48<br>with a<br>50% chance</div></div><div class='cr'><div class='vertical-center'>$34<br>for<br>sure</div></div><div class='respDivL'><div class='vertical-center'>(E)</div></div><div class='respDivR'><div class='vertical-center'>(I)</div></div></div>","I","$34","$48","1","34","48","SURE"
"html-keyboard-response","18","54616","0.0-5.0-3.4","560ce65601c38a0012769e20","bdp_rd","Tue Mar 28 2023 21:00:37 GMT-0400 (Eastern Daylight Time)","211684","","null","","","","offerFB","","<div class='trialBorder'><div class='vertical-center'><img style='vertical-align:center; align:center' src=img/fixation3.jpg></div><div class='cl'><div class='vertical-center'>$48<br>with a<br>50% chance</div></div><div class='cr'><div class='vertical-center'><font style='color:orange'>$34<br>for<br>sure</font></div></div><div class='respDivL'><div class='vertical-center'>(E)</div></div><div class='respDivR'><div class='vertical-center'><font style='color:orange'>(I)</font></div></div></div>","null","$34","$48","1","34","48",""
"html-keyboard-response","19","55119","0.0-5.0-1.5","560ce65601c38a0012769e20","bdp_rd","Tue Mar 28 2023 21:00:37 GMT-0400 (Eastern Daylight Time)","211684","","null","","","","FIX","","<div class='trialBorder'><div class='vertical-center'><img style='vertical-align:center; align:center' src=img/fixation3.jpg></div></div>","null","","","","","",""
"html-keyboard-response","20","56545","0.0-5.0-2.5","560ce65601c38a0012769e20","bdp_rd","Tue Mar 28 2023 21:00:37 GMT-0400 (Eastern Daylight Time)","211684","","1424","","","","offer","","<div class='trialBorder'><div class='vertical-center'><img style='vertical-align:center; align:center' src=img/fixation3.jpg></div><div class='cl'><div class='vertical-center'>$98<br>with a<br>50% chance</div></div><div class='cr'><div class='vertical-center'>$53<br>for<br>sure</div></div><div class='respDivL'><div class='vertical-center'>(E)</div></div><div class='respDivR'><div class='vertical-center'>(I)</div></div></div>","E","$53","$98","1","53","98","RISKY"
"html-keyboard-response","21","56800","0.0-5.0-3.5","560ce65601c38a0012769e20","bdp_rd","Tue Mar 28 2023 21:00:37 GMT-0400 (Eastern Daylight Time)","211684","","null","","","","offerFB","","<div class='trialBorder'><div class='vertical-center'><img style='vertical-align:center; align:center' src=img/fixation3.jpg></div><div class='cl'><div class='vertical-center'><font style='color:orange'>$98<br>with a<br>50% chance</font></div></div><div class='cr'><div class='vertical-center'>$53<br>for<br>sure</div></div><div class='respDivL'><div class='vertical-center'><font style='color:orange'>(E)</font></div></div><div class='respDivR'><div class='vertical-center'>(I)</div></div></div>","null","$53","$98","1","53","98",""
"html-keyboard-response","22","57302","0.0-5.0-1.6","560ce65601c38a0012769e20","bdp_rd","Tue Mar 28 2023 21:00:37 GMT-0400 (Eastern Daylight Time)","211684","","null","","","","FIX","","<div class='trialBorder'><div class='vertical-center'><img style='vertical-align:center; align:center' src=img/fixation3.jpg></div></div>","null","","","","","",""
"html-keyboard-response","23","59025","0.0-5.0-2.6","560ce65601c38a0012769e20","bdp_rd","Tue Mar 28 2023 21:00:37 GMT-0400 (Eastern Daylight Time)","211684","","1722","","","","offer","","<div class='trialBorder'><div class='vertical-center'><img style='vertical-align:center; align:center' src=img/fixation3.jpg></div><div class='cl'><div class='vertical-center'>$16<br>for<br>sure</div></div><div class='cr'><div class='vertical-center'>$38<br>with a<br>50% chance</div></div><div class='respDivL'><div class='vertical-center'>(E)</div></div><div class='respDivR'><div class='vertical-center'>(I)</div></div></div>","I","$16","$38","0","16","38","RISKY"
"html-keyboard-response","24","59283","0.0-5.0-3.6","560ce65601c38a0012769e20","bdp_rd","Tue Mar 28 2023 21:00:37 GMT-0400 (Eastern Daylight Time)","211684","","null","","","","offerFB","","<div class='trialBorder'><div class='vertical-center'><img style='vertical-align:center; align:center' src=img/fixation3.jpg></div><div class='cl'><div class='vertical-center'>$16<br>for<br>sure</div></div><div class='cr'><div class='vertical-center'><font style='color:orange'>$38<br>with a<br>50% chance</font></div></div><div class='respDivL'><div class='vertical-center'>(E)</div></div><div class='respDivR'><div class='vertical-center'><font style='color:orange'>(I)</font></div></div></div>","null","$16","$38","0","16","38",""
"html-keyboard-response","25","60274","0.0-5.0-1.7","560ce65601c38a0012769e20","bdp_rd","Tue Mar 28 2023 21:00:37 GMT-0400 (Eastern Daylight Time)","211684","","null","","","","FIX","","<div class='trialBorder'><div class='vertical-center'><img style='vertical-align:center; align:center' src=img/fixation3.jpg></div></div>","null","","","","","",""
"html-keyboard-response","26","61567","0.0-5.0-2.7","560ce65601c38a0012769e20","bdp_rd","Tue Mar 28 2023 21:00:37 GMT-0400 (Eastern Daylight Time)","211684","","1291","","","","offer","","<div class='trialBorder'><div class='vertical-center'><img style='vertical-align:center; align:center' src=img/fixation3.jpg></div><div class='cl'><div class='vertical-center'>$24<br>for<br>sure</div></div><div class='cr'><div class='vertical-center'>$70<br>with a<br>50% chance</div></div><div class='respDivL'><div class='vertical-center'>(E)</div></div><div class='respDivR'><div class='vertical-center'>(I)</div></div></div>","I","$24","$70","0","24","70","RISKY"
"html-keyboard-response","27","61829","0.0-5.0-3.7","560ce65601c38a0012769e20","bdp_rd","Tue Mar 28 2023 21:00:37 GMT-0400 (Eastern Daylight Time)","211684","","null","","","","offerFB","","<div class='trialBorder'><div class='vertical-center'><img style='vertical-align:center; align:center' src=img/fixation3.jpg></div><div class='cl'><div class='vertical-center'>$24<br>for<br>sure</div></div><div class='cr'><div class='vertical-center'><font style='color:orange'>$70<br>with a<br>50% chance</font></div></div><div class='respDivL'><div class='vertical-center'>(E)</div></div><div class='respDivR'><div class='vertical-center'><font style='color:orange'>(I)</font></div></div></div>","null","$24","$70","0","24","70",""
"html-keyboard-response","28","62332","0.0-5.0-1.8","560ce65601c38a0012769e20","bdp_rd","Tue Mar 28 2023 21:00:37 GMT-0400 (Eastern Daylight Time)","211684","","null","","","","FIX","","<div class='trialBorder'><div class='vertical-center'><img style='vertical-align:center; align:center' src=img/fixation3.jpg></div></div>","null","","","","","",""
"html-keyboard-response","29","64727","0.0-5.0-2.8","560ce65601c38a0012769e20","bdp_rd","Tue Mar 28 2023 21:00:37 GMT-0400 (Eastern Daylight Time)","211684","","2394","","","","offer","","<div class='trialBorder'><div class='vertical-center'><img style='vertical-align:center; align:center' src=img/fixation3.jpg></div><div class='cl'><div class='vertical-center'>$33<br>with a<br>50% chance</div></div><div class='cr'><div class='vertical-center'>$1<br>for<br>sure</div></div><div class='respDivL'><div class='vertical-center'>(E)</div></div><div class='respDivR'><div class='vertical-center'>(I)</div></div></div>","E","$1","$33","1","1","33","RISKY"
"html-keyboard-response","30","64988","0.0-5.0-3.8","560ce65601c38a0012769e20","bdp_rd","Tue Mar 28 2023 21:00:37 GMT-0400 (Eastern Daylight Time)","211684","","null","","","","offerFB","","<div class='trialBorder'><div class='vertical-center'><img style='vertical-align:center; align:center' src=img/fixation3.jpg></div><div class='cl'><div class='vertical-center'><font style='color:orange'>$33<br>with a<br>50% chance</font></div></div><div class='cr'><div class='vertical-center'>$1<br>for<br>sure</div></div><div class='respDivL'><div class='vertical-center'><font style='color:orange'>(E)</font></div></div><div class='respDivR'><div class='vertical-center'>(I)</div></div></div>","null","$1","$33","1","1","33",""
"html-keyboard-response","31","65490","0.0-5.0-1.9","560ce65601c38a0012769e20","bdp_rd","Tue Mar 28 2023 21:00:37 GMT-0400 (Eastern Daylight Time)","211684","","null","","","","FIX","","<div class='trialBorder'><div class='vertical-center'><img style='vertical-align:center; align:center' src=img/fixation3.jpg></div></div>","null","","","","","",""
"html-keyboard-response","32","67638","0.0-5.0-2.9","560ce65601c38a0012769e20","bdp_rd","Tue Mar 28 2023 21:00:37 GMT-0400 (Eastern Daylight Time)","211684","","2147","","","","offer","","<div class='trialBorder'><div class='vertical-center'><img style='vertical-align:center; align:center' src=img/fixation3.jpg></div><div class='cl'><div class='vertical-center'>$46<br>with a<br>50% chance</div></div><div class='cr'><div class='vertical-center'>$29<br>for<br>sure</div></div><div class='respDivL'><div class='vertical-center'>(E)</div></div><div class='respDivR'><div class='vertical-center'>(I)</div></div></div>","I","$29","$46","1","29","46","SURE"
"html-keyboard-response","33","67895","0.0-5.0-3.9","560ce65601c38a0012769e20","bdp_rd","Tue Mar 28 2023 21:00:37 GMT-0400 (Eastern Daylight Time)","211684","","null","","","","offerFB","","<div class='trialBorder'><div class='vertical-center'><img style='vertical-align:center; align:center' src=img/fixation3.jpg></div><div class='cl'><div class='vertical-center'>$46<br>with a<br>50% chance</div></div><div class='cr'><div class='vertical-center'><font style='color:orange'>$29<br>for<br>sure</font></div></div><div class='respDivL'><div class='vertical-center'>(E)</div></div><div class='respDivR'><div class='vertical-center'><font style='color:orange'>(I)</font></div></div></div>","null","$29","$46","1","29","46",""
"html-keyboard-response","34","68397","0.0-5.0-1.10","560ce65601c38a0012769e20","bdp_rd","Tue Mar 28 2023 21:00:37 GMT-0400 (Eastern Daylight Time)","211684","","null","","","","FIX","","<div class='trialBorder'><div class='vertical-center'><img style='vertical-align:center; align:center' src=img/fixation3.jpg></div></div>","null","","","","","",""
"html-keyboard-response","35","70054","0.0-5.0-2.10","560ce65601c38a0012769e20","bdp_rd","Tue Mar 28 2023 21:00:37 GMT-0400 (Eastern Daylight Time)","211684","","1657","","","","offer","","<div class='trialBorder'><div class='vertical-center'><img style='vertical-align:center; align:center' src=img/fixation3.jpg></div><div class='cl'><div class='vertical-center'>$95<br>with a<br>50% chance</div></div><div class='cr'><div class='vertical-center'>$40<br>for<br>sure</div></div><div class='respDivL'><div class='vertical-center'>(E)</div></div><div class='respDivR'><div class='vertical-center'>(I)</div></div></div>","E","$40","$95","1","40","95","RISKY"
"html-keyboard-response","36","70314","0.0-5.0-3.10","560ce65601c38a0012769e20","bdp_rd","Tue Mar 28 2023 21:00:37 GMT-0400 (Eastern Daylight Time)","211684","","null","","","","offerFB","","<div class='trialBorder'><div class='vertical-center'><img style='vertical-align:center; align:center' src=img/fixation3.jpg></div><div class='cl'><div class='vertical-center'><font style='color:orange'>$95<br>with a<br>50% chance</font></div></div><div class='cr'><div class='vertical-center'>$40<br>for<br>sure</div></div><div class='respDivL'><div class='vertical-center'><font style='color:orange'>(E)</font></div></div><div class='respDivR'><div class='vertical-center'>(I)</div></div></div>","null","$40","$95","1","40","95",""
"html-keyboard-response","37","70817","0.0-5.0-1.11","560ce65601c38a0012769e20","bdp_rd","Tue Mar 28 2023 21:00:37 GMT-0400 (Eastern Daylight Time)","211684","","null","","","","FIX","","<div class='trialBorder'><div class='vertical-center'><img style='vertical-align:center; align:center' src=img/fixation3.jpg></div></div>","null","","","","","",""
"html-keyboard-response","38","72110","0.0-5.0-2.11","560ce65601c38a0012769e20","bdp_rd","Tue Mar 28 2023 21:00:37 GMT-0400 (Eastern Daylight Time)","211684","","1291","","","","offer","","<div class='trialBorder'><div class='vertical-center'><img style='vertical-align:center; align:center' src=img/fixation3.jpg></div><div class='cl'><div class='vertical-center'>$1<br>for<br>sure</div></div><div class='cr'><div class='vertical-center'>$30<br>with a<br>50% chance</div></div><div class='respDivL'><div class='vertical-center'>(E)</div></div><div class='respDivR'><div class='vertical-center'>(I)</div></div></div>","I","$1","$30","0","1","30","RISKY"
"html-keyboard-response","39","72373","0.0-5.0-3.11","560ce65601c38a0012769e20","bdp_rd","Tue Mar 28 2023 21:00:37 GMT-0400 (Eastern Daylight Time)","211684","","null","","","","offerFB","","<div class='trialBorder'><div class='vertical-center'><img style='vertical-align:center; align:center' src=img/fixation3.jpg></div><div class='cl'><div class='vertical-center'>$1<br>for<br>sure</div></div><div class='cr'><div class='vertical-center'><font style='color:orange'>$30<br>with a<br>50% chance</font></div></div><div class='respDivL'><div class='vertical-center'>(E)</div></div><div class='respDivR'><div class='vertical-center'><font style='color:orange'>(I)</font></div></div></div>","null","$1","$30","0","1","30",""
"html-keyboard-response","40","73269","0.0-5.0-1.12","560ce65601c38a0012769e20","bdp_rd","Tue Mar 28 2023 21:00:37 GMT-0400 (Eastern Daylight Time)","211684","","null","","","","FIX","","<div class='trialBorder'><div class='vertical-center'><img style='vertical-align:center; align:center' src=img/fixation3.jpg></div></div>","null","","","","","",""
"html-keyboard-response","41","77542","0.0-5.0-2.12","560ce65601c38a0012769e20","bdp_rd","Tue Mar 28 2023 21:00:37 GMT-0400 (Eastern Daylight Time)","211684","","4272","","","","offer","","<div class='trialBorder'><div class='vertical-center'><img style='vertical-align:center; align:center' src=img/fixation3.jpg></div><div class='cl'><div class='vertical-center'>$45<br>for<br>sure</div></div><div class='cr'><div class='vertical-center'>$86<br>with a<br>50% chance</div></div><div class='respDivL'><div class='vertical-center'>(E)</div></div><div class='respDivR'><div class='vertical-center'>(I)</div></div></div>","I","$45","$86","0","45","86","RISKY"
"html-keyboard-response","42","77796","0.0-5.0-3.12","560ce65601c38a0012769e20","bdp_rd","Tue Mar 28 2023 21:00:37 GMT-0400 (Eastern Daylight Time)","211684","","null","","","","offerFB","","<div class='trialBorder'><div class='vertical-center'><img style='vertical-align:center; align:center' src=img/fixation3.jpg></div><div class='cl'><div class='vertical-center'>$45<br>for<br>sure</div></div><div class='cr'><div class='vertical-center'><font style='color:orange'>$86<br>with a<br>50% chance</font></div></div><div class='respDivL'><div class='vertical-center'>(E)</div></div><div class='respDivR'><div class='vertical-center'><font style='color:orange'>(I)</font></div></div></div>","null","$45","$86","0","45","86",""
"html-keyboard-response","43","78299","0.0-5.0-1.13","560ce65601c38a0012769e20","bdp_rd","Tue Mar 28 2023 21:00:37 GMT-0400 (Eastern Daylight Time)","211684","","null","","","","FIX","","<div class='trialBorder'><div class='vertical-center'><img style='vertical-align:center; align:center' src=img/fixation3.jpg></div></div>","null","","","","","",""
"html-keyboard-response","44","80806","0.0-5.0-2.13","560ce65601c38a0012769e20","bdp_rd","Tue Mar 28 2023 21:00:37 GMT-0400 (Eastern Daylight Time)","211684","","2505","","","","offer","","<div class='trialBorder'><div class='vertical-center'><img style='vertical-align:center; align:center' src=img/fixation3.jpg></div><div class='cl'><div class='vertical-center'>$12<br>for<br>sure</div></div><div class='cr'><div class='vertical-center'>$27<br>with a<br>50% chance</div></div><div class='respDivL'><div class='vertical-center'>(E)</div></div><div class='respDivR'><div class='vertical-center'>(I)</div></div></div>","I","$12","$27","0","12","27","RISKY"
"html-keyboard-response","45","81065","0.0-5.0-3.13","560ce65601c38a0012769e20","bdp_rd","Tue Mar 28 2023 21:00:37 GMT-0400 (Eastern Daylight Time)","211684","","null","","","","offerFB","","<div class='trialBorder'><div class='vertical-center'><img style='vertical-align:center; align:center' src=img/fixation3.jpg></div><div class='cl'><div class='vertical-center'>$12<br>for<br>sure</div></div><div class='cr'><div class='vertical-center'><font style='color:orange'>$27<br>with a<br>50% chance</font></div></div><div class='respDivL'><div class='vertical-center'>(E)</div></div><div class='respDivR'><div class='vertical-center'><font style='color:orange'>(I)</font></div></div></div>","null","$12","$27","0","12","27",""
"html-keyboard-response","46","81567","0.0-5.0-1.14","560ce65601c38a0012769e20","bdp_rd","Tue Mar 28 2023 21:00:37 GMT-0400 (Eastern Daylight Time)","211684","","null","","","","FIX","","<div class='trialBorder'><div class='vertical-center'><img style='vertical-align:center; align:center' src=img/fixation3.jpg></div></div>","null","","","","","",""
"html-keyboard-response","47","83324","0.0-5.0-2.14","560ce65601c38a0012769e20","bdp_rd","Tue Mar 28 2023 21:00:37 GMT-0400 (Eastern Daylight Time)","211684","","1755","","","","offer","","<div class='trialBorder'><div class='vertical-center'><img style='vertical-align:center; align:center' src=img/fixation3.jpg></div><div class='cl'><div class='vertical-center'>$11<br>with a<br>50% chance</div></div><div class='cr'><div class='vertical-center'>$4<br>for<br>sure</div></div><div class='respDivL'><div class='vertical-center'>(E)</div></div><div class='respDivR'><div class='vertical-center'>(I)</div></div></div>","E","$4","$11","1","4","11","RISKY"
"html-keyboard-response","48","83579","0.0-5.0-3.14","560ce65601c38a0012769e20","bdp_rd","Tue Mar 28 2023 21:00:37 GMT-0400 (Eastern Daylight Time)","211684","","null","","","","offerFB","","<div class='trialBorder'><div class='vertical-center'><img style='vertical-align:center; align:center' src=img/fixation3.jpg></div><div class='cl'><div class='vertical-center'><font style='color:orange'>$11<br>with a<br>50% chance</font></div></div><div class='cr'><div class='vertical-center'>$4<br>for<br>sure</div></div><div class='respDivL'><div class='vertical-center'><font style='color:orange'>(E)</font></div></div><div class='respDivR'><div class='vertical-center'>(I)</div></div></div>","null","$4","$11","1","4","11",""
"html-keyboard-response","49","84081","0.0-5.0-1.15","560ce65601c38a0012769e20","bdp_rd","Tue Mar 28 2023 21:00:37 GMT-0400 (Eastern Daylight Time)","211684","","null","","","","FIX","","<div class='trialBorder'><div class='vertical-center'><img style='vertical-align:center; align:center' src=img/fixation3.jpg></div></div>","null","","","","","",""
"html-keyboard-response","50","86557","0.0-5.0-2.15","560ce65601c38a0012769e20","bdp_rd","Tue Mar 28 2023 21:00:37 GMT-0400 (Eastern Daylight Time)","211684","","2474","","","","offer","","<div class='trialBorder'><div class='vertical-center'><img style='vertical-align:center; align:center' src=img/fixation3.jpg></div><div class='cl'><div class='vertical-center'>$80<br>with a<br>50% chance</div></div><div class='cr'><div class='vertical-center'>$20<br>for<br>sure</div></div><div class='respDivL'><div class='vertical-center'>(E)</div></div><div class='respDivR'><div class='vertical-center'>(I)</div></div></div>","E","$20","$80","1","20","80","RISKY"
"html-keyboard-response","51","86815","0.0-5.0-3.15","560ce65601c38a0012769e20","bdp_rd","Tue Mar 28 2023 21:00:37 GMT-0400 (Eastern Daylight Time)","211684","","null","","","","offerFB","","<div class='trialBorder'><div class='vertical-center'><img style='vertical-align:center; align:center' src=img/fixation3.jpg></div><div class='cl'><div class='vertical-center'><font style='color:orange'>$80<br>with a<br>50% chance</font></div></div><div class='cr'><div class='vertical-center'>$20<br>for<br>sure</div></div><div class='respDivL'><div class='vertical-center'><font style='color:orange'>(E)</font></div></div><div class='respDivR'><div class='vertical-center'>(I)</div></div></div>","null","$20","$80","1","20","80",""
"html-keyboard-response","52","87318","0.0-5.0-1.16","560ce65601c38a0012769e20","bdp_rd","Tue Mar 28 2023 21:00:37 GMT-0400 (Eastern Daylight Time)","211684","","null","","","","FIX","","<div class='trialBorder'><div class='vertical-center'><img style='vertical-align:center; align:center' src=img/fixation3.jpg></div></div>","null","","","","","",""
"html-keyboard-response","53","89022","0.0-5.0-2.16","560ce65601c38a0012769e20","bdp_rd","Tue Mar 28 2023 21:00:37 GMT-0400 (Eastern Daylight Time)","211684","","1703","","","","offer","","<div class='trialBorder'><div class='vertical-center'><img style='vertical-align:center; align:center' src=img/fixation3.jpg></div><div class='cl'><div class='vertical-center'>$22<br>for<br>sure</div></div><div class='cr'><div class='vertical-center'>$59<br>with a<br>50% chance</div></div><div class='respDivL'><div class='vertical-center'>(E)</div></div><div class='respDivR'><div class='vertical-center'>(I)</div></div></div>","I","$22","$59","0","22","59","RISKY"
"html-keyboard-response","54","89282","0.0-5.0-3.16","560ce65601c38a0012769e20","bdp_rd","Tue Mar 28 2023 21:00:37 GMT-0400 (Eastern Daylight Time)","211684","","null","","","","offerFB","","<div class='trialBorder'><div class='vertical-center'><img style='vertical-align:center; align:center' src=img/fixation3.jpg></div><div class='cl'><div class='vertical-center'>$22<br>for<br>sure</div></div><div class='cr'><div class='vertical-center'><font style='color:orange'>$59<br>with a<br>50% chance</font></div></div><div class='respDivL'><div class='vertical-center'>(E)</div></div><div class='respDivR'><div class='vertical-center'><font style='color:orange'>(I)</font></div></div></div>","null","$22","$59","0","22","59",""
"html-keyboard-response","55","89785","0.0-5.0-1.17","560ce65601c38a0012769e20","bdp_rd","Tue Mar 28 2023 21:00:37 GMT-0400 (Eastern Daylight Time)","211684","","null","","","","FIX","","<div class='trialBorder'><div class='vertical-center'><img style='vertical-align:center; align:center' src=img/fixation3.jpg></div></div>","null","","","","","",""
"html-keyboard-response","56","91758","0.0-5.0-2.17","560ce65601c38a0012769e20","bdp_rd","Tue Mar 28 2023 21:00:37 GMT-0400 (Eastern Daylight Time)","211684","","1970","","","","offer","","<div class='trialBorder'><div class='vertical-center'><img style='vertical-align:center; align:center' src=img/fixation3.jpg></div><div class='cl'><div class='vertical-center'>$10<br>with a<br>50% chance</div></div><div class='cr'><div class='vertical-center'>$7<br>for<br>sure</div></div><div class='respDivL'><div class='vertical-center'>(E)</div></div><div class='respDivR'><div class='vertical-center'>(I)</div></div></div>","I","$7","$10","1","7","10","SURE"
"html-keyboard-response","57","92017","0.0-5.0-3.17","560ce65601c38a0012769e20","bdp_rd","Tue Mar 28 2023 21:00:37 GMT-0400 (Eastern Daylight Time)","211684","","null","","","","offerFB","","<div class='trialBorder'><div class='vertical-center'><img style='vertical-align:center; align:center' src=img/fixation3.jpg></div><div class='cl'><div class='vertical-center'>$10<br>with a<br>50% chance</div></div><div class='cr'><div class='vertical-center'><font style='color:orange'>$7<br>for<br>sure</font></div></div><div class='respDivL'><div class='vertical-center'>(E)</div></div><div class='respDivR'><div class='vertical-center'><font style='color:orange'>(I)</font></div></div></div>","null","$7","$10","1","7","10",""
"html-keyboard-response","58","92519","0.0-5.0-1.18","560ce65601c38a0012769e20","bdp_rd","Tue Mar 28 2023 21:00:37 GMT-0400 (Eastern Daylight Time)","211684","","null","","","","FIX","","<div class='trialBorder'><div class='vertical-center'><img style='vertical-align:center; align:center' src=img/fixation3.jpg></div></div>","null","","","","","",""
"html-keyboard-response","59","97294","0.0-5.0-2.18","560ce65601c38a0012769e20","bdp_rd","Tue Mar 28 2023 21:00:37 GMT-0400 (Eastern Daylight Time)","211684","","4775","","","","offer","","<div class='trialBorder'><div class='vertical-center'><img style='vertical-align:center; align:center' src=img/fixation3.jpg></div><div class='cl'><div class='vertical-center'>$15<br>with a<br>50% chance</div></div><div class='cr'><div class='vertical-center'>$6<br>for<br>sure</div></div><div class='respDivL'><div class='vertical-center'>(E)</div></div><div class='respDivR'><div class='vertical-center'>(I)</div></div></div>","E","$6","$15","1","6","15","RISKY"
"html-keyboard-response","60","97549","0.0-5.0-3.18","560ce65601c38a0012769e20","bdp_rd","Tue Mar 28 2023 21:00:37 GMT-0400 (Eastern Daylight Time)","211684","","null","","","","offerFB","","<div class='trialBorder'><div class='vertical-center'><img style='vertical-align:center; align:center' src=img/fixation3.jpg></div><div class='cl'><div class='vertical-center'><font style='color:orange'>$15<br>with a<br>50% chance</font></div></div><div class='cr'><div class='vertical-center'>$6<br>for<br>sure</div></div><div class='respDivL'><div class='vertical-center'><font style='color:orange'>(E)</font></div></div><div class='respDivR'><div class='vertical-center'>(I)</div></div></div>","null","$6","$15","1","6","15",""
"html-keyboard-response","61","98051","0.0-5.0-1.19","560ce65601c38a0012769e20","bdp_rd","Tue Mar 28 2023 21:00:37 GMT-0400 (Eastern Daylight Time)","211684","","null","","","","FIX","","<div class='trialBorder'><div class='vertical-center'><img style='vertical-align:center; align:center' src=img/fixation3.jpg></div></div>","null","","","","","",""
"html-keyboard-response","62","100432","0.0-5.0-2.19","560ce65601c38a0012769e20","bdp_rd","Tue Mar 28 2023 21:00:37 GMT-0400 (Eastern Daylight Time)","211684","","2379","","","","offer","","<div class='trialBorder'><div class='vertical-center'><img style='vertical-align:center; align:center' src=img/fixation3.jpg></div><div class='cl'><div class='vertical-center'>$19<br>with a<br>50% chance</div></div><div class='cr'><div class='vertical-center'>$10<br>for<br>sure</div></div><div class='respDivL'><div class='vertical-center'>(E)</div></div><div class='respDivR'><div class='vertical-center'>(I)</div></div></div>","I","$10","$19","1","10","19","SURE"
"html-keyboard-response","63","100692","0.0-5.0-3.19","560ce65601c38a0012769e20","bdp_rd","Tue Mar 28 2023 21:00:37 GMT-0400 (Eastern Daylight Time)","211684","","null","","","","offerFB","","<div class='trialBorder'><div class='vertical-center'><img style='vertical-align:center; align:center' src=img/fixation3.jpg></div><div class='cl'><div class='vertical-center'>$19<br>with a<br>50% chance</div></div><div class='cr'><div class='vertical-center'><font style='color:orange'>$10<br>for<br>sure</font></div></div><div class='respDivL'><div class='vertical-center'>(E)</div></div><div class='respDivR'><div class='vertical-center'><font style='color:orange'>(I)</font></div></div></div>","null","$10","$19","1","10","19",""
"html-keyboard-response","64","101195","0.0-5.0-1.20","560ce65601c38a0012769e20","bdp_rd","Tue Mar 28 2023 21:00:37 GMT-0400 (Eastern Daylight Time)","211684","","null","","","","FIX","","<div class='trialBorder'><div class='vertical-center'><img style='vertical-align:center; align:center' src=img/fixation3.jpg></div></div>","null","","","","","",""
"html-keyboard-response","65","102758","0.0-5.0-2.20","560ce65601c38a0012769e20","bdp_rd","Tue Mar 28 2023 21:00:37 GMT-0400 (Eastern Daylight Time)","211684","","1562","","","","offer","","<div class='trialBorder'><div class='vertical-center'><img style='vertical-align:center; align:center' src=img/fixation3.jpg></div><div class='cl'><div class='vertical-center'>$17<br>with a<br>50% chance</div></div><div class='cr'><div class='vertical-center'>$3<br>for<br>sure</div></div><div class='respDivL'><div class='vertical-center'>(E)</div></div><div class='respDivR'><div class='vertical-center'>(I)</div></div></div>","E","$3","$17","1","3","17","RISKY"
"html-keyboard-response","66","103017","0.0-5.0-3.20","560ce65601c38a0012769e20","bdp_rd","Tue Mar 28 2023 21:00:37 GMT-0400 (Eastern Daylight Time)","211684","","null","","","","offerFB","","<div class='trialBorder'><div class='vertical-center'><img style='vertical-align:center; align:center' src=img/fixation3.jpg></div><div class='cl'><div class='vertical-center'><font style='color:orange'>$17<br>with a<br>50% chance</font></div></div><div class='cr'><div class='vertical-center'>$3<br>for<br>sure</div></div><div class='respDivL'><div class='vertical-center'><font style='color:orange'>(E)</font></div></div><div class='respDivR'><div class='vertical-center'>(I)</div></div></div>","null","$3","$17","1","3","17",""
"html-keyboard-response","67","103520","0.0-5.0-1.21","560ce65601c38a0012769e20","bdp_rd","Tue Mar 28 2023 21:00:37 GMT-0400 (Eastern Daylight Time)","211684","","null","","","","FIX","","<div class='trialBorder'><div class='vertical-center'><img style='vertical-align:center; align:center' src=img/fixation3.jpg></div></div>","null","","","","","",""
"html-keyboard-response","68","104862","0.0-5.0-2.21","560ce65601c38a0012769e20","bdp_rd","Tue Mar 28 2023 21:00:37 GMT-0400 (Eastern Daylight Time)","211684","","1342","","","","offer","","<div class='trialBorder'><div class='vertical-center'><img style='vertical-align:center; align:center' src=img/fixation3.jpg></div><div class='cl'><div class='vertical-center'>$8<br>for<br>sure</div></div><div class='cr'><div class='vertical-center'>$45<br>with a<br>50% chance</div></div><div class='respDivL'><div class='vertical-center'>(E)</div></div><div class='respDivR'><div class='vertical-center'>(I)</div></div></div>","I","$8","$45","0","8","45","RISKY"
"html-keyboard-response","69","105123","0.0-5.0-3.21","560ce65601c38a0012769e20","bdp_rd","Tue Mar 28 2023 21:00:37 GMT-0400 (Eastern Daylight Time)","211684","","null","","","","offerFB","","<div class='trialBorder'><div class='vertical-center'><img style='vertical-align:center; align:center' src=img/fixation3.jpg></div><div class='cl'><div class='vertical-center'>$8<br>for<br>sure</div></div><div class='cr'><div class='vertical-center'><font style='color:orange'>$45<br>with a<br>50% chance</font></div></div><div class='respDivL'><div class='vertical-center'>(E)</div></div><div class='respDivR'><div class='vertical-center'><font style='color:orange'>(I)</font></div></div></div>","null","$8","$45","0","8","45",""
"html-keyboard-response","70","105625","0.0-5.0-1.22","560ce65601c38a0012769e20","bdp_rd","Tue Mar 28 2023 21:00:37 GMT-0400 (Eastern Daylight Time)","211684","","null","","","","FIX","","<div class='trialBorder'><div class='vertical-center'><img style='vertical-align:center; align:center' src=img/fixation3.jpg></div></div>","null","","","","","",""
"html-keyboard-response","71","107798","0.0-5.0-2.22","560ce65601c38a0012769e20","bdp_rd","Tue Mar 28 2023 21:00:37 GMT-0400 (Eastern Daylight Time)","211684","","2172","","","","offer","","<div class='trialBorder'><div class='vertical-center'><img style='vertical-align:center; align:center' src=img/fixation3.jpg></div><div class='cl'><div class='vertical-center'>$34<br>with a<br>50% chance</div></div><div class='cr'><div class='vertical-center'>$15<br>for<br>sure</div></div><div class='respDivL'><div class='vertical-center'>(E)</div></div><div class='respDivR'><div class='vertical-center'>(I)</div></div></div>","E","$15","$34","1","15","34","RISKY"
"html-keyboard-response","72","108062","0.0-5.0-3.22","560ce65601c38a0012769e20","bdp_rd","Tue Mar 28 2023 21:00:37 GMT-0400 (Eastern Daylight Time)","211684","","null","","","","offerFB","","<div class='trialBorder'><div class='vertical-center'><img style='vertical-align:center; align:center' src=img/fixation3.jpg></div><div class='cl'><div class='vertical-center'><font style='color:orange'>$34<br>with a<br>50% chance</font></div></div><div class='cr'><div class='vertical-center'>$15<br>for<br>sure</div></div><div class='respDivL'><div class='vertical-center'><font style='color:orange'>(E)</font></div></div><div class='respDivR'><div class='vertical-center'>(I)</div></div></div>","null","$15","$34","1","15","34",""
"html-keyboard-response","73","108565","0.0-5.0-1.23","560ce65601c38a0012769e20","bdp_rd","Tue Mar 28 2023 21:00:37 GMT-0400 (Eastern Daylight Time)","211684","","null","","","","FIX","","<div class='trialBorder'><div class='vertical-center'><img style='vertical-align:center; align:center' src=img/fixation3.jpg></div></div>","null","","","","","",""
"html-keyboard-response","74","111278","0.0-5.0-2.23","560ce65601c38a0012769e20","bdp_rd","Tue Mar 28 2023 21:00:37 GMT-0400 (Eastern Daylight Time)","211684","","2713","","","","offer","","<div class='trialBorder'><div class='vertical-center'><img style='vertical-align:center; align:center' src=img/fixation3.jpg></div><div class='cl'><div class='vertical-center'>$24<br>with a<br>50% chance</div></div><div class='cr'><div class='vertical-center'>$13<br>for<br>sure</div></div><div class='respDivL'><div class='vertical-center'>(E)</div></div><div class='respDivR'><div class='vertical-center'>(I)</div></div></div>","I","$13","$24","1","13","24","SURE"
"html-keyboard-response","75","111534","0.0-5.0-3.23","560ce65601c38a0012769e20","bdp_rd","Tue Mar 28 2023 21:00:37 GMT-0400 (Eastern Daylight Time)","211684","","null","","","","offerFB","","<div class='trialBorder'><div class='vertical-center'><img style='vertical-align:center; align:center' src=img/fixation3.jpg></div><div class='cl'><div class='vertical-center'>$24<br>with a<br>50% chance</div></div><div class='cr'><div class='vertical-center'><font style='color:orange'>$13<br>for<br>sure</font></div></div><div class='respDivL'><div class='vertical-center'>(E)</div></div><div class='respDivR'><div class='vertical-center'><font style='color:orange'>(I)</font></div></div></div>","null","$13","$24","1","13","24",""
"html-keyboard-response","76","112036","0.0-5.0-1.24","560ce65601c38a0012769e20","bdp_rd","Tue Mar 28 2023 21:00:37 GMT-0400 (Eastern Daylight Time)","211684","","null","","","","FIX","","<div class='trialBorder'><div class='vertical-center'><img style='vertical-align:center; align:center' src=img/fixation3.jpg></div></div>","null","","","","","",""
"html-keyboard-response","77","113250","0.0-5.0-2.24","560ce65601c38a0012769e20","bdp_rd","Tue Mar 28 2023 21:00:37 GMT-0400 (Eastern Daylight Time)","211684","","1212","","","","offer","","<div class='trialBorder'><div class='vertical-center'><img style='vertical-align:center; align:center' src=img/fixation3.jpg></div><div class='cl'><div class='vertical-center'>$89<br>with a<br>50% chance</div></div><div class='cr'><div class='vertical-center'>$28<br>for<br>sure</div></div><div class='respDivL'><div class='vertical-center'>(E)</div></div><div class='respDivR'><div class='vertical-center'>(I)</div></div></div>","E","$28","$89","1","28","89","RISKY"
"html-keyboard-response","78","113514","0.0-5.0-3.24","560ce65601c38a0012769e20","bdp_rd","Tue Mar 28 2023 21:00:37 GMT-0400 (Eastern Daylight Time)","211684","","null","","","","offerFB","","<div class='trialBorder'><div class='vertical-center'><img style='vertical-align:center; align:center' src=img/fixation3.jpg></div><div class='cl'><div class='vertical-center'><font style='color:orange'>$89<br>with a<br>50% chance</font></div></div><div class='cr'><div class='vertical-center'>$28<br>for<br>sure</div></div><div class='respDivL'><div class='vertical-center'><font style='color:orange'>(E)</font></div></div><div class='respDivR'><div class='vertical-center'>(I)</div></div></div>","null","$28","$89","1","28","89",""
"html-keyboard-response","79","114017","0.0-5.0-1.25","560ce65601c38a0012769e20","bdp_rd","Tue Mar 28 2023 21:00:37 GMT-0400 (Eastern Daylight Time)","211684","","null","","","","FIX","","<div class='trialBorder'><div class='vertical-center'><img style='vertical-align:center; align:center' src=img/fixation3.jpg></div></div>","null","","","","","",""
"html-keyboard-response","80","115053","0.0-5.0-2.25","560ce65601c38a0012769e20","bdp_rd","Tue Mar 28 2023 21:00:37 GMT-0400 (Eastern Daylight Time)","211684","","1035","","","","offer","","<div class='trialBorder'><div class='vertical-center'><img style='vertical-align:center; align:center' src=img/fixation3.jpg></div><div class='cl'><div class='vertical-center'>$64<br>with a<br>50% chance</div></div><div class='cr'><div class='vertical-center'>$2<br>for<br>sure</div></div><div class='respDivL'><div class='vertical-center'>(E)</div></div><div class='respDivR'><div class='vertical-center'>(I)</div></div></div>","E","$2","$64","1","2","64","RISKY"
"html-keyboard-response","81","115305","0.0-5.0-3.25","560ce65601c38a0012769e20","bdp_rd","Tue Mar 28 2023 21:00:37 GMT-0400 (Eastern Daylight Time)","211684","","null","","","","offerFB","","<div class='trialBorder'><div class='vertical-center'><img style='vertical-align:center; align:center' src=img/fixation3.jpg></div><div class='cl'><div class='vertical-center'><font style='color:orange'>$64<br>with a<br>50% chance</font></div></div><div class='cr'><div class='vertical-center'>$2<br>for<br>sure</div></div><div class='respDivL'><div class='vertical-center'><font style='color:orange'>(E)</font></div></div><div class='respDivR'><div class='vertical-center'>(I)</div></div></div>","null","$2","$64","1","2","64",""
"html-keyboard-response","82","115808","0.0-5.0-1.26","560ce65601c38a0012769e20","bdp_rd","Tue Mar 28 2023 21:00:37 GMT-0400 (Eastern Daylight Time)","211684","","null","","","","FIX","","<div class='trialBorder'><div class='vertical-center'><img style='vertical-align:center; align:center' src=img/fixation3.jpg></div></div>","null","","","","","",""
"html-keyboard-response","83","117292","0.0-5.0-2.26","560ce65601c38a0012769e20","bdp_rd","Tue Mar 28 2023 21:00:37 GMT-0400 (Eastern Daylight Time)","211684","","1483","","","","offer","","<div class='trialBorder'><div class='vertical-center'><img style='vertical-align:center; align:center' src=img/fixation3.jpg></div><div class='cl'><div class='vertical-center'>$11<br>for<br>sure</div></div><div class='cr'><div class='vertical-center'>$62<br>with a<br>50% chance</div></div><div class='respDivL'><div class='vertical-center'>(E)</div></div><div class='respDivR'><div class='vertical-center'>(I)</div></div></div>","I","$11","$62","0","11","62","RISKY"
"html-keyboard-response","84","117552","0.0-5.0-3.26","560ce65601c38a0012769e20","bdp_rd","Tue Mar 28 2023 21:00:37 GMT-0400 (Eastern Daylight Time)","211684","","null","","","","offerFB","","<div class='trialBorder'><div class='vertical-center'><img style='vertical-align:center; align:center' src=img/fixation3.jpg></div><div class='cl'><div class='vertical-center'>$11<br>for<br>sure</div></div><div class='cr'><div class='vertical-center'><font style='color:orange'>$62<br>with a<br>50% chance</font></div></div><div class='respDivL'><div class='vertical-center'>(E)</div></div><div class='respDivR'><div class='vertical-center'><font style='color:orange'>(I)</font></div></div></div>","null","$11","$62","0","11","62",""
"html-keyboard-response","85","118056","0.0-5.0-1.27","560ce65601c38a0012769e20","bdp_rd","Tue Mar 28 2023 21:00:37 GMT-0400 (Eastern Daylight Time)","211684","","null","","","","FIX","","<div class='trialBorder'><div class='vertical-center'><img style='vertical-align:center; align:center' src=img/fixation3.jpg></div></div>","null","","","","","",""
"html-keyboard-response","86","120862","0.0-5.0-2.27","560ce65601c38a0012769e20","bdp_rd","Tue Mar 28 2023 21:00:37 GMT-0400 (Eastern Daylight Time)","211684","","2805","","","","offer","","<div class='trialBorder'><div class='vertical-center'><img style='vertical-align:center; align:center' src=img/fixation3.jpg></div><div class='cl'><div class='vertical-center'>$51<br>with a<br>50% chance</div></div><div class='cr'><div class='vertical-center'>$19<br>for<br>sure</div></div><div class='respDivL'><div class='vertical-center'>(E)</div></div><div class='respDivR'><div class='vertical-center'>(I)</div></div></div>","E","$19","$51","1","19","51","RISKY"
"html-keyboard-response","87","121120","0.0-5.0-3.27","560ce65601c38a0012769e20","bdp_rd","Tue Mar 28 2023 21:00:37 GMT-0400 (Eastern Daylight Time)","211684","","null","","","","offerFB","","<div class='trialBorder'><div class='vertical-center'><img style='vertical-align:center; align:center' src=img/fixation3.jpg></div><div class='cl'><div class='vertical-center'><font style='color:orange'>$51<br>with a<br>50% chance</font></div></div><div class='cr'><div class='vertical-center'>$19<br>for<br>sure</div></div><div class='respDivL'><div class='vertical-center'><font style='color:orange'>(E)</font></div></div><div class='respDivR'><div class='vertical-center'>(I)</div></div></div>","null","$19","$51","1","19","51",""
"html-keyboard-response","88","121623","0.0-5.0-1.28","560ce65601c38a0012769e20","bdp_rd","Tue Mar 28 2023 21:00:37 GMT-0400 (Eastern Daylight Time)","211684","","null","","","","FIX","","<div class='trialBorder'><div class='vertical-center'><img style='vertical-align:center; align:center' src=img/fixation3.jpg></div></div>","null","","","","","",""
"html-keyboard-response","89","123850","0.0-5.0-2.28","560ce65601c38a0012769e20","bdp_rd","Tue Mar 28 2023 21:00:37 GMT-0400 (Eastern Daylight Time)","211684","","2226","","","","offer","","<div class='trialBorder'><div class='vertical-center'><img style='vertical-align:center; align:center' src=img/fixation3.jpg></div><div class='cl'><div class='vertical-center'>$15<br>for<br>sure</div></div><div class='cr'><div class='vertical-center'>$31<br>with a<br>50% chance</div></div><div class='respDivL'><div class='vertical-center'>(E)</div></div><div class='respDivR'><div class='vertical-center'>(I)</div></div></div>","I","$15","$31","0","15","31","RISKY"
"html-keyboard-response","90","124107","0.0-5.0-3.28","560ce65601c38a0012769e20","bdp_rd","Tue Mar 28 2023 21:00:37 GMT-0400 (Eastern Daylight Time)","211684","","null","","","","offerFB","","<div class='trialBorder'><div class='vertical-center'><img style='vertical-align:center; align:center' src=img/fixation3.jpg></div><div class='cl'><div class='vertical-center'>$15<br>for<br>sure</div></div><div class='cr'><div class='vertical-center'><font style='color:orange'>$31<br>with a<br>50% chance</font></div></div><div class='respDivL'><div class='vertical-center'>(E)</div></div><div class='respDivR'><div class='vertical-center'><font style='color:orange'>(I)</font></div></div></div>","null","$15","$31","0","15","31",""
"html-keyboard-response","91","124609","0.0-5.0-1.29","560ce65601c38a0012769e20","bdp_rd","Tue Mar 28 2023 21:00:37 GMT-0400 (Eastern Daylight Time)","211684","","null","","","","FIX","","<div class='trialBorder'><div class='vertical-center'><img style='vertical-align:center; align:center' src=img/fixation3.jpg></div></div>","null","","","","","",""
"html-keyboard-response","92","130464","0.0-5.0-2.29","560ce65601c38a0012769e20","bdp_rd","Tue Mar 28 2023 21:00:37 GMT-0400 (Eastern Daylight Time)","211684","","5853","","","","offer","","<div class='trialBorder'><div class='vertical-center'><img style='vertical-align:center; align:center' src=img/fixation3.jpg></div><div class='cl'><div class='vertical-center'>$46<br>for<br>sure</div></div><div class='cr'><div class='vertical-center'>$65<br>with a<br>50% chance</div></div><div class='respDivL'><div class='vertical-center'>(E)</div></div><div class='respDivR'><div class='vertical-center'>(I)</div></div></div>","E","$46","$65","0","46","65","SURE"
"html-keyboard-response","93","130723","0.0-5.0-3.29","560ce65601c38a0012769e20","bdp_rd","Tue Mar 28 2023 21:00:37 GMT-0400 (Eastern Daylight Time)","211684","","null","","","","offerFB","","<div class='trialBorder'><div class='vertical-center'><img style='vertical-align:center; align:center' src=img/fixation3.jpg></div><div class='cl'><div class='vertical-center'><font style='color:orange'>$46<br>for<br>sure</font></div></div><div class='cr'><div class='vertical-center'>$65<br>with a<br>50% chance</div></div><div class='respDivL'><div class='vertical-center'><font style='color:orange'>(E)</font></div></div><div class='respDivR'><div class='vertical-center'>(I)</div></div></div>","null","$46","$65","0","46","65",""
"html-keyboard-response","94","131227","0.0-5.0-1.30","560ce65601c38a0012769e20","bdp_rd","Tue Mar 28 2023 21:00:37 GMT-0400 (Eastern Daylight Time)","211684","","null","","","","FIX","","<div class='trialBorder'><div class='vertical-center'><img style='vertical-align:center; align:center' src=img/fixation3.jpg></div></div>","null","","","","","",""
"html-keyboard-response","95","134519","0.0-5.0-2.30","560ce65601c38a0012769e20","bdp_rd","Tue Mar 28 2023 21:00:37 GMT-0400 (Eastern Daylight Time)","211684","","3291","","","","offer","","<div class='trialBorder'><div class='vertical-center'><img style='vertical-align:center; align:center' src=img/fixation3.jpg></div><div class='cl'><div class='vertical-center'>$14<br>for<br>sure</div></div><div class='cr'><div class='vertical-center'>$29<br>with a<br>50% chance</div></div><div class='respDivL'><div class='vertical-center'>(E)</div></div><div class='respDivR'><div class='vertical-center'>(I)</div></div></div>","I","$14","$29","0","14","29","RISKY"
"html-keyboard-response","96","134779","0.0-5.0-3.30","560ce65601c38a0012769e20","bdp_rd","Tue Mar 28 2023 21:00:37 GMT-0400 (Eastern Daylight Time)","211684","","null","","","","offerFB","","<div class='trialBorder'><div class='vertical-center'><img style='vertical-align:center; align:center' src=img/fixation3.jpg></div><div class='cl'><div class='vertical-center'>$14<br>for<br>sure</div></div><div class='cr'><div class='vertical-center'><font style='color:orange'>$29<br>with a<br>50% chance</font></div></div><div class='respDivL'><div class='vertical-center'>(E)</div></div><div class='respDivR'><div class='vertical-center'><font style='color:orange'>(I)</font></div></div></div>","null","$14","$29","0","14","29",""
"html-keyboard-response","97","135282","0.0-5.0-1.31","560ce65601c38a0012769e20","bdp_rd","Tue Mar 28 2023 21:00:37 GMT-0400 (Eastern Daylight Time)","211684","","null","","","","FIX","","<div class='trialBorder'><div class='vertical-center'><img style='vertical-align:center; align:center' src=img/fixation3.jpg></div></div>","null","","","","","",""
"html-keyboard-response","98","137464","0.0-5.0-2.31","560ce65601c38a0012769e20","bdp_rd","Tue Mar 28 2023 21:00:37 GMT-0400 (Eastern Daylight Time)","211684","","2181","","","","offer","","<div class='trialBorder'><div class='vertical-center'><img style='vertical-align:center; align:center' src=img/fixation3.jpg></div><div class='cl'><div class='vertical-center'>$63<br>for<br>sure</div></div><div class='cr'><div class='vertical-center'>$100<br>with a<br>50% chance</div></div><div class='respDivL'><div class='vertical-center'>(E)</div></div><div class='respDivR'><div class='vertical-center'>(I)</div></div></div>","E","$63","$100","0","63","10","SURE"
"html-keyboard-response","99","137716","0.0-5.0-3.31","560ce65601c38a0012769e20","bdp_rd","Tue Mar 28 2023 21:00:37 GMT-0400 (Eastern Daylight Time)","211684","","null","","","","offerFB","","<div class='trialBorder'><div class='vertical-center'><img style='vertical-align:center; align:center' src=img/fixation3.jpg></div><div class='cl'><div class='vertical-center'><font style='color:orange'>$63<br>for<br>sure</font></div></div><div class='cr'><div class='vertical-center'>$100<br>with a<br>50% chance</div></div><div class='respDivL'><div class='vertical-center'><font style='color:orange'>(E)</font></div></div><div class='respDivR'><div class='vertical-center'>(I)</div></div></div>","null","$63","$100","0","63","10",""
"html-keyboard-response","100","138219","0.0-5.0-1.32","560ce65601c38a0012769e20","bdp_rd","Tue Mar 28 2023 21:00:37 GMT-0400 (Eastern Daylight Time)","211684","","null","","","","FIX","","<div class='trialBorder'><div class='vertical-center'><img style='vertical-align:center; align:center' src=img/fixation3.jpg></div></div>","null","","","","","",""
"html-keyboard-response","101","140081","0.0-5.0-2.32","560ce65601c38a0012769e20","bdp_rd","Tue Mar 28 2023 21:00:37 GMT-0400 (Eastern Daylight Time)","211684","","1861","","","","offer","","<div class='trialBorder'><div class='vertical-center'><img style='vertical-align:center; align:center' src=img/fixation3.jpg></div><div class='cl'><div class='vertical-center'>$11<br>for<br>sure</div></div><div class='cr'><div class='vertical-center'>$26<br>with a<br>50% chance</div></div><div class='respDivL'><div class='vertical-center'>(E)</div></div><div class='respDivR'><div class='vertical-center'>(I)</div></div></div>","I","$11","$26","0","11","26","RISKY"
"html-keyboard-response","102","140340","0.0-5.0-3.32","560ce65601c38a0012769e20","bdp_rd","Tue Mar 28 2023 21:00:37 GMT-0400 (Eastern Daylight Time)","211684","","null","","","","offerFB","","<div class='trialBorder'><div class='vertical-center'><img style='vertical-align:center; align:center' src=img/fixation3.jpg></div><div class='cl'><div class='vertical-center'>$11<br>for<br>sure</div></div><div class='cr'><div class='vertical-center'><font style='color:orange'>$26<br>with a<br>50% chance</font></div></div><div class='respDivL'><div class='vertical-center'>(E)</div></div><div class='respDivR'><div class='vertical-center'><font style='color:orange'>(I)</font></div></div></div>","null","$11","$26","0","11","26",""
"html-keyboard-response","103","140844","0.0-5.0-1.33","560ce65601c38a0012769e20","bdp_rd","Tue Mar 28 2023 21:00:37 GMT-0400 (Eastern Daylight Time)","211684","","null","","","","FIX","","<div class='trialBorder'><div class='vertical-center'><img style='vertical-align:center; align:center' src=img/fixation3.jpg></div></div>","null","","","","","",""
"html-keyboard-response","104","144764","0.0-5.0-2.33","560ce65601c38a0012769e20","bdp_rd","Tue Mar 28 2023 21:00:37 GMT-0400 (Eastern Daylight Time)","211684","","3919","","","","offer","","<div class='trialBorder'><div class='vertical-center'><img style='vertical-align:center; align:center' src=img/fixation3.jpg></div><div class='cl'><div class='vertical-center'>$22<br>with a<br>50% chance</div></div><div class='cr'><div class='vertical-center'>$14<br>for<br>sure</div></div><div class='respDivL'><div class='vertical-center'>(E)</div></div><div class='respDivR'><div class='vertical-center'>(I)</div></div></div>","I","$14","$22","1","14","22","SURE"
"html-keyboard-response","105","145022","0.0-5.0-3.33","560ce65601c38a0012769e20","bdp_rd","Tue Mar 28 2023 21:00:37 GMT-0400 (Eastern Daylight Time)","211684","","null","","","","offerFB","","<div class='trialBorder'><div class='vertical-center'><img style='vertical-align:center; align:center' src=img/fixation3.jpg></div><div class='cl'><div class='vertical-center'>$22<br>with a<br>50% chance</div></div><div class='cr'><div class='vertical-center'><font style='color:orange'>$14<br>for<br>sure</font></div></div><div class='respDivL'><div class='vertical-center'>(E)</div></div><div class='respDivR'><div class='vertical-center'><font style='color:orange'>(I)</font></div></div></div>","null","$14","$22","1","14","22",""
"html-keyboard-response","106","145524","0.0-5.0-1.34","560ce65601c38a0012769e20","bdp_rd","Tue Mar 28 2023 21:00:37 GMT-0400 (Eastern Daylight Time)","211684","","null","","","","FIX","","<div class='trialBorder'><div class='vertical-center'><img style='vertical-align:center; align:center' src=img/fixation3.jpg></div></div>","null","","","","","",""
"html-keyboard-response","107","147206","0.0-5.0-2.34","560ce65601c38a0012769e20","bdp_rd","Tue Mar 28 2023 21:00:37 GMT-0400 (Eastern Daylight Time)","211684","","1681","","","","offer","","<div class='trialBorder'><div class='vertical-center'><img style='vertical-align:center; align:center' src=img/fixation3.jpg></div><div class='cl'><div class='vertical-center'>$6<br>for<br>sure</div></div><div class='cr'><div class='vertical-center'>$13<br>with a<br>50% chance</div></div><div class='respDivL'><div class='vertical-center'>(E)</div></div><div class='respDivR'><div class='vertical-center'>(I)</div></div></div>","I","$6","$13","0","6","13","RISKY"
"html-keyboard-response","108","147474","0.0-5.0-3.34","560ce65601c38a0012769e20","bdp_rd","Tue Mar 28 2023 21:00:37 GMT-0400 (Eastern Daylight Time)","211684","","null","","","","offerFB","","<div class='trialBorder'><div class='vertical-center'><img style='vertical-align:center; align:center' src=img/fixation3.jpg></div><div class='cl'><div class='vertical-center'>$6<br>for<br>sure</div></div><div class='cr'><div class='vertical-center'><font style='color:orange'>$13<br>with a<br>50% chance</font></div></div><div class='respDivL'><div class='vertical-center'>(E)</div></div><div class='respDivR'><div class='vertical-center'><font style='color:orange'>(I)</font></div></div></div>","null","$6","$13","0","6","13",""
"html-keyboard-response","109","147976","0.0-5.0-1.35","560ce65601c38a0012769e20","bdp_rd","Tue Mar 28 2023 21:00:37 GMT-0400 (Eastern Daylight Time)","211684","","null","","","","FIX","","<div class='trialBorder'><div class='vertical-center'><img style='vertical-align:center; align:center' src=img/fixation3.jpg></div></div>","null","","","","","",""
"html-keyboard-response","110","150831","0.0-5.0-2.35","560ce65601c38a0012769e20","bdp_rd","Tue Mar 28 2023 21:00:37 GMT-0400 (Eastern Daylight Time)","211684","","2853","","","","offer","","<div class='trialBorder'><div class='vertical-center'><img style='vertical-align:center; align:center' src=img/fixation3.jpg></div><div class='cl'><div class='vertical-center'>$12<br>with a<br>50% chance</div></div><div class='cr'><div class='vertical-center'>$3<br>for<br>sure</div></div><div class='respDivL'><div class='vertical-center'>(E)</div></div><div class='respDivR'><div class='vertical-center'>(I)</div></div></div>","E","$3","$12","1","3","12","RISKY"
"html-keyboard-response","111","151087","0.0-5.0-3.35","560ce65601c38a0012769e20","bdp_rd","Tue Mar 28 2023 21:00:37 GMT-0400 (Eastern Daylight Time)","211684","","null","","","","offerFB","","<div class='trialBorder'><div class='vertical-center'><img style='vertical-align:center; align:center' src=img/fixation3.jpg></div><div class='cl'><div class='vertical-center'><font style='color:orange'>$12<br>with a<br>50% chance</font></div></div><div class='cr'><div class='vertical-center'>$3<br>for<br>sure</div></div><div class='respDivL'><div class='vertical-center'><font style='color:orange'>(E)</font></div></div><div class='respDivR'><div class='vertical-center'>(I)</div></div></div>","null","$3","$12","1","3","12",""
"html-keyboard-response","112","151590","0.0-5.0-1.36","560ce65601c38a0012769e20","bdp_rd","Tue Mar 28 2023 21:00:37 GMT-0400 (Eastern Daylight Time)","211684","","null","","","","FIX","","<div class='trialBorder'><div class='vertical-center'><img style='vertical-align:center; align:center' src=img/fixation3.jpg></div></div>","null","","","","","",""
"html-keyboard-response","113","153628","0.0-5.0-2.36","560ce65601c38a0012769e20","bdp_rd","Tue Mar 28 2023 21:00:37 GMT-0400 (Eastern Daylight Time)","211684","","2036","","","","offer","","<div class='trialBorder'><div class='vertical-center'><img style='vertical-align:center; align:center' src=img/fixation3.jpg></div><div class='cl'><div class='vertical-center'>$81<br>with a<br>50% chance</div></div><div class='cr'><div class='vertical-center'>$39<br>for<br>sure</div></div><div class='respDivL'><div class='vertical-center'>(E)</div></div><div class='respDivR'><div class='vertical-center'>(I)</div></div></div>","E","$39","$81","1","39","81","RISKY"
"html-keyboard-response","114","153884","0.0-5.0-3.36","560ce65601c38a0012769e20","bdp_rd","Tue Mar 28 2023 21:00:37 GMT-0400 (Eastern Daylight Time)","211684","","null","","","","offerFB","","<div class='trialBorder'><div class='vertical-center'><img style='vertical-align:center; align:center' src=img/fixation3.jpg></div><div class='cl'><div class='vertical-center'><font style='color:orange'>$81<br>with a<br>50% chance</font></div></div><div class='cr'><div class='vertical-center'>$39<br>for<br>sure</div></div><div class='respDivL'><div class='vertical-center'><font style='color:orange'>(E)</font></div></div><div class='respDivR'><div class='vertical-center'>(I)</div></div></div>","null","$39","$81","1","39","81",""
"html-keyboard-response","115","154386","0.0-5.0-1.37","560ce65601c38a0012769e20","bdp_rd","Tue Mar 28 2023 21:00:37 GMT-0400 (Eastern Daylight Time)","211684","","null","","","","FIX","","<div class='trialBorder'><div class='vertical-center'><img style='vertical-align:center; align:center' src=img/fixation3.jpg></div></div>","null","","","","","",""
"html-keyboard-response","116","155929","0.0-5.0-2.37","560ce65601c38a0012769e20","bdp_rd","Tue Mar 28 2023 21:00:37 GMT-0400 (Eastern Daylight Time)","211684","","1541","","","","offer","","<div class='trialBorder'><div class='vertical-center'><img style='vertical-align:center; align:center' src=img/fixation3.jpg></div><div class='cl'><div class='vertical-center'>$58<br>for<br>sure</div></div><div class='cr'><div class='vertical-center'>$69<br>with a<br>50% chance</div></div><div class='respDivL'><div class='vertical-center'>(E)</div></div><div class='respDivR'><div class='vertical-center'>(I)</div></div></div>","E","$58","$69","0","58","69","SURE"
"html-keyboard-response","117","156193","0.0-5.0-3.37","560ce65601c38a0012769e20","bdp_rd","Tue Mar 28 2023 21:00:37 GMT-0400 (Eastern Daylight Time)","211684","","null","","","","offerFB","","<div class='trialBorder'><div class='vertical-center'><img style='vertical-align:center; align:center' src=img/fixation3.jpg></div><div class='cl'><div class='vertical-center'><font style='color:orange'>$58<br>for<br>sure</font></div></div><div class='cr'><div class='vertical-center'>$69<br>with a<br>50% chance</div></div><div class='respDivL'><div class='vertical-center'><font style='color:orange'>(E)</font></div></div><div class='respDivR'><div class='vertical-center'>(I)</div></div></div>","null","$58","$69","0","58","69",""
"html-keyboard-response","118","156696","0.0-5.0-1.38","560ce65601c38a0012769e20","bdp_rd","Tue Mar 28 2023 21:00:37 GMT-0400 (Eastern Daylight Time)","211684","","null","","","","FIX","","<div class='trialBorder'><div class='vertical-center'><img style='vertical-align:center; align:center' src=img/fixation3.jpg></div></div>","null","","","","","",""
"html-keyboard-response","119","158041","0.0-5.0-2.38","560ce65601c38a0012769e20","bdp_rd","Tue Mar 28 2023 21:00:37 GMT-0400 (Eastern Daylight Time)","211684","","1344","","","","offer","","<div class='trialBorder'><div class='vertical-center'><img style='vertical-align:center; align:center' src=img/fixation3.jpg></div><div class='cl'><div class='vertical-center'>$12<br>for<br>sure</div></div><div class='cr'><div class='vertical-center'>$35<br>with a<br>50% chance</div></div><div class='respDivL'><div class='vertical-center'>(E)</div></div><div class='respDivR'><div class='vertical-center'>(I)</div></div></div>","I","$12","$35","0","12","35","RISKY"
"html-keyboard-response","120","158299","0.0-5.0-3.38","560ce65601c38a0012769e20","bdp_rd","Tue Mar 28 2023 21:00:37 GMT-0400 (Eastern Daylight Time)","211684","","null","","","","offerFB","","<div class='trialBorder'><div class='vertical-center'><img style='vertical-align:center; align:center' src=img/fixation3.jpg></div><div class='cl'><div class='vertical-center'>$12<br>for<br>sure</div></div><div class='cr'><div class='vertical-center'><font style='color:orange'>$35<br>with a<br>50% chance</font></div></div><div class='respDivL'><div class='vertical-center'>(E)</div></div><div class='respDivR'><div class='vertical-center'><font style='color:orange'>(I)</font></div></div></div>","null","$12","$35","0","12","35",""
"html-keyboard-response","121","158802","0.0-5.0-1.39","560ce65601c38a0012769e20","bdp_rd","Tue Mar 28 2023 21:00:37 GMT-0400 (Eastern Daylight Time)","211684","","null","","","","FIX","","<div class='trialBorder'><div class='vertical-center'><img style='vertical-align:center; align:center' src=img/fixation3.jpg></div></div>","null","","","","","",""
"html-keyboard-response","122","162158","0.0-5.0-2.39","560ce65601c38a0012769e20","bdp_rd","Tue Mar 28 2023 21:00:37 GMT-0400 (Eastern Daylight Time)","211684","","3353","","","","offer","","<div class='trialBorder'><div class='vertical-center'><img style='vertical-align:center; align:center' src=img/fixation3.jpg></div><div class='cl'><div class='vertical-center'>$42<br>for<br>sure</div></div><div class='cr'><div class='vertical-center'>$73<br>with a<br>50% chance</div></div><div class='respDivL'><div class='vertical-center'>(E)</div></div><div class='respDivR'><div class='vertical-center'>(I)</div></div></div>","I","$42","$73","0","42","73","RISKY"
"html-keyboard-response","123","162415","0.0-5.0-3.39","560ce65601c38a0012769e20","bdp_rd","Tue Mar 28 2023 21:00:37 GMT-0400 (Eastern Daylight Time)","211684","","null","","","","offerFB","","<div class='trialBorder'><div class='vertical-center'><img style='vertical-align:center; align:center' src=img/fixation3.jpg></div><div class='cl'><div class='vertical-center'>$42<br>for<br>sure</div></div><div class='cr'><div class='vertical-center'><font style='color:orange'>$73<br>with a<br>50% chance</font></div></div><div class='respDivL'><div class='vertical-center'>(E)</div></div><div class='respDivR'><div class='vertical-center'><font style='color:orange'>(I)</font></div></div></div>","null","$42","$73","0","42","73",""
"html-keyboard-response","124","162919","0.0-5.0-1.40","560ce65601c38a0012769e20","bdp_rd","Tue Mar 28 2023 21:00:37 GMT-0400 (Eastern Daylight Time)","211684","","null","","","","FIX","","<div class='trialBorder'><div class='vertical-center'><img style='vertical-align:center; align:center' src=img/fixation3.jpg></div></div>","null","","","","","",""
"html-keyboard-response","125","165633","0.0-5.0-2.40","560ce65601c38a0012769e20","bdp_rd","Tue Mar 28 2023 21:00:37 GMT-0400 (Eastern Daylight Time)","211684","","2713","","","","offer","","<div class='trialBorder'><div class='vertical-center'><img style='vertical-align:center; align:center' src=img/fixation3.jpg></div><div class='cl'><div class='vertical-center'>$47<br>with a<br>50% chance</div></div><div class='cr'><div class='vertical-center'>$27<br>for<br>sure</div></div><div class='respDivL'><div class='vertical-center'>(E)</div></div><div class='respDivR'><div class='vertical-center'>(I)</div></div></div>","E","$27","$47","1","27","47","RISKY"
"html-keyboard-response","126","165888","0.0-5.0-3.40","560ce65601c38a0012769e20","bdp_rd","Tue Mar 28 2023 21:00:37 GMT-0400 (Eastern Daylight Time)","211684","","null","","","","offerFB","","<div class='trialBorder'><div class='vertical-center'><img style='vertical-align:center; align:center' src=img/fixation3.jpg></div><div class='cl'><div class='vertical-center'><font style='color:orange'>$47<br>with a<br>50% chance</font></div></div><div class='cr'><div class='vertical-center'>$27<br>for<br>sure</div></div><div class='respDivL'><div class='vertical-center'><font style='color:orange'>(E)</font></div></div><div class='respDivR'><div class='vertical-center'>(I)</div></div></div>","null","$27","$47","1","27","47",""
"html-keyboard-response","127","166391","0.0-5.0-1.41","560ce65601c38a0012769e20","bdp_rd","Tue Mar 28 2023 21:00:37 GMT-0400 (Eastern Daylight Time)","211684","","null","","","","FIX","","<div class='trialBorder'><div class='vertical-center'><img style='vertical-align:center; align:center' src=img/fixation3.jpg></div></div>","null","","","","","",""
"html-keyboard-response","128","167601","0.0-5.0-2.41","560ce65601c38a0012769e20","bdp_rd","Tue Mar 28 2023 21:00:37 GMT-0400 (Eastern Daylight Time)","211684","","1210","","","","offer","","<div class='trialBorder'><div class='vertical-center'><img style='vertical-align:center; align:center' src=img/fixation3.jpg></div><div class='cl'><div class='vertical-center'>$13<br>for<br>sure</div></div><div class='cr'><div class='vertical-center'>$41<br>with a<br>50% chance</div></div><div class='respDivL'><div class='vertical-center'>(E)</div></div><div class='respDivR'><div class='vertical-center'>(I)</div></div></div>","I","$13","$41","0","13","41","RISKY"
"html-keyboard-response","129","167853","0.0-5.0-3.41","560ce65601c38a0012769e20","bdp_rd","Tue Mar 28 2023 21:00:37 GMT-0400 (Eastern Daylight Time)","211684","","null","","","","offerFB","","<div class='trialBorder'><div class='vertical-center'><img style='vertical-align:center; align:center' src=img/fixation3.jpg></div><div class='cl'><div class='vertical-center'>$13<br>for<br>sure</div></div><div class='cr'><div class='vertical-center'><font style='color:orange'>$41<br>with a<br>50% chance</font></div></div><div class='respDivL'><div class='vertical-center'>(E)</div></div><div class='respDivR'><div class='vertical-center'><font style='color:orange'>(I)</font></div></div></div>","null","$13","$41","0","13","41",""
"html-keyboard-response","130","168356","0.0-5.0-1.42","560ce65601c38a0012769e20","bdp_rd","Tue Mar 28 2023 21:00:37 GMT-0400 (Eastern Daylight Time)","211684","","null","","","","FIX","","<div class='trialBorder'><div class='vertical-center'><img style='vertical-align:center; align:center' src=img/fixation3.jpg></div></div>","null","","","","","",""
"html-keyboard-response","131","169947","0.0-5.0-2.42","560ce65601c38a0012769e20","bdp_rd","Tue Mar 28 2023 21:00:37 GMT-0400 (Eastern Daylight Time)","211684","","1591","","","","offer","","<div class='trialBorder'><div class='vertical-center'><img style='vertical-align:center; align:center' src=img/fixation3.jpg></div><div class='cl'><div class='vertical-center'>$25<br>with a<br>50% chance</div></div><div class='cr'><div class='vertical-center'>$21<br>for<br>sure</div></div><div class='respDivL'><div class='vertical-center'>(E)</div></div><div class='respDivR'><div class='vertical-center'>(I)</div></div></div>","I","$21","$25","1","21","25","SURE"
"html-keyboard-response","132","170209","0.0-5.0-3.42","560ce65601c38a0012769e20","bdp_rd","Tue Mar 28 2023 21:00:37 GMT-0400 (Eastern Daylight Time)","211684","","null","","","","offerFB","","<div class='trialBorder'><div class='vertical-center'><img style='vertical-align:center; align:center' src=img/fixation3.jpg></div><div class='cl'><div class='vertical-center'>$25<br>with a<br>50% chance</div></div><div class='cr'><div class='vertical-center'><font style='color:orange'>$21<br>for<br>sure</font></div></div><div class='respDivL'><div class='vertical-center'>(E)</div></div><div class='respDivR'><div class='vertical-center'><font style='color:orange'>(I)</font></div></div></div>","null","$21","$25","1","21","25",""
"html-keyboard-response","133","170712","0.0-5.0-1.43","560ce65601c38a0012769e20","bdp_rd","Tue Mar 28 2023 21:00:37 GMT-0400 (Eastern Daylight Time)","211684","","null","","","","FIX","","<div class='trialBorder'><div class='vertical-center'><img style='vertical-align:center; align:center' src=img/fixation3.jpg></div></div>","null","","","","","",""
"html-keyboard-response","134","172120","0.0-5.0-2.43","560ce65601c38a0012769e20","bdp_rd","Tue Mar 28 2023 21:00:37 GMT-0400 (Eastern Daylight Time)","211684","","1405","","","","offer","","<div class='trialBorder'><div class='vertical-center'><img style='vertical-align:center; align:center' src=img/fixation3.jpg></div><div class='cl'><div class='vertical-center'>$10<br>for<br>sure</div></div><div class='cr'><div class='vertical-center'>$40<br>with a<br>50% chance</div></div><div class='respDivL'><div class='vertical-center'>(E)</div></div><div class='respDivR'><div class='vertical-center'>(I)</div></div></div>","I","$10","$40","0","10","40","RISKY"
"html-keyboard-response","135","172377","0.0-5.0-3.43","560ce65601c38a0012769e20","bdp_rd","Tue Mar 28 2023 21:00:37 GMT-0400 (Eastern Daylight Time)","211684","","null","","","","offerFB","","<div class='trialBorder'><div class='vertical-center'><img style='vertical-align:center; align:center' src=img/fixation3.jpg></div><div class='cl'><div class='vertical-center'>$10<br>for<br>sure</div></div><div class='cr'><div class='vertical-center'><font style='color:orange'>$40<br>with a<br>50% chance</font></div></div><div class='respDivL'><div class='vertical-center'>(E)</div></div><div class='respDivR'><div class='vertical-center'><font style='color:orange'>(I)</font></div></div></div>","null","$10","$40","0","10","40",""
"html-keyboard-response","136","173274","0.0-5.0-1.44","560ce65601c38a0012769e20","bdp_rd","Tue Mar 28 2023 21:00:37 GMT-0400 (Eastern Daylight Time)","211684","","null","","","","FIX","","<div class='trialBorder'><div class='vertical-center'><img style='vertical-align:center; align:center' src=img/fixation3.jpg></div></div>","null","","","","","",""
"html-keyboard-response","137","174430","0.0-5.0-2.44","560ce65601c38a0012769e20","bdp_rd","Tue Mar 28 2023 21:00:37 GMT-0400 (Eastern Daylight Time)","211684","","1153","","","","offer","","<div class='trialBorder'><div class='vertical-center'><img style='vertical-align:center; align:center' src=img/fixation3.jpg></div><div class='cl'><div class='vertical-center'>$50<br>with a<br>50% chance</div></div><div class='cr'><div class='vertical-center'>$5<br>for<br>sure</div></div><div class='respDivL'><div class='vertical-center'>(E)</div></div><div class='respDivR'><div class='vertical-center'>(I)</div></div></div>","E","$5","$50","1","5","50","RISKY"
"html-keyboard-response","138","174688","0.0-5.0-3.44","560ce65601c38a0012769e20","bdp_rd","Tue Mar 28 2023 21:00:37 GMT-0400 (Eastern Daylight Time)","211684","","null","","","","offerFB","","<div class='trialBorder'><div class='vertical-center'><img style='vertical-align:center; align:center' src=img/fixation3.jpg></div><div class='cl'><div class='vertical-center'><font style='color:orange'>$50<br>with a<br>50% chance</font></div></div><div class='cr'><div class='vertical-center'>$5<br>for<br>sure</div></div><div class='respDivL'><div class='vertical-center'><font style='color:orange'>(E)</font></div></div><div class='respDivR'><div class='vertical-center'>(I)</div></div></div>","null","$5","$50","1","5","50",""
"html-keyboard-response","139","175190","0.0-5.0-1.45","560ce65601c38a0012769e20","bdp_rd","Tue Mar 28 2023 21:00:37 GMT-0400 (Eastern Daylight Time)","211684","","null","","","","FIX","","<div class='trialBorder'><div class='vertical-center'><img style='vertical-align:center; align:center' src=img/fixation3.jpg></div></div>","null","","","","","",""
"html-keyboard-response","140","177193","0.0-5.0-2.45","560ce65601c38a0012769e20","bdp_rd","Tue Mar 28 2023 21:00:37 GMT-0400 (Eastern Daylight Time)","211684","","2001","","","","offer","","<div class='trialBorder'><div class='vertical-center'><img style='vertical-align:center; align:center' src=img/fixation3.jpg></div><div class='cl'><div class='vertical-center'>$5<br>for<br>sure</div></div><div class='cr'><div class='vertical-center'>$16<br>with a<br>50% chance</div></div><div class='respDivL'><div class='vertical-center'>(E)</div></div><div class='respDivR'><div class='vertical-center'>(I)</div></div></div>","I","$5","$16","0","5","16","RISKY"
"html-keyboard-response","141","177454","0.0-5.0-3.45","560ce65601c38a0012769e20","bdp_rd","Tue Mar 28 2023 21:00:37 GMT-0400 (Eastern Daylight Time)","211684","","null","","","","offerFB","","<div class='trialBorder'><div class='vertical-center'><img style='vertical-align:center; align:center' src=img/fixation3.jpg></div><div class='cl'><div class='vertical-center'>$5<br>for<br>sure</div></div><div class='cr'><div class='vertical-center'><font style='color:orange'>$16<br>with a<br>50% chance</font></div></div><div class='respDivL'><div class='vertical-center'>(E)</div></div><div class='respDivR'><div class='vertical-center'><font style='color:orange'>(I)</font></div></div></div>","null","$5","$16","0","5","16",""
"html-keyboard-response","142","177957","0.0-5.0-1.46","560ce65601c38a0012769e20","bdp_rd","Tue Mar 28 2023 21:00:37 GMT-0400 (Eastern Daylight Time)","211684","","null","","","","FIX","","<div class='trialBorder'><div class='vertical-center'><img style='vertical-align:center; align:center' src=img/fixation3.jpg></div></div>","null","","","","","",""
"html-keyboard-response","143","179507","0.0-5.0-2.46","560ce65601c38a0012769e20","bdp_rd","Tue Mar 28 2023 21:00:37 GMT-0400 (Eastern Daylight Time)","211684","","1548","","","","offer","","<div class='trialBorder'><div class='vertical-center'><img style='vertical-align:center; align:center' src=img/fixation3.jpg></div><div class='cl'><div class='vertical-center'>$26<br>for<br>sure</div></div><div class='cr'><div class='vertical-center'>$92<br>with a<br>50% chance</div></div><div class='respDivL'><div class='vertical-center'>(E)</div></div><div class='respDivR'><div class='vertical-center'>(I)</div></div></div>","I","$26","$92","0","26","92","RISKY"
"html-keyboard-response","144","179764","0.0-5.0-3.46","560ce65601c38a0012769e20","bdp_rd","Tue Mar 28 2023 21:00:37 GMT-0400 (Eastern Daylight Time)","211684","","null","","","","offerFB","","<div class='trialBorder'><div class='vertical-center'><img style='vertical-align:center; align:center' src=img/fixation3.jpg></div><div class='cl'><div class='vertical-center'>$26<br>for<br>sure</div></div><div class='cr'><div class='vertical-center'><font style='color:orange'>$92<br>with a<br>50% chance</font></div></div><div class='respDivL'><div class='vertical-center'>(E)</div></div><div class='respDivR'><div class='vertical-center'><font style='color:orange'>(I)</font></div></div></div>","null","$26","$92","0","26","92",""
"html-keyboard-response","145","180267","0.0-5.0-1.47","560ce65601c38a0012769e20","bdp_rd","Tue Mar 28 2023 21:00:37 GMT-0400 (Eastern Daylight Time)","211684","","null","","","","FIX","","<div class='trialBorder'><div class='vertical-center'><img style='vertical-align:center; align:center' src=img/fixation3.jpg></div></div>","null","","","","","",""
"html-keyboard-response","146","181842","0.0-5.0-2.47","560ce65601c38a0012769e20","bdp_rd","Tue Mar 28 2023 21:00:37 GMT-0400 (Eastern Daylight Time)","211684","","1573","","","","offer","","<div class='trialBorder'><div class='vertical-center'><img style='vertical-align:center; align:center' src=img/fixation3.jpg></div><div class='cl'><div class='vertical-center'>$18<br>for<br>sure</div></div><div class='cr'><div class='vertical-center'>$36<br>with a<br>50% chance</div></div><div class='respDivL'><div class='vertical-center'>(E)</div></div><div class='respDivR'><div class='vertical-center'>(I)</div></div></div>","I","$18","$36","0","18","36","RISKY"
"html-keyboard-response","147","182106","0.0-5.0-3.47","560ce65601c38a0012769e20","bdp_rd","Tue Mar 28 2023 21:00:37 GMT-0400 (Eastern Daylight Time)","211684","","null","","","","offerFB","","<div class='trialBorder'><div class='vertical-center'><img style='vertical-align:center; align:center' src=img/fixation3.jpg></div><div class='cl'><div class='vertical-center'>$18<br>for<br>sure</div></div><div class='cr'><div class='vertical-center'><font style='color:orange'>$36<br>with a<br>50% chance</font></div></div><div class='respDivL'><div class='vertical-center'>(E)</div></div><div class='respDivR'><div class='vertical-center'><font style='color:orange'>(I)</font></div></div></div>","null","$18","$36","0","18","36",""
"html-keyboard-response","148","182609","0.0-5.0-1.48","560ce65601c38a0012769e20","bdp_rd","Tue Mar 28 2023 21:00:37 GMT-0400 (Eastern Daylight Time)","211684","","null","","","","FIX","","<div class='trialBorder'><div class='vertical-center'><img style='vertical-align:center; align:center' src=img/fixation3.jpg></div></div>","null","","","","","",""
"html-keyboard-response","149","184209","0.0-5.0-2.48","560ce65601c38a0012769e20","bdp_rd","Tue Mar 28 2023 21:00:37 GMT-0400 (Eastern Daylight Time)","211684","","1599","","","","offer","","<div class='trialBorder'><div class='vertical-center'><img style='vertical-align:center; align:center' src=img/fixation3.jpg></div><div class='cl'><div class='vertical-center'>$30<br>for<br>sure</div></div><div class='cr'><div class='vertical-center'>$68<br>with a<br>50% chance</div></div><div class='respDivL'><div class='vertical-center'>(E)</div></div><div class='respDivR'><div class='vertical-center'>(I)</div></div></div>","I","$30","$68","0","30","68","RISKY"
"html-keyboard-response","150","184462","0.0-5.0-3.48","560ce65601c38a0012769e20","bdp_rd","Tue Mar 28 2023 21:00:37 GMT-0400 (Eastern Daylight Time)","211684","","null","","","","offerFB","","<div class='trialBorder'><div class='vertical-center'><img style='vertical-align:center; align:center' src=img/fixation3.jpg></div><div class='cl'><div class='vertical-center'>$30<br>for<br>sure</div></div><div class='cr'><div class='vertical-center'><font style='color:orange'>$68<br>with a<br>50% chance</font></div></div><div class='respDivL'><div class='vertical-center'>(E)</div></div><div class='respDivR'><div class='vertical-center'><font style='color:orange'>(I)</font></div></div></div>","null","$30","$68","0","30","68",""
"html-keyboard-response","151","185263","0.0-5.0-1.49","560ce65601c38a0012769e20","bdp_rd","Tue Mar 28 2023 21:00:37 GMT-0400 (Eastern Daylight Time)","211684","","null","","","","FIX","","<div class='trialBorder'><div class='vertical-center'><img style='vertical-align:center; align:center' src=img/fixation3.jpg></div></div>","null","","","","","",""
"html-keyboard-response","152","186859","0.0-5.0-2.49","560ce65601c38a0012769e20","bdp_rd","Tue Mar 28 2023 21:00:37 GMT-0400 (Eastern Daylight Time)","211684","","1595","","","","offer","","<div class='trialBorder'><div class='vertical-center'><img style='vertical-align:center; align:center' src=img/fixation3.jpg></div><div class='cl'><div class='vertical-center'>$44<br>with a<br>50% chance</div></div><div class='cr'><div class='vertical-center'>$37<br>for<br>sure</div></div><div class='respDivL'><div class='vertical-center'>(E)</div></div><div class='respDivR'><div class='vertical-center'>(I)</div></div></div>","I","$37","$44","1","37","44","SURE"
"html-keyboard-response","153","187118","0.0-5.0-3.49","560ce65601c38a0012769e20","bdp_rd","Tue Mar 28 2023 21:00:37 GMT-0400 (Eastern Daylight Time)","211684","","null","","","","offerFB","","<div class='trialBorder'><div class='vertical-center'><img style='vertical-align:center; align:center' src=img/fixation3.jpg></div><div class='cl'><div class='vertical-center'>$44<br>with a<br>50% chance</div></div><div class='cr'><div class='vertical-center'><font style='color:orange'>$37<br>for<br>sure</font></div></div><div class='respDivL'><div class='vertical-center'>(E)</div></div><div class='respDivR'><div class='vertical-center'><font style='color:orange'>(I)</font></div></div></div>","null","$37","$44","1","37","44",""
"html-keyboard-response","154","187621","0.0-5.0-1.50","560ce65601c38a0012769e20","bdp_rd","Tue Mar 28 2023 21:00:37 GMT-0400 (Eastern Daylight Time)","211684","","null","","","","FIX","","<div class='trialBorder'><div class='vertical-center'><img style='vertical-align:center; align:center' src=img/fixation3.jpg></div></div>","null","","","","","",""
"html-keyboard-response","155","189440","0.0-5.0-2.50","560ce65601c38a0012769e20","bdp_rd","Tue Mar 28 2023 21:00:37 GMT-0400 (Eastern Daylight Time)","211684","","1818","","","","offer","","<div class='trialBorder'><div class='vertical-center'><img style='vertical-align:center; align:center' src=img/fixation3.jpg></div><div class='cl'><div class='vertical-center'>$18<br>with a<br>50% chance</div></div><div class='cr'><div class='vertical-center'>$9<br>for<br>sure</div></div><div class='respDivL'><div class='vertical-center'>(E)</div></div><div class='respDivR'><div class='vertical-center'>(I)</div></div></div>","E","$9","$18","1","9","18","RISKY"
"html-keyboard-response","156","189696","0.0-5.0-3.50","560ce65601c38a0012769e20","bdp_rd","Tue Mar 28 2023 21:00:37 GMT-0400 (Eastern Daylight Time)","211684","","null","","","","offerFB","","<div class='trialBorder'><div class='vertical-center'><img style='vertical-align:center; align:center' src=img/fixation3.jpg></div><div class='cl'><div class='vertical-center'><font style='color:orange'>$18<br>with a<br>50% chance</font></div></div><div class='cr'><div class='vertical-center'>$9<br>for<br>sure</div></div><div class='respDivL'><div class='vertical-center'><font style='color:orange'>(E)</font></div></div><div class='respDivR'><div class='vertical-center'>(I)</div></div></div>","null","$9","$18","1","9","18",""
"html-keyboard-response","157","190199","0.0-5.0-1.51","560ce65601c38a0012769e20","bdp_rd","Tue Mar 28 2023 21:00:37 GMT-0400 (Eastern Daylight Time)","211684","","null","","","","FIX","","<div class='trialBorder'><div class='vertical-center'><img style='vertical-align:center; align:center' src=img/fixation3.jpg></div></div>","null","","","","","",""
"html-keyboard-response","158","191266","0.0-5.0-2.51","560ce65601c38a0012769e20","bdp_rd","Tue Mar 28 2023 21:00:37 GMT-0400 (Eastern Daylight Time)","211684","","1066","","","","offer","","<div class='trialBorder'><div class='vertical-center'><img style='vertical-align:center; align:center' src=img/fixation3.jpg></div><div class='cl'><div class='vertical-center'>$2<br>for<br>sure</div></div><div class='cr'><div class='vertical-center'>$21<br>with a<br>50% chance</div></div><div class='respDivL'><div class='vertical-center'>(E)</div></div><div class='respDivR'><div class='vertical-center'>(I)</div></div></div>","I","$2","$21","0","2","21","RISKY"
"html-keyboard-response","159","191519","0.0-5.0-3.51","560ce65601c38a0012769e20","bdp_rd","Tue Mar 28 2023 21:00:37 GMT-0400 (Eastern Daylight Time)","211684","","null","","","","offerFB","","<div class='trialBorder'><div class='vertical-center'><img style='vertical-align:center; align:center' src=img/fixation3.jpg></div><div class='cl'><div class='vertical-center'>$2<br>for<br>sure</div></div><div class='cr'><div class='vertical-center'><font style='color:orange'>$21<br>with a<br>50% chance</font></div></div><div class='respDivL'><div class='vertical-center'>(E)</div></div><div class='respDivR'><div class='vertical-center'><font style='color:orange'>(I)</font></div></div></div>","null","$2","$21","0","2","21",""
"html-keyboard-response","160","192273","0.0-5.0-1.52","560ce65601c38a0012769e20","bdp_rd","Tue Mar 28 2023 21:00:37 GMT-0400 (Eastern Daylight Time)","211684","","null","","","","FIX","","<div class='trialBorder'><div class='vertical-center'><img style='vertical-align:center; align:center' src=img/fixation3.jpg></div></div>","null","","","","","",""
"html-keyboard-response","161","194070","0.0-5.0-2.52","560ce65601c38a0012769e20","bdp_rd","Tue Mar 28 2023 21:00:37 GMT-0400 (Eastern Daylight Time)","211684","","1795","","","","offer","","<div class='trialBorder'><div class='vertical-center'><img style='vertical-align:center; align:center' src=img/fixation3.jpg></div><div class='cl'><div class='vertical-center'>$42<br>with a<br>50% chance</div></div><div class='cr'><div class='vertical-center'>$22<br>for<br>sure</div></div><div class='respDivL'><div class='vertical-center'>(E)</div></div><div class='respDivR'><div class='vertical-center'>(I)</div></div></div>","E","$22","$42","1","22","42","RISKY"
"html-keyboard-response","162","194331","0.0-5.0-3.52","560ce65601c38a0012769e20","bdp_rd","Tue Mar 28 2023 21:00:37 GMT-0400 (Eastern Daylight Time)","211684","","null","","","","offerFB","","<div class='trialBorder'><div class='vertical-center'><img style='vertical-align:center; align:center' src=img/fixation3.jpg></div><div class='cl'><div class='vertical-center'><font style='color:orange'>$42<br>with a<br>50% chance</font></div></div><div class='cr'><div class='vertical-center'>$22<br>for<br>sure</div></div><div class='respDivL'><div class='vertical-center'><font style='color:orange'>(E)</font></div></div><div class='respDivR'><div class='vertical-center'>(I)</div></div></div>","null","$22","$42","1","22","42",""
"html-keyboard-response","163","194834","0.0-5.0-1.53","560ce65601c38a0012769e20","bdp_rd","Tue Mar 28 2023 21:00:37 GMT-0400 (Eastern Daylight Time)","211684","","null","","","","FIX","","<div class='trialBorder'><div class='vertical-center'><img style='vertical-align:center; align:center' src=img/fixation3.jpg></div></div>","null","","","","","",""
"html-keyboard-response","164","196183","0.0-5.0-2.53","560ce65601c38a0012769e20","bdp_rd","Tue Mar 28 2023 21:00:37 GMT-0400 (Eastern Daylight Time)","211684","","1348","","","","offer","","<div class='trialBorder'><div class='vertical-center'><img style='vertical-align:center; align:center' src=img/fixation3.jpg></div><div class='cl'><div class='vertical-center'>$23<br>with a<br>50% chance</div></div><div class='cr'><div class='vertical-center'>$8<br>for<br>sure</div></div><div class='respDivL'><div class='vertical-center'>(E)</div></div><div class='respDivR'><div class='vertical-center'>(I)</div></div></div>","E","$8","$23","1","8","23","RISKY"
"html-keyboard-response","165","196437","0.0-5.0-3.53","560ce65601c38a0012769e20","bdp_rd","Tue Mar 28 2023 21:00:37 GMT-0400 (Eastern Daylight Time)","211684","","null","","","","offerFB","","<div class='trialBorder'><div class='vertical-center'><img style='vertical-align:center; align:center' src=img/fixation3.jpg></div><div class='cl'><div class='vertical-center'><font style='color:orange'>$23<br>with a<br>50% chance</font></div></div><div class='cr'><div class='vertical-center'>$8<br>for<br>sure</div></div><div class='respDivL'><div class='vertical-center'><font style='color:orange'>(E)</font></div></div><div class='respDivR'><div class='vertical-center'>(I)</div></div></div>","null","$8","$23","1","8","23",""
"html-keyboard-response","166","196940","0.0-5.0-1.54","560ce65601c38a0012769e20","bdp_rd","Tue Mar 28 2023 21:00:37 GMT-0400 (Eastern Daylight Time)","211684","","null","","","","FIX","","<div class='trialBorder'><div class='vertical-center'><img style='vertical-align:center; align:center' src=img/fixation3.jpg></div></div>","null","","","","","",""
"html-keyboard-response","167","198943","0.0-5.0-2.54","560ce65601c38a0012769e20","bdp_rd","Tue Mar 28 2023 21:00:37 GMT-0400 (Eastern Daylight Time)","211684","","2002","","","","offer","","<div class='trialBorder'><div class='vertical-center'><img style='vertical-align:center; align:center' src=img/fixation3.jpg></div><div class='cl'><div class='vertical-center'>$16<br>for<br>sure</div></div><div class='cr'><div class='vertical-center'>$28<br>with a<br>50% chance</div></div><div class='respDivL'><div class='vertical-center'>(E)</div></div><div class='respDivR'><div class='vertical-center'>(I)</div></div></div>","I","$16","$28","0","16","28","RISKY"
"html-keyboard-response","168","199266","0.0-5.0-3.54","560ce65601c38a0012769e20","bdp_rd","Tue Mar 28 2023 21:00:37 GMT-0400 (Eastern Daylight Time)","211684","","null","","","","offerFB","","<div class='trialBorder'><div class='vertical-center'><img style='vertical-align:center; align:center' src=img/fixation3.jpg></div><div class='cl'><div class='vertical-center'>$16<br>for<br>sure</div></div><div class='cr'><div class='vertical-center'><font style='color:orange'>$28<br>with a<br>50% chance</font></div></div><div class='respDivL'><div class='vertical-center'>(E)</div></div><div class='respDivR'><div class='vertical-center'><font style='color:orange'>(I)</font></div></div></div>","null","$16","$28","0","16","28",""
"html-keyboard-response","169","200272","0.0-5.0-1.55","560ce65601c38a0012769e20","bdp_rd","Tue Mar 28 2023 21:00:37 GMT-0400 (Eastern Daylight Time)","211684","","null","","","","FIX","","<div class='trialBorder'><div class='vertical-center'><img style='vertical-align:center; align:center' src=img/fixation3.jpg></div></div>","null","","","","","",""
"html-keyboard-response","170","201989","0.0-5.0-2.55","560ce65601c38a0012769e20","bdp_rd","Tue Mar 28 2023 21:00:37 GMT-0400 (Eastern Daylight Time)","211684","","1717","","","","offer","","<div class='trialBorder'><div class='vertical-center'><img style='vertical-align:center; align:center' src=img/fixation3.jpg></div><div class='cl'><div class='vertical-center'>$33<br>for<br>sure</div></div><div class='cr'><div class='vertical-center'>$66<br>with a<br>50% chance</div></div><div class='respDivL'><div class='vertical-center'>(E)</div></div><div class='respDivR'><div class='vertical-center'>(I)</div></div></div>","I","$33","$66","0","33","66","RISKY"
"html-keyboard-response","171","202253","0.0-5.0-3.55","560ce65601c38a0012769e20","bdp_rd","Tue Mar 28 2023 21:00:37 GMT-0400 (Eastern Daylight Time)","211684","","null","","","","offerFB","","<div class='trialBorder'><div class='vertical-center'><img style='vertical-align:center; align:center' src=img/fixation3.jpg></div><div class='cl'><div class='vertical-center'>$33<br>for<br>sure</div></div><div class='cr'><div class='vertical-center'><font style='color:orange'>$66<br>with a<br>50% chance</font></div></div><div class='respDivL'><div class='vertical-center'>(E)</div></div><div class='respDivR'><div class='vertical-center'><font style='color:orange'>(I)</font></div></div></div>","null","$33","$66","0","33","66",""
"html-keyboard-response","172","202756","0.0-5.0-1.56","560ce65601c38a0012769e20","bdp_rd","Tue Mar 28 2023 21:00:37 GMT-0400 (Eastern Daylight Time)","211684","","null","","","","FIX","","<div class='trialBorder'><div class='vertical-center'><img style='vertical-align:center; align:center' src=img/fixation3.jpg></div></div>","null","","","","","",""
"html-keyboard-response","173","203818","0.0-5.0-2.56","560ce65601c38a0012769e20","bdp_rd","Tue Mar 28 2023 21:00:37 GMT-0400 (Eastern Daylight Time)","211684","","1061","","","","offer","","<div class='trialBorder'><div class='vertical-center'><img style='vertical-align:center; align:center' src=img/fixation3.jpg></div><div class='cl'><div class='vertical-center'>$7<br>for<br>sure</div></div><div class='cr'><div class='vertical-center'>$71<br>with a<br>50% chance</div></div><div class='respDivL'><div class='vertical-center'>(E)</div></div><div class='respDivR'><div class='vertical-center'>(I)</div></div></div>","I","$7","$71","0","7","71","RISKY"
