"trial_type","trial_index","time_elapsed","internal_node_id","subject_id","task","startTime","totalTime","view_history","rt","event","trial","time","trialtype","numBlurs","success","stimulus","key_press","sureOffer","riskyOffer","riskyLeft","sureAmt","riskyAmt","chosen"
"pavlovia","0","12","0.0-0.0","6362aca86b740b1ec4cb6efb","bdp_rd","Mon Mar 27 2023 16:46:57 GMT-0400 (Eastern Daylight Time)","273595","","","","","","","","","","","","","","","",""
"instructions","1","23072","0.0-1.0","6362aca86b740b1ec4cb6efb","bdp_rd","Mon Mar 27 2023 16:46:57 GMT-0400 (Eastern Daylight Time)","273595","[{""page_index"":0,""viewing_time"":23058}]","23058","","","","","","","","","","","","","",""
"","","","","6362aca86b740b1ec4cb6efb","bdp_rd","Mon Mar 27 2023 16:46:57 GMT-0400 (Eastern Daylight Time)","273595","","","blur","2","25034","blurevent","1","","","","","","","","",""
"","","","","6362aca86b740b1ec4cb6efb","bdp_rd","Mon Mar 27 2023 16:46:57 GMT-0400 (Eastern Daylight Time)","273595","","","focus","2","25042","focusevent","","","","","","","","","",""
"","","","","6362aca86b740b1ec4cb6efb","bdp_rd","Mon Mar 27 2023 16:46:57 GMT-0400 (Eastern Daylight Time)","273595","","","blur","2","25044","blurevent","","","","","","","","","",""
"","","","","6362aca86b740b1ec4cb6efb","bdp_rd","Mon Mar 27 2023 16:46:57 GMT-0400 (Eastern Daylight Time)","273595","","","fullscreenenter","2","25051","fullscreenenter","","","","","","","","","",""
"","","","","6362aca86b740b1ec4cb6efb","bdp_rd","Mon Mar 27 2023 16:46:57 GMT-0400 (Eastern Daylight Time)","273595","","","focus","2","25303","focusevent","","","","","","","","","",""
"fullscreen","2","26011","0.0-2.0","6362aca86b740b1ec4cb6efb","bdp_rd","Mon Mar 27 2023 16:46:57 GMT-0400 (Eastern Daylight Time)","273595","","","","","","","","true","","","","","","","",""
"","","","","6362aca86b740b1ec4cb6efb","bdp_rd","Mon Mar 27 2023 16:46:57 GMT-0400 (Eastern Daylight Time)","273595","","","fullscreenexit","3","93796","fullscreenexit","","","","","","","","","",""
"instructions","3","106870","0.0-4.0","6362aca86b740b1ec4cb6efb","bdp_rd","Mon Mar 27 2023 16:46:57 GMT-0400 (Eastern Daylight Time)","273595","[{""page_index"":0,""viewing_time"":72956},{""page_index"":1,""viewing_time"":2989},{""page_index"":2,""viewing_time"":4906}]","80851","","","","","","","","","","","","","",""
"image-keyboard-response","4","109888","0.0-5.0-0.0-0.0","6362aca86b740b1ec4cb6efb","bdp_rd","Mon Mar 27 2023 16:46:57 GMT-0400 (Eastern Daylight Time)","273595","","3012","","","","blurwarn","1","","","49","","","","","",""
"html-keyboard-response","5","110645","0.0-5.0-1.0","6362aca86b740b1ec4cb6efb","bdp_rd","Mon Mar 27 2023 16:46:57 GMT-0400 (Eastern Daylight Time)","273595","","null","","","","FIX","","","<div class='trialBorder'><div class='vertical-center'><img style='vertical-align:center; align:center' src=img/fixation3.jpg></div></div>","null","","","","","",""
"html-keyboard-response","6","113503","0.0-5.0-2.0","6362aca86b740b1ec4cb6efb","bdp_rd","Mon Mar 27 2023 16:46:57 GMT-0400 (Eastern Daylight Time)","273595","","2853","","","","offer","","","<div class='trialBorder'><div class='vertical-center'><img style='vertical-align:center; align:center' src=img/fixation3.jpg></div><div class='cl'><div class='vertical-center'>$98<br>with a<br>50% chance</div></div><div class='cr'><div class='vertical-center'>$53<br>for<br>sure</div></div><div class='respDivL'><div class='vertical-center'>(E)</div></div><div class='respDivR'><div class='vertical-center'>(I)</div></div></div>","E","$53","$98","1","53","98","RISKY"
"html-keyboard-response","7","113759","0.0-5.0-3.0","6362aca86b740b1ec4cb6efb","bdp_rd","Mon Mar 27 2023 16:46:57 GMT-0400 (Eastern Daylight Time)","273595","","null","","","","offerFB","","","<div class='trialBorder'><div class='vertical-center'><img style='vertical-align:center; align:center' src=img/fixation3.jpg></div><div class='cl'><div class='vertical-center'><font style='color:orange'>$98<br>with a<br>50% chance</font></div></div><div class='cr'><div class='vertical-center'>$53<br>for<br>sure</div></div><div class='respDivL'><div class='vertical-center'><font style='color:orange'>(E)</font></div></div><div class='respDivR'><div class='vertical-center'>(I)</div></div></div>","null","$53","$98","1","53","98",""
"html-keyboard-response","8","114265","0.0-5.0-1.1","6362aca86b740b1ec4cb6efb","bdp_rd","Mon Mar 27 2023 16:46:57 GMT-0400 (Eastern Daylight Time)","273595","","null","","","","FIX","","","<div class='trialBorder'><div class='vertical-center'><img style='vertical-align:center; align:center' src=img/fixation3.jpg></div></div>","null","","","","","",""
"html-keyboard-response","9","117828","0.0-5.0-2.1","6362aca86b740b1ec4cb6efb","bdp_rd","Mon Mar 27 2023 16:46:57 GMT-0400 (Eastern Daylight Time)","273595","","3559","","","","offer","","","<div class='trialBorder'><div class='vertical-center'><img style='vertical-align:center; align:center' src=img/fixation3.jpg></div><div class='cl'><div class='vertical-center'>$14<br>for<br>sure</div></div><div class='cr'><div class='vertical-center'>$29<br>with a<br>50% chance</div></div><div class='respDivL'><div class='vertical-center'>(E)</div></div><div class='respDivR'><div class='vertical-center'>(I)</div></div></div>","E","$14","$29","0","14","29","SURE"
"html-keyboard-response","10","118084","0.0-5.0-3.1","6362aca86b740b1ec4cb6efb","bdp_rd","Mon Mar 27 2023 16:46:57 GMT-0400 (Eastern Daylight Time)","273595","","null","","","","offerFB","","","<div class='trialBorder'><div class='vertical-center'><img style='vertical-align:center; align:center' src=img/fixation3.jpg></div><div class='cl'><div class='vertical-center'><font style='color:orange'>$14<br>for<br>sure</font></div></div><div class='cr'><div class='vertical-center'>$29<br>with a<br>50% chance</div></div><div class='respDivL'><div class='vertical-center'><font style='color:orange'>(E)</font></div></div><div class='respDivR'><div class='vertical-center'>(I)</div></div></div>","null","$14","$29","0","14","29",""
"html-keyboard-response","11","118588","0.0-5.0-1.2","6362aca86b740b1ec4cb6efb","bdp_rd","Mon Mar 27 2023 16:46:57 GMT-0400 (Eastern Daylight Time)","273595","","null","","","","FIX","","","<div class='trialBorder'><div class='vertical-center'><img style='vertical-align:center; align:center' src=img/fixation3.jpg></div></div>","null","","","","","",""
"html-keyboard-response","12","121473","0.0-5.0-2.2","6362aca86b740b1ec4cb6efb","bdp_rd","Mon Mar 27 2023 16:46:57 GMT-0400 (Eastern Daylight Time)","273595","","2880","","","","offer","","","<div class='trialBorder'><div class='vertical-center'><img style='vertical-align:center; align:center' src=img/fixation3.jpg></div><div class='cl'><div class='vertical-center'>$48<br>with a<br>50% chance</div></div><div class='cr'><div class='vertical-center'>$34<br>for<br>sure</div></div><div class='respDivL'><div class='vertical-center'>(E)</div></div><div class='respDivR'><div class='vertical-center'>(I)</div></div></div>","I","$34","$48","1","34","48","SURE"
"html-keyboard-response","13","121730","0.0-5.0-3.2","6362aca86b740b1ec4cb6efb","bdp_rd","Mon Mar 27 2023 16:46:57 GMT-0400 (Eastern Daylight Time)","273595","","null","","","","offerFB","","","<div class='trialBorder'><div class='vertical-center'><img style='vertical-align:center; align:center' src=img/fixation3.jpg></div><div class='cl'><div class='vertical-center'>$48<br>with a<br>50% chance</div></div><div class='cr'><div class='vertical-center'><font style='color:orange'>$34<br>for<br>sure</font></div></div><div class='respDivL'><div class='vertical-center'>(E)</div></div><div class='respDivR'><div class='vertical-center'><font style='color:orange'>(I)</font></div></div></div>","null","$34","$48","1","34","48",""
"html-keyboard-response","14","122235","0.0-5.0-1.3","6362aca86b740b1ec4cb6efb","bdp_rd","Mon Mar 27 2023 16:46:57 GMT-0400 (Eastern Daylight Time)","273595","","null","","","","FIX","","","<div class='trialBorder'><div class='vertical-center'><img style='vertical-align:center; align:center' src=img/fixation3.jpg></div></div>","null","","","","","",""
"html-keyboard-response","15","124106","0.0-5.0-2.3","6362aca86b740b1ec4cb6efb","bdp_rd","Mon Mar 27 2023 16:46:57 GMT-0400 (Eastern Daylight Time)","273595","","1868","","","","offer","","","<div class='trialBorder'><div class='vertical-center'><img style='vertical-align:center; align:center' src=img/fixation3.jpg></div><div class='cl'><div class='vertical-center'>$24<br>with a<br>50% chance</div></div><div class='cr'><div class='vertical-center'>$13<br>for<br>sure</div></div><div class='respDivL'><div class='vertical-center'>(E)</div></div><div class='respDivR'><div class='vertical-center'>(I)</div></div></div>","I","$13","$24","1","13","24","SURE"
"html-keyboard-response","16","124361","0.0-5.0-3.3","6362aca86b740b1ec4cb6efb","bdp_rd","Mon Mar 27 2023 16:46:57 GMT-0400 (Eastern Daylight Time)","273595","","null","","","","offerFB","","","<div class='trialBorder'><div class='vertical-center'><img style='vertical-align:center; align:center' src=img/fixation3.jpg></div><div class='cl'><div class='vertical-center'>$24<br>with a<br>50% chance</div></div><div class='cr'><div class='vertical-center'><font style='color:orange'>$13<br>for<br>sure</font></div></div><div class='respDivL'><div class='vertical-center'>(E)</div></div><div class='respDivR'><div class='vertical-center'><font style='color:orange'>(I)</font></div></div></div>","null","$13","$24","1","13","24",""
"html-keyboard-response","17","124866","0.0-5.0-1.4","6362aca86b740b1ec4cb6efb","bdp_rd","Mon Mar 27 2023 16:46:57 GMT-0400 (Eastern Daylight Time)","273595","","null","","","","FIX","","","<div class='trialBorder'><div class='vertical-center'><img style='vertical-align:center; align:center' src=img/fixation3.jpg></div></div>","null","","","","","",""
"html-keyboard-response","18","128018","0.0-5.0-2.4","6362aca86b740b1ec4cb6efb","bdp_rd","Mon Mar 27 2023 16:46:57 GMT-0400 (Eastern Daylight Time)","273595","","3149","","","","offer","","","<div class='trialBorder'><div class='vertical-center'><img style='vertical-align:center; align:center' src=img/fixation3.jpg></div><div class='cl'><div class='vertical-center'>$10<br>for<br>sure</div></div><div class='cr'><div class='vertical-center'>$40<br>with a<br>50% chance</div></div><div class='respDivL'><div class='vertical-center'>(E)</div></div><div class='respDivR'><div class='vertical-center'>(I)</div></div></div>","E","$10","$40","0","10","40","SURE"
"html-keyboard-response","19","128272","0.0-5.0-3.4","6362aca86b740b1ec4cb6efb","bdp_rd","Mon Mar 27 2023 16:46:57 GMT-0400 (Eastern Daylight Time)","273595","","null","","","","offerFB","","","<div class='trialBorder'><div class='vertical-center'><img style='vertical-align:center; align:center' src=img/fixation3.jpg></div><div class='cl'><div class='vertical-center'><font style='color:orange'>$10<br>for<br>sure</font></div></div><div class='cr'><div class='vertical-center'>$40<br>with a<br>50% chance</div></div><div class='respDivL'><div class='vertical-center'><font style='color:orange'>(E)</font></div></div><div class='respDivR'><div class='vertical-center'>(I)</div></div></div>","null","$10","$40","0","10","40",""
"html-keyboard-response","20","128776","0.0-5.0-1.5","6362aca86b740b1ec4cb6efb","bdp_rd","Mon Mar 27 2023 16:46:57 GMT-0400 (Eastern Daylight Time)","273595","","null","","","","FIX","","","<div class='trialBorder'><div class='vertical-center'><img style='vertical-align:center; align:center' src=img/fixation3.jpg></div></div>","null","","","","","",""
"html-keyboard-response","21","131013","0.0-5.0-2.5","6362aca86b740b1ec4cb6efb","bdp_rd","Mon Mar 27 2023 16:46:57 GMT-0400 (Eastern Daylight Time)","273595","","2233","","","","offer","","","<div class='trialBorder'><div class='vertical-center'><img style='vertical-align:center; align:center' src=img/fixation3.jpg></div><div class='cl'><div class='vertical-center'>$59<br>with a<br>50% chance</div></div><div class='cr'><div class='vertical-center'>$22<br>for<br>sure</div></div><div class='respDivL'><div class='vertical-center'>(E)</div></div><div class='respDivR'><div class='vertical-center'>(I)</div></div></div>","I","$22","$59","1","22","59","SURE"
"html-keyboard-response","22","131268","0.0-5.0-3.5","6362aca86b740b1ec4cb6efb","bdp_rd","Mon Mar 27 2023 16:46:57 GMT-0400 (Eastern Daylight Time)","273595","","null","","","","offerFB","","","<div class='trialBorder'><div class='vertical-center'><img style='vertical-align:center; align:center' src=img/fixation3.jpg></div><div class='cl'><div class='vertical-center'>$59<br>with a<br>50% chance</div></div><div class='cr'><div class='vertical-center'><font style='color:orange'>$22<br>for<br>sure</font></div></div><div class='respDivL'><div class='vertical-center'>(E)</div></div><div class='respDivR'><div class='vertical-center'><font style='color:orange'>(I)</font></div></div></div>","null","$22","$59","1","22","59",""
"html-keyboard-response","23","131772","0.0-5.0-1.6","6362aca86b740b1ec4cb6efb","bdp_rd","Mon Mar 27 2023 16:46:57 GMT-0400 (Eastern Daylight Time)","273595","","null","","","","FIX","","","<div class='trialBorder'><div class='vertical-center'><img style='vertical-align:center; align:center' src=img/fixation3.jpg></div></div>","null","","","","","",""
"html-keyboard-response","24","133667","0.0-5.0-2.6","6362aca86b740b1ec4cb6efb","bdp_rd","Mon Mar 27 2023 16:46:57 GMT-0400 (Eastern Daylight Time)","273595","","1892","","","","offer","","","<div class='trialBorder'><div class='vertical-center'><img style='vertical-align:center; align:center' src=img/fixation3.jpg></div><div class='cl'><div class='vertical-center'>$73<br>with a<br>50% chance</div></div><div class='cr'><div class='vertical-center'>$42<br>for<br>sure</div></div><div class='respDivL'><div class='vertical-center'>(E)</div></div><div class='respDivR'><div class='vertical-center'>(I)</div></div></div>","I","$42","$73","1","42","73","SURE"
"html-keyboard-response","25","133922","0.0-5.0-3.6","6362aca86b740b1ec4cb6efb","bdp_rd","Mon Mar 27 2023 16:46:57 GMT-0400 (Eastern Daylight Time)","273595","","null","","","","offerFB","","","<div class='trialBorder'><div class='vertical-center'><img style='vertical-align:center; align:center' src=img/fixation3.jpg></div><div class='cl'><div class='vertical-center'>$73<br>with a<br>50% chance</div></div><div class='cr'><div class='vertical-center'><font style='color:orange'>$42<br>for<br>sure</font></div></div><div class='respDivL'><div class='vertical-center'>(E)</div></div><div class='respDivR'><div class='vertical-center'><font style='color:orange'>(I)</font></div></div></div>","null","$42","$73","1","42","73",""
"html-keyboard-response","26","134427","0.0-5.0-1.7","6362aca86b740b1ec4cb6efb","bdp_rd","Mon Mar 27 2023 16:46:57 GMT-0400 (Eastern Daylight Time)","273595","","null","","","","FIX","","","<div class='trialBorder'><div class='vertical-center'><img style='vertical-align:center; align:center' src=img/fixation3.jpg></div></div>","null","","","","","",""
"html-keyboard-response","27","136998","0.0-5.0-2.7","6362aca86b740b1ec4cb6efb","bdp_rd","Mon Mar 27 2023 16:46:57 GMT-0400 (Eastern Daylight Time)","273595","","2567","","","","offer","","","<div class='trialBorder'><div class='vertical-center'><img style='vertical-align:center; align:center' src=img/fixation3.jpg></div><div class='cl'><div class='vertical-center'>$21<br>with a<br>50% chance</div></div><div class='cr'><div class='vertical-center'>$2<br>for<br>sure</div></div><div class='respDivL'><div class='vertical-center'>(E)</div></div><div class='respDivR'><div class='vertical-center'>(I)</div></div></div>","E","$2","$21","1","2","21","RISKY"
"html-keyboard-response","28","137253","0.0-5.0-3.7","6362aca86b740b1ec4cb6efb","bdp_rd","Mon Mar 27 2023 16:46:57 GMT-0400 (Eastern Daylight Time)","273595","","null","","","","offerFB","","","<div class='trialBorder'><div class='vertical-center'><img style='vertical-align:center; align:center' src=img/fixation3.jpg></div><div class='cl'><div class='vertical-center'><font style='color:orange'>$21<br>with a<br>50% chance</font></div></div><div class='cr'><div class='vertical-center'>$2<br>for<br>sure</div></div><div class='respDivL'><div class='vertical-center'><font style='color:orange'>(E)</font></div></div><div class='respDivR'><div class='vertical-center'>(I)</div></div></div>","null","$2","$21","1","2","21",""
"html-keyboard-response","29","137757","0.0-5.0-1.8","6362aca86b740b1ec4cb6efb","bdp_rd","Mon Mar 27 2023 16:46:57 GMT-0400 (Eastern Daylight Time)","273595","","null","","","","FIX","","","<div class='trialBorder'><div class='vertical-center'><img style='vertical-align:center; align:center' src=img/fixation3.jpg></div></div>","null","","","","","",""
"html-keyboard-response","30","139473","0.0-5.0-2.8","6362aca86b740b1ec4cb6efb","bdp_rd","Mon Mar 27 2023 16:46:57 GMT-0400 (Eastern Daylight Time)","273595","","1713","","","","offer","","","<div class='trialBorder'><div class='vertical-center'><img style='vertical-align:center; align:center' src=img/fixation3.jpg></div><div class='cl'><div class='vertical-center'>$28<br>with a<br>50% chance</div></div><div class='cr'><div class='vertical-center'>$16<br>for<br>sure</div></div><div class='respDivL'><div class='vertical-center'>(E)</div></div><div class='respDivR'><div class='vertical-center'>(I)</div></div></div>","E","$16","$28","1","16","28","RISKY"
"html-keyboard-response","31","139729","0.0-5.0-3.8","6362aca86b740b1ec4cb6efb","bdp_rd","Mon Mar 27 2023 16:46:57 GMT-0400 (Eastern Daylight Time)","273595","","null","","","","offerFB","","","<div class='trialBorder'><div class='vertical-center'><img style='vertical-align:center; align:center' src=img/fixation3.jpg></div><div class='cl'><div class='vertical-center'><font style='color:orange'>$28<br>with a<br>50% chance</font></div></div><div class='cr'><div class='vertical-center'>$16<br>for<br>sure</div></div><div class='respDivL'><div class='vertical-center'><font style='color:orange'>(E)</font></div></div><div class='respDivR'><div class='vertical-center'>(I)</div></div></div>","null","$16","$28","1","16","28",""
"html-keyboard-response","32","140233","0.0-5.0-1.9","6362aca86b740b1ec4cb6efb","bdp_rd","Mon Mar 27 2023 16:46:57 GMT-0400 (Eastern Daylight Time)","273595","","null","","","","FIX","","","<div class='trialBorder'><div class='vertical-center'><img style='vertical-align:center; align:center' src=img/fixation3.jpg></div></div>","null","","","","","",""
"html-keyboard-response","33","141676","0.0-5.0-2.9","6362aca86b740b1ec4cb6efb","bdp_rd","Mon Mar 27 2023 16:46:57 GMT-0400 (Eastern Daylight Time)","273595","","1439","","","","offer","","","<div class='trialBorder'><div class='vertical-center'><img style='vertical-align:center; align:center' src=img/fixation3.jpg></div><div class='cl'><div class='vertical-center'>$9<br>for<br>sure</div></div><div class='cr'><div class='vertical-center'>$18<br>with a<br>50% chance</div></div><div class='respDivL'><div class='vertical-center'>(E)</div></div><div class='respDivR'><div class='vertical-center'>(I)</div></div></div>","I","$9","$18","0","9","18","RISKY"
"html-keyboard-response","34","141932","0.0-5.0-3.9","6362aca86b740b1ec4cb6efb","bdp_rd","Mon Mar 27 2023 16:46:57 GMT-0400 (Eastern Daylight Time)","273595","","null","","","","offerFB","","","<div class='trialBorder'><div class='vertical-center'><img style='vertical-align:center; align:center' src=img/fixation3.jpg></div><div class='cl'><div class='vertical-center'>$9<br>for<br>sure</div></div><div class='cr'><div class='vertical-center'><font style='color:orange'>$18<br>with a<br>50% chance</font></div></div><div class='respDivL'><div class='vertical-center'>(E)</div></div><div class='respDivR'><div class='vertical-center'><font style='color:orange'>(I)</font></div></div></div>","null","$9","$18","0","9","18",""
"html-keyboard-response","35","142436","0.0-5.0-1.10","6362aca86b740b1ec4cb6efb","bdp_rd","Mon Mar 27 2023 16:46:57 GMT-0400 (Eastern Daylight Time)","273595","","null","","","","FIX","","","<div class='trialBorder'><div class='vertical-center'><img style='vertical-align:center; align:center' src=img/fixation3.jpg></div></div>","null","","","","","",""
"html-keyboard-response","36","145166","0.0-5.0-2.10","6362aca86b740b1ec4cb6efb","bdp_rd","Mon Mar 27 2023 16:46:57 GMT-0400 (Eastern Daylight Time)","273595","","2728","","","","offer","","","<div class='trialBorder'><div class='vertical-center'><img style='vertical-align:center; align:center' src=img/fixation3.jpg></div><div class='cl'><div class='vertical-center'>$10<br>for<br>sure</div></div><div class='cr'><div class='vertical-center'>$19<br>with a<br>50% chance</div></div><div class='respDivL'><div class='vertical-center'>(E)</div></div><div class='respDivR'><div class='vertical-center'>(I)</div></div></div>","E","$10","$19","0","10","19","SURE"
"html-keyboard-response","37","145421","0.0-5.0-3.10","6362aca86b740b1ec4cb6efb","bdp_rd","Mon Mar 27 2023 16:46:57 GMT-0400 (Eastern Daylight Time)","273595","","null","","","","offerFB","","","<div class='trialBorder'><div class='vertical-center'><img style='vertical-align:center; align:center' src=img/fixation3.jpg></div><div class='cl'><div class='vertical-center'><font style='color:orange'>$10<br>for<br>sure</font></div></div><div class='cr'><div class='vertical-center'>$19<br>with a<br>50% chance</div></div><div class='respDivL'><div class='vertical-center'><font style='color:orange'>(E)</font></div></div><div class='respDivR'><div class='vertical-center'>(I)</div></div></div>","null","$10","$19","0","10","19",""
"html-keyboard-response","38","145925","0.0-5.0-1.11","6362aca86b740b1ec4cb6efb","bdp_rd","Mon Mar 27 2023 16:46:57 GMT-0400 (Eastern Daylight Time)","273595","","null","","","","FIX","","","<div class='trialBorder'><div class='vertical-center'><img style='vertical-align:center; align:center' src=img/fixation3.jpg></div></div>","null","","","","","",""
"html-keyboard-response","39","148698","0.0-5.0-2.11","6362aca86b740b1ec4cb6efb","bdp_rd","Mon Mar 27 2023 16:46:57 GMT-0400 (Eastern Daylight Time)","273595","","2770","","","","offer","","","<div class='trialBorder'><div class='vertical-center'><img style='vertical-align:center; align:center' src=img/fixation3.jpg></div><div class='cl'><div class='vertical-center'>$65<br>with a<br>50% chance</div></div><div class='cr'><div class='vertical-center'>$46<br>for<br>sure</div></div><div class='respDivL'><div class='vertical-center'>(E)</div></div><div class='respDivR'><div class='vertical-center'>(I)</div></div></div>","I","$46","$65","1","46","65","SURE"
"html-keyboard-response","40","148953","0.0-5.0-3.11","6362aca86b740b1ec4cb6efb","bdp_rd","Mon Mar 27 2023 16:46:57 GMT-0400 (Eastern Daylight Time)","273595","","null","","","","offerFB","","","<div class='trialBorder'><div class='vertical-center'><img style='vertical-align:center; align:center' src=img/fixation3.jpg></div><div class='cl'><div class='vertical-center'>$65<br>with a<br>50% chance</div></div><div class='cr'><div class='vertical-center'><font style='color:orange'>$46<br>for<br>sure</font></div></div><div class='respDivL'><div class='vertical-center'>(E)</div></div><div class='respDivR'><div class='vertical-center'><font style='color:orange'>(I)</font></div></div></div>","null","$46","$65","1","46","65",""
"html-keyboard-response","41","149456","0.0-5.0-1.12","6362aca86b740b1ec4cb6efb","bdp_rd","Mon Mar 27 2023 16:46:57 GMT-0400 (Eastern Daylight Time)","273595","","null","","","","FIX","","","<div class='trialBorder'><div class='vertical-center'><img style='vertical-align:center; align:center' src=img/fixation3.jpg></div></div>","null","","","","","",""
"html-keyboard-response","42","151464","0.0-5.0-2.12","6362aca86b740b1ec4cb6efb","bdp_rd","Mon Mar 27 2023 16:46:57 GMT-0400 (Eastern Daylight Time)","273595","","2004","","","","offer","","","<div class='trialBorder'><div class='vertical-center'><img style='vertical-align:center; align:center' src=img/fixation3.jpg></div><div class='cl'><div class='vertical-center'>$63<br>for<br>sure</div></div><div class='cr'><div class='vertical-center'>$100<br>with a<br>50% chance</div></div><div class='respDivL'><div class='vertical-center'>(E)</div></div><div class='respDivR'><div class='vertical-center'>(I)</div></div></div>","E","$63","$100","0","63","10","SURE"
"html-keyboard-response","43","151719","0.0-5.0-3.12","6362aca86b740b1ec4cb6efb","bdp_rd","Mon Mar 27 2023 16:46:57 GMT-0400 (Eastern Daylight Time)","273595","","null","","","","offerFB","","","<div class='trialBorder'><div class='vertical-center'><img style='vertical-align:center; align:center' src=img/fixation3.jpg></div><div class='cl'><div class='vertical-center'><font style='color:orange'>$63<br>for<br>sure</font></div></div><div class='cr'><div class='vertical-center'>$100<br>with a<br>50% chance</div></div><div class='respDivL'><div class='vertical-center'><font style='color:orange'>(E)</font></div></div><div class='respDivR'><div class='vertical-center'>(I)</div></div></div>","null","$63","$100","0","63","10",""
"html-keyboard-response","44","152223","0.0-5.0-1.13","6362aca86b740b1ec4cb6efb","bdp_rd","Mon Mar 27 2023 16:46:57 GMT-0400 (Eastern Daylight Time)","273595","","null","","","","FIX","","","<div class='trialBorder'><div class='vertical-center'><img style='vertical-align:center; align:center' src=img/fixation3.jpg></div></div>","null","","","","","",""
"html-keyboard-response","45","154662","0.0-5.0-2.13","6362aca86b740b1ec4cb6efb","bdp_rd","Mon Mar 27 2023 16:46:57 GMT-0400 (Eastern Daylight Time)","273595","","2435","","","","offer","","","<div class='trialBorder'><div class='vertical-center'><img style='vertical-align:center; align:center' src=img/fixation3.jpg></div><div class='cl'><div class='vertical-center'>$22<br>for<br>sure</div></div><div class='cr'><div class='vertical-center'>$42<br>with a<br>50% chance</div></div><div class='respDivL'><div class='vertical-center'>(E)</div></div><div class='respDivR'><div class='vertical-center'>(I)</div></div></div>","I","$22","$42","0","22","42","RISKY"
"html-keyboard-response","46","154917","0.0-5.0-3.13","6362aca86b740b1ec4cb6efb","bdp_rd","Mon Mar 27 2023 16:46:57 GMT-0400 (Eastern Daylight Time)","273595","","null","","","","offerFB","","","<div class='trialBorder'><div class='vertical-center'><img style='vertical-align:center; align:center' src=img/fixation3.jpg></div><div class='cl'><div class='vertical-center'>$22<br>for<br>sure</div></div><div class='cr'><div class='vertical-center'><font style='color:orange'>$42<br>with a<br>50% chance</font></div></div><div class='respDivL'><div class='vertical-center'>(E)</div></div><div class='respDivR'><div class='vertical-center'><font style='color:orange'>(I)</font></div></div></div>","null","$22","$42","0","22","42",""
"html-keyboard-response","47","155421","0.0-5.0-1.14","6362aca86b740b1ec4cb6efb","bdp_rd","Mon Mar 27 2023 16:46:57 GMT-0400 (Eastern Daylight Time)","273595","","null","","","","FIX","","","<div class='trialBorder'><div class='vertical-center'><img style='vertical-align:center; align:center' src=img/fixation3.jpg></div></div>","null","","","","","",""
"html-keyboard-response","48","157158","0.0-5.0-2.14","6362aca86b740b1ec4cb6efb","bdp_rd","Mon Mar 27 2023 16:46:57 GMT-0400 (Eastern Daylight Time)","273595","","1734","","","","offer","","","<div class='trialBorder'><div class='vertical-center'><img style='vertical-align:center; align:center' src=img/fixation3.jpg></div><div class='cl'><div class='vertical-center'>$32<br>with a<br>50% chance</div></div><div class='cr'><div class='vertical-center'>$9<br>for<br>sure</div></div><div class='respDivL'><div class='vertical-center'>(E)</div></div><div class='respDivR'><div class='vertical-center'>(I)</div></div></div>","E","$9","$32","1","9","32","RISKY"
"html-keyboard-response","49","157413","0.0-5.0-3.14","6362aca86b740b1ec4cb6efb","bdp_rd","Mon Mar 27 2023 16:46:57 GMT-0400 (Eastern Daylight Time)","273595","","null","","","","offerFB","","","<div class='trialBorder'><div class='vertical-center'><img style='vertical-align:center; align:center' src=img/fixation3.jpg></div><div class='cl'><div class='vertical-center'><font style='color:orange'>$32<br>with a<br>50% chance</font></div></div><div class='cr'><div class='vertical-center'>$9<br>for<br>sure</div></div><div class='respDivL'><div class='vertical-center'><font style='color:orange'>(E)</font></div></div><div class='respDivR'><div class='vertical-center'>(I)</div></div></div>","null","$9","$32","1","9","32",""
"html-keyboard-response","50","157917","0.0-5.0-1.15","6362aca86b740b1ec4cb6efb","bdp_rd","Mon Mar 27 2023 16:46:57 GMT-0400 (Eastern Daylight Time)","273595","","null","","","","FIX","","","<div class='trialBorder'><div class='vertical-center'><img style='vertical-align:center; align:center' src=img/fixation3.jpg></div></div>","null","","","","","",""
"html-keyboard-response","51","159881","0.0-5.0-2.15","6362aca86b740b1ec4cb6efb","bdp_rd","Mon Mar 27 2023 16:46:57 GMT-0400 (Eastern Daylight Time)","273595","","1961","","","","offer","","","<div class='trialBorder'><div class='vertical-center'><img style='vertical-align:center; align:center' src=img/fixation3.jpg></div><div class='cl'><div class='vertical-center'>$44<br>with a<br>50% chance</div></div><div class='cr'><div class='vertical-center'>$37<br>for<br>sure</div></div><div class='respDivL'><div class='vertical-center'>(E)</div></div><div class='respDivR'><div class='vertical-center'>(I)</div></div></div>","I","$37","$44","1","37","44","SURE"
"html-keyboard-response","52","160136","0.0-5.0-3.15","6362aca86b740b1ec4cb6efb","bdp_rd","Mon Mar 27 2023 16:46:57 GMT-0400 (Eastern Daylight Time)","273595","","null","","","","offerFB","","","<div class='trialBorder'><div class='vertical-center'><img style='vertical-align:center; align:center' src=img/fixation3.jpg></div><div class='cl'><div class='vertical-center'>$44<br>with a<br>50% chance</div></div><div class='cr'><div class='vertical-center'><font style='color:orange'>$37<br>for<br>sure</font></div></div><div class='respDivL'><div class='vertical-center'>(E)</div></div><div class='respDivR'><div class='vertical-center'><font style='color:orange'>(I)</font></div></div></div>","null","$37","$44","1","37","44",""
"html-keyboard-response","53","160639","0.0-5.0-1.16","6362aca86b740b1ec4cb6efb","bdp_rd","Mon Mar 27 2023 16:46:57 GMT-0400 (Eastern Daylight Time)","273595","","null","","","","FIX","","","<div class='trialBorder'><div class='vertical-center'><img style='vertical-align:center; align:center' src=img/fixation3.jpg></div></div>","null","","","","","",""
"html-keyboard-response","54","163278","0.0-5.0-2.16","6362aca86b740b1ec4cb6efb","bdp_rd","Mon Mar 27 2023 16:46:57 GMT-0400 (Eastern Daylight Time)","273595","","2635","","","","offer","","","<div class='trialBorder'><div class='vertical-center'><img style='vertical-align:center; align:center' src=img/fixation3.jpg></div><div class='cl'><div class='vertical-center'>$4<br>for<br>sure</div></div><div class='cr'><div class='vertical-center'>$14<br>with a<br>50% chance</div></div><div class='respDivL'><div class='vertical-center'>(E)</div></div><div class='respDivR'><div class='vertical-center'>(I)</div></div></div>","I","$4","$14","0","4","14","RISKY"
"html-keyboard-response","55","163532","0.0-5.0-3.16","6362aca86b740b1ec4cb6efb","bdp_rd","Mon Mar 27 2023 16:46:57 GMT-0400 (Eastern Daylight Time)","273595","","null","","","","offerFB","","","<div class='trialBorder'><div class='vertical-center'><img style='vertical-align:center; align:center' src=img/fixation3.jpg></div><div class='cl'><div class='vertical-center'>$4<br>for<br>sure</div></div><div class='cr'><div class='vertical-center'><font style='color:orange'>$14<br>with a<br>50% chance</font></div></div><div class='respDivL'><div class='vertical-center'>(E)</div></div><div class='respDivR'><div class='vertical-center'><font style='color:orange'>(I)</font></div></div></div>","null","$4","$14","0","4","14",""
"html-keyboard-response","56","164036","0.0-5.0-1.17","6362aca86b740b1ec4cb6efb","bdp_rd","Mon Mar 27 2023 16:46:57 GMT-0400 (Eastern Daylight Time)","273595","","null","","","","FIX","","","<div class='trialBorder'><div class='vertical-center'><img style='vertical-align:center; align:center' src=img/fixation3.jpg></div></div>","null","","","","","",""
"html-keyboard-response","57","165732","0.0-5.0-2.17","6362aca86b740b1ec4cb6efb","bdp_rd","Mon Mar 27 2023 16:46:57 GMT-0400 (Eastern Daylight Time)","273595","","1693","","","","offer","","","<div class='trialBorder'><div class='vertical-center'><img style='vertical-align:center; align:center' src=img/fixation3.jpg></div><div class='cl'><div class='vertical-center'>$20<br>for<br>sure</div></div><div class='cr'><div class='vertical-center'>$37<br>with a<br>50% chance</div></div><div class='respDivL'><div class='vertical-center'>(E)</div></div><div class='respDivR'><div class='vertical-center'>(I)</div></div></div>","E","$20","$37","0","20","37","SURE"
"html-keyboard-response","58","165987","0.0-5.0-3.17","6362aca86b740b1ec4cb6efb","bdp_rd","Mon Mar 27 2023 16:46:57 GMT-0400 (Eastern Daylight Time)","273595","","null","","","","offerFB","","","<div class='trialBorder'><div class='vertical-center'><img style='vertical-align:center; align:center' src=img/fixation3.jpg></div><div class='cl'><div class='vertical-center'><font style='color:orange'>$20<br>for<br>sure</font></div></div><div class='cr'><div class='vertical-center'>$37<br>with a<br>50% chance</div></div><div class='respDivL'><div class='vertical-center'><font style='color:orange'>(E)</font></div></div><div class='respDivR'><div class='vertical-center'>(I)</div></div></div>","null","$20","$37","0","20","37",""
"html-keyboard-response","59","166490","0.0-5.0-1.18","6362aca86b740b1ec4cb6efb","bdp_rd","Mon Mar 27 2023 16:46:57 GMT-0400 (Eastern Daylight Time)","273595","","null","","","","FIX","","","<div class='trialBorder'><div class='vertical-center'><img style='vertical-align:center; align:center' src=img/fixation3.jpg></div></div>","null","","","","","",""
"html-keyboard-response","60","168858","0.0-5.0-2.18","6362aca86b740b1ec4cb6efb","bdp_rd","Mon Mar 27 2023 16:46:57 GMT-0400 (Eastern Daylight Time)","273595","","2364","","","","offer","","","<div class='trialBorder'><div class='vertical-center'><img style='vertical-align:center; align:center' src=img/fixation3.jpg></div><div class='cl'><div class='vertical-center'>$1<br>for<br>sure</div></div><div class='cr'><div class='vertical-center'>$33<br>with a<br>50% chance</div></div><div class='respDivL'><div class='vertical-center'>(E)</div></div><div class='respDivR'><div class='vertical-center'>(I)</div></div></div>","I","$1","$33","0","1","33","RISKY"
"html-keyboard-response","61","169112","0.0-5.0-3.18","6362aca86b740b1ec4cb6efb","bdp_rd","Mon Mar 27 2023 16:46:57 GMT-0400 (Eastern Daylight Time)","273595","","null","","","","offerFB","","","<div class='trialBorder'><div class='vertical-center'><img style='vertical-align:center; align:center' src=img/fixation3.jpg></div><div class='cl'><div class='vertical-center'>$1<br>for<br>sure</div></div><div class='cr'><div class='vertical-center'><font style='color:orange'>$33<br>with a<br>50% chance</font></div></div><div class='respDivL'><div class='vertical-center'>(E)</div></div><div class='respDivR'><div class='vertical-center'><font style='color:orange'>(I)</font></div></div></div>","null","$1","$33","0","1","33",""
"html-keyboard-response","62","169616","0.0-5.0-1.19","6362aca86b740b1ec4cb6efb","bdp_rd","Mon Mar 27 2023 16:46:57 GMT-0400 (Eastern Daylight Time)","273595","","null","","","","FIX","","","<div class='trialBorder'><div class='vertical-center'><img style='vertical-align:center; align:center' src=img/fixation3.jpg></div></div>","null","","","","","",""
"html-keyboard-response","63","171468","0.0-5.0-2.19","6362aca86b740b1ec4cb6efb","bdp_rd","Mon Mar 27 2023 16:46:57 GMT-0400 (Eastern Daylight Time)","273595","","1849","","","","offer","","","<div class='trialBorder'><div class='vertical-center'><img style='vertical-align:center; align:center' src=img/fixation3.jpg></div><div class='cl'><div class='vertical-center'>$29<br>for<br>sure</div></div><div class='cr'><div class='vertical-center'>$46<br>with a<br>50% chance</div></div><div class='respDivL'><div class='vertical-center'>(E)</div></div><div class='respDivR'><div class='vertical-center'>(I)</div></div></div>","E","$29","$46","0","29","46","SURE"
"html-keyboard-response","64","171723","0.0-5.0-3.19","6362aca86b740b1ec4cb6efb","bdp_rd","Mon Mar 27 2023 16:46:57 GMT-0400 (Eastern Daylight Time)","273595","","null","","","","offerFB","","","<div class='trialBorder'><div class='vertical-center'><img style='vertical-align:center; align:center' src=img/fixation3.jpg></div><div class='cl'><div class='vertical-center'><font style='color:orange'>$29<br>for<br>sure</font></div></div><div class='cr'><div class='vertical-center'>$46<br>with a<br>50% chance</div></div><div class='respDivL'><div class='vertical-center'><font style='color:orange'>(E)</font></div></div><div class='respDivR'><div class='vertical-center'>(I)</div></div></div>","null","$29","$46","0","29","46",""
"html-keyboard-response","65","172226","0.0-5.0-1.20","6362aca86b740b1ec4cb6efb","bdp_rd","Mon Mar 27 2023 16:46:57 GMT-0400 (Eastern Daylight Time)","273595","","null","","","","FIX","","","<div class='trialBorder'><div class='vertical-center'><img style='vertical-align:center; align:center' src=img/fixation3.jpg></div></div>","null","","","","","",""
"html-keyboard-response","66","175362","0.0-5.0-2.20","6362aca86b740b1ec4cb6efb","bdp_rd","Mon Mar 27 2023 16:46:57 GMT-0400 (Eastern Daylight Time)","273595","","3132","","","","offer","","","<div class='trialBorder'><div class='vertical-center'><img style='vertical-align:center; align:center' src=img/fixation3.jpg></div><div class='cl'><div class='vertical-center'>$39<br>with a<br>50% chance</div></div><div class='cr'><div class='vertical-center'>$18<br>for<br>sure</div></div><div class='respDivL'><div class='vertical-center'>(E)</div></div><div class='respDivR'><div class='vertical-center'>(I)</div></div></div>","E","$18","$39","1","18","39","RISKY"
"html-keyboard-response","67","175617","0.0-5.0-3.20","6362aca86b740b1ec4cb6efb","bdp_rd","Mon Mar 27 2023 16:46:57 GMT-0400 (Eastern Daylight Time)","273595","","null","","","","offerFB","","","<div class='trialBorder'><div class='vertical-center'><img style='vertical-align:center; align:center' src=img/fixation3.jpg></div><div class='cl'><div class='vertical-center'><font style='color:orange'>$39<br>with a<br>50% chance</font></div></div><div class='cr'><div class='vertical-center'>$18<br>for<br>sure</div></div><div class='respDivL'><div class='vertical-center'><font style='color:orange'>(E)</font></div></div><div class='respDivR'><div class='vertical-center'>(I)</div></div></div>","null","$18","$39","1","18","39",""
"html-keyboard-response","68","176120","0.0-5.0-1.21","6362aca86b740b1ec4cb6efb","bdp_rd","Mon Mar 27 2023 16:46:57 GMT-0400 (Eastern Daylight Time)","273595","","null","","","","FIX","","","<div class='trialBorder'><div class='vertical-center'><img style='vertical-align:center; align:center' src=img/fixation3.jpg></div></div>","null","","","","","",""
"html-keyboard-response","69","177948","0.0-5.0-2.21","6362aca86b740b1ec4cb6efb","bdp_rd","Mon Mar 27 2023 16:46:57 GMT-0400 (Eastern Daylight Time)","273595","","1825","","","","offer","","","<div class='trialBorder'><div class='vertical-center'><img style='vertical-align:center; align:center' src=img/fixation3.jpg></div><div class='cl'><div class='vertical-center'>$16<br>with a<br>50% chance</div></div><div class='cr'><div class='vertical-center'>$5<br>for<br>sure</div></div><div class='respDivL'><div class='vertical-center'>(E)</div></div><div class='respDivR'><div class='vertical-center'>(I)</div></div></div>","E","$5","$16","1","5","16","RISKY"
"html-keyboard-response","70","178202","0.0-5.0-3.21","6362aca86b740b1ec4cb6efb","bdp_rd","Mon Mar 27 2023 16:46:57 GMT-0400 (Eastern Daylight Time)","273595","","null","","","","offerFB","","","<div class='trialBorder'><div class='vertical-center'><img style='vertical-align:center; align:center' src=img/fixation3.jpg></div><div class='cl'><div class='vertical-center'><font style='color:orange'>$16<br>with a<br>50% chance</font></div></div><div class='cr'><div class='vertical-center'>$5<br>for<br>sure</div></div><div class='respDivL'><div class='vertical-center'><font style='color:orange'>(E)</font></div></div><div class='respDivR'><div class='vertical-center'>(I)</div></div></div>","null","$5","$16","1","5","16",""
"html-keyboard-response","71","178706","0.0-5.0-1.22","6362aca86b740b1ec4cb6efb","bdp_rd","Mon Mar 27 2023 16:46:57 GMT-0400 (Eastern Daylight Time)","273595","","null","","","","FIX","","","<div class='trialBorder'><div class='vertical-center'><img style='vertical-align:center; align:center' src=img/fixation3.jpg></div></div>","null","","","","","",""
"html-keyboard-response","72","180984","0.0-5.0-2.22","6362aca86b740b1ec4cb6efb","bdp_rd","Mon Mar 27 2023 16:46:57 GMT-0400 (Eastern Daylight Time)","273595","","2276","","","","offer","","","<div class='trialBorder'><div class='vertical-center'><img style='vertical-align:center; align:center' src=img/fixation3.jpg></div><div class='cl'><div class='vertical-center'>$4<br>for<br>sure</div></div><div class='cr'><div class='vertical-center'>$11<br>with a<br>50% chance</div></div><div class='respDivL'><div class='vertical-center'>(E)</div></div><div class='respDivR'><div class='vertical-center'>(I)</div></div></div>","I","$4","$11","0","4","11","RISKY"
"html-keyboard-response","73","181239","0.0-5.0-3.22","6362aca86b740b1ec4cb6efb","bdp_rd","Mon Mar 27 2023 16:46:57 GMT-0400 (Eastern Daylight Time)","273595","","null","","","","offerFB","","","<div class='trialBorder'><div class='vertical-center'><img style='vertical-align:center; align:center' src=img/fixation3.jpg></div><div class='cl'><div class='vertical-center'>$4<br>for<br>sure</div></div><div class='cr'><div class='vertical-center'><font style='color:orange'>$11<br>with a<br>50% chance</font></div></div><div class='respDivL'><div class='vertical-center'>(E)</div></div><div class='respDivR'><div class='vertical-center'><font style='color:orange'>(I)</font></div></div></div>","null","$4","$11","0","4","11",""
"html-keyboard-response","74","181743","0.0-5.0-1.23","6362aca86b740b1ec4cb6efb","bdp_rd","Mon Mar 27 2023 16:46:57 GMT-0400 (Eastern Daylight Time)","273595","","null","","","","FIX","","","<div class='trialBorder'><div class='vertical-center'><img style='vertical-align:center; align:center' src=img/fixation3.jpg></div></div>","null","","","","","",""
"html-keyboard-response","75","183663","0.0-5.0-2.23","6362aca86b740b1ec4cb6efb","bdp_rd","Mon Mar 27 2023 16:46:57 GMT-0400 (Eastern Daylight Time)","273595","","1917","","","","offer","","","<div class='trialBorder'><div class='vertical-center'><img style='vertical-align:center; align:center' src=img/fixation3.jpg></div><div class='cl'><div class='vertical-center'>$11<br>for<br>sure</div></div><div class='cr'><div class='vertical-center'>$62<br>with a<br>50% chance</div></div><div class='respDivL'><div class='vertical-center'>(E)</div></div><div class='respDivR'><div class='vertical-center'>(I)</div></div></div>","I","$11","$62","0","11","62","RISKY"
"html-keyboard-response","76","183917","0.0-5.0-3.23","6362aca86b740b1ec4cb6efb","bdp_rd","Mon Mar 27 2023 16:46:57 GMT-0400 (Eastern Daylight Time)","273595","","null","","","","offerFB","","","<div class='trialBorder'><div class='vertical-center'><img style='vertical-align:center; align:center' src=img/fixation3.jpg></div><div class='cl'><div class='vertical-center'>$11<br>for<br>sure</div></div><div class='cr'><div class='vertical-center'><font style='color:orange'>$62<br>with a<br>50% chance</font></div></div><div class='respDivL'><div class='vertical-center'>(E)</div></div><div class='respDivR'><div class='vertical-center'><font style='color:orange'>(I)</font></div></div></div>","null","$11","$62","0","11","62",""
"html-keyboard-response","77","184421","0.0-5.0-1.24","6362aca86b740b1ec4cb6efb","bdp_rd","Mon Mar 27 2023 16:46:57 GMT-0400 (Eastern Daylight Time)","273595","","null","","","","FIX","","","<div class='trialBorder'><div class='vertical-center'><img style='vertical-align:center; align:center' src=img/fixation3.jpg></div></div>","null","","","","","",""
"html-keyboard-response","78","185977","0.0-5.0-2.24","6362aca86b740b1ec4cb6efb","bdp_rd","Mon Mar 27 2023 16:46:57 GMT-0400 (Eastern Daylight Time)","273595","","1554","","","","offer","","","<div class='trialBorder'><div class='vertical-center'><img style='vertical-align:center; align:center' src=img/fixation3.jpg></div><div class='cl'><div class='vertical-center'>$19<br>for<br>sure</div></div><div class='cr'><div class='vertical-center'>$51<br>with a<br>50% chance</div></div><div class='respDivL'><div class='vertical-center'>(E)</div></div><div class='respDivR'><div class='vertical-center'>(I)</div></div></div>","I","$19","$51","0","19","51","RISKY"
"html-keyboard-response","79","186232","0.0-5.0-3.24","6362aca86b740b1ec4cb6efb","bdp_rd","Mon Mar 27 2023 16:46:57 GMT-0400 (Eastern Daylight Time)","273595","","null","","","","offerFB","","","<div class='trialBorder'><div class='vertical-center'><img style='vertical-align:center; align:center' src=img/fixation3.jpg></div><div class='cl'><div class='vertical-center'>$19<br>for<br>sure</div></div><div class='cr'><div class='vertical-center'><font style='color:orange'>$51<br>with a<br>50% chance</font></div></div><div class='respDivL'><div class='vertical-center'>(E)</div></div><div class='respDivR'><div class='vertical-center'><font style='color:orange'>(I)</font></div></div></div>","null","$19","$51","0","19","51",""
"html-keyboard-response","80","186736","0.0-5.0-1.25","6362aca86b740b1ec4cb6efb","bdp_rd","Mon Mar 27 2023 16:46:57 GMT-0400 (Eastern Daylight Time)","273595","","null","","","","FIX","","","<div class='trialBorder'><div class='vertical-center'><img style='vertical-align:center; align:center' src=img/fixation3.jpg></div></div>","null","","","","","",""
"html-keyboard-response","81","187848","0.0-5.0-2.25","6362aca86b740b1ec4cb6efb","bdp_rd","Mon Mar 27 2023 16:46:57 GMT-0400 (Eastern Daylight Time)","273595","","1109","","","","offer","","","<div class='trialBorder'><div class='vertical-center'><img style='vertical-align:center; align:center' src=img/fixation3.jpg></div><div class='cl'><div class='vertical-center'>$35<br>with a<br>50% chance</div></div><div class='cr'><div class='vertical-center'>$12<br>for<br>sure</div></div><div class='respDivL'><div class='vertical-center'>(E)</div></div><div class='respDivR'><div class='vertical-center'>(I)</div></div></div>","E","$12","$35","1","12","35","RISKY"
"html-keyboard-response","82","188102","0.0-5.0-3.25","6362aca86b740b1ec4cb6efb","bdp_rd","Mon Mar 27 2023 16:46:57 GMT-0400 (Eastern Daylight Time)","273595","","null","","","","offerFB","","","<div class='trialBorder'><div class='vertical-center'><img style='vertical-align:center; align:center' src=img/fixation3.jpg></div><div class='cl'><div class='vertical-center'><font style='color:orange'>$35<br>with a<br>50% chance</font></div></div><div class='cr'><div class='vertical-center'>$12<br>for<br>sure</div></div><div class='respDivL'><div class='vertical-center'><font style='color:orange'>(E)</font></div></div><div class='respDivR'><div class='vertical-center'>(I)</div></div></div>","null","$12","$35","1","12","35",""
"html-keyboard-response","83","188606","0.0-5.0-1.26","6362aca86b740b1ec4cb6efb","bdp_rd","Mon Mar 27 2023 16:46:57 GMT-0400 (Eastern Daylight Time)","273595","","null","","","","FIX","","","<div class='trialBorder'><div class='vertical-center'><img style='vertical-align:center; align:center' src=img/fixation3.jpg></div></div>","null","","","","","",""
"html-keyboard-response","84","190706","0.0-5.0-2.26","6362aca86b740b1ec4cb6efb","bdp_rd","Mon Mar 27 2023 16:46:57 GMT-0400 (Eastern Daylight Time)","273595","","2097","","","","offer","","","<div class='trialBorder'><div class='vertical-center'><img style='vertical-align:center; align:center' src=img/fixation3.jpg></div><div class='cl'><div class='vertical-center'>$14<br>for<br>sure</div></div><div class='cr'><div class='vertical-center'>$22<br>with a<br>50% chance</div></div><div class='respDivL'><div class='vertical-center'>(E)</div></div><div class='respDivR'><div class='vertical-center'>(I)</div></div></div>","I","$14","$22","0","14","22","RISKY"
"html-keyboard-response","85","190961","0.0-5.0-3.26","6362aca86b740b1ec4cb6efb","bdp_rd","Mon Mar 27 2023 16:46:57 GMT-0400 (Eastern Daylight Time)","273595","","null","","","","offerFB","","","<div class='trialBorder'><div class='vertical-center'><img style='vertical-align:center; align:center' src=img/fixation3.jpg></div><div class='cl'><div class='vertical-center'>$14<br>for<br>sure</div></div><div class='cr'><div class='vertical-center'><font style='color:orange'>$22<br>with a<br>50% chance</font></div></div><div class='respDivL'><div class='vertical-center'>(E)</div></div><div class='respDivR'><div class='vertical-center'><font style='color:orange'>(I)</font></div></div></div>","null","$14","$22","0","14","22",""
"html-keyboard-response","86","191465","0.0-5.0-1.27","6362aca86b740b1ec4cb6efb","bdp_rd","Mon Mar 27 2023 16:46:57 GMT-0400 (Eastern Daylight Time)","273595","","null","","","","FIX","","","<div class='trialBorder'><div class='vertical-center'><img style='vertical-align:center; align:center' src=img/fixation3.jpg></div></div>","null","","","","","",""
"html-keyboard-response","87","193090","0.0-5.0-2.27","6362aca86b740b1ec4cb6efb","bdp_rd","Mon Mar 27 2023 16:46:57 GMT-0400 (Eastern Daylight Time)","273595","","1623","","","","offer","","","<div class='trialBorder'><div class='vertical-center'><img style='vertical-align:center; align:center' src=img/fixation3.jpg></div><div class='cl'><div class='vertical-center'>$26<br>with a<br>50% chance</div></div><div class='cr'><div class='vertical-center'>$11<br>for<br>sure</div></div><div class='respDivL'><div class='vertical-center'>(E)</div></div><div class='respDivR'><div class='vertical-center'>(I)</div></div></div>","E","$11","$26","1","11","26","RISKY"
"html-keyboard-response","88","193345","0.0-5.0-3.27","6362aca86b740b1ec4cb6efb","bdp_rd","Mon Mar 27 2023 16:46:57 GMT-0400 (Eastern Daylight Time)","273595","","null","","","","offerFB","","","<div class='trialBorder'><div class='vertical-center'><img style='vertical-align:center; align:center' src=img/fixation3.jpg></div><div class='cl'><div class='vertical-center'><font style='color:orange'>$26<br>with a<br>50% chance</font></div></div><div class='cr'><div class='vertical-center'>$11<br>for<br>sure</div></div><div class='respDivL'><div class='vertical-center'><font style='color:orange'>(E)</font></div></div><div class='respDivR'><div class='vertical-center'>(I)</div></div></div>","null","$11","$26","1","11","26",""
"html-keyboard-response","89","193849","0.0-5.0-1.28","6362aca86b740b1ec4cb6efb","bdp_rd","Mon Mar 27 2023 16:46:57 GMT-0400 (Eastern Daylight Time)","273595","","null","","","","FIX","","","<div class='trialBorder'><div class='vertical-center'><img style='vertical-align:center; align:center' src=img/fixation3.jpg></div></div>","null","","","","","",""
"html-keyboard-response","90","195047","0.0-5.0-2.28","6362aca86b740b1ec4cb6efb","bdp_rd","Mon Mar 27 2023 16:46:57 GMT-0400 (Eastern Daylight Time)","273595","","1195","","","","offer","","","<div class='trialBorder'><div class='vertical-center'><img style='vertical-align:center; align:center' src=img/fixation3.jpg></div><div class='cl'><div class='vertical-center'>$23<br>with a<br>50% chance</div></div><div class='cr'><div class='vertical-center'>$8<br>for<br>sure</div></div><div class='respDivL'><div class='vertical-center'>(E)</div></div><div class='respDivR'><div class='vertical-center'>(I)</div></div></div>","E","$8","$23","1","8","23","RISKY"
"html-keyboard-response","91","195301","0.0-5.0-3.28","6362aca86b740b1ec4cb6efb","bdp_rd","Mon Mar 27 2023 16:46:57 GMT-0400 (Eastern Daylight Time)","273595","","null","","","","offerFB","","","<div class='trialBorder'><div class='vertical-center'><img style='vertical-align:center; align:center' src=img/fixation3.jpg></div><div class='cl'><div class='vertical-center'><font style='color:orange'>$23<br>with a<br>50% chance</font></div></div><div class='cr'><div class='vertical-center'>$8<br>for<br>sure</div></div><div class='respDivL'><div class='vertical-center'><font style='color:orange'>(E)</font></div></div><div class='respDivR'><div class='vertical-center'>(I)</div></div></div>","null","$8","$23","1","8","23",""
"html-keyboard-response","92","195804","0.0-5.0-1.29","6362aca86b740b1ec4cb6efb","bdp_rd","Mon Mar 27 2023 16:46:57 GMT-0400 (Eastern Daylight Time)","273595","","null","","","","FIX","","","<div class='trialBorder'><div class='vertical-center'><img style='vertical-align:center; align:center' src=img/fixation3.jpg></div></div>","null","","","","","",""
"html-keyboard-response","93","197321","0.0-5.0-2.29","6362aca86b740b1ec4cb6efb","bdp_rd","Mon Mar 27 2023 16:46:57 GMT-0400 (Eastern Daylight Time)","273595","","1514","","","","offer","","","<div class='trialBorder'><div class='vertical-center'><img style='vertical-align:center; align:center' src=img/fixation3.jpg></div><div class='cl'><div class='vertical-center'>$78<br>with a<br>50% chance</div></div><div class='cr'><div class='vertical-center'>$31<br>for<br>sure</div></div><div class='respDivL'><div class='vertical-center'>(E)</div></div><div class='respDivR'><div class='vertical-center'>(I)</div></div></div>","E","$31","$78","1","31","78","RISKY"
"html-keyboard-response","94","197575","0.0-5.0-3.29","6362aca86b740b1ec4cb6efb","bdp_rd","Mon Mar 27 2023 16:46:57 GMT-0400 (Eastern Daylight Time)","273595","","null","","","","offerFB","","","<div class='trialBorder'><div class='vertical-center'><img style='vertical-align:center; align:center' src=img/fixation3.jpg></div><div class='cl'><div class='vertical-center'><font style='color:orange'>$78<br>with a<br>50% chance</font></div></div><div class='cr'><div class='vertical-center'>$31<br>for<br>sure</div></div><div class='respDivL'><div class='vertical-center'><font style='color:orange'>(E)</font></div></div><div class='respDivR'><div class='vertical-center'>(I)</div></div></div>","null","$31","$78","1","31","78",""
"html-keyboard-response","95","198080","0.0-5.0-1.30","6362aca86b740b1ec4cb6efb","bdp_rd","Mon Mar 27 2023 16:46:57 GMT-0400 (Eastern Daylight Time)","273595","","null","","","","FIX","","","<div class='trialBorder'><div class='vertical-center'><img style='vertical-align:center; align:center' src=img/fixation3.jpg></div></div>","null","","","","","",""
"html-keyboard-response","96","199524","0.0-5.0-2.30","6362aca86b740b1ec4cb6efb","bdp_rd","Mon Mar 27 2023 16:46:57 GMT-0400 (Eastern Daylight Time)","273595","","1441","","","","offer","","","<div class='trialBorder'><div class='vertical-center'><img style='vertical-align:center; align:center' src=img/fixation3.jpg></div><div class='cl'><div class='vertical-center'>$33<br>for<br>sure</div></div><div class='cr'><div class='vertical-center'>$66<br>with a<br>50% chance</div></div><div class='respDivL'><div class='vertical-center'>(E)</div></div><div class='respDivR'><div class='vertical-center'>(I)</div></div></div>","I","$33","$66","0","33","66","RISKY"
"html-keyboard-response","97","199778","0.0-5.0-3.30","6362aca86b740b1ec4cb6efb","bdp_rd","Mon Mar 27 2023 16:46:57 GMT-0400 (Eastern Daylight Time)","273595","","null","","","","offerFB","","","<div class='trialBorder'><div class='vertical-center'><img style='vertical-align:center; align:center' src=img/fixation3.jpg></div><div class='cl'><div class='vertical-center'>$33<br>for<br>sure</div></div><div class='cr'><div class='vertical-center'><font style='color:orange'>$66<br>with a<br>50% chance</font></div></div><div class='respDivL'><div class='vertical-center'>(E)</div></div><div class='respDivR'><div class='vertical-center'><font style='color:orange'>(I)</font></div></div></div>","null","$33","$66","0","33","66",""
"html-keyboard-response","98","200282","0.0-5.0-1.31","6362aca86b740b1ec4cb6efb","bdp_rd","Mon Mar 27 2023 16:46:57 GMT-0400 (Eastern Daylight Time)","273595","","null","","","","FIX","","","<div class='trialBorder'><div class='vertical-center'><img style='vertical-align:center; align:center' src=img/fixation3.jpg></div></div>","null","","","","","",""
"html-keyboard-response","99","201348","0.0-5.0-2.31","6362aca86b740b1ec4cb6efb","bdp_rd","Mon Mar 27 2023 16:46:57 GMT-0400 (Eastern Daylight Time)","273595","","1063","","","","offer","","","<div class='trialBorder'><div class='vertical-center'><img style='vertical-align:center; align:center' src=img/fixation3.jpg></div><div class='cl'><div class='vertical-center'>$41<br>with a<br>50% chance</div></div><div class='cr'><div class='vertical-center'>$13<br>for<br>sure</div></div><div class='respDivL'><div class='vertical-center'>(E)</div></div><div class='respDivR'><div class='vertical-center'>(I)</div></div></div>","E","$13","$41","1","13","41","RISKY"
"html-keyboard-response","100","201603","0.0-5.0-3.31","6362aca86b740b1ec4cb6efb","bdp_rd","Mon Mar 27 2023 16:46:57 GMT-0400 (Eastern Daylight Time)","273595","","null","","","","offerFB","","","<div class='trialBorder'><div class='vertical-center'><img style='vertical-align:center; align:center' src=img/fixation3.jpg></div><div class='cl'><div class='vertical-center'><font style='color:orange'>$41<br>with a<br>50% chance</font></div></div><div class='cr'><div class='vertical-center'>$13<br>for<br>sure</div></div><div class='respDivL'><div class='vertical-center'><font style='color:orange'>(E)</font></div></div><div class='respDivR'><div class='vertical-center'>(I)</div></div></div>","null","$13","$41","1","13","41",""
"html-keyboard-response","101","202108","0.0-5.0-1.32","6362aca86b740b1ec4cb6efb","bdp_rd","Mon Mar 27 2023 16:46:57 GMT-0400 (Eastern Daylight Time)","273595","","null","","","","FIX","","","<div class='trialBorder'><div class='vertical-center'><img style='vertical-align:center; align:center' src=img/fixation3.jpg></div></div>","null","","","","","",""
"html-keyboard-response","102","203215","0.0-5.0-2.32","6362aca86b740b1ec4cb6efb","bdp_rd","Mon Mar 27 2023 16:46:57 GMT-0400 (Eastern Daylight Time)","273595","","1104","","","","offer","","","<div class='trialBorder'><div class='vertical-center'><img style='vertical-align:center; align:center' src=img/fixation3.jpg></div><div class='cl'><div class='vertical-center'>$43<br>with a<br>50% chance</div></div><div class='cr'><div class='vertical-center'>$17<br>for<br>sure</div></div><div class='respDivL'><div class='vertical-center'>(E)</div></div><div class='respDivR'><div class='vertical-center'>(I)</div></div></div>","E","$17","$43","1","17","43","RISKY"
"html-keyboard-response","103","203470","0.0-5.0-3.32","6362aca86b740b1ec4cb6efb","bdp_rd","Mon Mar 27 2023 16:46:57 GMT-0400 (Eastern Daylight Time)","273595","","null","","","","offerFB","","","<div class='trialBorder'><div class='vertical-center'><img style='vertical-align:center; align:center' src=img/fixation3.jpg></div><div class='cl'><div class='vertical-center'><font style='color:orange'>$43<br>with a<br>50% chance</font></div></div><div class='cr'><div class='vertical-center'>$17<br>for<br>sure</div></div><div class='respDivL'><div class='vertical-center'><font style='color:orange'>(E)</font></div></div><div class='respDivR'><div class='vertical-center'>(I)</div></div></div>","null","$17","$43","1","17","43",""
"html-keyboard-response","104","203974","0.0-5.0-1.33","6362aca86b740b1ec4cb6efb","bdp_rd","Mon Mar 27 2023 16:46:57 GMT-0400 (Eastern Daylight Time)","273595","","null","","","","FIX","","","<div class='trialBorder'><div class='vertical-center'><img style='vertical-align:center; align:center' src=img/fixation3.jpg></div></div>","null","","","","","",""
"html-keyboard-response","105","206027","0.0-5.0-2.33","6362aca86b740b1ec4cb6efb","bdp_rd","Mon Mar 27 2023 16:46:57 GMT-0400 (Eastern Daylight Time)","273595","","2050","","","","offer","","","<div class='trialBorder'><div class='vertical-center'><img style='vertical-align:center; align:center' src=img/fixation3.jpg></div><div class='cl'><div class='vertical-center'>$21<br>for<br>sure</div></div><div class='cr'><div class='vertical-center'>$25<br>with a<br>50% chance</div></div><div class='respDivL'><div class='vertical-center'>(E)</div></div><div class='respDivR'><div class='vertical-center'>(I)</div></div></div>","I","$21","$25","0","21","25","RISKY"
"html-keyboard-response","106","206281","0.0-5.0-3.33","6362aca86b740b1ec4cb6efb","bdp_rd","Mon Mar 27 2023 16:46:57 GMT-0400 (Eastern Daylight Time)","273595","","null","","","","offerFB","","","<div class='trialBorder'><div class='vertical-center'><img style='vertical-align:center; align:center' src=img/fixation3.jpg></div><div class='cl'><div class='vertical-center'>$21<br>for<br>sure</div></div><div class='cr'><div class='vertical-center'><font style='color:orange'>$25<br>with a<br>50% chance</font></div></div><div class='respDivL'><div class='vertical-center'>(E)</div></div><div class='respDivR'><div class='vertical-center'><font style='color:orange'>(I)</font></div></div></div>","null","$21","$25","0","21","25",""
"html-keyboard-response","107","206785","0.0-5.0-1.34","6362aca86b740b1ec4cb6efb","bdp_rd","Mon Mar 27 2023 16:46:57 GMT-0400 (Eastern Daylight Time)","273595","","null","","","","FIX","","","<div class='trialBorder'><div class='vertical-center'><img style='vertical-align:center; align:center' src=img/fixation3.jpg></div></div>","null","","","","","",""
"html-keyboard-response","108","208481","0.0-5.0-2.34","6362aca86b740b1ec4cb6efb","bdp_rd","Mon Mar 27 2023 16:46:57 GMT-0400 (Eastern Daylight Time)","273595","","1692","","","","offer","","","<div class='trialBorder'><div class='vertical-center'><img style='vertical-align:center; align:center' src=img/fixation3.jpg></div><div class='cl'><div class='vertical-center'>$28<br>for<br>sure</div></div><div class='cr'><div class='vertical-center'>$89<br>with a<br>50% chance</div></div><div class='respDivL'><div class='vertical-center'>(E)</div></div><div class='respDivR'><div class='vertical-center'>(I)</div></div></div>","I","$28","$89","0","28","89","RISKY"
"html-keyboard-response","109","208735","0.0-5.0-3.34","6362aca86b740b1ec4cb6efb","bdp_rd","Mon Mar 27 2023 16:46:57 GMT-0400 (Eastern Daylight Time)","273595","","null","","","","offerFB","","","<div class='trialBorder'><div class='vertical-center'><img style='vertical-align:center; align:center' src=img/fixation3.jpg></div><div class='cl'><div class='vertical-center'>$28<br>for<br>sure</div></div><div class='cr'><div class='vertical-center'><font style='color:orange'>$89<br>with a<br>50% chance</font></div></div><div class='respDivL'><div class='vertical-center'>(E)</div></div><div class='respDivR'><div class='vertical-center'><font style='color:orange'>(I)</font></div></div></div>","null","$28","$89","0","28","89",""
"html-keyboard-response","110","209238","0.0-5.0-1.35","6362aca86b740b1ec4cb6efb","bdp_rd","Mon Mar 27 2023 16:46:57 GMT-0400 (Eastern Daylight Time)","273595","","null","","","","FIX","","","<div class='trialBorder'><div class='vertical-center'><img style='vertical-align:center; align:center' src=img/fixation3.jpg></div></div>","null","","","","","",""
"html-keyboard-response","111","210527","0.0-5.0-2.35","6362aca86b740b1ec4cb6efb","bdp_rd","Mon Mar 27 2023 16:46:57 GMT-0400 (Eastern Daylight Time)","273595","","1286","","","","offer","","","<div class='trialBorder'><div class='vertical-center'><img style='vertical-align:center; align:center' src=img/fixation3.jpg></div><div class='cl'><div class='vertical-center'>$39<br>for<br>sure</div></div><div class='cr'><div class='vertical-center'>$81<br>with a<br>50% chance</div></div><div class='respDivL'><div class='vertical-center'>(E)</div></div><div class='respDivR'><div class='vertical-center'>(I)</div></div></div>","I","$39","$81","0","39","81","RISKY"
"html-keyboard-response","112","210781","0.0-5.0-3.35","6362aca86b740b1ec4cb6efb","bdp_rd","Mon Mar 27 2023 16:46:57 GMT-0400 (Eastern Daylight Time)","273595","","null","","","","offerFB","","","<div class='trialBorder'><div class='vertical-center'><img style='vertical-align:center; align:center' src=img/fixation3.jpg></div><div class='cl'><div class='vertical-center'>$39<br>for<br>sure</div></div><div class='cr'><div class='vertical-center'><font style='color:orange'>$81<br>with a<br>50% chance</font></div></div><div class='respDivL'><div class='vertical-center'>(E)</div></div><div class='respDivR'><div class='vertical-center'><font style='color:orange'>(I)</font></div></div></div>","null","$39","$81","0","39","81",""
"html-keyboard-response","113","211285","0.0-5.0-1.36","6362aca86b740b1ec4cb6efb","bdp_rd","Mon Mar 27 2023 16:46:57 GMT-0400 (Eastern Daylight Time)","273595","","null","","","","FIX","","","<div class='trialBorder'><div class='vertical-center'><img style='vertical-align:center; align:center' src=img/fixation3.jpg></div></div>","null","","","","","",""
"html-keyboard-response","114","213588","0.0-5.0-2.36","6362aca86b740b1ec4cb6efb","bdp_rd","Mon Mar 27 2023 16:46:57 GMT-0400 (Eastern Daylight Time)","273595","","2300","","","","offer","","","<div class='trialBorder'><div class='vertical-center'><img style='vertical-align:center; align:center' src=img/fixation3.jpg></div><div class='cl'><div class='vertical-center'>$6<br>for<br>sure</div></div><div class='cr'><div class='vertical-center'>$15<br>with a<br>50% chance</div></div><div class='respDivL'><div class='vertical-center'>(E)</div></div><div class='respDivR'><div class='vertical-center'>(I)</div></div></div>","E","$6","$15","0","6","15","SURE"
"html-keyboard-response","115","213842","0.0-5.0-3.36","6362aca86b740b1ec4cb6efb","bdp_rd","Mon Mar 27 2023 16:46:57 GMT-0400 (Eastern Daylight Time)","273595","","null","","","","offerFB","","","<div class='trialBorder'><div class='vertical-center'><img style='vertical-align:center; align:center' src=img/fixation3.jpg></div><div class='cl'><div class='vertical-center'><font style='color:orange'>$6<br>for<br>sure</font></div></div><div class='cr'><div class='vertical-center'>$15<br>with a<br>50% chance</div></div><div class='respDivL'><div class='vertical-center'><font style='color:orange'>(E)</font></div></div><div class='respDivR'><div class='vertical-center'>(I)</div></div></div>","null","$6","$15","0","6","15",""
"html-keyboard-response","116","214346","0.0-5.0-1.37","6362aca86b740b1ec4cb6efb","bdp_rd","Mon Mar 27 2023 16:46:57 GMT-0400 (Eastern Daylight Time)","273595","","null","","","","FIX","","","<div class='trialBorder'><div class='vertical-center'><img style='vertical-align:center; align:center' src=img/fixation3.jpg></div></div>","null","","","","","",""
"html-keyboard-response","117","215972","0.0-5.0-2.37","6362aca86b740b1ec4cb6efb","bdp_rd","Mon Mar 27 2023 16:46:57 GMT-0400 (Eastern Daylight Time)","273595","","1624","","","","offer","","","<div class='trialBorder'><div class='vertical-center'><img style='vertical-align:center; align:center' src=img/fixation3.jpg></div><div class='cl'><div class='vertical-center'>$70<br>with a<br>50% chance</div></div><div class='cr'><div class='vertical-center'>$24<br>for<br>sure</div></div><div class='respDivL'><div class='vertical-center'>(E)</div></div><div class='respDivR'><div class='vertical-center'>(I)</div></div></div>","E","$24","$70","1","24","70","RISKY"
"html-keyboard-response","118","216227","0.0-5.0-3.37","6362aca86b740b1ec4cb6efb","bdp_rd","Mon Mar 27 2023 16:46:57 GMT-0400 (Eastern Daylight Time)","273595","","null","","","","offerFB","","","<div class='trialBorder'><div class='vertical-center'><img style='vertical-align:center; align:center' src=img/fixation3.jpg></div><div class='cl'><div class='vertical-center'><font style='color:orange'>$70<br>with a<br>50% chance</font></div></div><div class='cr'><div class='vertical-center'>$24<br>for<br>sure</div></div><div class='respDivL'><div class='vertical-center'><font style='color:orange'>(E)</font></div></div><div class='respDivR'><div class='vertical-center'>(I)</div></div></div>","null","$24","$70","1","24","70",""
"html-keyboard-response","119","216731","0.0-5.0-1.38","6362aca86b740b1ec4cb6efb","bdp_rd","Mon Mar 27 2023 16:46:57 GMT-0400 (Eastern Daylight Time)","273595","","null","","","","FIX","","","<div class='trialBorder'><div class='vertical-center'><img style='vertical-align:center; align:center' src=img/fixation3.jpg></div></div>","null","","","","","",""
"html-keyboard-response","120","219099","0.0-5.0-2.38","6362aca86b740b1ec4cb6efb","bdp_rd","Mon Mar 27 2023 16:46:57 GMT-0400 (Eastern Daylight Time)","273595","","2366","","","","offer","","","<div class='trialBorder'><div class='vertical-center'><img style='vertical-align:center; align:center' src=img/fixation3.jpg></div><div class='cl'><div class='vertical-center'>$27<br>with a<br>50% chance</div></div><div class='cr'><div class='vertical-center'>$12<br>for<br>sure</div></div><div class='respDivL'><div class='vertical-center'>(E)</div></div><div class='respDivR'><div class='vertical-center'>(I)</div></div></div>","I","$12","$27","1","12","27","SURE"
"html-keyboard-response","121","219354","0.0-5.0-3.38","6362aca86b740b1ec4cb6efb","bdp_rd","Mon Mar 27 2023 16:46:57 GMT-0400 (Eastern Daylight Time)","273595","","null","","","","offerFB","","","<div class='trialBorder'><div class='vertical-center'><img style='vertical-align:center; align:center' src=img/fixation3.jpg></div><div class='cl'><div class='vertical-center'>$27<br>with a<br>50% chance</div></div><div class='cr'><div class='vertical-center'><font style='color:orange'>$12<br>for<br>sure</font></div></div><div class='respDivL'><div class='vertical-center'>(E)</div></div><div class='respDivR'><div class='vertical-center'><font style='color:orange'>(I)</font></div></div></div>","null","$12","$27","1","12","27",""
"html-keyboard-response","122","219857","0.0-5.0-1.39","6362aca86b740b1ec4cb6efb","bdp_rd","Mon Mar 27 2023 16:46:57 GMT-0400 (Eastern Daylight Time)","273595","","null","","","","FIX","","","<div class='trialBorder'><div class='vertical-center'><img style='vertical-align:center; align:center' src=img/fixation3.jpg></div></div>","null","","","","","",""
"html-keyboard-response","123","221754","0.0-5.0-2.39","6362aca86b740b1ec4cb6efb","bdp_rd","Mon Mar 27 2023 16:46:57 GMT-0400 (Eastern Daylight Time)","273595","","1893","","","","offer","","","<div class='trialBorder'><div class='vertical-center'><img style='vertical-align:center; align:center' src=img/fixation3.jpg></div><div class='cl'><div class='vertical-center'>$34<br>with a<br>50% chance</div></div><div class='cr'><div class='vertical-center'>$15<br>for<br>sure</div></div><div class='respDivL'><div class='vertical-center'>(E)</div></div><div class='respDivR'><div class='vertical-center'>(I)</div></div></div>","I","$15","$34","1","15","34","SURE"
"html-keyboard-response","124","222008","0.0-5.0-3.39","6362aca86b740b1ec4cb6efb","bdp_rd","Mon Mar 27 2023 16:46:57 GMT-0400 (Eastern Daylight Time)","273595","","null","","","","offerFB","","","<div class='trialBorder'><div class='vertical-center'><img style='vertical-align:center; align:center' src=img/fixation3.jpg></div><div class='cl'><div class='vertical-center'>$34<br>with a<br>50% chance</div></div><div class='cr'><div class='vertical-center'><font style='color:orange'>$15<br>for<br>sure</font></div></div><div class='respDivL'><div class='vertical-center'>(E)</div></div><div class='respDivR'><div class='vertical-center'><font style='color:orange'>(I)</font></div></div></div>","null","$15","$34","1","15","34",""
"html-keyboard-response","125","222512","0.0-5.0-1.40","6362aca86b740b1ec4cb6efb","bdp_rd","Mon Mar 27 2023 16:46:57 GMT-0400 (Eastern Daylight Time)","273595","","null","","","","FIX","","","<div class='trialBorder'><div class='vertical-center'><img style='vertical-align:center; align:center' src=img/fixation3.jpg></div></div>","null","","","","","",""
"html-keyboard-response","126","224341","0.0-5.0-2.40","6362aca86b740b1ec4cb6efb","bdp_rd","Mon Mar 27 2023 16:46:57 GMT-0400 (Eastern Daylight Time)","273595","","1826","","","","offer","","","<div class='trialBorder'><div class='vertical-center'><img style='vertical-align:center; align:center' src=img/fixation3.jpg></div><div class='cl'><div class='vertical-center'>$13<br>with a<br>50% chance</div></div><div class='cr'><div class='vertical-center'>$6<br>for<br>sure</div></div><div class='respDivL'><div class='vertical-center'>(E)</div></div><div class='respDivR'><div class='vertical-center'>(I)</div></div></div>","E","$6","$13","1","6","13","RISKY"
"html-keyboard-response","127","224595","0.0-5.0-3.40","6362aca86b740b1ec4cb6efb","bdp_rd","Mon Mar 27 2023 16:46:57 GMT-0400 (Eastern Daylight Time)","273595","","null","","","","offerFB","","","<div class='trialBorder'><div class='vertical-center'><img style='vertical-align:center; align:center' src=img/fixation3.jpg></div><div class='cl'><div class='vertical-center'><font style='color:orange'>$13<br>with a<br>50% chance</font></div></div><div class='cr'><div class='vertical-center'>$6<br>for<br>sure</div></div><div class='respDivL'><div class='vertical-center'><font style='color:orange'>(E)</font></div></div><div class='respDivR'><div class='vertical-center'>(I)</div></div></div>","null","$6","$13","1","6","13",""
"html-keyboard-response","128","225099","0.0-5.0-1.41","6362aca86b740b1ec4cb6efb","bdp_rd","Mon Mar 27 2023 16:46:57 GMT-0400 (Eastern Daylight Time)","273595","","null","","","","FIX","","","<div class='trialBorder'><div class='vertical-center'><img style='vertical-align:center; align:center' src=img/fixation3.jpg></div></div>","null","","","","","",""
"html-keyboard-response","129","226609","0.0-5.0-2.41","6362aca86b740b1ec4cb6efb","bdp_rd","Mon Mar 27 2023 16:46:57 GMT-0400 (Eastern Daylight Time)","273595","","1507","","","","offer","","","<div class='trialBorder'><div class='vertical-center'><img style='vertical-align:center; align:center' src=img/fixation3.jpg></div><div class='cl'><div class='vertical-center'>$45<br>for<br>sure</div></div><div class='cr'><div class='vertical-center'>$86<br>with a<br>50% chance</div></div><div class='respDivL'><div class='vertical-center'>(E)</div></div><div class='respDivR'><div class='vertical-center'>(I)</div></div></div>","I","$45","$86","0","45","86","RISKY"
"html-keyboard-response","130","226863","0.0-5.0-3.41","6362aca86b740b1ec4cb6efb","bdp_rd","Mon Mar 27 2023 16:46:57 GMT-0400 (Eastern Daylight Time)","273595","","null","","","","offerFB","","","<div class='trialBorder'><div class='vertical-center'><img style='vertical-align:center; align:center' src=img/fixation3.jpg></div><div class='cl'><div class='vertical-center'>$45<br>for<br>sure</div></div><div class='cr'><div class='vertical-center'><font style='color:orange'>$86<br>with a<br>50% chance</font></div></div><div class='respDivL'><div class='vertical-center'>(E)</div></div><div class='respDivR'><div class='vertical-center'><font style='color:orange'>(I)</font></div></div></div>","null","$45","$86","0","45","86",""
"html-keyboard-response","131","227366","0.0-5.0-1.42","6362aca86b740b1ec4cb6efb","bdp_rd","Mon Mar 27 2023 16:46:57 GMT-0400 (Eastern Daylight Time)","273595","","null","","","","FIX","","","<div class='trialBorder'><div class='vertical-center'><img style='vertical-align:center; align:center' src=img/fixation3.jpg></div></div>","null","","","","","",""
"html-keyboard-response","132","229000","0.0-5.0-2.42","6362aca86b740b1ec4cb6efb","bdp_rd","Mon Mar 27 2023 16:46:57 GMT-0400 (Eastern Daylight Time)","273595","","1632","","","","offer","","","<div class='trialBorder'><div class='vertical-center'><img style='vertical-align:center; align:center' src=img/fixation3.jpg></div><div class='cl'><div class='vertical-center'>$1<br>for<br>sure</div></div><div class='cr'><div class='vertical-center'>$30<br>with a<br>50% chance</div></div><div class='respDivL'><div class='vertical-center'>(E)</div></div><div class='respDivR'><div class='vertical-center'>(I)</div></div></div>","I","$1","$30","0","1","30","RISKY"
"html-keyboard-response","133","229254","0.0-5.0-3.42","6362aca86b740b1ec4cb6efb","bdp_rd","Mon Mar 27 2023 16:46:57 GMT-0400 (Eastern Daylight Time)","273595","","null","","","","offerFB","","","<div class='trialBorder'><div class='vertical-center'><img style='vertical-align:center; align:center' src=img/fixation3.jpg></div><div class='cl'><div class='vertical-center'>$1<br>for<br>sure</div></div><div class='cr'><div class='vertical-center'><font style='color:orange'>$30<br>with a<br>50% chance</font></div></div><div class='respDivL'><div class='vertical-center'>(E)</div></div><div class='respDivR'><div class='vertical-center'><font style='color:orange'>(I)</font></div></div></div>","null","$1","$30","0","1","30",""
"html-keyboard-response","134","229758","0.0-5.0-1.43","6362aca86b740b1ec4cb6efb","bdp_rd","Mon Mar 27 2023 16:46:57 GMT-0400 (Eastern Daylight Time)","273595","","null","","","","FIX","","","<div class='trialBorder'><div class='vertical-center'><img style='vertical-align:center; align:center' src=img/fixation3.jpg></div></div>","null","","","","","",""
"html-keyboard-response","135","230836","0.0-5.0-2.43","6362aca86b740b1ec4cb6efb","bdp_rd","Mon Mar 27 2023 16:46:57 GMT-0400 (Eastern Daylight Time)","273595","","1076","","","","offer","","","<div class='trialBorder'><div class='vertical-center'><img style='vertical-align:center; align:center' src=img/fixation3.jpg></div><div class='cl'><div class='vertical-center'>$54<br>with a<br>50% chance</div></div><div class='cr'><div class='vertical-center'>$25<br>for<br>sure</div></div><div class='respDivL'><div class='vertical-center'>(E)</div></div><div class='respDivR'><div class='vertical-center'>(I)</div></div></div>","E","$25","$54","1","25","54","RISKY"
"html-keyboard-response","136","231090","0.0-5.0-3.43","6362aca86b740b1ec4cb6efb","bdp_rd","Mon Mar 27 2023 16:46:57 GMT-0400 (Eastern Daylight Time)","273595","","null","","","","offerFB","","","<div class='trialBorder'><div class='vertical-center'><img style='vertical-align:center; align:center' src=img/fixation3.jpg></div><div class='cl'><div class='vertical-center'><font style='color:orange'>$54<br>with a<br>50% chance</font></div></div><div class='cr'><div class='vertical-center'>$25<br>for<br>sure</div></div><div class='respDivL'><div class='vertical-center'><font style='color:orange'>(E)</font></div></div><div class='respDivR'><div class='vertical-center'>(I)</div></div></div>","null","$25","$54","1","25","54",""
"html-keyboard-response","137","231593","0.0-5.0-1.44","6362aca86b740b1ec4cb6efb","bdp_rd","Mon Mar 27 2023 16:46:57 GMT-0400 (Eastern Daylight Time)","273595","","null","","","","FIX","","","<div class='trialBorder'><div class='vertical-center'><img style='vertical-align:center; align:center' src=img/fixation3.jpg></div></div>","null","","","","","",""
"html-keyboard-response","138","233635","0.0-5.0-2.44","6362aca86b740b1ec4cb6efb","bdp_rd","Mon Mar 27 2023 16:46:57 GMT-0400 (Eastern Daylight Time)","273595","","2039","","","","offer","","","<div class='trialBorder'><div class='vertical-center'><img style='vertical-align:center; align:center' src=img/fixation3.jpg></div><div class='cl'><div class='vertical-center'>$15<br>for<br>sure</div></div><div class='cr'><div class='vertical-center'>$31<br>with a<br>50% chance</div></div><div class='respDivL'><div class='vertical-center'>(E)</div></div><div class='respDivR'><div class='vertical-center'>(I)</div></div></div>","E","$15","$31","0","15","31","SURE"
"html-keyboard-response","139","233889","0.0-5.0-3.44","6362aca86b740b1ec4cb6efb","bdp_rd","Mon Mar 27 2023 16:46:57 GMT-0400 (Eastern Daylight Time)","273595","","null","","","","offerFB","","","<div class='trialBorder'><div class='vertical-center'><img style='vertical-align:center; align:center' src=img/fixation3.jpg></div><div class='cl'><div class='vertical-center'><font style='color:orange'>$15<br>for<br>sure</font></div></div><div class='cr'><div class='vertical-center'>$31<br>with a<br>50% chance</div></div><div class='respDivL'><div class='vertical-center'><font style='color:orange'>(E)</font></div></div><div class='respDivR'><div class='vertical-center'>(I)</div></div></div>","null","$15","$31","0","15","31",""
"html-keyboard-response","140","234393","0.0-5.0-1.45","6362aca86b740b1ec4cb6efb","bdp_rd","Mon Mar 27 2023 16:46:57 GMT-0400 (Eastern Daylight Time)","273595","","null","","","","FIX","","","<div class='trialBorder'><div class='vertical-center'><img style='vertical-align:center; align:center' src=img/fixation3.jpg></div></div>","null","","","","","",""
"html-keyboard-response","141","236830","0.0-5.0-2.45","6362aca86b740b1ec4cb6efb","bdp_rd","Mon Mar 27 2023 16:46:57 GMT-0400 (Eastern Daylight Time)","273595","","2434","","","","offer","","","<div class='trialBorder'><div class='vertical-center'><img style='vertical-align:center; align:center' src=img/fixation3.jpg></div><div class='cl'><div class='vertical-center'>$3<br>for<br>sure</div></div><div class='cr'><div class='vertical-center'>$12<br>with a<br>50% chance</div></div><div class='respDivL'><div class='vertical-center'>(E)</div></div><div class='respDivR'><div class='vertical-center'>(I)</div></div></div>","I","$3","$12","0","3","12","RISKY"
"html-keyboard-response","142","237084","0.0-5.0-3.45","6362aca86b740b1ec4cb6efb","bdp_rd","Mon Mar 27 2023 16:46:57 GMT-0400 (Eastern Daylight Time)","273595","","null","","","","offerFB","","","<div class='trialBorder'><div class='vertical-center'><img style='vertical-align:center; align:center' src=img/fixation3.jpg></div><div class='cl'><div class='vertical-center'>$3<br>for<br>sure</div></div><div class='cr'><div class='vertical-center'><font style='color:orange'>$12<br>with a<br>50% chance</font></div></div><div class='respDivL'><div class='vertical-center'>(E)</div></div><div class='respDivR'><div class='vertical-center'><font style='color:orange'>(I)</font></div></div></div>","null","$3","$12","0","3","12",""
"html-keyboard-response","143","237588","0.0-5.0-1.46","6362aca86b740b1ec4cb6efb","bdp_rd","Mon Mar 27 2023 16:46:57 GMT-0400 (Eastern Daylight Time)","273595","","null","","","","FIX","","","<div class='trialBorder'><div class='vertical-center'><img style='vertical-align:center; align:center' src=img/fixation3.jpg></div></div>","null","","","","","",""
"html-keyboard-response","144","238900","0.0-5.0-2.46","6362aca86b740b1ec4cb6efb","bdp_rd","Mon Mar 27 2023 16:46:57 GMT-0400 (Eastern Daylight Time)","273595","","1310","","","","offer","","","<div class='trialBorder'><div class='vertical-center'><img style='vertical-align:center; align:center' src=img/fixation3.jpg></div><div class='cl'><div class='vertical-center'>$64<br>with a<br>50% chance</div></div><div class='cr'><div class='vertical-center'>$2<br>for<br>sure</div></div><div class='respDivL'><div class='vertical-center'>(E)</div></div><div class='respDivR'><div class='vertical-center'>(I)</div></div></div>","E","$2","$64","1","2","64","RISKY"
"html-keyboard-response","145","239154","0.0-5.0-3.46","6362aca86b740b1ec4cb6efb","bdp_rd","Mon Mar 27 2023 16:46:57 GMT-0400 (Eastern Daylight Time)","273595","","null","","","","offerFB","","","<div class='trialBorder'><div class='vertical-center'><img style='vertical-align:center; align:center' src=img/fixation3.jpg></div><div class='cl'><div class='vertical-center'><font style='color:orange'>$64<br>with a<br>50% chance</font></div></div><div class='cr'><div class='vertical-center'>$2<br>for<br>sure</div></div><div class='respDivL'><div class='vertical-center'><font style='color:orange'>(E)</font></div></div><div class='respDivR'><div class='vertical-center'>(I)</div></div></div>","null","$2","$64","1","2","64",""
"html-keyboard-response","146","239658","0.0-5.0-1.47","6362aca86b740b1ec4cb6efb","bdp_rd","Mon Mar 27 2023 16:46:57 GMT-0400 (Eastern Daylight Time)","273595","","null","","","","FIX","","","<div class='trialBorder'><div class='vertical-center'><img style='vertical-align:center; align:center' src=img/fixation3.jpg></div></div>","null","","","","","",""
"html-keyboard-response","147","241374","0.0-5.0-2.47","6362aca86b740b1ec4cb6efb","bdp_rd","Mon Mar 27 2023 16:46:57 GMT-0400 (Eastern Daylight Time)","273595","","1713","","","","offer","","","<div class='trialBorder'><div class='vertical-center'><img style='vertical-align:center; align:center' src=img/fixation3.jpg></div><div class='cl'><div class='vertical-center'>$30<br>for<br>sure</div></div><div class='cr'><div class='vertical-center'>$68<br>with a<br>50% chance</div></div><div class='respDivL'><div class='vertical-center'>(E)</div></div><div class='respDivR'><div class='vertical-center'>(I)</div></div></div>","I","$30","$68","0","30","68","RISKY"
"html-keyboard-response","148","241628","0.0-5.0-3.47","6362aca86b740b1ec4cb6efb","bdp_rd","Mon Mar 27 2023 16:46:57 GMT-0400 (Eastern Daylight Time)","273595","","null","","","","offerFB","","","<div class='trialBorder'><div class='vertical-center'><img style='vertical-align:center; align:center' src=img/fixation3.jpg></div><div class='cl'><div class='vertical-center'>$30<br>for<br>sure</div></div><div class='cr'><div class='vertical-center'><font style='color:orange'>$68<br>with a<br>50% chance</font></div></div><div class='respDivL'><div class='vertical-center'>(E)</div></div><div class='respDivR'><div class='vertical-center'><font style='color:orange'>(I)</font></div></div></div>","null","$30","$68","0","30","68",""
"html-keyboard-response","149","242131","0.0-5.0-1.48","6362aca86b740b1ec4cb6efb","bdp_rd","Mon Mar 27 2023 16:46:57 GMT-0400 (Eastern Daylight Time)","273595","","null","","","","FIX","","","<div class='trialBorder'><div class='vertical-center'><img style='vertical-align:center; align:center' src=img/fixation3.jpg></div></div>","null","","","","","",""
"html-keyboard-response","150","243197","0.0-5.0-2.48","6362aca86b740b1ec4cb6efb","bdp_rd","Mon Mar 27 2023 16:46:57 GMT-0400 (Eastern Daylight Time)","273595","","1063","","","","offer","","","<div class='trialBorder'><div class='vertical-center'><img style='vertical-align:center; align:center' src=img/fixation3.jpg></div><div class='cl'><div class='vertical-center'>$50<br>with a<br>50% chance</div></div><div class='cr'><div class='vertical-center'>$5<br>for<br>sure</div></div><div class='respDivL'><div class='vertical-center'>(E)</div></div><div class='respDivR'><div class='vertical-center'>(I)</div></div></div>","E","$5","$50","1","5","50","RISKY"
"html-keyboard-response","151","243451","0.0-5.0-3.48","6362aca86b740b1ec4cb6efb","bdp_rd","Mon Mar 27 2023 16:46:57 GMT-0400 (Eastern Daylight Time)","273595","","null","","","","offerFB","","","<div class='trialBorder'><div class='vertical-center'><img style='vertical-align:center; align:center' src=img/fixation3.jpg></div><div class='cl'><div class='vertical-center'><font style='color:orange'>$50<br>with a<br>50% chance</font></div></div><div class='cr'><div class='vertical-center'>$5<br>for<br>sure</div></div><div class='respDivL'><div class='vertical-center'><font style='color:orange'>(E)</font></div></div><div class='respDivR'><div class='vertical-center'>(I)</div></div></div>","null","$5","$50","1","5","50",""
"html-keyboard-response","152","243955","0.0-5.0-1.49","6362aca86b740b1ec4cb6efb","bdp_rd","Mon Mar 27 2023 16:46:57 GMT-0400 (Eastern Daylight Time)","273595","","null","","","","FIX","","","<div class='trialBorder'><div class='vertical-center'><img style='vertical-align:center; align:center' src=img/fixation3.jpg></div></div>","null","","","","","",""
"html-keyboard-response","153","245067","0.0-5.0-2.49","6362aca86b740b1ec4cb6efb","bdp_rd","Mon Mar 27 2023 16:46:57 GMT-0400 (Eastern Daylight Time)","273595","","1109","","","","offer","","","<div class='trialBorder'><div class='vertical-center'><img style='vertical-align:center; align:center' src=img/fixation3.jpg></div><div class='cl'><div class='vertical-center'>$47<br>with a<br>50% chance</div></div><div class='cr'><div class='vertical-center'>$27<br>for<br>sure</div></div><div class='respDivL'><div class='vertical-center'>(E)</div></div><div class='respDivR'><div class='vertical-center'>(I)</div></div></div>","E","$27","$47","1","27","47","RISKY"
"html-keyboard-response","154","245322","0.0-5.0-3.49","6362aca86b740b1ec4cb6efb","bdp_rd","Mon Mar 27 2023 16:46:57 GMT-0400 (Eastern Daylight Time)","273595","","null","","","","offerFB","","","<div class='trialBorder'><div class='vertical-center'><img style='vertical-align:center; align:center' src=img/fixation3.jpg></div><div class='cl'><div class='vertical-center'><font style='color:orange'>$47<br>with a<br>50% chance</font></div></div><div class='cr'><div class='vertical-center'>$27<br>for<br>sure</div></div><div class='respDivL'><div class='vertical-center'><font style='color:orange'>(E)</font></div></div><div class='respDivR'><div class='vertical-center'>(I)</div></div></div>","null","$27","$47","1","27","47",""
"html-keyboard-response","155","245825","0.0-5.0-1.50","6362aca86b740b1ec4cb6efb","bdp_rd","Mon Mar 27 2023 16:46:57 GMT-0400 (Eastern Daylight Time)","273595","","null","","","","FIX","","","<div class='trialBorder'><div class='vertical-center'><img style='vertical-align:center; align:center' src=img/fixation3.jpg></div></div>","null","","","","","",""
"html-keyboard-response","156","248124","0.0-5.0-2.50","6362aca86b740b1ec4cb6efb","bdp_rd","Mon Mar 27 2023 16:46:57 GMT-0400 (Eastern Daylight Time)","273595","","2295","","","","offer","","","<div class='trialBorder'><div class='vertical-center'><img style='vertical-align:center; align:center' src=img/fixation3.jpg></div><div class='cl'><div class='vertical-center'>$3<br>for<br>sure</div></div><div class='cr'><div class='vertical-center'>$17<br>with a<br>50% chance</div></div><div class='respDivL'><div class='vertical-center'>(E)</div></div><div class='respDivR'><div class='vertical-center'>(I)</div></div></div>","I","$3","$17","0","3","17","RISKY"
"html-keyboard-response","157","248378","0.0-5.0-3.50","6362aca86b740b1ec4cb6efb","bdp_rd","Mon Mar 27 2023 16:46:57 GMT-0400 (Eastern Daylight Time)","273595","","null","","","","offerFB","","","<div class='trialBorder'><div class='vertical-center'><img style='vertical-align:center; align:center' src=img/fixation3.jpg></div><div class='cl'><div class='vertical-center'>$3<br>for<br>sure</div></div><div class='cr'><div class='vertical-center'><font style='color:orange'>$17<br>with a<br>50% chance</font></div></div><div class='respDivL'><div class='vertical-center'>(E)</div></div><div class='respDivR'><div class='vertical-center'><font style='color:orange'>(I)</font></div></div></div>","null","$3","$17","0","3","17",""
"html-keyboard-response","158","248882","0.0-5.0-1.51","6362aca86b740b1ec4cb6efb","bdp_rd","Mon Mar 27 2023 16:46:57 GMT-0400 (Eastern Daylight Time)","273595","","null","","","","FIX","","","<div class='trialBorder'><div class='vertical-center'><img style='vertical-align:center; align:center' src=img/fixation3.jpg></div></div>","null","","","","","",""
"html-keyboard-response","159","250800","0.0-5.0-2.51","6362aca86b740b1ec4cb6efb","bdp_rd","Mon Mar 27 2023 16:46:57 GMT-0400 (Eastern Daylight Time)","273595","","1915","","","","offer","","","<div class='trialBorder'><div class='vertical-center'><img style='vertical-align:center; align:center' src=img/fixation3.jpg></div><div class='cl'><div class='vertical-center'>$69<br>with a<br>50% chance</div></div><div class='cr'><div class='vertical-center'>$58<br>for<br>sure</div></div><div class='respDivL'><div class='vertical-center'>(E)</div></div><div class='respDivR'><div class='vertical-center'>(I)</div></div></div>","I","$58","$69","1","58","69","SURE"
"html-keyboard-response","160","251055","0.0-5.0-3.51","6362aca86b740b1ec4cb6efb","bdp_rd","Mon Mar 27 2023 16:46:57 GMT-0400 (Eastern Daylight Time)","273595","","null","","","","offerFB","","","<div class='trialBorder'><div class='vertical-center'><img style='vertical-align:center; align:center' src=img/fixation3.jpg></div><div class='cl'><div class='vertical-center'>$69<br>with a<br>50% chance</div></div><div class='cr'><div class='vertical-center'><font style='color:orange'>$58<br>for<br>sure</font></div></div><div class='respDivL'><div class='vertical-center'>(E)</div></div><div class='respDivR'><div class='vertical-center'><font style='color:orange'>(I)</font></div></div></div>","null","$58","$69","1","58","69",""
"html-keyboard-response","161","251558","0.0-5.0-1.52","6362aca86b740b1ec4cb6efb","bdp_rd","Mon Mar 27 2023 16:46:57 GMT-0400 (Eastern Daylight Time)","273595","","null","","","","FIX","","","<div class='trialBorder'><div class='vertical-center'><img style='vertical-align:center; align:center' src=img/fixation3.jpg></div></div>","null","","","","","",""
"html-keyboard-response","162","254243","0.0-5.0-2.52","6362aca86b740b1ec4cb6efb","bdp_rd","Mon Mar 27 2023 16:46:57 GMT-0400 (Eastern Daylight Time)","273595","","2682","","","","offer","","","<div class='trialBorder'><div class='vertical-center'><img style='vertical-align:center; align:center' src=img/fixation3.jpg></div><div class='cl'><div class='vertical-center'>$10<br>with a<br>50% chance</div></div><div class='cr'><div class='vertical-center'>$7<br>for<br>sure</div></div><div class='respDivL'><div class='vertical-center'>(E)</div></div><div class='respDivR'><div class='vertical-center'>(I)</div></div></div>","I","$7","$10","1","7","10","SURE"
"html-keyboard-response","163","254498","0.0-5.0-3.52","6362aca86b740b1ec4cb6efb","bdp_rd","Mon Mar 27 2023 16:46:57 GMT-0400 (Eastern Daylight Time)","273595","","null","","","","offerFB","","","<div class='trialBorder'><div class='vertical-center'><img style='vertical-align:center; align:center' src=img/fixation3.jpg></div><div class='cl'><div class='vertical-center'>$10<br>with a<br>50% chance</div></div><div class='cr'><div class='vertical-center'><font style='color:orange'>$7<br>for<br>sure</font></div></div><div class='respDivL'><div class='vertical-center'>(E)</div></div><div class='respDivR'><div class='vertical-center'><font style='color:orange'>(I)</font></div></div></div>","null","$7","$10","1","7","10",""
"html-keyboard-response","164","255002","0.0-5.0-1.53","6362aca86b740b1ec4cb6efb","bdp_rd","Mon Mar 27 2023 16:46:57 GMT-0400 (Eastern Daylight Time)","273595","","null","","","","FIX","","","<div class='trialBorder'><div class='vertical-center'><img style='vertical-align:center; align:center' src=img/fixation3.jpg></div></div>","null","","","","","",""
"html-keyboard-response","165","256989","0.0-5.0-2.53","6362aca86b740b1ec4cb6efb","bdp_rd","Mon Mar 27 2023 16:46:57 GMT-0400 (Eastern Daylight Time)","273595","","1985","","","","offer","","","<div class='trialBorder'><div class='vertical-center'><img style='vertical-align:center; align:center' src=img/fixation3.jpg></div><div class='cl'><div class='vertical-center'>$8<br>for<br>sure</div></div><div class='cr'><div class='vertical-center'>$45<br>with a<br>50% chance</div></div><div class='respDivL'><div class='vertical-center'>(E)</div></div><div class='respDivR'><div class='vertical-center'>(I)</div></div></div>","I","$8","$45","0","8","45","RISKY"
"html-keyboard-response","166","257243","0.0-5.0-3.53","6362aca86b740b1ec4cb6efb","bdp_rd","Mon Mar 27 2023 16:46:57 GMT-0400 (Eastern Daylight Time)","273595","","null","","","","offerFB","","","<div class='trialBorder'><div class='vertical-center'><img style='vertical-align:center; align:center' src=img/fixation3.jpg></div><div class='cl'><div class='vertical-center'>$8<br>for<br>sure</div></div><div class='cr'><div class='vertical-center'><font style='color:orange'>$45<br>with a<br>50% chance</font></div></div><div class='respDivL'><div class='vertical-center'>(E)</div></div><div class='respDivR'><div class='vertical-center'><font style='color:orange'>(I)</font></div></div></div>","null","$8","$45","0","8","45",""
"html-keyboard-response","167","257747","0.0-5.0-1.54","6362aca86b740b1ec4cb6efb","bdp_rd","Mon Mar 27 2023 16:46:57 GMT-0400 (Eastern Daylight Time)","273595","","null","","","","FIX","","","<div class='trialBorder'><div class='vertical-center'><img style='vertical-align:center; align:center' src=img/fixation3.jpg></div></div>","null","","","","","",""
"html-keyboard-response","168","259644","0.0-5.0-2.54","6362aca86b740b1ec4cb6efb","bdp_rd","Mon Mar 27 2023 16:46:57 GMT-0400 (Eastern Daylight Time)","273595","","1894","","","","offer","","","<div class='trialBorder'><div class='vertical-center'><img style='vertical-align:center; align:center' src=img/fixation3.jpg></div><div class='cl'><div class='vertical-center'>$16<br>for<br>sure</div></div><div class='cr'><div class='vertical-center'>$38<br>with a<br>50% chance</div></div><div class='respDivL'><div class='vertical-center'>(E)</div></div><div class='respDivR'><div class='vertical-center'>(I)</div></div></div>","I","$16","$38","0","16","38","RISKY"
"html-keyboard-response","169","259899","0.0-5.0-3.54","6362aca86b740b1ec4cb6efb","bdp_rd","Mon Mar 27 2023 16:46:57 GMT-0400 (Eastern Daylight Time)","273595","","null","","","","offerFB","","","<div class='trialBorder'><div class='vertical-center'><img style='vertical-align:center; align:center' src=img/fixation3.jpg></div><div class='cl'><div class='vertical-center'>$16<br>for<br>sure</div></div><div class='cr'><div class='vertical-center'><font style='color:orange'>$38<br>with a<br>50% chance</font></div></div><div class='respDivL'><div class='vertical-center'>(E)</div></div><div class='respDivR'><div class='vertical-center'><font style='color:orange'>(I)</font></div></div></div>","null","$16","$38","0","16","38",""
"html-keyboard-response","170","260402","0.0-5.0-1.55","6362aca86b740b1ec4cb6efb","bdp_rd","Mon Mar 27 2023 16:46:57 GMT-0400 (Eastern Daylight Time)","273595","","null","","","","FIX","","","<div class='trialBorder'><div class='vertical-center'><img style='vertical-align:center; align:center' src=img/fixation3.jpg></div></div>","null","","","","","",""
"html-keyboard-response","171","261827","0.0-5.0-2.55","6362aca86b740b1ec4cb6efb","bdp_rd","Mon Mar 27 2023 16:46:57 GMT-0400 (Eastern Daylight Time)","273595","","1421","","","","offer","","","<div class='trialBorder'><div class='vertical-center'><img style='vertical-align:center; align:center' src=img/fixation3.jpg></div><div class='cl'><div class='vertical-center'>$95<br>with a<br>50% chance</div></div><div class='cr'><div class='vertical-center'>$40<br>for<br>sure</div></div><div class='respDivL'><div class='vertical-center'>(E)</div></div><div class='respDivR'><div class='vertical-center'>(I)</div></div></div>","E","$40","$95","1","40","95","RISKY"
