"trial_type","trial_index","time_elapsed","internal_node_id","subject_id","task","startTime","totalTime","view_history","rt","event","trial","time","trialtype","success","stimulus","key_press","sureOffer","riskyOffer","riskyLeft","sureAmt","riskyAmt","chosen"
"pavlovia","0","3","0.0-0.0","64023a98627b1116180dff0b","bdp_rd","Sun Mar 26 2023 02:37:21 GMT-0400 (Eastern Daylight Time)","227210","","","","","","","","","","","","","","",""
"instructions","1","1333","0.0-1.0","64023a98627b1116180dff0b","bdp_rd","Sun Mar 26 2023 02:37:21 GMT-0400 (Eastern Daylight Time)","227210","[{""page_index"":0,""viewing_time"":1330}]","1330","","","","","","","","","","","","",""
"","","","","64023a98627b1116180dff0b","bdp_rd","Sun Mar 26 2023 02:37:21 GMT-0400 (Eastern Daylight Time)","227210","","","fullscreenenter","2","3774","fullscreenenter","","","","","","","","",""
"fullscreen","2","4758","0.0-2.0","64023a98627b1116180dff0b","bdp_rd","Sun Mar 26 2023 02:37:21 GMT-0400 (Eastern Daylight Time)","227210","","","","","","","true","","","","","","","",""
"instructions","3","54028","0.0-4.0","64023a98627b1116180dff0b","bdp_rd","Sun Mar 26 2023 02:37:21 GMT-0400 (Eastern Daylight Time)","227210","[{""page_index"":0,""viewing_time"":31598},{""page_index"":1,""viewing_time"":13328},{""page_index"":2,""viewing_time"":4343}]","49269","","","","","","","","","","","","",""
"html-keyboard-response","4","54530","0.0-5.0-1.0","64023a98627b1116180dff0b","bdp_rd","Sun Mar 26 2023 02:37:21 GMT-0400 (Eastern Daylight Time)","227210","","null","","","","FIX","","<div class='trialBorder'><div class='vertical-center'><img style='vertical-align:center; align:center' src=img/fixation3.jpg></div></div>","null","","","","","",""
"html-keyboard-response","5","57589","0.0-5.0-2.0","64023a98627b1116180dff0b","bdp_rd","Sun Mar 26 2023 02:37:21 GMT-0400 (Eastern Daylight Time)","227210","","3058","","","","offer","","<div class='trialBorder'><div class='vertical-center'><img style='vertical-align:center; align:center' src=img/fixation3.jpg></div><div class='cl'><div class='vertical-center'>$43<br>with a<br>50% chance</div></div><div class='cr'><div class='vertical-center'>$17<br>for<br>sure</div></div><div class='respDivL'><div class='vertical-center'>(E)</div></div><div class='respDivR'><div class='vertical-center'>(I)</div></div></div>","E","$17","$43","1","17","43","RISKY"
"html-keyboard-response","6","57842","0.0-5.0-3.0","64023a98627b1116180dff0b","bdp_rd","Sun Mar 26 2023 02:37:21 GMT-0400 (Eastern Daylight Time)","227210","","null","","","","offerFB","","<div class='trialBorder'><div class='vertical-center'><img style='vertical-align:center; align:center' src=img/fixation3.jpg></div><div class='cl'><div class='vertical-center'><font style='color:orange'>$43<br>with a<br>50% chance</font></div></div><div class='cr'><div class='vertical-center'>$17<br>for<br>sure</div></div><div class='respDivL'><div class='vertical-center'><font style='color:orange'>(E)</font></div></div><div class='respDivR'><div class='vertical-center'>(I)</div></div></div>","null","$17","$43","1","17","43",""
"html-keyboard-response","7","58343","0.0-5.0-1.1","64023a98627b1116180dff0b","bdp_rd","Sun Mar 26 2023 02:37:21 GMT-0400 (Eastern Daylight Time)","227210","","null","","","","FIX","","<div class='trialBorder'><div class='vertical-center'><img style='vertical-align:center; align:center' src=img/fixation3.jpg></div></div>","null","","","","","",""
"html-keyboard-response","8","60901","0.0-5.0-2.1","64023a98627b1116180dff0b","bdp_rd","Sun Mar 26 2023 02:37:21 GMT-0400 (Eastern Daylight Time)","227210","","2557","","","","offer","","<div class='trialBorder'><div class='vertical-center'><img style='vertical-align:center; align:center' src=img/fixation3.jpg></div><div class='cl'><div class='vertical-center'>$40<br>with a<br>50% chance</div></div><div class='cr'><div class='vertical-center'>$10<br>for<br>sure</div></div><div class='respDivL'><div class='vertical-center'>(E)</div></div><div class='respDivR'><div class='vertical-center'>(I)</div></div></div>","E","$10","$40","1","10","40","RISKY"
"html-keyboard-response","9","61152","0.0-5.0-3.1","64023a98627b1116180dff0b","bdp_rd","Sun Mar 26 2023 02:37:21 GMT-0400 (Eastern Daylight Time)","227210","","null","","","","offerFB","","<div class='trialBorder'><div class='vertical-center'><img style='vertical-align:center; align:center' src=img/fixation3.jpg></div><div class='cl'><div class='vertical-center'><font style='color:orange'>$40<br>with a<br>50% chance</font></div></div><div class='cr'><div class='vertical-center'>$10<br>for<br>sure</div></div><div class='respDivL'><div class='vertical-center'><font style='color:orange'>(E)</font></div></div><div class='respDivR'><div class='vertical-center'>(I)</div></div></div>","null","$10","$40","1","10","40",""
"html-keyboard-response","10","61654","0.0-5.0-1.2","64023a98627b1116180dff0b","bdp_rd","Sun Mar 26 2023 02:37:21 GMT-0400 (Eastern Daylight Time)","227210","","null","","","","FIX","","<div class='trialBorder'><div class='vertical-center'><img style='vertical-align:center; align:center' src=img/fixation3.jpg></div></div>","null","","","","","",""
"html-keyboard-response","11","70501","0.0-5.0-2.2","64023a98627b1116180dff0b","bdp_rd","Sun Mar 26 2023 02:37:21 GMT-0400 (Eastern Daylight Time)","227210","","8847","","","","offer","","<div class='trialBorder'><div class='vertical-center'><img style='vertical-align:center; align:center' src=img/fixation3.jpg></div><div class='cl'><div class='vertical-center'>$39<br>with a<br>50% chance</div></div><div class='cr'><div class='vertical-center'>$18<br>for<br>sure</div></div><div class='respDivL'><div class='vertical-center'>(E)</div></div><div class='respDivR'><div class='vertical-center'>(I)</div></div></div>","E","$18","$39","1","18","39","RISKY"
"html-keyboard-response","12","70753","0.0-5.0-3.2","64023a98627b1116180dff0b","bdp_rd","Sun Mar 26 2023 02:37:21 GMT-0400 (Eastern Daylight Time)","227210","","null","","","","offerFB","","<div class='trialBorder'><div class='vertical-center'><img style='vertical-align:center; align:center' src=img/fixation3.jpg></div><div class='cl'><div class='vertical-center'><font style='color:orange'>$39<br>with a<br>50% chance</font></div></div><div class='cr'><div class='vertical-center'>$18<br>for<br>sure</div></div><div class='respDivL'><div class='vertical-center'><font style='color:orange'>(E)</font></div></div><div class='respDivR'><div class='vertical-center'>(I)</div></div></div>","null","$18","$39","1","18","39",""
"html-keyboard-response","13","71254","0.0-5.0-1.3","64023a98627b1116180dff0b","bdp_rd","Sun Mar 26 2023 02:37:21 GMT-0400 (Eastern Daylight Time)","227210","","null","","","","FIX","","<div class='trialBorder'><div class='vertical-center'><img style='vertical-align:center; align:center' src=img/fixation3.jpg></div></div>","null","","","","","",""
"html-keyboard-response","14","72798","0.0-5.0-2.3","64023a98627b1116180dff0b","bdp_rd","Sun Mar 26 2023 02:37:21 GMT-0400 (Eastern Daylight Time)","227210","","1543","","","","offer","","<div class='trialBorder'><div class='vertical-center'><img style='vertical-align:center; align:center' src=img/fixation3.jpg></div><div class='cl'><div class='vertical-center'>$70<br>with a<br>50% chance</div></div><div class='cr'><div class='vertical-center'>$24<br>for<br>sure</div></div><div class='respDivL'><div class='vertical-center'>(E)</div></div><div class='respDivR'><div class='vertical-center'>(I)</div></div></div>","E","$24","$70","1","24","70","RISKY"
"html-keyboard-response","15","73050","0.0-5.0-3.3","64023a98627b1116180dff0b","bdp_rd","Sun Mar 26 2023 02:37:21 GMT-0400 (Eastern Daylight Time)","227210","","null","","","","offerFB","","<div class='trialBorder'><div class='vertical-center'><img style='vertical-align:center; align:center' src=img/fixation3.jpg></div><div class='cl'><div class='vertical-center'><font style='color:orange'>$70<br>with a<br>50% chance</font></div></div><div class='cr'><div class='vertical-center'>$24<br>for<br>sure</div></div><div class='respDivL'><div class='vertical-center'><font style='color:orange'>(E)</font></div></div><div class='respDivR'><div class='vertical-center'>(I)</div></div></div>","null","$24","$70","1","24","70",""
"html-keyboard-response","16","73552","0.0-5.0-1.4","64023a98627b1116180dff0b","bdp_rd","Sun Mar 26 2023 02:37:21 GMT-0400 (Eastern Daylight Time)","227210","","null","","","","FIX","","<div class='trialBorder'><div class='vertical-center'><img style='vertical-align:center; align:center' src=img/fixation3.jpg></div></div>","null","","","","","",""
"html-keyboard-response","17","75460","0.0-5.0-2.4","64023a98627b1116180dff0b","bdp_rd","Sun Mar 26 2023 02:37:21 GMT-0400 (Eastern Daylight Time)","227210","","1908","","","","offer","","<div class='trialBorder'><div class='vertical-center'><img style='vertical-align:center; align:center' src=img/fixation3.jpg></div><div class='cl'><div class='vertical-center'>$25<br>with a<br>50% chance</div></div><div class='cr'><div class='vertical-center'>$21<br>for<br>sure</div></div><div class='respDivL'><div class='vertical-center'>(E)</div></div><div class='respDivR'><div class='vertical-center'>(I)</div></div></div>","I","$21","$25","1","21","25","SURE"
"html-keyboard-response","18","75713","0.0-5.0-3.4","64023a98627b1116180dff0b","bdp_rd","Sun Mar 26 2023 02:37:21 GMT-0400 (Eastern Daylight Time)","227210","","null","","","","offerFB","","<div class='trialBorder'><div class='vertical-center'><img style='vertical-align:center; align:center' src=img/fixation3.jpg></div><div class='cl'><div class='vertical-center'>$25<br>with a<br>50% chance</div></div><div class='cr'><div class='vertical-center'><font style='color:orange'>$21<br>for<br>sure</font></div></div><div class='respDivL'><div class='vertical-center'>(E)</div></div><div class='respDivR'><div class='vertical-center'><font style='color:orange'>(I)</font></div></div></div>","null","$21","$25","1","21","25",""
"html-keyboard-response","19","76215","0.0-5.0-1.5","64023a98627b1116180dff0b","bdp_rd","Sun Mar 26 2023 02:37:21 GMT-0400 (Eastern Daylight Time)","227210","","null","","","","FIX","","<div class='trialBorder'><div class='vertical-center'><img style='vertical-align:center; align:center' src=img/fixation3.jpg></div></div>","null","","","","","",""
"html-keyboard-response","20","77613","0.0-5.0-2.5","64023a98627b1116180dff0b","bdp_rd","Sun Mar 26 2023 02:37:21 GMT-0400 (Eastern Daylight Time)","227210","","1396","","","","offer","","<div class='trialBorder'><div class='vertical-center'><img style='vertical-align:center; align:center' src=img/fixation3.jpg></div><div class='cl'><div class='vertical-center'>$80<br>with a<br>50% chance</div></div><div class='cr'><div class='vertical-center'>$20<br>for<br>sure</div></div><div class='respDivL'><div class='vertical-center'>(E)</div></div><div class='respDivR'><div class='vertical-center'>(I)</div></div></div>","E","$20","$80","1","20","80","RISKY"
"html-keyboard-response","21","77865","0.0-5.0-3.5","64023a98627b1116180dff0b","bdp_rd","Sun Mar 26 2023 02:37:21 GMT-0400 (Eastern Daylight Time)","227210","","null","","","","offerFB","","<div class='trialBorder'><div class='vertical-center'><img style='vertical-align:center; align:center' src=img/fixation3.jpg></div><div class='cl'><div class='vertical-center'><font style='color:orange'>$80<br>with a<br>50% chance</font></div></div><div class='cr'><div class='vertical-center'>$20<br>for<br>sure</div></div><div class='respDivL'><div class='vertical-center'><font style='color:orange'>(E)</font></div></div><div class='respDivR'><div class='vertical-center'>(I)</div></div></div>","null","$20","$80","1","20","80",""
"html-keyboard-response","22","78366","0.0-5.0-1.6","64023a98627b1116180dff0b","bdp_rd","Sun Mar 26 2023 02:37:21 GMT-0400 (Eastern Daylight Time)","227210","","null","","","","FIX","","<div class='trialBorder'><div class='vertical-center'><img style='vertical-align:center; align:center' src=img/fixation3.jpg></div></div>","null","","","","","",""
"html-keyboard-response","23","80252","0.0-5.0-2.6","64023a98627b1116180dff0b","bdp_rd","Sun Mar 26 2023 02:37:21 GMT-0400 (Eastern Daylight Time)","227210","","1885","","","","offer","","<div class='trialBorder'><div class='vertical-center'><img style='vertical-align:center; align:center' src=img/fixation3.jpg></div><div class='cl'><div class='vertical-center'>$2<br>for<br>sure</div></div><div class='cr'><div class='vertical-center'>$21<br>with a<br>50% chance</div></div><div class='respDivL'><div class='vertical-center'>(E)</div></div><div class='respDivR'><div class='vertical-center'>(I)</div></div></div>","I","$2","$21","0","2","21","RISKY"
"html-keyboard-response","24","80505","0.0-5.0-3.6","64023a98627b1116180dff0b","bdp_rd","Sun Mar 26 2023 02:37:21 GMT-0400 (Eastern Daylight Time)","227210","","null","","","","offerFB","","<div class='trialBorder'><div class='vertical-center'><img style='vertical-align:center; align:center' src=img/fixation3.jpg></div><div class='cl'><div class='vertical-center'>$2<br>for<br>sure</div></div><div class='cr'><div class='vertical-center'><font style='color:orange'>$21<br>with a<br>50% chance</font></div></div><div class='respDivL'><div class='vertical-center'>(E)</div></div><div class='respDivR'><div class='vertical-center'><font style='color:orange'>(I)</font></div></div></div>","null","$2","$21","0","2","21",""
"html-keyboard-response","25","81006","0.0-5.0-1.7","64023a98627b1116180dff0b","bdp_rd","Sun Mar 26 2023 02:37:21 GMT-0400 (Eastern Daylight Time)","227210","","null","","","","FIX","","<div class='trialBorder'><div class='vertical-center'><img style='vertical-align:center; align:center' src=img/fixation3.jpg></div></div>","null","","","","","",""
"html-keyboard-response","26","82228","0.0-5.0-2.7","64023a98627b1116180dff0b","bdp_rd","Sun Mar 26 2023 02:37:21 GMT-0400 (Eastern Daylight Time)","227210","","1221","","","","offer","","<div class='trialBorder'><div class='vertical-center'><img style='vertical-align:center; align:center' src=img/fixation3.jpg></div><div class='cl'><div class='vertical-center'>$35<br>with a<br>50% chance</div></div><div class='cr'><div class='vertical-center'>$12<br>for<br>sure</div></div><div class='respDivL'><div class='vertical-center'>(E)</div></div><div class='respDivR'><div class='vertical-center'>(I)</div></div></div>","E","$12","$35","1","12","35","RISKY"
"html-keyboard-response","27","82480","0.0-5.0-3.7","64023a98627b1116180dff0b","bdp_rd","Sun Mar 26 2023 02:37:21 GMT-0400 (Eastern Daylight Time)","227210","","null","","","","offerFB","","<div class='trialBorder'><div class='vertical-center'><img style='vertical-align:center; align:center' src=img/fixation3.jpg></div><div class='cl'><div class='vertical-center'><font style='color:orange'>$35<br>with a<br>50% chance</font></div></div><div class='cr'><div class='vertical-center'>$12<br>for<br>sure</div></div><div class='respDivL'><div class='vertical-center'><font style='color:orange'>(E)</font></div></div><div class='respDivR'><div class='vertical-center'>(I)</div></div></div>","null","$12","$35","1","12","35",""
"html-keyboard-response","28","82981","0.0-5.0-1.8","64023a98627b1116180dff0b","bdp_rd","Sun Mar 26 2023 02:37:21 GMT-0400 (Eastern Daylight Time)","227210","","null","","","","FIX","","<div class='trialBorder'><div class='vertical-center'><img style='vertical-align:center; align:center' src=img/fixation3.jpg></div></div>","null","","","","","",""
"html-keyboard-response","29","84885","0.0-5.0-2.8","64023a98627b1116180dff0b","bdp_rd","Sun Mar 26 2023 02:37:21 GMT-0400 (Eastern Daylight Time)","227210","","1904","","","","offer","","<div class='trialBorder'><div class='vertical-center'><img style='vertical-align:center; align:center' src=img/fixation3.jpg></div><div class='cl'><div class='vertical-center'>$37<br>for<br>sure</div></div><div class='cr'><div class='vertical-center'>$44<br>with a<br>50% chance</div></div><div class='respDivL'><div class='vertical-center'>(E)</div></div><div class='respDivR'><div class='vertical-center'>(I)</div></div></div>","E","$37","$44","0","37","44","SURE"
"html-keyboard-response","30","85137","0.0-5.0-3.8","64023a98627b1116180dff0b","bdp_rd","Sun Mar 26 2023 02:37:21 GMT-0400 (Eastern Daylight Time)","227210","","null","","","","offerFB","","<div class='trialBorder'><div class='vertical-center'><img style='vertical-align:center; align:center' src=img/fixation3.jpg></div><div class='cl'><div class='vertical-center'><font style='color:orange'>$37<br>for<br>sure</font></div></div><div class='cr'><div class='vertical-center'>$44<br>with a<br>50% chance</div></div><div class='respDivL'><div class='vertical-center'><font style='color:orange'>(E)</font></div></div><div class='respDivR'><div class='vertical-center'>(I)</div></div></div>","null","$37","$44","0","37","44",""
"html-keyboard-response","31","85639","0.0-5.0-1.9","64023a98627b1116180dff0b","bdp_rd","Sun Mar 26 2023 02:37:21 GMT-0400 (Eastern Daylight Time)","227210","","null","","","","FIX","","<div class='trialBorder'><div class='vertical-center'><img style='vertical-align:center; align:center' src=img/fixation3.jpg></div></div>","null","","","","","",""
"html-keyboard-response","32","105741","0.0-5.0-2.9","64023a98627b1116180dff0b","bdp_rd","Sun Mar 26 2023 02:37:21 GMT-0400 (Eastern Daylight Time)","227210","","20102","","","","offer","","<div class='trialBorder'><div class='vertical-center'><img style='vertical-align:center; align:center' src=img/fixation3.jpg></div><div class='cl'><div class='vertical-center'>$51<br>with a<br>50% chance</div></div><div class='cr'><div class='vertical-center'>$19<br>for<br>sure</div></div><div class='respDivL'><div class='vertical-center'>(E)</div></div><div class='respDivR'><div class='vertical-center'>(I)</div></div></div>","E","$19","$51","1","19","51","RISKY"
"html-keyboard-response","33","105993","0.0-5.0-3.9","64023a98627b1116180dff0b","bdp_rd","Sun Mar 26 2023 02:37:21 GMT-0400 (Eastern Daylight Time)","227210","","null","","","","offerFB","","<div class='trialBorder'><div class='vertical-center'><img style='vertical-align:center; align:center' src=img/fixation3.jpg></div><div class='cl'><div class='vertical-center'><font style='color:orange'>$51<br>with a<br>50% chance</font></div></div><div class='cr'><div class='vertical-center'>$19<br>for<br>sure</div></div><div class='respDivL'><div class='vertical-center'><font style='color:orange'>(E)</font></div></div><div class='respDivR'><div class='vertical-center'>(I)</div></div></div>","null","$19","$51","1","19","51",""
"html-keyboard-response","34","106494","0.0-5.0-1.10","64023a98627b1116180dff0b","bdp_rd","Sun Mar 26 2023 02:37:21 GMT-0400 (Eastern Daylight Time)","227210","","null","","","","FIX","","<div class='trialBorder'><div class='vertical-center'><img style='vertical-align:center; align:center' src=img/fixation3.jpg></div></div>","null","","","","","",""
"html-keyboard-response","35","109093","0.0-5.0-2.10","64023a98627b1116180dff0b","bdp_rd","Sun Mar 26 2023 02:37:21 GMT-0400 (Eastern Daylight Time)","227210","","2598","","","","offer","","<div class='trialBorder'><div class='vertical-center'><img style='vertical-align:center; align:center' src=img/fixation3.jpg></div><div class='cl'><div class='vertical-center'>$73<br>with a<br>50% chance</div></div><div class='cr'><div class='vertical-center'>$42<br>for<br>sure</div></div><div class='respDivL'><div class='vertical-center'>(E)</div></div><div class='respDivR'><div class='vertical-center'>(I)</div></div></div>","E","$42","$73","1","42","73","RISKY"
"html-keyboard-response","36","109344","0.0-5.0-3.10","64023a98627b1116180dff0b","bdp_rd","Sun Mar 26 2023 02:37:21 GMT-0400 (Eastern Daylight Time)","227210","","null","","","","offerFB","","<div class='trialBorder'><div class='vertical-center'><img style='vertical-align:center; align:center' src=img/fixation3.jpg></div><div class='cl'><div class='vertical-center'><font style='color:orange'>$73<br>with a<br>50% chance</font></div></div><div class='cr'><div class='vertical-center'>$42<br>for<br>sure</div></div><div class='respDivL'><div class='vertical-center'><font style='color:orange'>(E)</font></div></div><div class='respDivR'><div class='vertical-center'>(I)</div></div></div>","null","$42","$73","1","42","73",""
"html-keyboard-response","37","109847","0.0-5.0-1.11","64023a98627b1116180dff0b","bdp_rd","Sun Mar 26 2023 02:37:21 GMT-0400 (Eastern Daylight Time)","227210","","null","","","","FIX","","<div class='trialBorder'><div class='vertical-center'><img style='vertical-align:center; align:center' src=img/fixation3.jpg></div></div>","null","","","","","",""
"html-keyboard-response","38","111077","0.0-5.0-2.11","64023a98627b1116180dff0b","bdp_rd","Sun Mar 26 2023 02:37:21 GMT-0400 (Eastern Daylight Time)","227210","","1230","","","","offer","","<div class='trialBorder'><div class='vertical-center'><img style='vertical-align:center; align:center' src=img/fixation3.jpg></div><div class='cl'><div class='vertical-center'>$28<br>for<br>sure</div></div><div class='cr'><div class='vertical-center'>$89<br>with a<br>50% chance</div></div><div class='respDivL'><div class='vertical-center'>(E)</div></div><div class='respDivR'><div class='vertical-center'>(I)</div></div></div>","I","$28","$89","0","28","89","RISKY"
"html-keyboard-response","39","111329","0.0-5.0-3.11","64023a98627b1116180dff0b","bdp_rd","Sun Mar 26 2023 02:37:21 GMT-0400 (Eastern Daylight Time)","227210","","null","","","","offerFB","","<div class='trialBorder'><div class='vertical-center'><img style='vertical-align:center; align:center' src=img/fixation3.jpg></div><div class='cl'><div class='vertical-center'>$28<br>for<br>sure</div></div><div class='cr'><div class='vertical-center'><font style='color:orange'>$89<br>with a<br>50% chance</font></div></div><div class='respDivL'><div class='vertical-center'>(E)</div></div><div class='respDivR'><div class='vertical-center'><font style='color:orange'>(I)</font></div></div></div>","null","$28","$89","0","28","89",""
"html-keyboard-response","40","111830","0.0-5.0-1.12","64023a98627b1116180dff0b","bdp_rd","Sun Mar 26 2023 02:37:21 GMT-0400 (Eastern Daylight Time)","227210","","null","","","","FIX","","<div class='trialBorder'><div class='vertical-center'><img style='vertical-align:center; align:center' src=img/fixation3.jpg></div></div>","null","","","","","",""
"html-keyboard-response","41","113077","0.0-5.0-2.12","64023a98627b1116180dff0b","bdp_rd","Sun Mar 26 2023 02:37:21 GMT-0400 (Eastern Daylight Time)","227210","","1246","","","","offer","","<div class='trialBorder'><div class='vertical-center'><img style='vertical-align:center; align:center' src=img/fixation3.jpg></div><div class='cl'><div class='vertical-center'>$65<br>with a<br>50% chance</div></div><div class='cr'><div class='vertical-center'>$46<br>for<br>sure</div></div><div class='respDivL'><div class='vertical-center'>(E)</div></div><div class='respDivR'><div class='vertical-center'>(I)</div></div></div>","E","$46","$65","1","46","65","RISKY"
"html-keyboard-response","42","113328","0.0-5.0-3.12","64023a98627b1116180dff0b","bdp_rd","Sun Mar 26 2023 02:37:21 GMT-0400 (Eastern Daylight Time)","227210","","null","","","","offerFB","","<div class='trialBorder'><div class='vertical-center'><img style='vertical-align:center; align:center' src=img/fixation3.jpg></div><div class='cl'><div class='vertical-center'><font style='color:orange'>$65<br>with a<br>50% chance</font></div></div><div class='cr'><div class='vertical-center'>$46<br>for<br>sure</div></div><div class='respDivL'><div class='vertical-center'><font style='color:orange'>(E)</font></div></div><div class='respDivR'><div class='vertical-center'>(I)</div></div></div>","null","$46","$65","1","46","65",""
"html-keyboard-response","43","113829","0.0-5.0-1.13","64023a98627b1116180dff0b","bdp_rd","Sun Mar 26 2023 02:37:21 GMT-0400 (Eastern Daylight Time)","227210","","null","","","","FIX","","<div class='trialBorder'><div class='vertical-center'><img style='vertical-align:center; align:center' src=img/fixation3.jpg></div></div>","null","","","","","",""
"html-keyboard-response","44","115725","0.0-5.0-2.13","64023a98627b1116180dff0b","bdp_rd","Sun Mar 26 2023 02:37:21 GMT-0400 (Eastern Daylight Time)","227210","","1895","","","","offer","","<div class='trialBorder'><div class='vertical-center'><img style='vertical-align:center; align:center' src=img/fixation3.jpg></div><div class='cl'><div class='vertical-center'>$95<br>with a<br>50% chance</div></div><div class='cr'><div class='vertical-center'>$40<br>for<br>sure</div></div><div class='respDivL'><div class='vertical-center'>(E)</div></div><div class='respDivR'><div class='vertical-center'>(I)</div></div></div>","E","$40","$95","1","40","95","RISKY"
"html-keyboard-response","45","115977","0.0-5.0-3.13","64023a98627b1116180dff0b","bdp_rd","Sun Mar 26 2023 02:37:21 GMT-0400 (Eastern Daylight Time)","227210","","null","","","","offerFB","","<div class='trialBorder'><div class='vertical-center'><img style='vertical-align:center; align:center' src=img/fixation3.jpg></div><div class='cl'><div class='vertical-center'><font style='color:orange'>$95<br>with a<br>50% chance</font></div></div><div class='cr'><div class='vertical-center'>$40<br>for<br>sure</div></div><div class='respDivL'><div class='vertical-center'><font style='color:orange'>(E)</font></div></div><div class='respDivR'><div class='vertical-center'>(I)</div></div></div>","null","$40","$95","1","40","95",""
"html-keyboard-response","46","116478","0.0-5.0-1.14","64023a98627b1116180dff0b","bdp_rd","Sun Mar 26 2023 02:37:21 GMT-0400 (Eastern Daylight Time)","227210","","null","","","","FIX","","<div class='trialBorder'><div class='vertical-center'><img style='vertical-align:center; align:center' src=img/fixation3.jpg></div></div>","null","","","","","",""
"html-keyboard-response","47","118493","0.0-5.0-2.14","64023a98627b1116180dff0b","bdp_rd","Sun Mar 26 2023 02:37:21 GMT-0400 (Eastern Daylight Time)","227210","","2014","","","","offer","","<div class='trialBorder'><div class='vertical-center'><img style='vertical-align:center; align:center' src=img/fixation3.jpg></div><div class='cl'><div class='vertical-center'>$68<br>with a<br>50% chance</div></div><div class='cr'><div class='vertical-center'>$30<br>for<br>sure</div></div><div class='respDivL'><div class='vertical-center'>(E)</div></div><div class='respDivR'><div class='vertical-center'>(I)</div></div></div>","E","$30","$68","1","30","68","RISKY"
"html-keyboard-response","48","118744","0.0-5.0-3.14","64023a98627b1116180dff0b","bdp_rd","Sun Mar 26 2023 02:37:21 GMT-0400 (Eastern Daylight Time)","227210","","null","","","","offerFB","","<div class='trialBorder'><div class='vertical-center'><img style='vertical-align:center; align:center' src=img/fixation3.jpg></div><div class='cl'><div class='vertical-center'><font style='color:orange'>$68<br>with a<br>50% chance</font></div></div><div class='cr'><div class='vertical-center'>$30<br>for<br>sure</div></div><div class='respDivL'><div class='vertical-center'><font style='color:orange'>(E)</font></div></div><div class='respDivR'><div class='vertical-center'>(I)</div></div></div>","null","$30","$68","1","30","68",""
"html-keyboard-response","49","119245","0.0-5.0-1.15","64023a98627b1116180dff0b","bdp_rd","Sun Mar 26 2023 02:37:21 GMT-0400 (Eastern Daylight Time)","227210","","null","","","","FIX","","<div class='trialBorder'><div class='vertical-center'><img style='vertical-align:center; align:center' src=img/fixation3.jpg></div></div>","null","","","","","",""
"html-keyboard-response","50","121085","0.0-5.0-2.15","64023a98627b1116180dff0b","bdp_rd","Sun Mar 26 2023 02:37:21 GMT-0400 (Eastern Daylight Time)","227210","","1839","","","","offer","","<div class='trialBorder'><div class='vertical-center'><img style='vertical-align:center; align:center' src=img/fixation3.jpg></div><div class='cl'><div class='vertical-center'>$33<br>for<br>sure</div></div><div class='cr'><div class='vertical-center'>$66<br>with a<br>50% chance</div></div><div class='respDivL'><div class='vertical-center'>(E)</div></div><div class='respDivR'><div class='vertical-center'>(I)</div></div></div>","I","$33","$66","0","33","66","RISKY"
"html-keyboard-response","51","121336","0.0-5.0-3.15","64023a98627b1116180dff0b","bdp_rd","Sun Mar 26 2023 02:37:21 GMT-0400 (Eastern Daylight Time)","227210","","null","","","","offerFB","","<div class='trialBorder'><div class='vertical-center'><img style='vertical-align:center; align:center' src=img/fixation3.jpg></div><div class='cl'><div class='vertical-center'>$33<br>for<br>sure</div></div><div class='cr'><div class='vertical-center'><font style='color:orange'>$66<br>with a<br>50% chance</font></div></div><div class='respDivL'><div class='vertical-center'>(E)</div></div><div class='respDivR'><div class='vertical-center'><font style='color:orange'>(I)</font></div></div></div>","null","$33","$66","0","33","66",""
"html-keyboard-response","52","121838","0.0-5.0-1.16","64023a98627b1116180dff0b","bdp_rd","Sun Mar 26 2023 02:37:21 GMT-0400 (Eastern Daylight Time)","227210","","null","","","","FIX","","<div class='trialBorder'><div class='vertical-center'><img style='vertical-align:center; align:center' src=img/fixation3.jpg></div></div>","null","","","","","",""
"html-keyboard-response","53","124533","0.0-5.0-2.16","64023a98627b1116180dff0b","bdp_rd","Sun Mar 26 2023 02:37:21 GMT-0400 (Eastern Daylight Time)","227210","","2695","","","","offer","","<div class='trialBorder'><div class='vertical-center'><img style='vertical-align:center; align:center' src=img/fixation3.jpg></div><div class='cl'><div class='vertical-center'>$22<br>for<br>sure</div></div><div class='cr'><div class='vertical-center'>$59<br>with a<br>50% chance</div></div><div class='respDivL'><div class='vertical-center'>(E)</div></div><div class='respDivR'><div class='vertical-center'>(I)</div></div></div>","E","$22","$59","0","22","59","SURE"
"html-keyboard-response","54","124784","0.0-5.0-3.16","64023a98627b1116180dff0b","bdp_rd","Sun Mar 26 2023 02:37:21 GMT-0400 (Eastern Daylight Time)","227210","","null","","","","offerFB","","<div class='trialBorder'><div class='vertical-center'><img style='vertical-align:center; align:center' src=img/fixation3.jpg></div><div class='cl'><div class='vertical-center'><font style='color:orange'>$22<br>for<br>sure</font></div></div><div class='cr'><div class='vertical-center'>$59<br>with a<br>50% chance</div></div><div class='respDivL'><div class='vertical-center'><font style='color:orange'>(E)</font></div></div><div class='respDivR'><div class='vertical-center'>(I)</div></div></div>","null","$22","$59","0","22","59",""
"html-keyboard-response","55","125286","0.0-5.0-1.17","64023a98627b1116180dff0b","bdp_rd","Sun Mar 26 2023 02:37:21 GMT-0400 (Eastern Daylight Time)","227210","","null","","","","FIX","","<div class='trialBorder'><div class='vertical-center'><img style='vertical-align:center; align:center' src=img/fixation3.jpg></div></div>","null","","","","","",""
"html-keyboard-response","56","126333","0.0-5.0-2.17","64023a98627b1116180dff0b","bdp_rd","Sun Mar 26 2023 02:37:21 GMT-0400 (Eastern Daylight Time)","227210","","1046","","","","offer","","<div class='trialBorder'><div class='vertical-center'><img style='vertical-align:center; align:center' src=img/fixation3.jpg></div><div class='cl'><div class='vertical-center'>$31<br>for<br>sure</div></div><div class='cr'><div class='vertical-center'>$78<br>with a<br>50% chance</div></div><div class='respDivL'><div class='vertical-center'>(E)</div></div><div class='respDivR'><div class='vertical-center'>(I)</div></div></div>","I","$31","$78","0","31","78","RISKY"
"html-keyboard-response","57","126584","0.0-5.0-3.17","64023a98627b1116180dff0b","bdp_rd","Sun Mar 26 2023 02:37:21 GMT-0400 (Eastern Daylight Time)","227210","","null","","","","offerFB","","<div class='trialBorder'><div class='vertical-center'><img style='vertical-align:center; align:center' src=img/fixation3.jpg></div><div class='cl'><div class='vertical-center'>$31<br>for<br>sure</div></div><div class='cr'><div class='vertical-center'><font style='color:orange'>$78<br>with a<br>50% chance</font></div></div><div class='respDivL'><div class='vertical-center'>(E)</div></div><div class='respDivR'><div class='vertical-center'><font style='color:orange'>(I)</font></div></div></div>","null","$31","$78","0","31","78",""
"html-keyboard-response","58","127086","0.0-5.0-1.18","64023a98627b1116180dff0b","bdp_rd","Sun Mar 26 2023 02:37:21 GMT-0400 (Eastern Daylight Time)","227210","","null","","","","FIX","","<div class='trialBorder'><div class='vertical-center'><img style='vertical-align:center; align:center' src=img/fixation3.jpg></div></div>","null","","","","","",""
"html-keyboard-response","59","129205","0.0-5.0-2.18","64023a98627b1116180dff0b","bdp_rd","Sun Mar 26 2023 02:37:21 GMT-0400 (Eastern Daylight Time)","227210","","2119","","","","offer","","<div class='trialBorder'><div class='vertical-center'><img style='vertical-align:center; align:center' src=img/fixation3.jpg></div><div class='cl'><div class='vertical-center'>$6<br>for<br>sure</div></div><div class='cr'><div class='vertical-center'>$15<br>with a<br>50% chance</div></div><div class='respDivL'><div class='vertical-center'>(E)</div></div><div class='respDivR'><div class='vertical-center'>(I)</div></div></div>","I","$6","$15","0","6","15","RISKY"
"html-keyboard-response","60","129456","0.0-5.0-3.18","64023a98627b1116180dff0b","bdp_rd","Sun Mar 26 2023 02:37:21 GMT-0400 (Eastern Daylight Time)","227210","","null","","","","offerFB","","<div class='trialBorder'><div class='vertical-center'><img style='vertical-align:center; align:center' src=img/fixation3.jpg></div><div class='cl'><div class='vertical-center'>$6<br>for<br>sure</div></div><div class='cr'><div class='vertical-center'><font style='color:orange'>$15<br>with a<br>50% chance</font></div></div><div class='respDivL'><div class='vertical-center'>(E)</div></div><div class='respDivR'><div class='vertical-center'><font style='color:orange'>(I)</font></div></div></div>","null","$6","$15","0","6","15",""
"html-keyboard-response","61","129958","0.0-5.0-1.19","64023a98627b1116180dff0b","bdp_rd","Sun Mar 26 2023 02:37:21 GMT-0400 (Eastern Daylight Time)","227210","","null","","","","FIX","","<div class='trialBorder'><div class='vertical-center'><img style='vertical-align:center; align:center' src=img/fixation3.jpg></div></div>","null","","","","","",""
"html-keyboard-response","62","131589","0.0-5.0-2.19","64023a98627b1116180dff0b","bdp_rd","Sun Mar 26 2023 02:37:21 GMT-0400 (Eastern Daylight Time)","227210","","1631","","","","offer","","<div class='trialBorder'><div class='vertical-center'><img style='vertical-align:center; align:center' src=img/fixation3.jpg></div><div class='cl'><div class='vertical-center'>$20<br>for<br>sure</div></div><div class='cr'><div class='vertical-center'>$37<br>with a<br>50% chance</div></div><div class='respDivL'><div class='vertical-center'>(E)</div></div><div class='respDivR'><div class='vertical-center'>(I)</div></div></div>","I","$20","$37","0","20","37","RISKY"
"html-keyboard-response","63","131840","0.0-5.0-3.19","64023a98627b1116180dff0b","bdp_rd","Sun Mar 26 2023 02:37:21 GMT-0400 (Eastern Daylight Time)","227210","","null","","","","offerFB","","<div class='trialBorder'><div class='vertical-center'><img style='vertical-align:center; align:center' src=img/fixation3.jpg></div><div class='cl'><div class='vertical-center'>$20<br>for<br>sure</div></div><div class='cr'><div class='vertical-center'><font style='color:orange'>$37<br>with a<br>50% chance</font></div></div><div class='respDivL'><div class='vertical-center'>(E)</div></div><div class='respDivR'><div class='vertical-center'><font style='color:orange'>(I)</font></div></div></div>","null","$20","$37","0","20","37",""
"html-keyboard-response","64","132341","0.0-5.0-1.20","64023a98627b1116180dff0b","bdp_rd","Sun Mar 26 2023 02:37:21 GMT-0400 (Eastern Daylight Time)","227210","","null","","","","FIX","","<div class='trialBorder'><div class='vertical-center'><img style='vertical-align:center; align:center' src=img/fixation3.jpg></div></div>","null","","","","","",""
"html-keyboard-response","65","133965","0.0-5.0-2.20","64023a98627b1116180dff0b","bdp_rd","Sun Mar 26 2023 02:37:21 GMT-0400 (Eastern Daylight Time)","227210","","1622","","","","offer","","<div class='trialBorder'><div class='vertical-center'><img style='vertical-align:center; align:center' src=img/fixation3.jpg></div><div class='cl'><div class='vertical-center'>$15<br>for<br>sure</div></div><div class='cr'><div class='vertical-center'>$31<br>with a<br>50% chance</div></div><div class='respDivL'><div class='vertical-center'>(E)</div></div><div class='respDivR'><div class='vertical-center'>(I)</div></div></div>","I","$15","$31","0","15","31","RISKY"
"html-keyboard-response","66","134217","0.0-5.0-3.20","64023a98627b1116180dff0b","bdp_rd","Sun Mar 26 2023 02:37:21 GMT-0400 (Eastern Daylight Time)","227210","","null","","","","offerFB","","<div class='trialBorder'><div class='vertical-center'><img style='vertical-align:center; align:center' src=img/fixation3.jpg></div><div class='cl'><div class='vertical-center'>$15<br>for<br>sure</div></div><div class='cr'><div class='vertical-center'><font style='color:orange'>$31<br>with a<br>50% chance</font></div></div><div class='respDivL'><div class='vertical-center'>(E)</div></div><div class='respDivR'><div class='vertical-center'><font style='color:orange'>(I)</font></div></div></div>","null","$15","$31","0","15","31",""
"html-keyboard-response","67","134718","0.0-5.0-1.21","64023a98627b1116180dff0b","bdp_rd","Sun Mar 26 2023 02:37:21 GMT-0400 (Eastern Daylight Time)","227210","","null","","","","FIX","","<div class='trialBorder'><div class='vertical-center'><img style='vertical-align:center; align:center' src=img/fixation3.jpg></div></div>","null","","","","","",""
"html-keyboard-response","68","137605","0.0-5.0-2.21","64023a98627b1116180dff0b","bdp_rd","Sun Mar 26 2023 02:37:21 GMT-0400 (Eastern Daylight Time)","227210","","2886","","","","offer","","<div class='trialBorder'><div class='vertical-center'><img style='vertical-align:center; align:center' src=img/fixation3.jpg></div><div class='cl'><div class='vertical-center'>$4<br>for<br>sure</div></div><div class='cr'><div class='vertical-center'>$11<br>with a<br>50% chance</div></div><div class='respDivL'><div class='vertical-center'>(E)</div></div><div class='respDivR'><div class='vertical-center'>(I)</div></div></div>","E","$4","$11","0","4","11","SURE"
"html-keyboard-response","69","137856","0.0-5.0-3.21","64023a98627b1116180dff0b","bdp_rd","Sun Mar 26 2023 02:37:21 GMT-0400 (Eastern Daylight Time)","227210","","null","","","","offerFB","","<div class='trialBorder'><div class='vertical-center'><img style='vertical-align:center; align:center' src=img/fixation3.jpg></div><div class='cl'><div class='vertical-center'><font style='color:orange'>$4<br>for<br>sure</font></div></div><div class='cr'><div class='vertical-center'>$11<br>with a<br>50% chance</div></div><div class='respDivL'><div class='vertical-center'><font style='color:orange'>(E)</font></div></div><div class='respDivR'><div class='vertical-center'>(I)</div></div></div>","null","$4","$11","0","4","11",""
"html-keyboard-response","70","138358","0.0-5.0-1.22","64023a98627b1116180dff0b","bdp_rd","Sun Mar 26 2023 02:37:21 GMT-0400 (Eastern Daylight Time)","227210","","null","","","","FIX","","<div class='trialBorder'><div class='vertical-center'><img style='vertical-align:center; align:center' src=img/fixation3.jpg></div></div>","null","","","","","",""
"html-keyboard-response","71","139557","0.0-5.0-2.22","64023a98627b1116180dff0b","bdp_rd","Sun Mar 26 2023 02:37:21 GMT-0400 (Eastern Daylight Time)","227210","","1198","","","","offer","","<div class='trialBorder'><div class='vertical-center'><img style='vertical-align:center; align:center' src=img/fixation3.jpg></div><div class='cl'><div class='vertical-center'>$15<br>for<br>sure</div></div><div class='cr'><div class='vertical-center'>$34<br>with a<br>50% chance</div></div><div class='respDivL'><div class='vertical-center'>(E)</div></div><div class='respDivR'><div class='vertical-center'>(I)</div></div></div>","I","$15","$34","0","15","34","RISKY"
"html-keyboard-response","72","139808","0.0-5.0-3.22","64023a98627b1116180dff0b","bdp_rd","Sun Mar 26 2023 02:37:21 GMT-0400 (Eastern Daylight Time)","227210","","null","","","","offerFB","","<div class='trialBorder'><div class='vertical-center'><img style='vertical-align:center; align:center' src=img/fixation3.jpg></div><div class='cl'><div class='vertical-center'>$15<br>for<br>sure</div></div><div class='cr'><div class='vertical-center'><font style='color:orange'>$34<br>with a<br>50% chance</font></div></div><div class='respDivL'><div class='vertical-center'>(E)</div></div><div class='respDivR'><div class='vertical-center'><font style='color:orange'>(I)</font></div></div></div>","null","$15","$34","0","15","34",""
"html-keyboard-response","73","140310","0.0-5.0-1.23","64023a98627b1116180dff0b","bdp_rd","Sun Mar 26 2023 02:37:21 GMT-0400 (Eastern Daylight Time)","227210","","null","","","","FIX","","<div class='trialBorder'><div class='vertical-center'><img style='vertical-align:center; align:center' src=img/fixation3.jpg></div></div>","null","","","","","",""
"html-keyboard-response","74","141717","0.0-5.0-2.23","64023a98627b1116180dff0b","bdp_rd","Sun Mar 26 2023 02:37:21 GMT-0400 (Eastern Daylight Time)","227210","","1406","","","","offer","","<div class='trialBorder'><div class='vertical-center'><img style='vertical-align:center; align:center' src=img/fixation3.jpg></div><div class='cl'><div class='vertical-center'>$4<br>for<br>sure</div></div><div class='cr'><div class='vertical-center'>$14<br>with a<br>50% chance</div></div><div class='respDivL'><div class='vertical-center'>(E)</div></div><div class='respDivR'><div class='vertical-center'>(I)</div></div></div>","I","$4","$14","0","4","14","RISKY"
"html-keyboard-response","75","141968","0.0-5.0-3.23","64023a98627b1116180dff0b","bdp_rd","Sun Mar 26 2023 02:37:21 GMT-0400 (Eastern Daylight Time)","227210","","null","","","","offerFB","","<div class='trialBorder'><div class='vertical-center'><img style='vertical-align:center; align:center' src=img/fixation3.jpg></div><div class='cl'><div class='vertical-center'>$4<br>for<br>sure</div></div><div class='cr'><div class='vertical-center'><font style='color:orange'>$14<br>with a<br>50% chance</font></div></div><div class='respDivL'><div class='vertical-center'>(E)</div></div><div class='respDivR'><div class='vertical-center'><font style='color:orange'>(I)</font></div></div></div>","null","$4","$14","0","4","14",""
"html-keyboard-response","76","142470","0.0-5.0-1.24","64023a98627b1116180dff0b","bdp_rd","Sun Mar 26 2023 02:37:21 GMT-0400 (Eastern Daylight Time)","227210","","null","","","","FIX","","<div class='trialBorder'><div class='vertical-center'><img style='vertical-align:center; align:center' src=img/fixation3.jpg></div></div>","null","","","","","",""
"html-keyboard-response","77","144341","0.0-5.0-2.24","64023a98627b1116180dff0b","bdp_rd","Sun Mar 26 2023 02:37:21 GMT-0400 (Eastern Daylight Time)","227210","","1870","","","","offer","","<div class='trialBorder'><div class='vertical-center'><img style='vertical-align:center; align:center' src=img/fixation3.jpg></div><div class='cl'><div class='vertical-center'>$22<br>for<br>sure</div></div><div class='cr'><div class='vertical-center'>$42<br>with a<br>50% chance</div></div><div class='respDivL'><div class='vertical-center'>(E)</div></div><div class='respDivR'><div class='vertical-center'>(I)</div></div></div>","I","$22","$42","0","22","42","RISKY"
"html-keyboard-response","78","144593","0.0-5.0-3.24","64023a98627b1116180dff0b","bdp_rd","Sun Mar 26 2023 02:37:21 GMT-0400 (Eastern Daylight Time)","227210","","null","","","","offerFB","","<div class='trialBorder'><div class='vertical-center'><img style='vertical-align:center; align:center' src=img/fixation3.jpg></div><div class='cl'><div class='vertical-center'>$22<br>for<br>sure</div></div><div class='cr'><div class='vertical-center'><font style='color:orange'>$42<br>with a<br>50% chance</font></div></div><div class='respDivL'><div class='vertical-center'>(E)</div></div><div class='respDivR'><div class='vertical-center'><font style='color:orange'>(I)</font></div></div></div>","null","$22","$42","0","22","42",""
"html-keyboard-response","79","145095","0.0-5.0-1.25","64023a98627b1116180dff0b","bdp_rd","Sun Mar 26 2023 02:37:21 GMT-0400 (Eastern Daylight Time)","227210","","null","","","","FIX","","<div class='trialBorder'><div class='vertical-center'><img style='vertical-align:center; align:center' src=img/fixation3.jpg></div></div>","null","","","","","",""
"html-keyboard-response","80","147701","0.0-5.0-2.25","64023a98627b1116180dff0b","bdp_rd","Sun Mar 26 2023 02:37:21 GMT-0400 (Eastern Daylight Time)","227210","","2605","","","","offer","","<div class='trialBorder'><div class='vertical-center'><img style='vertical-align:center; align:center' src=img/fixation3.jpg></div><div class='cl'><div class='vertical-center'>$10<br>for<br>sure</div></div><div class='cr'><div class='vertical-center'>$19<br>with a<br>50% chance</div></div><div class='respDivL'><div class='vertical-center'>(E)</div></div><div class='respDivR'><div class='vertical-center'>(I)</div></div></div>","E","$10","$19","0","10","19","SURE"
"html-keyboard-response","81","147952","0.0-5.0-3.25","64023a98627b1116180dff0b","bdp_rd","Sun Mar 26 2023 02:37:21 GMT-0400 (Eastern Daylight Time)","227210","","null","","","","offerFB","","<div class='trialBorder'><div class='vertical-center'><img style='vertical-align:center; align:center' src=img/fixation3.jpg></div><div class='cl'><div class='vertical-center'><font style='color:orange'>$10<br>for<br>sure</font></div></div><div class='cr'><div class='vertical-center'>$19<br>with a<br>50% chance</div></div><div class='respDivL'><div class='vertical-center'><font style='color:orange'>(E)</font></div></div><div class='respDivR'><div class='vertical-center'>(I)</div></div></div>","null","$10","$19","0","10","19",""
"html-keyboard-response","82","148454","0.0-5.0-1.26","64023a98627b1116180dff0b","bdp_rd","Sun Mar 26 2023 02:37:21 GMT-0400 (Eastern Daylight Time)","227210","","null","","","","FIX","","<div class='trialBorder'><div class='vertical-center'><img style='vertical-align:center; align:center' src=img/fixation3.jpg></div></div>","null","","","","","",""
"html-keyboard-response","83","149677","0.0-5.0-2.26","64023a98627b1116180dff0b","bdp_rd","Sun Mar 26 2023 02:37:21 GMT-0400 (Eastern Daylight Time)","227210","","1222","","","","offer","","<div class='trialBorder'><div class='vertical-center'><img style='vertical-align:center; align:center' src=img/fixation3.jpg></div><div class='cl'><div class='vertical-center'>$8<br>for<br>sure</div></div><div class='cr'><div class='vertical-center'>$45<br>with a<br>50% chance</div></div><div class='respDivL'><div class='vertical-center'>(E)</div></div><div class='respDivR'><div class='vertical-center'>(I)</div></div></div>","I","$8","$45","0","8","45","RISKY"
"html-keyboard-response","84","149929","0.0-5.0-3.26","64023a98627b1116180dff0b","bdp_rd","Sun Mar 26 2023 02:37:21 GMT-0400 (Eastern Daylight Time)","227210","","null","","","","offerFB","","<div class='trialBorder'><div class='vertical-center'><img style='vertical-align:center; align:center' src=img/fixation3.jpg></div><div class='cl'><div class='vertical-center'>$8<br>for<br>sure</div></div><div class='cr'><div class='vertical-center'><font style='color:orange'>$45<br>with a<br>50% chance</font></div></div><div class='respDivL'><div class='vertical-center'>(E)</div></div><div class='respDivR'><div class='vertical-center'><font style='color:orange'>(I)</font></div></div></div>","null","$8","$45","0","8","45",""
"html-keyboard-response","85","150430","0.0-5.0-1.27","64023a98627b1116180dff0b","bdp_rd","Sun Mar 26 2023 02:37:21 GMT-0400 (Eastern Daylight Time)","227210","","null","","","","FIX","","<div class='trialBorder'><div class='vertical-center'><img style='vertical-align:center; align:center' src=img/fixation3.jpg></div></div>","null","","","","","",""
"html-keyboard-response","86","151573","0.0-5.0-2.27","64023a98627b1116180dff0b","bdp_rd","Sun Mar 26 2023 02:37:21 GMT-0400 (Eastern Daylight Time)","227210","","1142","","","","offer","","<div class='trialBorder'><div class='vertical-center'><img style='vertical-align:center; align:center' src=img/fixation3.jpg></div><div class='cl'><div class='vertical-center'>$2<br>for<br>sure</div></div><div class='cr'><div class='vertical-center'>$64<br>with a<br>50% chance</div></div><div class='respDivL'><div class='vertical-center'>(E)</div></div><div class='respDivR'><div class='vertical-center'>(I)</div></div></div>","I","$2","$64","0","2","64","RISKY"
"html-keyboard-response","87","151825","0.0-5.0-3.27","64023a98627b1116180dff0b","bdp_rd","Sun Mar 26 2023 02:37:21 GMT-0400 (Eastern Daylight Time)","227210","","null","","","","offerFB","","<div class='trialBorder'><div class='vertical-center'><img style='vertical-align:center; align:center' src=img/fixation3.jpg></div><div class='cl'><div class='vertical-center'>$2<br>for<br>sure</div></div><div class='cr'><div class='vertical-center'><font style='color:orange'>$64<br>with a<br>50% chance</font></div></div><div class='respDivL'><div class='vertical-center'>(E)</div></div><div class='respDivR'><div class='vertical-center'><font style='color:orange'>(I)</font></div></div></div>","null","$2","$64","0","2","64",""
"html-keyboard-response","88","152326","0.0-5.0-1.28","64023a98627b1116180dff0b","bdp_rd","Sun Mar 26 2023 02:37:21 GMT-0400 (Eastern Daylight Time)","227210","","null","","","","FIX","","<div class='trialBorder'><div class='vertical-center'><img style='vertical-align:center; align:center' src=img/fixation3.jpg></div></div>","null","","","","","",""
"html-keyboard-response","89","154053","0.0-5.0-2.28","64023a98627b1116180dff0b","bdp_rd","Sun Mar 26 2023 02:37:21 GMT-0400 (Eastern Daylight Time)","227210","","1726","","","","offer","","<div class='trialBorder'><div class='vertical-center'><img style='vertical-align:center; align:center' src=img/fixation3.jpg></div><div class='cl'><div class='vertical-center'>$58<br>for<br>sure</div></div><div class='cr'><div class='vertical-center'>$69<br>with a<br>50% chance</div></div><div class='respDivL'><div class='vertical-center'>(E)</div></div><div class='respDivR'><div class='vertical-center'>(I)</div></div></div>","E","$58","$69","0","58","69","SURE"
"html-keyboard-response","90","154305","0.0-5.0-3.28","64023a98627b1116180dff0b","bdp_rd","Sun Mar 26 2023 02:37:21 GMT-0400 (Eastern Daylight Time)","227210","","null","","","","offerFB","","<div class='trialBorder'><div class='vertical-center'><img style='vertical-align:center; align:center' src=img/fixation3.jpg></div><div class='cl'><div class='vertical-center'><font style='color:orange'>$58<br>for<br>sure</font></div></div><div class='cr'><div class='vertical-center'>$69<br>with a<br>50% chance</div></div><div class='respDivL'><div class='vertical-center'><font style='color:orange'>(E)</font></div></div><div class='respDivR'><div class='vertical-center'>(I)</div></div></div>","null","$58","$69","0","58","69",""
"html-keyboard-response","91","154806","0.0-5.0-1.29","64023a98627b1116180dff0b","bdp_rd","Sun Mar 26 2023 02:37:21 GMT-0400 (Eastern Daylight Time)","227210","","null","","","","FIX","","<div class='trialBorder'><div class='vertical-center'><img style='vertical-align:center; align:center' src=img/fixation3.jpg></div></div>","null","","","","","",""
"html-keyboard-response","92","158205","0.0-5.0-2.29","64023a98627b1116180dff0b","bdp_rd","Sun Mar 26 2023 02:37:21 GMT-0400 (Eastern Daylight Time)","227210","","3398","","","","offer","","<div class='trialBorder'><div class='vertical-center'><img style='vertical-align:center; align:center' src=img/fixation3.jpg></div><div class='cl'><div class='vertical-center'>$3<br>for<br>sure</div></div><div class='cr'><div class='vertical-center'>$12<br>with a<br>50% chance</div></div><div class='respDivL'><div class='vertical-center'>(E)</div></div><div class='respDivR'><div class='vertical-center'>(I)</div></div></div>","I","$3","$12","0","3","12","RISKY"
"html-keyboard-response","93","158457","0.0-5.0-3.29","64023a98627b1116180dff0b","bdp_rd","Sun Mar 26 2023 02:37:21 GMT-0400 (Eastern Daylight Time)","227210","","null","","","","offerFB","","<div class='trialBorder'><div class='vertical-center'><img style='vertical-align:center; align:center' src=img/fixation3.jpg></div><div class='cl'><div class='vertical-center'>$3<br>for<br>sure</div></div><div class='cr'><div class='vertical-center'><font style='color:orange'>$12<br>with a<br>50% chance</font></div></div><div class='respDivL'><div class='vertical-center'>(E)</div></div><div class='respDivR'><div class='vertical-center'><font style='color:orange'>(I)</font></div></div></div>","null","$3","$12","0","3","12",""
"html-keyboard-response","94","158958","0.0-5.0-1.30","64023a98627b1116180dff0b","bdp_rd","Sun Mar 26 2023 02:37:21 GMT-0400 (Eastern Daylight Time)","227210","","null","","","","FIX","","<div class='trialBorder'><div class='vertical-center'><img style='vertical-align:center; align:center' src=img/fixation3.jpg></div></div>","null","","","","","",""
"html-keyboard-response","95","161149","0.0-5.0-2.30","64023a98627b1116180dff0b","bdp_rd","Sun Mar 26 2023 02:37:21 GMT-0400 (Eastern Daylight Time)","227210","","2190","","","","offer","","<div class='trialBorder'><div class='vertical-center'><img style='vertical-align:center; align:center' src=img/fixation3.jpg></div><div class='cl'><div class='vertical-center'>$14<br>for<br>sure</div></div><div class='cr'><div class='vertical-center'>$29<br>with a<br>50% chance</div></div><div class='respDivL'><div class='vertical-center'>(E)</div></div><div class='respDivR'><div class='vertical-center'>(I)</div></div></div>","I","$14","$29","0","14","29","RISKY"
"html-keyboard-response","96","161401","0.0-5.0-3.30","64023a98627b1116180dff0b","bdp_rd","Sun Mar 26 2023 02:37:21 GMT-0400 (Eastern Daylight Time)","227210","","null","","","","offerFB","","<div class='trialBorder'><div class='vertical-center'><img style='vertical-align:center; align:center' src=img/fixation3.jpg></div><div class='cl'><div class='vertical-center'>$14<br>for<br>sure</div></div><div class='cr'><div class='vertical-center'><font style='color:orange'>$29<br>with a<br>50% chance</font></div></div><div class='respDivL'><div class='vertical-center'>(E)</div></div><div class='respDivR'><div class='vertical-center'><font style='color:orange'>(I)</font></div></div></div>","null","$14","$29","0","14","29",""
"html-keyboard-response","97","161903","0.0-5.0-1.31","64023a98627b1116180dff0b","bdp_rd","Sun Mar 26 2023 02:37:21 GMT-0400 (Eastern Daylight Time)","227210","","null","","","","FIX","","<div class='trialBorder'><div class='vertical-center'><img style='vertical-align:center; align:center' src=img/fixation3.jpg></div></div>","null","","","","","",""
"html-keyboard-response","98","163125","0.0-5.0-2.31","64023a98627b1116180dff0b","bdp_rd","Sun Mar 26 2023 02:37:21 GMT-0400 (Eastern Daylight Time)","227210","","1221","","","","offer","","<div class='trialBorder'><div class='vertical-center'><img style='vertical-align:center; align:center' src=img/fixation3.jpg></div><div class='cl'><div class='vertical-center'>$81<br>with a<br>50% chance</div></div><div class='cr'><div class='vertical-center'>$39<br>for<br>sure</div></div><div class='respDivL'><div class='vertical-center'>(E)</div></div><div class='respDivR'><div class='vertical-center'>(I)</div></div></div>","E","$39","$81","1","39","81","RISKY"
"html-keyboard-response","99","163377","0.0-5.0-3.31","64023a98627b1116180dff0b","bdp_rd","Sun Mar 26 2023 02:37:21 GMT-0400 (Eastern Daylight Time)","227210","","null","","","","offerFB","","<div class='trialBorder'><div class='vertical-center'><img style='vertical-align:center; align:center' src=img/fixation3.jpg></div><div class='cl'><div class='vertical-center'><font style='color:orange'>$81<br>with a<br>50% chance</font></div></div><div class='cr'><div class='vertical-center'>$39<br>for<br>sure</div></div><div class='respDivL'><div class='vertical-center'><font style='color:orange'>(E)</font></div></div><div class='respDivR'><div class='vertical-center'>(I)</div></div></div>","null","$39","$81","1","39","81",""
"html-keyboard-response","100","163879","0.0-5.0-1.32","64023a98627b1116180dff0b","bdp_rd","Sun Mar 26 2023 02:37:21 GMT-0400 (Eastern Daylight Time)","227210","","null","","","","FIX","","<div class='trialBorder'><div class='vertical-center'><img style='vertical-align:center; align:center' src=img/fixation3.jpg></div></div>","null","","","","","",""
"html-keyboard-response","101","165557","0.0-5.0-2.32","64023a98627b1116180dff0b","bdp_rd","Sun Mar 26 2023 02:37:21 GMT-0400 (Eastern Daylight Time)","227210","","1678","","","","offer","","<div class='trialBorder'><div class='vertical-center'><img style='vertical-align:center; align:center' src=img/fixation3.jpg></div><div class='cl'><div class='vertical-center'>$11<br>for<br>sure</div></div><div class='cr'><div class='vertical-center'>$26<br>with a<br>50% chance</div></div><div class='respDivL'><div class='vertical-center'>(E)</div></div><div class='respDivR'><div class='vertical-center'>(I)</div></div></div>","I","$11","$26","0","11","26","RISKY"
"html-keyboard-response","102","165810","0.0-5.0-3.32","64023a98627b1116180dff0b","bdp_rd","Sun Mar 26 2023 02:37:21 GMT-0400 (Eastern Daylight Time)","227210","","null","","","","offerFB","","<div class='trialBorder'><div class='vertical-center'><img style='vertical-align:center; align:center' src=img/fixation3.jpg></div><div class='cl'><div class='vertical-center'>$11<br>for<br>sure</div></div><div class='cr'><div class='vertical-center'><font style='color:orange'>$26<br>with a<br>50% chance</font></div></div><div class='respDivL'><div class='vertical-center'>(E)</div></div><div class='respDivR'><div class='vertical-center'><font style='color:orange'>(I)</font></div></div></div>","null","$11","$26","0","11","26",""
"html-keyboard-response","103","166311","0.0-5.0-1.33","64023a98627b1116180dff0b","bdp_rd","Sun Mar 26 2023 02:37:21 GMT-0400 (Eastern Daylight Time)","227210","","null","","","","FIX","","<div class='trialBorder'><div class='vertical-center'><img style='vertical-align:center; align:center' src=img/fixation3.jpg></div></div>","null","","","","","",""
"html-keyboard-response","104","167461","0.0-5.0-2.33","64023a98627b1116180dff0b","bdp_rd","Sun Mar 26 2023 02:37:21 GMT-0400 (Eastern Daylight Time)","227210","","1149","","","","offer","","<div class='trialBorder'><div class='vertical-center'><img style='vertical-align:center; align:center' src=img/fixation3.jpg></div><div class='cl'><div class='vertical-center'>$10<br>with a<br>50% chance</div></div><div class='cr'><div class='vertical-center'>$7<br>for<br>sure</div></div><div class='respDivL'><div class='vertical-center'>(E)</div></div><div class='respDivR'><div class='vertical-center'>(I)</div></div></div>","E","$7","$10","1","7","10","RISKY"
"html-keyboard-response","105","167715","0.0-5.0-3.33","64023a98627b1116180dff0b","bdp_rd","Sun Mar 26 2023 02:37:21 GMT-0400 (Eastern Daylight Time)","227210","","null","","","","offerFB","","<div class='trialBorder'><div class='vertical-center'><img style='vertical-align:center; align:center' src=img/fixation3.jpg></div><div class='cl'><div class='vertical-center'><font style='color:orange'>$10<br>with a<br>50% chance</font></div></div><div class='cr'><div class='vertical-center'>$7<br>for<br>sure</div></div><div class='respDivL'><div class='vertical-center'><font style='color:orange'>(E)</font></div></div><div class='respDivR'><div class='vertical-center'>(I)</div></div></div>","null","$7","$10","1","7","10",""
"html-keyboard-response","106","168216","0.0-5.0-1.34","64023a98627b1116180dff0b","bdp_rd","Sun Mar 26 2023 02:37:21 GMT-0400 (Eastern Daylight Time)","227210","","null","","","","FIX","","<div class='trialBorder'><div class='vertical-center'><img style='vertical-align:center; align:center' src=img/fixation3.jpg></div></div>","null","","","","","",""
"html-keyboard-response","107","170277","0.0-5.0-2.34","64023a98627b1116180dff0b","bdp_rd","Sun Mar 26 2023 02:37:21 GMT-0400 (Eastern Daylight Time)","227210","","2061","","","","offer","","<div class='trialBorder'><div class='vertical-center'><img style='vertical-align:center; align:center' src=img/fixation3.jpg></div><div class='cl'><div class='vertical-center'>$47<br>with a<br>50% chance</div></div><div class='cr'><div class='vertical-center'>$27<br>for<br>sure</div></div><div class='respDivL'><div class='vertical-center'>(E)</div></div><div class='respDivR'><div class='vertical-center'>(I)</div></div></div>","E","$27","$47","1","27","47","RISKY"
"html-keyboard-response","108","170529","0.0-5.0-3.34","64023a98627b1116180dff0b","bdp_rd","Sun Mar 26 2023 02:37:21 GMT-0400 (Eastern Daylight Time)","227210","","null","","","","offerFB","","<div class='trialBorder'><div class='vertical-center'><img style='vertical-align:center; align:center' src=img/fixation3.jpg></div><div class='cl'><div class='vertical-center'><font style='color:orange'>$47<br>with a<br>50% chance</font></div></div><div class='cr'><div class='vertical-center'>$27<br>for<br>sure</div></div><div class='respDivL'><div class='vertical-center'><font style='color:orange'>(E)</font></div></div><div class='respDivR'><div class='vertical-center'>(I)</div></div></div>","null","$27","$47","1","27","47",""
"html-keyboard-response","109","171031","0.0-5.0-1.35","64023a98627b1116180dff0b","bdp_rd","Sun Mar 26 2023 02:37:21 GMT-0400 (Eastern Daylight Time)","227210","","null","","","","FIX","","<div class='trialBorder'><div class='vertical-center'><img style='vertical-align:center; align:center' src=img/fixation3.jpg></div></div>","null","","","","","",""
"html-keyboard-response","110","172573","0.0-5.0-2.35","64023a98627b1116180dff0b","bdp_rd","Sun Mar 26 2023 02:37:21 GMT-0400 (Eastern Daylight Time)","227210","","1542","","","","offer","","<div class='trialBorder'><div class='vertical-center'><img style='vertical-align:center; align:center' src=img/fixation3.jpg></div><div class='cl'><div class='vertical-center'>$98<br>with a<br>50% chance</div></div><div class='cr'><div class='vertical-center'>$53<br>for<br>sure</div></div><div class='respDivL'><div class='vertical-center'>(E)</div></div><div class='respDivR'><div class='vertical-center'>(I)</div></div></div>","E","$53","$98","1","53","98","RISKY"
"html-keyboard-response","111","172825","0.0-5.0-3.35","64023a98627b1116180dff0b","bdp_rd","Sun Mar 26 2023 02:37:21 GMT-0400 (Eastern Daylight Time)","227210","","null","","","","offerFB","","<div class='trialBorder'><div class='vertical-center'><img style='vertical-align:center; align:center' src=img/fixation3.jpg></div><div class='cl'><div class='vertical-center'><font style='color:orange'>$98<br>with a<br>50% chance</font></div></div><div class='cr'><div class='vertical-center'>$53<br>for<br>sure</div></div><div class='respDivL'><div class='vertical-center'><font style='color:orange'>(E)</font></div></div><div class='respDivR'><div class='vertical-center'>(I)</div></div></div>","null","$53","$98","1","53","98",""
"html-keyboard-response","112","173326","0.0-5.0-1.36","64023a98627b1116180dff0b","bdp_rd","Sun Mar 26 2023 02:37:21 GMT-0400 (Eastern Daylight Time)","227210","","null","","","","FIX","","<div class='trialBorder'><div class='vertical-center'><img style='vertical-align:center; align:center' src=img/fixation3.jpg></div></div>","null","","","","","",""
"html-keyboard-response","113","174397","0.0-5.0-2.36","64023a98627b1116180dff0b","bdp_rd","Sun Mar 26 2023 02:37:21 GMT-0400 (Eastern Daylight Time)","227210","","1070","","","","offer","","<div class='trialBorder'><div class='vertical-center'><img style='vertical-align:center; align:center' src=img/fixation3.jpg></div><div class='cl'><div class='vertical-center'>$8<br>for<br>sure</div></div><div class='cr'><div class='vertical-center'>$23<br>with a<br>50% chance</div></div><div class='respDivL'><div class='vertical-center'>(E)</div></div><div class='respDivR'><div class='vertical-center'>(I)</div></div></div>","I","$8","$23","0","8","23","RISKY"
"html-keyboard-response","114","174649","0.0-5.0-3.36","64023a98627b1116180dff0b","bdp_rd","Sun Mar 26 2023 02:37:21 GMT-0400 (Eastern Daylight Time)","227210","","null","","","","offerFB","","<div class='trialBorder'><div class='vertical-center'><img style='vertical-align:center; align:center' src=img/fixation3.jpg></div><div class='cl'><div class='vertical-center'>$8<br>for<br>sure</div></div><div class='cr'><div class='vertical-center'><font style='color:orange'>$23<br>with a<br>50% chance</font></div></div><div class='respDivL'><div class='vertical-center'>(E)</div></div><div class='respDivR'><div class='vertical-center'><font style='color:orange'>(I)</font></div></div></div>","null","$8","$23","0","8","23",""
"html-keyboard-response","115","175149","0.0-5.0-1.37","64023a98627b1116180dff0b","bdp_rd","Sun Mar 26 2023 02:37:21 GMT-0400 (Eastern Daylight Time)","227210","","null","","","","FIX","","<div class='trialBorder'><div class='vertical-center'><img style='vertical-align:center; align:center' src=img/fixation3.jpg></div></div>","null","","","","","",""
"html-keyboard-response","116","176237","0.0-5.0-2.37","64023a98627b1116180dff0b","bdp_rd","Sun Mar 26 2023 02:37:21 GMT-0400 (Eastern Daylight Time)","227210","","1087","","","","offer","","<div class='trialBorder'><div class='vertical-center'><img style='vertical-align:center; align:center' src=img/fixation3.jpg></div><div class='cl'><div class='vertical-center'>$9<br>for<br>sure</div></div><div class='cr'><div class='vertical-center'>$32<br>with a<br>50% chance</div></div><div class='respDivL'><div class='vertical-center'>(E)</div></div><div class='respDivR'><div class='vertical-center'>(I)</div></div></div>","I","$9","$32","0","9","32","RISKY"
"html-keyboard-response","117","176489","0.0-5.0-3.37","64023a98627b1116180dff0b","bdp_rd","Sun Mar 26 2023 02:37:21 GMT-0400 (Eastern Daylight Time)","227210","","null","","","","offerFB","","<div class='trialBorder'><div class='vertical-center'><img style='vertical-align:center; align:center' src=img/fixation3.jpg></div><div class='cl'><div class='vertical-center'>$9<br>for<br>sure</div></div><div class='cr'><div class='vertical-center'><font style='color:orange'>$32<br>with a<br>50% chance</font></div></div><div class='respDivL'><div class='vertical-center'>(E)</div></div><div class='respDivR'><div class='vertical-center'><font style='color:orange'>(I)</font></div></div></div>","null","$9","$32","0","9","32",""
"html-keyboard-response","118","176990","0.0-5.0-1.38","64023a98627b1116180dff0b","bdp_rd","Sun Mar 26 2023 02:37:21 GMT-0400 (Eastern Daylight Time)","227210","","null","","","","FIX","","<div class='trialBorder'><div class='vertical-center'><img style='vertical-align:center; align:center' src=img/fixation3.jpg></div></div>","null","","","","","",""
"html-keyboard-response","119","178661","0.0-5.0-2.38","64023a98627b1116180dff0b","bdp_rd","Sun Mar 26 2023 02:37:21 GMT-0400 (Eastern Daylight Time)","227210","","1670","","","","offer","","<div class='trialBorder'><div class='vertical-center'><img style='vertical-align:center; align:center' src=img/fixation3.jpg></div><div class='cl'><div class='vertical-center'>$50<br>with a<br>50% chance</div></div><div class='cr'><div class='vertical-center'>$5<br>for<br>sure</div></div><div class='respDivL'><div class='vertical-center'>(E)</div></div><div class='respDivR'><div class='vertical-center'>(I)</div></div></div>","E","$5","$50","1","5","50","RISKY"
"html-keyboard-response","120","178913","0.0-5.0-3.38","64023a98627b1116180dff0b","bdp_rd","Sun Mar 26 2023 02:37:21 GMT-0400 (Eastern Daylight Time)","227210","","null","","","","offerFB","","<div class='trialBorder'><div class='vertical-center'><img style='vertical-align:center; align:center' src=img/fixation3.jpg></div><div class='cl'><div class='vertical-center'><font style='color:orange'>$50<br>with a<br>50% chance</font></div></div><div class='cr'><div class='vertical-center'>$5<br>for<br>sure</div></div><div class='respDivL'><div class='vertical-center'><font style='color:orange'>(E)</font></div></div><div class='respDivR'><div class='vertical-center'>(I)</div></div></div>","null","$5","$50","1","5","50",""
"html-keyboard-response","121","179415","0.0-5.0-1.39","64023a98627b1116180dff0b","bdp_rd","Sun Mar 26 2023 02:37:21 GMT-0400 (Eastern Daylight Time)","227210","","null","","","","FIX","","<div class='trialBorder'><div class='vertical-center'><img style='vertical-align:center; align:center' src=img/fixation3.jpg></div></div>","null","","","","","",""
"html-keyboard-response","122","180805","0.0-5.0-2.39","64023a98627b1116180dff0b","bdp_rd","Sun Mar 26 2023 02:37:21 GMT-0400 (Eastern Daylight Time)","227210","","1390","","","","offer","","<div class='trialBorder'><div class='vertical-center'><img style='vertical-align:center; align:center' src=img/fixation3.jpg></div><div class='cl'><div class='vertical-center'>$41<br>with a<br>50% chance</div></div><div class='cr'><div class='vertical-center'>$13<br>for<br>sure</div></div><div class='respDivL'><div class='vertical-center'>(E)</div></div><div class='respDivR'><div class='vertical-center'>(I)</div></div></div>","E","$13","$41","1","13","41","RISKY"
"html-keyboard-response","123","181056","0.0-5.0-3.39","64023a98627b1116180dff0b","bdp_rd","Sun Mar 26 2023 02:37:21 GMT-0400 (Eastern Daylight Time)","227210","","null","","","","offerFB","","<div class='trialBorder'><div class='vertical-center'><img style='vertical-align:center; align:center' src=img/fixation3.jpg></div><div class='cl'><div class='vertical-center'><font style='color:orange'>$41<br>with a<br>50% chance</font></div></div><div class='cr'><div class='vertical-center'>$13<br>for<br>sure</div></div><div class='respDivL'><div class='vertical-center'><font style='color:orange'>(E)</font></div></div><div class='respDivR'><div class='vertical-center'>(I)</div></div></div>","null","$13","$41","1","13","41",""
"html-keyboard-response","124","181558","0.0-5.0-1.40","64023a98627b1116180dff0b","bdp_rd","Sun Mar 26 2023 02:37:21 GMT-0400 (Eastern Daylight Time)","227210","","null","","","","FIX","","<div class='trialBorder'><div class='vertical-center'><img style='vertical-align:center; align:center' src=img/fixation3.jpg></div></div>","null","","","","","",""
"html-keyboard-response","125","183285","0.0-5.0-2.40","64023a98627b1116180dff0b","bdp_rd","Sun Mar 26 2023 02:37:21 GMT-0400 (Eastern Daylight Time)","227210","","1727","","","","offer","","<div class='trialBorder'><div class='vertical-center'><img style='vertical-align:center; align:center' src=img/fixation3.jpg></div><div class='cl'><div class='vertical-center'>$16<br>with a<br>50% chance</div></div><div class='cr'><div class='vertical-center'>$5<br>for<br>sure</div></div><div class='respDivL'><div class='vertical-center'>(E)</div></div><div class='respDivR'><div class='vertical-center'>(I)</div></div></div>","E","$5","$16","1","5","16","RISKY"
"html-keyboard-response","126","183537","0.0-5.0-3.40","64023a98627b1116180dff0b","bdp_rd","Sun Mar 26 2023 02:37:21 GMT-0400 (Eastern Daylight Time)","227210","","null","","","","offerFB","","<div class='trialBorder'><div class='vertical-center'><img style='vertical-align:center; align:center' src=img/fixation3.jpg></div><div class='cl'><div class='vertical-center'><font style='color:orange'>$16<br>with a<br>50% chance</font></div></div><div class='cr'><div class='vertical-center'>$5<br>for<br>sure</div></div><div class='respDivL'><div class='vertical-center'><font style='color:orange'>(E)</font></div></div><div class='respDivR'><div class='vertical-center'>(I)</div></div></div>","null","$5","$16","1","5","16",""
"html-keyboard-response","127","184038","0.0-5.0-1.41","64023a98627b1116180dff0b","bdp_rd","Sun Mar 26 2023 02:37:21 GMT-0400 (Eastern Daylight Time)","227210","","null","","","","FIX","","<div class='trialBorder'><div class='vertical-center'><img style='vertical-align:center; align:center' src=img/fixation3.jpg></div></div>","null","","","","","",""
"html-keyboard-response","128","184789","0.0-5.0-2.41","64023a98627b1116180dff0b","bdp_rd","Sun Mar 26 2023 02:37:21 GMT-0400 (Eastern Daylight Time)","227210","","750","","","","offer","","<div class='trialBorder'><div class='vertical-center'><img style='vertical-align:center; align:center' src=img/fixation3.jpg></div><div class='cl'><div class='vertical-center'>$6<br>for<br>sure</div></div><div class='cr'><div class='vertical-center'>$13<br>with a<br>50% chance</div></div><div class='respDivL'><div class='vertical-center'>(E)</div></div><div class='respDivR'><div class='vertical-center'>(I)</div></div></div>","I","$6","$13","0","6","13","RISKY"
"html-keyboard-response","129","185040","0.0-5.0-3.41","64023a98627b1116180dff0b","bdp_rd","Sun Mar 26 2023 02:37:21 GMT-0400 (Eastern Daylight Time)","227210","","null","","","","offerFB","","<div class='trialBorder'><div class='vertical-center'><img style='vertical-align:center; align:center' src=img/fixation3.jpg></div><div class='cl'><div class='vertical-center'>$6<br>for<br>sure</div></div><div class='cr'><div class='vertical-center'><font style='color:orange'>$13<br>with a<br>50% chance</font></div></div><div class='respDivL'><div class='vertical-center'>(E)</div></div><div class='respDivR'><div class='vertical-center'><font style='color:orange'>(I)</font></div></div></div>","null","$6","$13","0","6","13",""
"html-keyboard-response","130","185542","0.0-5.0-1.42","64023a98627b1116180dff0b","bdp_rd","Sun Mar 26 2023 02:37:21 GMT-0400 (Eastern Daylight Time)","227210","","null","","","","FIX","","<div class='trialBorder'><div class='vertical-center'><img style='vertical-align:center; align:center' src=img/fixation3.jpg></div></div>","null","","","","","",""
"html-keyboard-response","131","186717","0.0-5.0-2.42","64023a98627b1116180dff0b","bdp_rd","Sun Mar 26 2023 02:37:21 GMT-0400 (Eastern Daylight Time)","227210","","1174","","","","offer","","<div class='trialBorder'><div class='vertical-center'><img style='vertical-align:center; align:center' src=img/fixation3.jpg></div><div class='cl'><div class='vertical-center'>$30<br>with a<br>50% chance</div></div><div class='cr'><div class='vertical-center'>$1<br>for<br>sure</div></div><div class='respDivL'><div class='vertical-center'>(E)</div></div><div class='respDivR'><div class='vertical-center'>(I)</div></div></div>","E","$1","$30","1","1","30","RISKY"
"html-keyboard-response","132","186969","0.0-5.0-3.42","64023a98627b1116180dff0b","bdp_rd","Sun Mar 26 2023 02:37:21 GMT-0400 (Eastern Daylight Time)","227210","","null","","","","offerFB","","<div class='trialBorder'><div class='vertical-center'><img style='vertical-align:center; align:center' src=img/fixation3.jpg></div><div class='cl'><div class='vertical-center'><font style='color:orange'>$30<br>with a<br>50% chance</font></div></div><div class='cr'><div class='vertical-center'>$1<br>for<br>sure</div></div><div class='respDivL'><div class='vertical-center'><font style='color:orange'>(E)</font></div></div><div class='respDivR'><div class='vertical-center'>(I)</div></div></div>","null","$1","$30","1","1","30",""
"html-keyboard-response","133","187471","0.0-5.0-1.43","64023a98627b1116180dff0b","bdp_rd","Sun Mar 26 2023 02:37:21 GMT-0400 (Eastern Daylight Time)","227210","","null","","","","FIX","","<div class='trialBorder'><div class='vertical-center'><img style='vertical-align:center; align:center' src=img/fixation3.jpg></div></div>","null","","","","","",""
"html-keyboard-response","134","190813","0.0-5.0-2.43","64023a98627b1116180dff0b","bdp_rd","Sun Mar 26 2023 02:37:21 GMT-0400 (Eastern Daylight Time)","227210","","3342","","","","offer","","<div class='trialBorder'><div class='vertical-center'><img style='vertical-align:center; align:center' src=img/fixation3.jpg></div><div class='cl'><div class='vertical-center'>$100<br>with a<br>50% chance</div></div><div class='cr'><div class='vertical-center'>$63<br>for<br>sure</div></div><div class='respDivL'><div class='vertical-center'>(E)</div></div><div class='respDivR'><div class='vertical-center'>(I)</div></div></div>","E","$63","$100","1","63","10","RISKY"
"html-keyboard-response","135","191065","0.0-5.0-3.43","64023a98627b1116180dff0b","bdp_rd","Sun Mar 26 2023 02:37:21 GMT-0400 (Eastern Daylight Time)","227210","","null","","","","offerFB","","<div class='trialBorder'><div class='vertical-center'><img style='vertical-align:center; align:center' src=img/fixation3.jpg></div><div class='cl'><div class='vertical-center'><font style='color:orange'>$100<br>with a<br>50% chance</font></div></div><div class='cr'><div class='vertical-center'>$63<br>for<br>sure</div></div><div class='respDivL'><div class='vertical-center'><font style='color:orange'>(E)</font></div></div><div class='respDivR'><div class='vertical-center'>(I)</div></div></div>","null","$63","$100","1","63","10",""
"html-keyboard-response","136","191567","0.0-5.0-1.44","64023a98627b1116180dff0b","bdp_rd","Sun Mar 26 2023 02:37:21 GMT-0400 (Eastern Daylight Time)","227210","","null","","","","FIX","","<div class='trialBorder'><div class='vertical-center'><img style='vertical-align:center; align:center' src=img/fixation3.jpg></div></div>","null","","","","","",""
"html-keyboard-response","137","193501","0.0-5.0-2.44","64023a98627b1116180dff0b","bdp_rd","Sun Mar 26 2023 02:37:21 GMT-0400 (Eastern Daylight Time)","227210","","1934","","","","offer","","<div class='trialBorder'><div class='vertical-center'><img style='vertical-align:center; align:center' src=img/fixation3.jpg></div><div class='cl'><div class='vertical-center'>$16<br>for<br>sure</div></div><div class='cr'><div class='vertical-center'>$38<br>with a<br>50% chance</div></div><div class='respDivL'><div class='vertical-center'>(E)</div></div><div class='respDivR'><div class='vertical-center'>(I)</div></div></div>","I","$16","$38","0","16","38","RISKY"
"html-keyboard-response","138","193753","0.0-5.0-3.44","64023a98627b1116180dff0b","bdp_rd","Sun Mar 26 2023 02:37:21 GMT-0400 (Eastern Daylight Time)","227210","","null","","","","offerFB","","<div class='trialBorder'><div class='vertical-center'><img style='vertical-align:center; align:center' src=img/fixation3.jpg></div><div class='cl'><div class='vertical-center'>$16<br>for<br>sure</div></div><div class='cr'><div class='vertical-center'><font style='color:orange'>$38<br>with a<br>50% chance</font></div></div><div class='respDivL'><div class='vertical-center'>(E)</div></div><div class='respDivR'><div class='vertical-center'><font style='color:orange'>(I)</font></div></div></div>","null","$16","$38","0","16","38",""
"html-keyboard-response","139","194255","0.0-5.0-1.45","64023a98627b1116180dff0b","bdp_rd","Sun Mar 26 2023 02:37:21 GMT-0400 (Eastern Daylight Time)","227210","","null","","","","FIX","","<div class='trialBorder'><div class='vertical-center'><img style='vertical-align:center; align:center' src=img/fixation3.jpg></div></div>","null","","","","","",""
"html-keyboard-response","140","196197","0.0-5.0-2.45","64023a98627b1116180dff0b","bdp_rd","Sun Mar 26 2023 02:37:21 GMT-0400 (Eastern Daylight Time)","227210","","1941","","","","offer","","<div class='trialBorder'><div class='vertical-center'><img style='vertical-align:center; align:center' src=img/fixation3.jpg></div><div class='cl'><div class='vertical-center'>$9<br>for<br>sure</div></div><div class='cr'><div class='vertical-center'>$18<br>with a<br>50% chance</div></div><div class='respDivL'><div class='vertical-center'>(E)</div></div><div class='respDivR'><div class='vertical-center'>(I)</div></div></div>","I","$9","$18","0","9","18","RISKY"
"html-keyboard-response","141","196448","0.0-5.0-3.45","64023a98627b1116180dff0b","bdp_rd","Sun Mar 26 2023 02:37:21 GMT-0400 (Eastern Daylight Time)","227210","","null","","","","offerFB","","<div class='trialBorder'><div class='vertical-center'><img style='vertical-align:center; align:center' src=img/fixation3.jpg></div><div class='cl'><div class='vertical-center'>$9<br>for<br>sure</div></div><div class='cr'><div class='vertical-center'><font style='color:orange'>$18<br>with a<br>50% chance</font></div></div><div class='respDivL'><div class='vertical-center'>(E)</div></div><div class='respDivR'><div class='vertical-center'><font style='color:orange'>(I)</font></div></div></div>","null","$9","$18","0","9","18",""
"html-keyboard-response","142","196950","0.0-5.0-1.46","64023a98627b1116180dff0b","bdp_rd","Sun Mar 26 2023 02:37:21 GMT-0400 (Eastern Daylight Time)","227210","","null","","","","FIX","","<div class='trialBorder'><div class='vertical-center'><img style='vertical-align:center; align:center' src=img/fixation3.jpg></div></div>","null","","","","","",""
"html-keyboard-response","143","198837","0.0-5.0-2.46","64023a98627b1116180dff0b","bdp_rd","Sun Mar 26 2023 02:37:21 GMT-0400 (Eastern Daylight Time)","227210","","1886","","","","offer","","<div class='trialBorder'><div class='vertical-center'><img style='vertical-align:center; align:center' src=img/fixation3.jpg></div><div class='cl'><div class='vertical-center'>$24<br>with a<br>50% chance</div></div><div class='cr'><div class='vertical-center'>$13<br>for<br>sure</div></div><div class='respDivL'><div class='vertical-center'>(E)</div></div><div class='respDivR'><div class='vertical-center'>(I)</div></div></div>","E","$13","$24","1","13","24","RISKY"
"html-keyboard-response","144","199089","0.0-5.0-3.46","64023a98627b1116180dff0b","bdp_rd","Sun Mar 26 2023 02:37:21 GMT-0400 (Eastern Daylight Time)","227210","","null","","","","offerFB","","<div class='trialBorder'><div class='vertical-center'><img style='vertical-align:center; align:center' src=img/fixation3.jpg></div><div class='cl'><div class='vertical-center'><font style='color:orange'>$24<br>with a<br>50% chance</font></div></div><div class='cr'><div class='vertical-center'>$13<br>for<br>sure</div></div><div class='respDivL'><div class='vertical-center'><font style='color:orange'>(E)</font></div></div><div class='respDivR'><div class='vertical-center'>(I)</div></div></div>","null","$13","$24","1","13","24",""
"html-keyboard-response","145","199592","0.0-5.0-1.47","64023a98627b1116180dff0b","bdp_rd","Sun Mar 26 2023 02:37:21 GMT-0400 (Eastern Daylight Time)","227210","","null","","","","FIX","","<div class='trialBorder'><div class='vertical-center'><img style='vertical-align:center; align:center' src=img/fixation3.jpg></div></div>","null","","","","","",""
"html-keyboard-response","146","202253","0.0-5.0-2.47","64023a98627b1116180dff0b","bdp_rd","Sun Mar 26 2023 02:37:21 GMT-0400 (Eastern Daylight Time)","227210","","2661","","","","offer","","<div class='trialBorder'><div class='vertical-center'><img style='vertical-align:center; align:center' src=img/fixation3.jpg></div><div class='cl'><div class='vertical-center'>$48<br>with a<br>50% chance</div></div><div class='cr'><div class='vertical-center'>$34<br>for<br>sure</div></div><div class='respDivL'><div class='vertical-center'>(E)</div></div><div class='respDivR'><div class='vertical-center'>(I)</div></div></div>","E","$34","$48","1","34","48","RISKY"
"html-keyboard-response","147","202505","0.0-5.0-3.47","64023a98627b1116180dff0b","bdp_rd","Sun Mar 26 2023 02:37:21 GMT-0400 (Eastern Daylight Time)","227210","","null","","","","offerFB","","<div class='trialBorder'><div class='vertical-center'><img style='vertical-align:center; align:center' src=img/fixation3.jpg></div><div class='cl'><div class='vertical-center'><font style='color:orange'>$48<br>with a<br>50% chance</font></div></div><div class='cr'><div class='vertical-center'>$34<br>for<br>sure</div></div><div class='respDivL'><div class='vertical-center'><font style='color:orange'>(E)</font></div></div><div class='respDivR'><div class='vertical-center'>(I)</div></div></div>","null","$34","$48","1","34","48",""
"html-keyboard-response","148","203006","0.0-5.0-1.48","64023a98627b1116180dff0b","bdp_rd","Sun Mar 26 2023 02:37:21 GMT-0400 (Eastern Daylight Time)","227210","","null","","","","FIX","","<div class='trialBorder'><div class='vertical-center'><img style='vertical-align:center; align:center' src=img/fixation3.jpg></div></div>","null","","","","","",""
"html-keyboard-response","149","204781","0.0-5.0-2.48","64023a98627b1116180dff0b","bdp_rd","Sun Mar 26 2023 02:37:21 GMT-0400 (Eastern Daylight Time)","227210","","1774","","","","offer","","<div class='trialBorder'><div class='vertical-center'><img style='vertical-align:center; align:center' src=img/fixation3.jpg></div><div class='cl'><div class='vertical-center'>$1<br>for<br>sure</div></div><div class='cr'><div class='vertical-center'>$33<br>with a<br>50% chance</div></div><div class='respDivL'><div class='vertical-center'>(E)</div></div><div class='respDivR'><div class='vertical-center'>(I)</div></div></div>","I","$1","$33","0","1","33","RISKY"
"html-keyboard-response","150","205033","0.0-5.0-3.48","64023a98627b1116180dff0b","bdp_rd","Sun Mar 26 2023 02:37:21 GMT-0400 (Eastern Daylight Time)","227210","","null","","","","offerFB","","<div class='trialBorder'><div class='vertical-center'><img style='vertical-align:center; align:center' src=img/fixation3.jpg></div><div class='cl'><div class='vertical-center'>$1<br>for<br>sure</div></div><div class='cr'><div class='vertical-center'><font style='color:orange'>$33<br>with a<br>50% chance</font></div></div><div class='respDivL'><div class='vertical-center'>(E)</div></div><div class='respDivR'><div class='vertical-center'><font style='color:orange'>(I)</font></div></div></div>","null","$1","$33","0","1","33",""
"html-keyboard-response","151","205535","0.0-5.0-1.49","64023a98627b1116180dff0b","bdp_rd","Sun Mar 26 2023 02:37:21 GMT-0400 (Eastern Daylight Time)","227210","","null","","","","FIX","","<div class='trialBorder'><div class='vertical-center'><img style='vertical-align:center; align:center' src=img/fixation3.jpg></div></div>","null","","","","","",""
"html-keyboard-response","152","207101","0.0-5.0-2.49","64023a98627b1116180dff0b","bdp_rd","Sun Mar 26 2023 02:37:21 GMT-0400 (Eastern Daylight Time)","227210","","1566","","","","offer","","<div class='trialBorder'><div class='vertical-center'><img style='vertical-align:center; align:center' src=img/fixation3.jpg></div><div class='cl'><div class='vertical-center'>$16<br>for<br>sure</div></div><div class='cr'><div class='vertical-center'>$28<br>with a<br>50% chance</div></div><div class='respDivL'><div class='vertical-center'>(E)</div></div><div class='respDivR'><div class='vertical-center'>(I)</div></div></div>","I","$16","$28","0","16","28","RISKY"
"html-keyboard-response","153","207353","0.0-5.0-3.49","64023a98627b1116180dff0b","bdp_rd","Sun Mar 26 2023 02:37:21 GMT-0400 (Eastern Daylight Time)","227210","","null","","","","offerFB","","<div class='trialBorder'><div class='vertical-center'><img style='vertical-align:center; align:center' src=img/fixation3.jpg></div><div class='cl'><div class='vertical-center'>$16<br>for<br>sure</div></div><div class='cr'><div class='vertical-center'><font style='color:orange'>$28<br>with a<br>50% chance</font></div></div><div class='respDivL'><div class='vertical-center'>(E)</div></div><div class='respDivR'><div class='vertical-center'><font style='color:orange'>(I)</font></div></div></div>","null","$16","$28","0","16","28",""
"html-keyboard-response","154","207854","0.0-5.0-1.50","64023a98627b1116180dff0b","bdp_rd","Sun Mar 26 2023 02:37:21 GMT-0400 (Eastern Daylight Time)","227210","","null","","","","FIX","","<div class='trialBorder'><div class='vertical-center'><img style='vertical-align:center; align:center' src=img/fixation3.jpg></div></div>","null","","","","","",""
"html-keyboard-response","155","209773","0.0-5.0-2.50","64023a98627b1116180dff0b","bdp_rd","Sun Mar 26 2023 02:37:21 GMT-0400 (Eastern Daylight Time)","227210","","1918","","","","offer","","<div class='trialBorder'><div class='vertical-center'><img style='vertical-align:center; align:center' src=img/fixation3.jpg></div><div class='cl'><div class='vertical-center'>$86<br>with a<br>50% chance</div></div><div class='cr'><div class='vertical-center'>$45<br>for<br>sure</div></div><div class='respDivL'><div class='vertical-center'>(E)</div></div><div class='respDivR'><div class='vertical-center'>(I)</div></div></div>","E","$45","$86","1","45","86","RISKY"
"html-keyboard-response","156","210025","0.0-5.0-3.50","64023a98627b1116180dff0b","bdp_rd","Sun Mar 26 2023 02:37:21 GMT-0400 (Eastern Daylight Time)","227210","","null","","","","offerFB","","<div class='trialBorder'><div class='vertical-center'><img style='vertical-align:center; align:center' src=img/fixation3.jpg></div><div class='cl'><div class='vertical-center'><font style='color:orange'>$86<br>with a<br>50% chance</font></div></div><div class='cr'><div class='vertical-center'>$45<br>for<br>sure</div></div><div class='respDivL'><div class='vertical-center'><font style='color:orange'>(E)</font></div></div><div class='respDivR'><div class='vertical-center'>(I)</div></div></div>","null","$45","$86","1","45","86",""
"html-keyboard-response","157","210526","0.0-5.0-1.51","64023a98627b1116180dff0b","bdp_rd","Sun Mar 26 2023 02:37:21 GMT-0400 (Eastern Daylight Time)","227210","","null","","","","FIX","","<div class='trialBorder'><div class='vertical-center'><img style='vertical-align:center; align:center' src=img/fixation3.jpg></div></div>","null","","","","","",""
"html-keyboard-response","158","211381","0.0-5.0-2.51","64023a98627b1116180dff0b","bdp_rd","Sun Mar 26 2023 02:37:21 GMT-0400 (Eastern Daylight Time)","227210","","854","","","","offer","","<div class='trialBorder'><div class='vertical-center'><img style='vertical-align:center; align:center' src=img/fixation3.jpg></div><div class='cl'><div class='vertical-center'>$71<br>with a<br>50% chance</div></div><div class='cr'><div class='vertical-center'>$7<br>for<br>sure</div></div><div class='respDivL'><div class='vertical-center'>(E)</div></div><div class='respDivR'><div class='vertical-center'>(I)</div></div></div>","E","$7","$71","1","7","71","RISKY"
"html-keyboard-response","159","211632","0.0-5.0-3.51","64023a98627b1116180dff0b","bdp_rd","Sun Mar 26 2023 02:37:21 GMT-0400 (Eastern Daylight Time)","227210","","null","","","","offerFB","","<div class='trialBorder'><div class='vertical-center'><img style='vertical-align:center; align:center' src=img/fixation3.jpg></div><div class='cl'><div class='vertical-center'><font style='color:orange'>$71<br>with a<br>50% chance</font></div></div><div class='cr'><div class='vertical-center'>$7<br>for<br>sure</div></div><div class='respDivL'><div class='vertical-center'><font style='color:orange'>(E)</font></div></div><div class='respDivR'><div class='vertical-center'>(I)</div></div></div>","null","$7","$71","1","7","71",""
"html-keyboard-response","160","212134","0.0-5.0-1.52","64023a98627b1116180dff0b","bdp_rd","Sun Mar 26 2023 02:37:21 GMT-0400 (Eastern Daylight Time)","227210","","null","","","","FIX","","<div class='trialBorder'><div class='vertical-center'><img style='vertical-align:center; align:center' src=img/fixation3.jpg></div></div>","null","","","","","",""
"html-keyboard-response","161","213029","0.0-5.0-2.52","64023a98627b1116180dff0b","bdp_rd","Sun Mar 26 2023 02:37:21 GMT-0400 (Eastern Daylight Time)","227210","","894","","","","offer","","<div class='trialBorder'><div class='vertical-center'><img style='vertical-align:center; align:center' src=img/fixation3.jpg></div><div class='cl'><div class='vertical-center'>$54<br>with a<br>50% chance</div></div><div class='cr'><div class='vertical-center'>$25<br>for<br>sure</div></div><div class='respDivL'><div class='vertical-center'>(E)</div></div><div class='respDivR'><div class='vertical-center'>(I)</div></div></div>","E","$25","$54","1","25","54","RISKY"
"html-keyboard-response","162","213280","0.0-5.0-3.52","64023a98627b1116180dff0b","bdp_rd","Sun Mar 26 2023 02:37:21 GMT-0400 (Eastern Daylight Time)","227210","","null","","","","offerFB","","<div class='trialBorder'><div class='vertical-center'><img style='vertical-align:center; align:center' src=img/fixation3.jpg></div><div class='cl'><div class='vertical-center'><font style='color:orange'>$54<br>with a<br>50% chance</font></div></div><div class='cr'><div class='vertical-center'>$25<br>for<br>sure</div></div><div class='respDivL'><div class='vertical-center'><font style='color:orange'>(E)</font></div></div><div class='respDivR'><div class='vertical-center'>(I)</div></div></div>","null","$25","$54","1","25","54",""
"html-keyboard-response","163","213782","0.0-5.0-1.53","64023a98627b1116180dff0b","bdp_rd","Sun Mar 26 2023 02:37:21 GMT-0400 (Eastern Daylight Time)","227210","","null","","","","FIX","","<div class='trialBorder'><div class='vertical-center'><img style='vertical-align:center; align:center' src=img/fixation3.jpg></div></div>","null","","","","","",""
"html-keyboard-response","164","214797","0.0-5.0-2.53","64023a98627b1116180dff0b","bdp_rd","Sun Mar 26 2023 02:37:21 GMT-0400 (Eastern Daylight Time)","227210","","1015","","","","offer","","<div class='trialBorder'><div class='vertical-center'><img style='vertical-align:center; align:center' src=img/fixation3.jpg></div><div class='cl'><div class='vertical-center'>$46<br>with a<br>50% chance</div></div><div class='cr'><div class='vertical-center'>$29<br>for<br>sure</div></div><div class='respDivL'><div class='vertical-center'>(E)</div></div><div class='respDivR'><div class='vertical-center'>(I)</div></div></div>","E","$29","$46","1","29","46","RISKY"
"html-keyboard-response","165","215050","0.0-5.0-3.53","64023a98627b1116180dff0b","bdp_rd","Sun Mar 26 2023 02:37:21 GMT-0400 (Eastern Daylight Time)","227210","","null","","","","offerFB","","<div class='trialBorder'><div class='vertical-center'><img style='vertical-align:center; align:center' src=img/fixation3.jpg></div><div class='cl'><div class='vertical-center'><font style='color:orange'>$46<br>with a<br>50% chance</font></div></div><div class='cr'><div class='vertical-center'>$29<br>for<br>sure</div></div><div class='respDivL'><div class='vertical-center'><font style='color:orange'>(E)</font></div></div><div class='respDivR'><div class='vertical-center'>(I)</div></div></div>","null","$29","$46","1","29","46",""
"html-keyboard-response","166","215552","0.0-5.0-1.54","64023a98627b1116180dff0b","bdp_rd","Sun Mar 26 2023 02:37:21 GMT-0400 (Eastern Daylight Time)","227210","","null","","","","FIX","","<div class='trialBorder'><div class='vertical-center'><img style='vertical-align:center; align:center' src=img/fixation3.jpg></div></div>","null","","","","","",""
"html-keyboard-response","167","216669","0.0-5.0-2.54","64023a98627b1116180dff0b","bdp_rd","Sun Mar 26 2023 02:37:21 GMT-0400 (Eastern Daylight Time)","227210","","1116","","","","offer","","<div class='trialBorder'><div class='vertical-center'><img style='vertical-align:center; align:center' src=img/fixation3.jpg></div><div class='cl'><div class='vertical-center'>$92<br>with a<br>50% chance</div></div><div class='cr'><div class='vertical-center'>$26<br>for<br>sure</div></div><div class='respDivL'><div class='vertical-center'>(E)</div></div><div class='respDivR'><div class='vertical-center'>(I)</div></div></div>","E","$26","$92","1","26","92","RISKY"
"html-keyboard-response","168","216920","0.0-5.0-3.54","64023a98627b1116180dff0b","bdp_rd","Sun Mar 26 2023 02:37:21 GMT-0400 (Eastern Daylight Time)","227210","","null","","","","offerFB","","<div class='trialBorder'><div class='vertical-center'><img style='vertical-align:center; align:center' src=img/fixation3.jpg></div><div class='cl'><div class='vertical-center'><font style='color:orange'>$92<br>with a<br>50% chance</font></div></div><div class='cr'><div class='vertical-center'>$26<br>for<br>sure</div></div><div class='respDivL'><div class='vertical-center'><font style='color:orange'>(E)</font></div></div><div class='respDivR'><div class='vertical-center'>(I)</div></div></div>","null","$26","$92","1","26","92",""
"html-keyboard-response","169","217422","0.0-5.0-1.55","64023a98627b1116180dff0b","bdp_rd","Sun Mar 26 2023 02:37:21 GMT-0400 (Eastern Daylight Time)","227210","","null","","","","FIX","","<div class='trialBorder'><div class='vertical-center'><img style='vertical-align:center; align:center' src=img/fixation3.jpg></div></div>","null","","","","","",""
"html-keyboard-response","170","218205","0.0-5.0-2.55","64023a98627b1116180dff0b","bdp_rd","Sun Mar 26 2023 02:37:21 GMT-0400 (Eastern Daylight Time)","227210","","783","","","","offer","","<div class='trialBorder'><div class='vertical-center'><img style='vertical-align:center; align:center' src=img/fixation3.jpg></div><div class='cl'><div class='vertical-center'>$12<br>for<br>sure</div></div><div class='cr'><div class='vertical-center'>$27<br>with a<br>50% chance</div></div><div class='respDivL'><div class='vertical-center'>(E)</div></div><div class='respDivR'><div class='vertical-center'>(I)</div></div></div>","I","$12","$27","0","12","27","RISKY"
"html-keyboard-response","171","218457","0.0-5.0-3.55","64023a98627b1116180dff0b","bdp_rd","Sun Mar 26 2023 02:37:21 GMT-0400 (Eastern Daylight Time)","227210","","null","","","","offerFB","","<div class='trialBorder'><div class='vertical-center'><img style='vertical-align:center; align:center' src=img/fixation3.jpg></div><div class='cl'><div class='vertical-center'>$12<br>for<br>sure</div></div><div class='cr'><div class='vertical-center'><font style='color:orange'>$27<br>with a<br>50% chance</font></div></div><div class='respDivL'><div class='vertical-center'>(E)</div></div><div class='respDivR'><div class='vertical-center'><font style='color:orange'>(I)</font></div></div></div>","null","$12","$27","0","12","27",""
"html-keyboard-response","172","218958","0.0-5.0-1.56","64023a98627b1116180dff0b","bdp_rd","Sun Mar 26 2023 02:37:21 GMT-0400 (Eastern Daylight Time)","227210","","null","","","","FIX","","<div class='trialBorder'><div class='vertical-center'><img style='vertical-align:center; align:center' src=img/fixation3.jpg></div></div>","null","","","","","",""
"html-keyboard-response","173","220389","0.0-5.0-2.56","64023a98627b1116180dff0b","bdp_rd","Sun Mar 26 2023 02:37:21 GMT-0400 (Eastern Daylight Time)","227210","","1430","","","","offer","","<div class='trialBorder'><div class='vertical-center'><img style='vertical-align:center; align:center' src=img/fixation3.jpg></div><div class='cl'><div class='vertical-center'>$62<br>with a<br>50% chance</div></div><div class='cr'><div class='vertical-center'>$11<br>for<br>sure</div></div><div class='respDivL'><div class='vertical-center'>(E)</div></div><div class='respDivR'><div class='vertical-center'>(I)</div></div></div>","E","$11","$62","1","11","62","RISKY"
