"trial_type","trial_index","time_elapsed","internal_node_id","subject_id","task","startTime","totalTime","view_history","rt","event","trial","time","trialtype","success","stimulus","key_press","sureOffer","riskyOffer","riskyLeft","sureAmt","riskyAmt","chosen"
"pavlovia","0","2","0.0-0.0","63bef4ddef5b4d7295effbbd","bdp_rd","Tue Mar 28 2023 14:21:54 GMT-0500 (Central Daylight Time)","135331","","","","","","","","","","","","","","",""
"instructions","1","2943","0.0-1.0","63bef4ddef5b4d7295effbbd","bdp_rd","Tue Mar 28 2023 14:21:54 GMT-0500 (Central Daylight Time)","135331","[{""page_index"":0,""viewing_time"":2940}]","2941","","","","","","","","","","","","",""
"","","","","63bef4ddef5b4d7295effbbd","bdp_rd","Tue Mar 28 2023 14:21:54 GMT-0500 (Central Daylight Time)","135331","","","fullscreenenter","2","4142","fullscreenenter","","","","","","","","",""
"fullscreen","2","5135","0.0-2.0","63bef4ddef5b4d7295effbbd","bdp_rd","Tue Mar 28 2023 14:21:54 GMT-0500 (Central Daylight Time)","135331","","","","","","","true","","","","","","","",""
"instructions","3","15916","0.0-4.0","63bef4ddef5b4d7295effbbd","bdp_rd","Tue Mar 28 2023 14:21:54 GMT-0500 (Central Daylight Time)","135331","[{""page_index"":0,""viewing_time"":8470},{""page_index"":1,""viewing_time"":1409},{""page_index"":2,""viewing_time"":902}]","10781","","","","","","","","","","","","",""
"html-keyboard-response","4","16419","0.0-5.0-1.0","63bef4ddef5b4d7295effbbd","bdp_rd","Tue Mar 28 2023 14:21:54 GMT-0500 (Central Daylight Time)","135331","","null","","","","FIX","","<div class='trialBorder'><div class='vertical-center'><img style='vertical-align:center; align:center' src=img/fixation3.jpg></div></div>","null","","","","","",""
"html-keyboard-response","5","18717","0.0-5.0-2.0","63bef4ddef5b4d7295effbbd","bdp_rd","Tue Mar 28 2023 14:21:54 GMT-0500 (Central Daylight Time)","135331","","2295","","","","offer","","<div class='trialBorder'><div class='vertical-center'><img style='vertical-align:center; align:center' src=img/fixation3.jpg></div><div class='cl'><div class='vertical-center'>$54<br>with a<br>50% chance</div></div><div class='cr'><div class='vertical-center'>$25<br>for<br>sure</div></div><div class='respDivL'><div class='vertical-center'>(E)</div></div><div class='respDivR'><div class='vertical-center'>(I)</div></div></div>","E","$25","$54","1","25","54","RISKY"
"html-keyboard-response","6","18969","0.0-5.0-3.0","63bef4ddef5b4d7295effbbd","bdp_rd","Tue Mar 28 2023 14:21:54 GMT-0500 (Central Daylight Time)","135331","","null","","","","offerFB","","<div class='trialBorder'><div class='vertical-center'><img style='vertical-align:center; align:center' src=img/fixation3.jpg></div><div class='cl'><div class='vertical-center'><font style='color:orange'>$54<br>with a<br>50% chance</font></div></div><div class='cr'><div class='vertical-center'>$25<br>for<br>sure</div></div><div class='respDivL'><div class='vertical-center'><font style='color:orange'>(E)</font></div></div><div class='respDivR'><div class='vertical-center'>(I)</div></div></div>","null","$25","$54","1","25","54",""
"html-keyboard-response","7","19472","0.0-5.0-1.1","63bef4ddef5b4d7295effbbd","bdp_rd","Tue Mar 28 2023 14:21:54 GMT-0500 (Central Daylight Time)","135331","","null","","","","FIX","","<div class='trialBorder'><div class='vertical-center'><img style='vertical-align:center; align:center' src=img/fixation3.jpg></div></div>","null","","","","","",""
"html-keyboard-response","8","20877","0.0-5.0-2.1","63bef4ddef5b4d7295effbbd","bdp_rd","Tue Mar 28 2023 14:21:54 GMT-0500 (Central Daylight Time)","135331","","1404","","","","offer","","<div class='trialBorder'><div class='vertical-center'><img style='vertical-align:center; align:center' src=img/fixation3.jpg></div><div class='cl'><div class='vertical-center'>$29<br>for<br>sure</div></div><div class='cr'><div class='vertical-center'>$46<br>with a<br>50% chance</div></div><div class='respDivL'><div class='vertical-center'>(E)</div></div><div class='respDivR'><div class='vertical-center'>(I)</div></div></div>","E","$29","$46","0","29","46","SURE"
"html-keyboard-response","9","21129","0.0-5.0-3.1","63bef4ddef5b4d7295effbbd","bdp_rd","Tue Mar 28 2023 14:21:54 GMT-0500 (Central Daylight Time)","135331","","null","","","","offerFB","","<div class='trialBorder'><div class='vertical-center'><img style='vertical-align:center; align:center' src=img/fixation3.jpg></div><div class='cl'><div class='vertical-center'><font style='color:orange'>$29<br>for<br>sure</font></div></div><div class='cr'><div class='vertical-center'>$46<br>with a<br>50% chance</div></div><div class='respDivL'><div class='vertical-center'><font style='color:orange'>(E)</font></div></div><div class='respDivR'><div class='vertical-center'>(I)</div></div></div>","null","$29","$46","0","29","46",""
"html-keyboard-response","10","21631","0.0-5.0-1.2","63bef4ddef5b4d7295effbbd","bdp_rd","Tue Mar 28 2023 14:21:54 GMT-0500 (Central Daylight Time)","135331","","null","","","","FIX","","<div class='trialBorder'><div class='vertical-center'><img style='vertical-align:center; align:center' src=img/fixation3.jpg></div></div>","null","","","","","",""
"html-keyboard-response","11","22877","0.0-5.0-2.2","63bef4ddef5b4d7295effbbd","bdp_rd","Tue Mar 28 2023 14:21:54 GMT-0500 (Central Daylight Time)","135331","","1245","","","","offer","","<div class='trialBorder'><div class='vertical-center'><img style='vertical-align:center; align:center' src=img/fixation3.jpg></div><div class='cl'><div class='vertical-center'>$64<br>with a<br>50% chance</div></div><div class='cr'><div class='vertical-center'>$2<br>for<br>sure</div></div><div class='respDivL'><div class='vertical-center'>(E)</div></div><div class='respDivR'><div class='vertical-center'>(I)</div></div></div>","E","$2","$64","1","2","64","RISKY"
"html-keyboard-response","12","23129","0.0-5.0-3.2","63bef4ddef5b4d7295effbbd","bdp_rd","Tue Mar 28 2023 14:21:54 GMT-0500 (Central Daylight Time)","135331","","null","","","","offerFB","","<div class='trialBorder'><div class='vertical-center'><img style='vertical-align:center; align:center' src=img/fixation3.jpg></div><div class='cl'><div class='vertical-center'><font style='color:orange'>$64<br>with a<br>50% chance</font></div></div><div class='cr'><div class='vertical-center'>$2<br>for<br>sure</div></div><div class='respDivL'><div class='vertical-center'><font style='color:orange'>(E)</font></div></div><div class='respDivR'><div class='vertical-center'>(I)</div></div></div>","null","$2","$64","1","2","64",""
"html-keyboard-response","13","23630","0.0-5.0-1.3","63bef4ddef5b4d7295effbbd","bdp_rd","Tue Mar 28 2023 14:21:54 GMT-0500 (Central Daylight Time)","135331","","null","","","","FIX","","<div class='trialBorder'><div class='vertical-center'><img style='vertical-align:center; align:center' src=img/fixation3.jpg></div></div>","null","","","","","",""
"html-keyboard-response","14","25293","0.0-5.0-2.3","63bef4ddef5b4d7295effbbd","bdp_rd","Tue Mar 28 2023 14:21:54 GMT-0500 (Central Daylight Time)","135331","","1661","","","","offer","","<div class='trialBorder'><div class='vertical-center'><img style='vertical-align:center; align:center' src=img/fixation3.jpg></div><div class='cl'><div class='vertical-center'>$35<br>with a<br>50% chance</div></div><div class='cr'><div class='vertical-center'>$12<br>for<br>sure</div></div><div class='respDivL'><div class='vertical-center'>(E)</div></div><div class='respDivR'><div class='vertical-center'>(I)</div></div></div>","E","$12","$35","1","12","35","RISKY"
"html-keyboard-response","15","25545","0.0-5.0-3.3","63bef4ddef5b4d7295effbbd","bdp_rd","Tue Mar 28 2023 14:21:54 GMT-0500 (Central Daylight Time)","135331","","null","","","","offerFB","","<div class='trialBorder'><div class='vertical-center'><img style='vertical-align:center; align:center' src=img/fixation3.jpg></div><div class='cl'><div class='vertical-center'><font style='color:orange'>$35<br>with a<br>50% chance</font></div></div><div class='cr'><div class='vertical-center'>$12<br>for<br>sure</div></div><div class='respDivL'><div class='vertical-center'><font style='color:orange'>(E)</font></div></div><div class='respDivR'><div class='vertical-center'>(I)</div></div></div>","null","$12","$35","1","12","35",""
"html-keyboard-response","16","26047","0.0-5.0-1.4","63bef4ddef5b4d7295effbbd","bdp_rd","Tue Mar 28 2023 14:21:54 GMT-0500 (Central Daylight Time)","135331","","null","","","","FIX","","<div class='trialBorder'><div class='vertical-center'><img style='vertical-align:center; align:center' src=img/fixation3.jpg></div></div>","null","","","","","",""
"html-keyboard-response","17","27916","0.0-5.0-2.4","63bef4ddef5b4d7295effbbd","bdp_rd","Tue Mar 28 2023 14:21:54 GMT-0500 (Central Daylight Time)","135331","","1867","","","","offer","","<div class='trialBorder'><div class='vertical-center'><img style='vertical-align:center; align:center' src=img/fixation3.jpg></div><div class='cl'><div class='vertical-center'>$18<br>with a<br>50% chance</div></div><div class='cr'><div class='vertical-center'>$9<br>for<br>sure</div></div><div class='respDivL'><div class='vertical-center'>(E)</div></div><div class='respDivR'><div class='vertical-center'>(I)</div></div></div>","E","$9","$18","1","9","18","RISKY"
"html-keyboard-response","18","28168","0.0-5.0-3.4","63bef4ddef5b4d7295effbbd","bdp_rd","Tue Mar 28 2023 14:21:54 GMT-0500 (Central Daylight Time)","135331","","null","","","","offerFB","","<div class='trialBorder'><div class='vertical-center'><img style='vertical-align:center; align:center' src=img/fixation3.jpg></div><div class='cl'><div class='vertical-center'><font style='color:orange'>$18<br>with a<br>50% chance</font></div></div><div class='cr'><div class='vertical-center'>$9<br>for<br>sure</div></div><div class='respDivL'><div class='vertical-center'><font style='color:orange'>(E)</font></div></div><div class='respDivR'><div class='vertical-center'>(I)</div></div></div>","null","$9","$18","1","9","18",""
"html-keyboard-response","19","28671","0.0-5.0-1.5","63bef4ddef5b4d7295effbbd","bdp_rd","Tue Mar 28 2023 14:21:54 GMT-0500 (Central Daylight Time)","135331","","null","","","","FIX","","<div class='trialBorder'><div class='vertical-center'><img style='vertical-align:center; align:center' src=img/fixation3.jpg></div></div>","null","","","","","",""
"html-keyboard-response","20","30086","0.0-5.0-2.5","63bef4ddef5b4d7295effbbd","bdp_rd","Tue Mar 28 2023 14:21:54 GMT-0500 (Central Daylight Time)","135331","","1413","","","","offer","","<div class='trialBorder'><div class='vertical-center'><img style='vertical-align:center; align:center' src=img/fixation3.jpg></div><div class='cl'><div class='vertical-center'>$86<br>with a<br>50% chance</div></div><div class='cr'><div class='vertical-center'>$45<br>for<br>sure</div></div><div class='respDivL'><div class='vertical-center'>(E)</div></div><div class='respDivR'><div class='vertical-center'>(I)</div></div></div>","I","$45","$86","1","45","86","SURE"
"html-keyboard-response","21","30338","0.0-5.0-3.5","63bef4ddef5b4d7295effbbd","bdp_rd","Tue Mar 28 2023 14:21:54 GMT-0500 (Central Daylight Time)","135331","","null","","","","offerFB","","<div class='trialBorder'><div class='vertical-center'><img style='vertical-align:center; align:center' src=img/fixation3.jpg></div><div class='cl'><div class='vertical-center'>$86<br>with a<br>50% chance</div></div><div class='cr'><div class='vertical-center'><font style='color:orange'>$45<br>for<br>sure</font></div></div><div class='respDivL'><div class='vertical-center'>(E)</div></div><div class='respDivR'><div class='vertical-center'><font style='color:orange'>(I)</font></div></div></div>","null","$45","$86","1","45","86",""
"html-keyboard-response","22","30839","0.0-5.0-1.6","63bef4ddef5b4d7295effbbd","bdp_rd","Tue Mar 28 2023 14:21:54 GMT-0500 (Central Daylight Time)","135331","","null","","","","FIX","","<div class='trialBorder'><div class='vertical-center'><img style='vertical-align:center; align:center' src=img/fixation3.jpg></div></div>","null","","","","","",""
"html-keyboard-response","23","32180","0.0-5.0-2.6","63bef4ddef5b4d7295effbbd","bdp_rd","Tue Mar 28 2023 14:21:54 GMT-0500 (Central Daylight Time)","135331","","1340","","","","offer","","<div class='trialBorder'><div class='vertical-center'><img style='vertical-align:center; align:center' src=img/fixation3.jpg></div><div class='cl'><div class='vertical-center'>$36<br>with a<br>50% chance</div></div><div class='cr'><div class='vertical-center'>$18<br>for<br>sure</div></div><div class='respDivL'><div class='vertical-center'>(E)</div></div><div class='respDivR'><div class='vertical-center'>(I)</div></div></div>","I","$18","$36","1","18","36","SURE"
"html-keyboard-response","24","32432","0.0-5.0-3.6","63bef4ddef5b4d7295effbbd","bdp_rd","Tue Mar 28 2023 14:21:54 GMT-0500 (Central Daylight Time)","135331","","null","","","","offerFB","","<div class='trialBorder'><div class='vertical-center'><img style='vertical-align:center; align:center' src=img/fixation3.jpg></div><div class='cl'><div class='vertical-center'>$36<br>with a<br>50% chance</div></div><div class='cr'><div class='vertical-center'><font style='color:orange'>$18<br>for<br>sure</font></div></div><div class='respDivL'><div class='vertical-center'>(E)</div></div><div class='respDivR'><div class='vertical-center'><font style='color:orange'>(I)</font></div></div></div>","null","$18","$36","1","18","36",""
"html-keyboard-response","25","32934","0.0-5.0-1.7","63bef4ddef5b4d7295effbbd","bdp_rd","Tue Mar 28 2023 14:21:54 GMT-0500 (Central Daylight Time)","135331","","null","","","","FIX","","<div class='trialBorder'><div class='vertical-center'><img style='vertical-align:center; align:center' src=img/fixation3.jpg></div></div>","null","","","","","",""
"html-keyboard-response","26","34565","0.0-5.0-2.7","63bef4ddef5b4d7295effbbd","bdp_rd","Tue Mar 28 2023 14:21:54 GMT-0500 (Central Daylight Time)","135331","","1630","","","","offer","","<div class='trialBorder'><div class='vertical-center'><img style='vertical-align:center; align:center' src=img/fixation3.jpg></div><div class='cl'><div class='vertical-center'>$100<br>with a<br>50% chance</div></div><div class='cr'><div class='vertical-center'>$63<br>for<br>sure</div></div><div class='respDivL'><div class='vertical-center'>(E)</div></div><div class='respDivR'><div class='vertical-center'>(I)</div></div></div>","E","$63","$100","1","63","10","RISKY"
"html-keyboard-response","27","34817","0.0-5.0-3.7","63bef4ddef5b4d7295effbbd","bdp_rd","Tue Mar 28 2023 14:21:54 GMT-0500 (Central Daylight Time)","135331","","null","","","","offerFB","","<div class='trialBorder'><div class='vertical-center'><img style='vertical-align:center; align:center' src=img/fixation3.jpg></div><div class='cl'><div class='vertical-center'><font style='color:orange'>$100<br>with a<br>50% chance</font></div></div><div class='cr'><div class='vertical-center'>$63<br>for<br>sure</div></div><div class='respDivL'><div class='vertical-center'><font style='color:orange'>(E)</font></div></div><div class='respDivR'><div class='vertical-center'>(I)</div></div></div>","null","$63","$100","1","63","10",""
"html-keyboard-response","28","35320","0.0-5.0-1.8","63bef4ddef5b4d7295effbbd","bdp_rd","Tue Mar 28 2023 14:21:54 GMT-0500 (Central Daylight Time)","135331","","null","","","","FIX","","<div class='trialBorder'><div class='vertical-center'><img style='vertical-align:center; align:center' src=img/fixation3.jpg></div></div>","null","","","","","",""
"html-keyboard-response","29","36500","0.0-5.0-2.8","63bef4ddef5b4d7295effbbd","bdp_rd","Tue Mar 28 2023 14:21:54 GMT-0500 (Central Daylight Time)","135331","","1179","","","","offer","","<div class='trialBorder'><div class='vertical-center'><img style='vertical-align:center; align:center' src=img/fixation3.jpg></div><div class='cl'><div class='vertical-center'>$10<br>for<br>sure</div></div><div class='cr'><div class='vertical-center'>$19<br>with a<br>50% chance</div></div><div class='respDivL'><div class='vertical-center'>(E)</div></div><div class='respDivR'><div class='vertical-center'>(I)</div></div></div>","E","$10","$19","0","10","19","SURE"
"html-keyboard-response","30","36753","0.0-5.0-3.8","63bef4ddef5b4d7295effbbd","bdp_rd","Tue Mar 28 2023 14:21:54 GMT-0500 (Central Daylight Time)","135331","","null","","","","offerFB","","<div class='trialBorder'><div class='vertical-center'><img style='vertical-align:center; align:center' src=img/fixation3.jpg></div><div class='cl'><div class='vertical-center'><font style='color:orange'>$10<br>for<br>sure</font></div></div><div class='cr'><div class='vertical-center'>$19<br>with a<br>50% chance</div></div><div class='respDivL'><div class='vertical-center'><font style='color:orange'>(E)</font></div></div><div class='respDivR'><div class='vertical-center'>(I)</div></div></div>","null","$10","$19","0","10","19",""
"html-keyboard-response","31","37255","0.0-5.0-1.9","63bef4ddef5b4d7295effbbd","bdp_rd","Tue Mar 28 2023 14:21:54 GMT-0500 (Central Daylight Time)","135331","","null","","","","FIX","","<div class='trialBorder'><div class='vertical-center'><img style='vertical-align:center; align:center' src=img/fixation3.jpg></div></div>","null","","","","","",""
"html-keyboard-response","32","38333","0.0-5.0-2.9","63bef4ddef5b4d7295effbbd","bdp_rd","Tue Mar 28 2023 14:21:54 GMT-0500 (Central Daylight Time)","135331","","1078","","","","offer","","<div class='trialBorder'><div class='vertical-center'><img style='vertical-align:center; align:center' src=img/fixation3.jpg></div><div class='cl'><div class='vertical-center'>$80<br>with a<br>50% chance</div></div><div class='cr'><div class='vertical-center'>$20<br>for<br>sure</div></div><div class='respDivL'><div class='vertical-center'>(E)</div></div><div class='respDivR'><div class='vertical-center'>(I)</div></div></div>","E","$20","$80","1","20","80","RISKY"
"html-keyboard-response","33","38585","0.0-5.0-3.9","63bef4ddef5b4d7295effbbd","bdp_rd","Tue Mar 28 2023 14:21:54 GMT-0500 (Central Daylight Time)","135331","","null","","","","offerFB","","<div class='trialBorder'><div class='vertical-center'><img style='vertical-align:center; align:center' src=img/fixation3.jpg></div><div class='cl'><div class='vertical-center'><font style='color:orange'>$80<br>with a<br>50% chance</font></div></div><div class='cr'><div class='vertical-center'>$20<br>for<br>sure</div></div><div class='respDivL'><div class='vertical-center'><font style='color:orange'>(E)</font></div></div><div class='respDivR'><div class='vertical-center'>(I)</div></div></div>","null","$20","$80","1","20","80",""
"html-keyboard-response","34","39088","0.0-5.0-1.10","63bef4ddef5b4d7295effbbd","bdp_rd","Tue Mar 28 2023 14:21:54 GMT-0500 (Central Daylight Time)","135331","","null","","","","FIX","","<div class='trialBorder'><div class='vertical-center'><img style='vertical-align:center; align:center' src=img/fixation3.jpg></div></div>","null","","","","","",""
"html-keyboard-response","35","40195","0.0-5.0-2.10","63bef4ddef5b4d7295effbbd","bdp_rd","Tue Mar 28 2023 14:21:54 GMT-0500 (Central Daylight Time)","135331","","1107","","","","offer","","<div class='trialBorder'><div class='vertical-center'><img style='vertical-align:center; align:center' src=img/fixation3.jpg></div><div class='cl'><div class='vertical-center'>$89<br>with a<br>50% chance</div></div><div class='cr'><div class='vertical-center'>$28<br>for<br>sure</div></div><div class='respDivL'><div class='vertical-center'>(E)</div></div><div class='respDivR'><div class='vertical-center'>(I)</div></div></div>","E","$28","$89","1","28","89","RISKY"
"html-keyboard-response","36","40447","0.0-5.0-3.10","63bef4ddef5b4d7295effbbd","bdp_rd","Tue Mar 28 2023 14:21:54 GMT-0500 (Central Daylight Time)","135331","","null","","","","offerFB","","<div class='trialBorder'><div class='vertical-center'><img style='vertical-align:center; align:center' src=img/fixation3.jpg></div><div class='cl'><div class='vertical-center'><font style='color:orange'>$89<br>with a<br>50% chance</font></div></div><div class='cr'><div class='vertical-center'>$28<br>for<br>sure</div></div><div class='respDivL'><div class='vertical-center'><font style='color:orange'>(E)</font></div></div><div class='respDivR'><div class='vertical-center'>(I)</div></div></div>","null","$28","$89","1","28","89",""
"html-keyboard-response","37","40948","0.0-5.0-1.11","63bef4ddef5b4d7295effbbd","bdp_rd","Tue Mar 28 2023 14:21:54 GMT-0500 (Central Daylight Time)","135331","","null","","","","FIX","","<div class='trialBorder'><div class='vertical-center'><img style='vertical-align:center; align:center' src=img/fixation3.jpg></div></div>","null","","","","","",""
"html-keyboard-response","38","41837","0.0-5.0-2.11","63bef4ddef5b4d7295effbbd","bdp_rd","Tue Mar 28 2023 14:21:54 GMT-0500 (Central Daylight Time)","135331","","888","","","","offer","","<div class='trialBorder'><div class='vertical-center'><img style='vertical-align:center; align:center' src=img/fixation3.jpg></div><div class='cl'><div class='vertical-center'>$40<br>with a<br>50% chance</div></div><div class='cr'><div class='vertical-center'>$10<br>for<br>sure</div></div><div class='respDivL'><div class='vertical-center'>(E)</div></div><div class='respDivR'><div class='vertical-center'>(I)</div></div></div>","I","$10","$40","1","10","40","SURE"
"html-keyboard-response","39","42090","0.0-5.0-3.11","63bef4ddef5b4d7295effbbd","bdp_rd","Tue Mar 28 2023 14:21:54 GMT-0500 (Central Daylight Time)","135331","","null","","","","offerFB","","<div class='trialBorder'><div class='vertical-center'><img style='vertical-align:center; align:center' src=img/fixation3.jpg></div><div class='cl'><div class='vertical-center'>$40<br>with a<br>50% chance</div></div><div class='cr'><div class='vertical-center'><font style='color:orange'>$10<br>for<br>sure</font></div></div><div class='respDivL'><div class='vertical-center'>(E)</div></div><div class='respDivR'><div class='vertical-center'><font style='color:orange'>(I)</font></div></div></div>","null","$10","$40","1","10","40",""
"html-keyboard-response","40","42592","0.0-5.0-1.12","63bef4ddef5b4d7295effbbd","bdp_rd","Tue Mar 28 2023 14:21:54 GMT-0500 (Central Daylight Time)","135331","","null","","","","FIX","","<div class='trialBorder'><div class='vertical-center'><img style='vertical-align:center; align:center' src=img/fixation3.jpg></div></div>","null","","","","","",""
"html-keyboard-response","41","43942","0.0-5.0-2.12","63bef4ddef5b4d7295effbbd","bdp_rd","Tue Mar 28 2023 14:21:54 GMT-0500 (Central Daylight Time)","135331","","1350","","","","offer","","<div class='trialBorder'><div class='vertical-center'><img style='vertical-align:center; align:center' src=img/fixation3.jpg></div><div class='cl'><div class='vertical-center'>$14<br>for<br>sure</div></div><div class='cr'><div class='vertical-center'>$22<br>with a<br>50% chance</div></div><div class='respDivL'><div class='vertical-center'>(E)</div></div><div class='respDivR'><div class='vertical-center'>(I)</div></div></div>","E","$14","$22","0","14","22","SURE"
"html-keyboard-response","42","44195","0.0-5.0-3.12","63bef4ddef5b4d7295effbbd","bdp_rd","Tue Mar 28 2023 14:21:54 GMT-0500 (Central Daylight Time)","135331","","null","","","","offerFB","","<div class='trialBorder'><div class='vertical-center'><img style='vertical-align:center; align:center' src=img/fixation3.jpg></div><div class='cl'><div class='vertical-center'><font style='color:orange'>$14<br>for<br>sure</font></div></div><div class='cr'><div class='vertical-center'>$22<br>with a<br>50% chance</div></div><div class='respDivL'><div class='vertical-center'><font style='color:orange'>(E)</font></div></div><div class='respDivR'><div class='vertical-center'>(I)</div></div></div>","null","$14","$22","0","14","22",""
"html-keyboard-response","43","44697","0.0-5.0-1.13","63bef4ddef5b4d7295effbbd","bdp_rd","Tue Mar 28 2023 14:21:54 GMT-0500 (Central Daylight Time)","135331","","null","","","","FIX","","<div class='trialBorder'><div class='vertical-center'><img style='vertical-align:center; align:center' src=img/fixation3.jpg></div></div>","null","","","","","",""
"html-keyboard-response","44","46580","0.0-5.0-2.13","63bef4ddef5b4d7295effbbd","bdp_rd","Tue Mar 28 2023 14:21:54 GMT-0500 (Central Daylight Time)","135331","","1882","","","","offer","","<div class='trialBorder'><div class='vertical-center'><img style='vertical-align:center; align:center' src=img/fixation3.jpg></div><div class='cl'><div class='vertical-center'>$42<br>for<br>sure</div></div><div class='cr'><div class='vertical-center'>$73<br>with a<br>50% chance</div></div><div class='respDivL'><div class='vertical-center'>(E)</div></div><div class='respDivR'><div class='vertical-center'>(I)</div></div></div>","I","$42","$73","0","42","73","RISKY"
"html-keyboard-response","45","46831","0.0-5.0-3.13","63bef4ddef5b4d7295effbbd","bdp_rd","Tue Mar 28 2023 14:21:54 GMT-0500 (Central Daylight Time)","135331","","null","","","","offerFB","","<div class='trialBorder'><div class='vertical-center'><img style='vertical-align:center; align:center' src=img/fixation3.jpg></div><div class='cl'><div class='vertical-center'>$42<br>for<br>sure</div></div><div class='cr'><div class='vertical-center'><font style='color:orange'>$73<br>with a<br>50% chance</font></div></div><div class='respDivL'><div class='vertical-center'>(E)</div></div><div class='respDivR'><div class='vertical-center'><font style='color:orange'>(I)</font></div></div></div>","null","$42","$73","0","42","73",""
"html-keyboard-response","46","47333","0.0-5.0-1.14","63bef4ddef5b4d7295effbbd","bdp_rd","Tue Mar 28 2023 14:21:54 GMT-0500 (Central Daylight Time)","135331","","null","","","","FIX","","<div class='trialBorder'><div class='vertical-center'><img style='vertical-align:center; align:center' src=img/fixation3.jpg></div></div>","null","","","","","",""
"html-keyboard-response","47","53812","0.0-5.0-2.14","63bef4ddef5b4d7295effbbd","bdp_rd","Tue Mar 28 2023 14:21:54 GMT-0500 (Central Daylight Time)","135331","","6478","","","","offer","","<div class='trialBorder'><div class='vertical-center'><img style='vertical-align:center; align:center' src=img/fixation3.jpg></div><div class='cl'><div class='vertical-center'>$24<br>with a<br>50% chance</div></div><div class='cr'><div class='vertical-center'>$13<br>for<br>sure</div></div><div class='respDivL'><div class='vertical-center'>(E)</div></div><div class='respDivR'><div class='vertical-center'>(I)</div></div></div>","I","$13","$24","1","13","24","SURE"
"html-keyboard-response","48","54065","0.0-5.0-3.14","63bef4ddef5b4d7295effbbd","bdp_rd","Tue Mar 28 2023 14:21:54 GMT-0500 (Central Daylight Time)","135331","","null","","","","offerFB","","<div class='trialBorder'><div class='vertical-center'><img style='vertical-align:center; align:center' src=img/fixation3.jpg></div><div class='cl'><div class='vertical-center'>$24<br>with a<br>50% chance</div></div><div class='cr'><div class='vertical-center'><font style='color:orange'>$13<br>for<br>sure</font></div></div><div class='respDivL'><div class='vertical-center'>(E)</div></div><div class='respDivR'><div class='vertical-center'><font style='color:orange'>(I)</font></div></div></div>","null","$13","$24","1","13","24",""
"html-keyboard-response","49","54567","0.0-5.0-1.15","63bef4ddef5b4d7295effbbd","bdp_rd","Tue Mar 28 2023 14:21:54 GMT-0500 (Central Daylight Time)","135331","","null","","","","FIX","","<div class='trialBorder'><div class='vertical-center'><img style='vertical-align:center; align:center' src=img/fixation3.jpg></div></div>","null","","","","","",""
"html-keyboard-response","50","56766","0.0-5.0-2.15","63bef4ddef5b4d7295effbbd","bdp_rd","Tue Mar 28 2023 14:21:54 GMT-0500 (Central Daylight Time)","135331","","2199","","","","offer","","<div class='trialBorder'><div class='vertical-center'><img style='vertical-align:center; align:center' src=img/fixation3.jpg></div><div class='cl'><div class='vertical-center'>$21<br>for<br>sure</div></div><div class='cr'><div class='vertical-center'>$25<br>with a<br>50% chance</div></div><div class='respDivL'><div class='vertical-center'>(E)</div></div><div class='respDivR'><div class='vertical-center'>(I)</div></div></div>","E","$21","$25","0","21","25","SURE"
"html-keyboard-response","51","57018","0.0-5.0-3.15","63bef4ddef5b4d7295effbbd","bdp_rd","Tue Mar 28 2023 14:21:54 GMT-0500 (Central Daylight Time)","135331","","null","","","","offerFB","","<div class='trialBorder'><div class='vertical-center'><img style='vertical-align:center; align:center' src=img/fixation3.jpg></div><div class='cl'><div class='vertical-center'><font style='color:orange'>$21<br>for<br>sure</font></div></div><div class='cr'><div class='vertical-center'>$25<br>with a<br>50% chance</div></div><div class='respDivL'><div class='vertical-center'><font style='color:orange'>(E)</font></div></div><div class='respDivR'><div class='vertical-center'>(I)</div></div></div>","null","$21","$25","0","21","25",""
"html-keyboard-response","52","57521","0.0-5.0-1.16","63bef4ddef5b4d7295effbbd","bdp_rd","Tue Mar 28 2023 14:21:54 GMT-0500 (Central Daylight Time)","135331","","null","","","","FIX","","<div class='trialBorder'><div class='vertical-center'><img style='vertical-align:center; align:center' src=img/fixation3.jpg></div></div>","null","","","","","",""
"html-keyboard-response","53","60125","0.0-5.0-2.16","63bef4ddef5b4d7295effbbd","bdp_rd","Tue Mar 28 2023 14:21:54 GMT-0500 (Central Daylight Time)","135331","","2603","","","","offer","","<div class='trialBorder'><div class='vertical-center'><img style='vertical-align:center; align:center' src=img/fixation3.jpg></div><div class='cl'><div class='vertical-center'>$5<br>for<br>sure</div></div><div class='cr'><div class='vertical-center'>$16<br>with a<br>50% chance</div></div><div class='respDivL'><div class='vertical-center'>(E)</div></div><div class='respDivR'><div class='vertical-center'>(I)</div></div></div>","I","$5","$16","0","5","16","RISKY"
"html-keyboard-response","54","60378","0.0-5.0-3.16","63bef4ddef5b4d7295effbbd","bdp_rd","Tue Mar 28 2023 14:21:54 GMT-0500 (Central Daylight Time)","135331","","null","","","","offerFB","","<div class='trialBorder'><div class='vertical-center'><img style='vertical-align:center; align:center' src=img/fixation3.jpg></div><div class='cl'><div class='vertical-center'>$5<br>for<br>sure</div></div><div class='cr'><div class='vertical-center'><font style='color:orange'>$16<br>with a<br>50% chance</font></div></div><div class='respDivL'><div class='vertical-center'>(E)</div></div><div class='respDivR'><div class='vertical-center'><font style='color:orange'>(I)</font></div></div></div>","null","$5","$16","0","5","16",""
"html-keyboard-response","55","60880","0.0-5.0-1.17","63bef4ddef5b4d7295effbbd","bdp_rd","Tue Mar 28 2023 14:21:54 GMT-0500 (Central Daylight Time)","135331","","null","","","","FIX","","<div class='trialBorder'><div class='vertical-center'><img style='vertical-align:center; align:center' src=img/fixation3.jpg></div></div>","null","","","","","",""
"html-keyboard-response","56","62613","0.0-5.0-2.17","63bef4ddef5b4d7295effbbd","bdp_rd","Tue Mar 28 2023 14:21:54 GMT-0500 (Central Daylight Time)","135331","","1732","","","","offer","","<div class='trialBorder'><div class='vertical-center'><img style='vertical-align:center; align:center' src=img/fixation3.jpg></div><div class='cl'><div class='vertical-center'>$46<br>for<br>sure</div></div><div class='cr'><div class='vertical-center'>$65<br>with a<br>50% chance</div></div><div class='respDivL'><div class='vertical-center'>(E)</div></div><div class='respDivR'><div class='vertical-center'>(I)</div></div></div>","E","$46","$65","0","46","65","SURE"
"html-keyboard-response","57","62865","0.0-5.0-3.17","63bef4ddef5b4d7295effbbd","bdp_rd","Tue Mar 28 2023 14:21:54 GMT-0500 (Central Daylight Time)","135331","","null","","","","offerFB","","<div class='trialBorder'><div class='vertical-center'><img style='vertical-align:center; align:center' src=img/fixation3.jpg></div><div class='cl'><div class='vertical-center'><font style='color:orange'>$46<br>for<br>sure</font></div></div><div class='cr'><div class='vertical-center'>$65<br>with a<br>50% chance</div></div><div class='respDivL'><div class='vertical-center'><font style='color:orange'>(E)</font></div></div><div class='respDivR'><div class='vertical-center'>(I)</div></div></div>","null","$46","$65","0","46","65",""
"html-keyboard-response","58","63367","0.0-5.0-1.18","63bef4ddef5b4d7295effbbd","bdp_rd","Tue Mar 28 2023 14:21:54 GMT-0500 (Central Daylight Time)","135331","","null","","","","FIX","","<div class='trialBorder'><div class='vertical-center'><img style='vertical-align:center; align:center' src=img/fixation3.jpg></div></div>","null","","","","","",""
"html-keyboard-response","59","64949","0.0-5.0-2.18","63bef4ddef5b4d7295effbbd","bdp_rd","Tue Mar 28 2023 14:21:54 GMT-0500 (Central Daylight Time)","135331","","1580","","","","offer","","<div class='trialBorder'><div class='vertical-center'><img style='vertical-align:center; align:center' src=img/fixation3.jpg></div><div class='cl'><div class='vertical-center'>$26<br>for<br>sure</div></div><div class='cr'><div class='vertical-center'>$92<br>with a<br>50% chance</div></div><div class='respDivL'><div class='vertical-center'>(E)</div></div><div class='respDivR'><div class='vertical-center'>(I)</div></div></div>","I","$26","$92","0","26","92","RISKY"
"html-keyboard-response","60","65201","0.0-5.0-3.18","63bef4ddef5b4d7295effbbd","bdp_rd","Tue Mar 28 2023 14:21:54 GMT-0500 (Central Daylight Time)","135331","","null","","","","offerFB","","<div class='trialBorder'><div class='vertical-center'><img style='vertical-align:center; align:center' src=img/fixation3.jpg></div><div class='cl'><div class='vertical-center'>$26<br>for<br>sure</div></div><div class='cr'><div class='vertical-center'><font style='color:orange'>$92<br>with a<br>50% chance</font></div></div><div class='respDivL'><div class='vertical-center'>(E)</div></div><div class='respDivR'><div class='vertical-center'><font style='color:orange'>(I)</font></div></div></div>","null","$26","$92","0","26","92",""
"html-keyboard-response","61","65704","0.0-5.0-1.19","63bef4ddef5b4d7295effbbd","bdp_rd","Tue Mar 28 2023 14:21:54 GMT-0500 (Central Daylight Time)","135331","","null","","","","FIX","","<div class='trialBorder'><div class='vertical-center'><img style='vertical-align:center; align:center' src=img/fixation3.jpg></div></div>","null","","","","","",""
"html-keyboard-response","62","66685","0.0-5.0-2.19","63bef4ddef5b4d7295effbbd","bdp_rd","Tue Mar 28 2023 14:21:54 GMT-0500 (Central Daylight Time)","135331","","980","","","","offer","","<div class='trialBorder'><div class='vertical-center'><img style='vertical-align:center; align:center' src=img/fixation3.jpg></div><div class='cl'><div class='vertical-center'>$62<br>with a<br>50% chance</div></div><div class='cr'><div class='vertical-center'>$11<br>for<br>sure</div></div><div class='respDivL'><div class='vertical-center'>(E)</div></div><div class='respDivR'><div class='vertical-center'>(I)</div></div></div>","E","$11","$62","1","11","62","RISKY"
"html-keyboard-response","63","66938","0.0-5.0-3.19","63bef4ddef5b4d7295effbbd","bdp_rd","Tue Mar 28 2023 14:21:54 GMT-0500 (Central Daylight Time)","135331","","null","","","","offerFB","","<div class='trialBorder'><div class='vertical-center'><img style='vertical-align:center; align:center' src=img/fixation3.jpg></div><div class='cl'><div class='vertical-center'><font style='color:orange'>$62<br>with a<br>50% chance</font></div></div><div class='cr'><div class='vertical-center'>$11<br>for<br>sure</div></div><div class='respDivL'><div class='vertical-center'><font style='color:orange'>(E)</font></div></div><div class='respDivR'><div class='vertical-center'>(I)</div></div></div>","null","$11","$62","1","11","62",""
"html-keyboard-response","64","67445","0.0-5.0-1.20","63bef4ddef5b4d7295effbbd","bdp_rd","Tue Mar 28 2023 14:21:54 GMT-0500 (Central Daylight Time)","135331","","null","","","","FIX","","<div class='trialBorder'><div class='vertical-center'><img style='vertical-align:center; align:center' src=img/fixation3.jpg></div></div>","null","","","","","",""
"html-keyboard-response","65","68244","0.0-5.0-2.20","63bef4ddef5b4d7295effbbd","bdp_rd","Tue Mar 28 2023 14:21:54 GMT-0500 (Central Daylight Time)","135331","","799","","","","offer","","<div class='trialBorder'><div class='vertical-center'><img style='vertical-align:center; align:center' src=img/fixation3.jpg></div><div class='cl'><div class='vertical-center'>$13<br>for<br>sure</div></div><div class='cr'><div class='vertical-center'>$41<br>with a<br>50% chance</div></div><div class='respDivL'><div class='vertical-center'>(E)</div></div><div class='respDivR'><div class='vertical-center'>(I)</div></div></div>","I","$13","$41","0","13","41","RISKY"
"html-keyboard-response","66","68497","0.0-5.0-3.20","63bef4ddef5b4d7295effbbd","bdp_rd","Tue Mar 28 2023 14:21:54 GMT-0500 (Central Daylight Time)","135331","","null","","","","offerFB","","<div class='trialBorder'><div class='vertical-center'><img style='vertical-align:center; align:center' src=img/fixation3.jpg></div><div class='cl'><div class='vertical-center'>$13<br>for<br>sure</div></div><div class='cr'><div class='vertical-center'><font style='color:orange'>$41<br>with a<br>50% chance</font></div></div><div class='respDivL'><div class='vertical-center'>(E)</div></div><div class='respDivR'><div class='vertical-center'><font style='color:orange'>(I)</font></div></div></div>","null","$13","$41","0","13","41",""
"html-keyboard-response","67","68998","0.0-5.0-1.21","63bef4ddef5b4d7295effbbd","bdp_rd","Tue Mar 28 2023 14:21:54 GMT-0500 (Central Daylight Time)","135331","","null","","","","FIX","","<div class='trialBorder'><div class='vertical-center'><img style='vertical-align:center; align:center' src=img/fixation3.jpg></div></div>","null","","","","","",""
"html-keyboard-response","68","69988","0.0-5.0-2.21","63bef4ddef5b4d7295effbbd","bdp_rd","Tue Mar 28 2023 14:21:54 GMT-0500 (Central Daylight Time)","135331","","990","","","","offer","","<div class='trialBorder'><div class='vertical-center'><img style='vertical-align:center; align:center' src=img/fixation3.jpg></div><div class='cl'><div class='vertical-center'>$19<br>for<br>sure</div></div><div class='cr'><div class='vertical-center'>$51<br>with a<br>50% chance</div></div><div class='respDivL'><div class='vertical-center'>(E)</div></div><div class='respDivR'><div class='vertical-center'>(I)</div></div></div>","I","$19","$51","0","19","51","RISKY"
"html-keyboard-response","69","70239","0.0-5.0-3.21","63bef4ddef5b4d7295effbbd","bdp_rd","Tue Mar 28 2023 14:21:54 GMT-0500 (Central Daylight Time)","135331","","null","","","","offerFB","","<div class='trialBorder'><div class='vertical-center'><img style='vertical-align:center; align:center' src=img/fixation3.jpg></div><div class='cl'><div class='vertical-center'>$19<br>for<br>sure</div></div><div class='cr'><div class='vertical-center'><font style='color:orange'>$51<br>with a<br>50% chance</font></div></div><div class='respDivL'><div class='vertical-center'>(E)</div></div><div class='respDivR'><div class='vertical-center'><font style='color:orange'>(I)</font></div></div></div>","null","$19","$51","0","19","51",""
"html-keyboard-response","70","70740","0.0-5.0-1.22","63bef4ddef5b4d7295effbbd","bdp_rd","Tue Mar 28 2023 14:21:54 GMT-0500 (Central Daylight Time)","135331","","null","","","","FIX","","<div class='trialBorder'><div class='vertical-center'><img style='vertical-align:center; align:center' src=img/fixation3.jpg></div></div>","null","","","","","",""
"html-keyboard-response","71","72308","0.0-5.0-2.22","63bef4ddef5b4d7295effbbd","bdp_rd","Tue Mar 28 2023 14:21:54 GMT-0500 (Central Daylight Time)","135331","","1568","","","","offer","","<div class='trialBorder'><div class='vertical-center'><img style='vertical-align:center; align:center' src=img/fixation3.jpg></div><div class='cl'><div class='vertical-center'>$4<br>for<br>sure</div></div><div class='cr'><div class='vertical-center'>$11<br>with a<br>50% chance</div></div><div class='respDivL'><div class='vertical-center'>(E)</div></div><div class='respDivR'><div class='vertical-center'>(I)</div></div></div>","I","$4","$11","0","4","11","RISKY"
"html-keyboard-response","72","72559","0.0-5.0-3.22","63bef4ddef5b4d7295effbbd","bdp_rd","Tue Mar 28 2023 14:21:54 GMT-0500 (Central Daylight Time)","135331","","null","","","","offerFB","","<div class='trialBorder'><div class='vertical-center'><img style='vertical-align:center; align:center' src=img/fixation3.jpg></div><div class='cl'><div class='vertical-center'>$4<br>for<br>sure</div></div><div class='cr'><div class='vertical-center'><font style='color:orange'>$11<br>with a<br>50% chance</font></div></div><div class='respDivL'><div class='vertical-center'>(E)</div></div><div class='respDivR'><div class='vertical-center'><font style='color:orange'>(I)</font></div></div></div>","null","$4","$11","0","4","11",""
"html-keyboard-response","73","73061","0.0-5.0-1.23","63bef4ddef5b4d7295effbbd","bdp_rd","Tue Mar 28 2023 14:21:54 GMT-0500 (Central Daylight Time)","135331","","null","","","","FIX","","<div class='trialBorder'><div class='vertical-center'><img style='vertical-align:center; align:center' src=img/fixation3.jpg></div></div>","null","","","","","",""
"html-keyboard-response","74","74389","0.0-5.0-2.23","63bef4ddef5b4d7295effbbd","bdp_rd","Tue Mar 28 2023 14:21:54 GMT-0500 (Central Daylight Time)","135331","","1327","","","","offer","","<div class='trialBorder'><div class='vertical-center'><img style='vertical-align:center; align:center' src=img/fixation3.jpg></div><div class='cl'><div class='vertical-center'>$15<br>for<br>sure</div></div><div class='cr'><div class='vertical-center'>$31<br>with a<br>50% chance</div></div><div class='respDivL'><div class='vertical-center'>(E)</div></div><div class='respDivR'><div class='vertical-center'>(I)</div></div></div>","E","$15","$31","0","15","31","SURE"
"html-keyboard-response","75","74640","0.0-5.0-3.23","63bef4ddef5b4d7295effbbd","bdp_rd","Tue Mar 28 2023 14:21:54 GMT-0500 (Central Daylight Time)","135331","","null","","","","offerFB","","<div class='trialBorder'><div class='vertical-center'><img style='vertical-align:center; align:center' src=img/fixation3.jpg></div><div class='cl'><div class='vertical-center'><font style='color:orange'>$15<br>for<br>sure</font></div></div><div class='cr'><div class='vertical-center'>$31<br>with a<br>50% chance</div></div><div class='respDivL'><div class='vertical-center'><font style='color:orange'>(E)</font></div></div><div class='respDivR'><div class='vertical-center'>(I)</div></div></div>","null","$15","$31","0","15","31",""
"html-keyboard-response","76","75142","0.0-5.0-1.24","63bef4ddef5b4d7295effbbd","bdp_rd","Tue Mar 28 2023 14:21:54 GMT-0500 (Central Daylight Time)","135331","","null","","","","FIX","","<div class='trialBorder'><div class='vertical-center'><img style='vertical-align:center; align:center' src=img/fixation3.jpg></div></div>","null","","","","","",""
"html-keyboard-response","77","78126","0.0-5.0-2.24","63bef4ddef5b4d7295effbbd","bdp_rd","Tue Mar 28 2023 14:21:54 GMT-0500 (Central Daylight Time)","135331","","2982","","","","offer","","<div class='trialBorder'><div class='vertical-center'><img style='vertical-align:center; align:center' src=img/fixation3.jpg></div><div class='cl'><div class='vertical-center'>$17<br>with a<br>50% chance</div></div><div class='cr'><div class='vertical-center'>$3<br>for<br>sure</div></div><div class='respDivL'><div class='vertical-center'>(E)</div></div><div class='respDivR'><div class='vertical-center'>(I)</div></div></div>","E","$3","$17","1","3","17","RISKY"
"html-keyboard-response","78","78378","0.0-5.0-3.24","63bef4ddef5b4d7295effbbd","bdp_rd","Tue Mar 28 2023 14:21:54 GMT-0500 (Central Daylight Time)","135331","","null","","","","offerFB","","<div class='trialBorder'><div class='vertical-center'><img style='vertical-align:center; align:center' src=img/fixation3.jpg></div><div class='cl'><div class='vertical-center'><font style='color:orange'>$17<br>with a<br>50% chance</font></div></div><div class='cr'><div class='vertical-center'>$3<br>for<br>sure</div></div><div class='respDivL'><div class='vertical-center'><font style='color:orange'>(E)</font></div></div><div class='respDivR'><div class='vertical-center'>(I)</div></div></div>","null","$3","$17","1","3","17",""
"html-keyboard-response","79","78879","0.0-5.0-1.25","63bef4ddef5b4d7295effbbd","bdp_rd","Tue Mar 28 2023 14:21:54 GMT-0500 (Central Daylight Time)","135331","","null","","","","FIX","","<div class='trialBorder'><div class='vertical-center'><img style='vertical-align:center; align:center' src=img/fixation3.jpg></div></div>","null","","","","","",""
"html-keyboard-response","80","80438","0.0-5.0-2.25","63bef4ddef5b4d7295effbbd","bdp_rd","Tue Mar 28 2023 14:21:54 GMT-0500 (Central Daylight Time)","135331","","1558","","","","offer","","<div class='trialBorder'><div class='vertical-center'><img style='vertical-align:center; align:center' src=img/fixation3.jpg></div><div class='cl'><div class='vertical-center'>$12<br>with a<br>50% chance</div></div><div class='cr'><div class='vertical-center'>$3<br>for<br>sure</div></div><div class='respDivL'><div class='vertical-center'>(E)</div></div><div class='respDivR'><div class='vertical-center'>(I)</div></div></div>","I","$3","$12","1","3","12","SURE"
"html-keyboard-response","81","80691","0.0-5.0-3.25","63bef4ddef5b4d7295effbbd","bdp_rd","Tue Mar 28 2023 14:21:54 GMT-0500 (Central Daylight Time)","135331","","null","","","","offerFB","","<div class='trialBorder'><div class='vertical-center'><img style='vertical-align:center; align:center' src=img/fixation3.jpg></div><div class='cl'><div class='vertical-center'>$12<br>with a<br>50% chance</div></div><div class='cr'><div class='vertical-center'><font style='color:orange'>$3<br>for<br>sure</font></div></div><div class='respDivL'><div class='vertical-center'>(E)</div></div><div class='respDivR'><div class='vertical-center'><font style='color:orange'>(I)</font></div></div></div>","null","$3","$12","1","3","12",""
"html-keyboard-response","82","81192","0.0-5.0-1.26","63bef4ddef5b4d7295effbbd","bdp_rd","Tue Mar 28 2023 14:21:54 GMT-0500 (Central Daylight Time)","135331","","null","","","","FIX","","<div class='trialBorder'><div class='vertical-center'><img style='vertical-align:center; align:center' src=img/fixation3.jpg></div></div>","null","","","","","",""
"html-keyboard-response","83","82039","0.0-5.0-2.26","63bef4ddef5b4d7295effbbd","bdp_rd","Tue Mar 28 2023 14:21:54 GMT-0500 (Central Daylight Time)","135331","","846","","","","offer","","<div class='trialBorder'><div class='vertical-center'><img style='vertical-align:center; align:center' src=img/fixation3.jpg></div><div class='cl'><div class='vertical-center'>$1<br>for<br>sure</div></div><div class='cr'><div class='vertical-center'>$30<br>with a<br>50% chance</div></div><div class='respDivL'><div class='vertical-center'>(E)</div></div><div class='respDivR'><div class='vertical-center'>(I)</div></div></div>","I","$1","$30","0","1","30","RISKY"
"html-keyboard-response","84","82291","0.0-5.0-3.26","63bef4ddef5b4d7295effbbd","bdp_rd","Tue Mar 28 2023 14:21:54 GMT-0500 (Central Daylight Time)","135331","","null","","","","offerFB","","<div class='trialBorder'><div class='vertical-center'><img style='vertical-align:center; align:center' src=img/fixation3.jpg></div><div class='cl'><div class='vertical-center'>$1<br>for<br>sure</div></div><div class='cr'><div class='vertical-center'><font style='color:orange'>$30<br>with a<br>50% chance</font></div></div><div class='respDivL'><div class='vertical-center'>(E)</div></div><div class='respDivR'><div class='vertical-center'><font style='color:orange'>(I)</font></div></div></div>","null","$1","$30","0","1","30",""
"html-keyboard-response","85","82793","0.0-5.0-1.27","63bef4ddef5b4d7295effbbd","bdp_rd","Tue Mar 28 2023 14:21:54 GMT-0500 (Central Daylight Time)","135331","","null","","","","FIX","","<div class='trialBorder'><div class='vertical-center'><img style='vertical-align:center; align:center' src=img/fixation3.jpg></div></div>","null","","","","","",""
"html-keyboard-response","86","83734","0.0-5.0-2.27","63bef4ddef5b4d7295effbbd","bdp_rd","Tue Mar 28 2023 14:21:54 GMT-0500 (Central Daylight Time)","135331","","940","","","","offer","","<div class='trialBorder'><div class='vertical-center'><img style='vertical-align:center; align:center' src=img/fixation3.jpg></div><div class='cl'><div class='vertical-center'>$40<br>for<br>sure</div></div><div class='cr'><div class='vertical-center'>$95<br>with a<br>50% chance</div></div><div class='respDivL'><div class='vertical-center'>(E)</div></div><div class='respDivR'><div class='vertical-center'>(I)</div></div></div>","I","$40","$95","0","40","95","RISKY"
"html-keyboard-response","87","83987","0.0-5.0-3.27","63bef4ddef5b4d7295effbbd","bdp_rd","Tue Mar 28 2023 14:21:54 GMT-0500 (Central Daylight Time)","135331","","null","","","","offerFB","","<div class='trialBorder'><div class='vertical-center'><img style='vertical-align:center; align:center' src=img/fixation3.jpg></div><div class='cl'><div class='vertical-center'>$40<br>for<br>sure</div></div><div class='cr'><div class='vertical-center'><font style='color:orange'>$95<br>with a<br>50% chance</font></div></div><div class='respDivL'><div class='vertical-center'>(E)</div></div><div class='respDivR'><div class='vertical-center'><font style='color:orange'>(I)</font></div></div></div>","null","$40","$95","0","40","95",""
"html-keyboard-response","88","84490","0.0-5.0-1.28","63bef4ddef5b4d7295effbbd","bdp_rd","Tue Mar 28 2023 14:21:54 GMT-0500 (Central Daylight Time)","135331","","null","","","","FIX","","<div class='trialBorder'><div class='vertical-center'><img style='vertical-align:center; align:center' src=img/fixation3.jpg></div></div>","null","","","","","",""
"html-keyboard-response","89","85396","0.0-5.0-2.28","63bef4ddef5b4d7295effbbd","bdp_rd","Tue Mar 28 2023 14:21:54 GMT-0500 (Central Daylight Time)","135331","","906","","","","offer","","<div class='trialBorder'><div class='vertical-center'><img style='vertical-align:center; align:center' src=img/fixation3.jpg></div><div class='cl'><div class='vertical-center'>$14<br>for<br>sure</div></div><div class='cr'><div class='vertical-center'>$29<br>with a<br>50% chance</div></div><div class='respDivL'><div class='vertical-center'>(E)</div></div><div class='respDivR'><div class='vertical-center'>(I)</div></div></div>","E","$14","$29","0","14","29","SURE"
"html-keyboard-response","90","85647","0.0-5.0-3.28","63bef4ddef5b4d7295effbbd","bdp_rd","Tue Mar 28 2023 14:21:54 GMT-0500 (Central Daylight Time)","135331","","null","","","","offerFB","","<div class='trialBorder'><div class='vertical-center'><img style='vertical-align:center; align:center' src=img/fixation3.jpg></div><div class='cl'><div class='vertical-center'><font style='color:orange'>$14<br>for<br>sure</font></div></div><div class='cr'><div class='vertical-center'>$29<br>with a<br>50% chance</div></div><div class='respDivL'><div class='vertical-center'><font style='color:orange'>(E)</font></div></div><div class='respDivR'><div class='vertical-center'>(I)</div></div></div>","null","$14","$29","0","14","29",""
"html-keyboard-response","91","86148","0.0-5.0-1.29","63bef4ddef5b4d7295effbbd","bdp_rd","Tue Mar 28 2023 14:21:54 GMT-0500 (Central Daylight Time)","135331","","null","","","","FIX","","<div class='trialBorder'><div class='vertical-center'><img style='vertical-align:center; align:center' src=img/fixation3.jpg></div></div>","null","","","","","",""
"html-keyboard-response","92","86924","0.0-5.0-2.29","63bef4ddef5b4d7295effbbd","bdp_rd","Tue Mar 28 2023 14:21:54 GMT-0500 (Central Daylight Time)","135331","","774","","","","offer","","<div class='trialBorder'><div class='vertical-center'><img style='vertical-align:center; align:center' src=img/fixation3.jpg></div><div class='cl'><div class='vertical-center'>$11<br>for<br>sure</div></div><div class='cr'><div class='vertical-center'>$26<br>with a<br>50% chance</div></div><div class='respDivL'><div class='vertical-center'>(E)</div></div><div class='respDivR'><div class='vertical-center'>(I)</div></div></div>","I","$11","$26","0","11","26","RISKY"
"html-keyboard-response","93","87190","0.0-5.0-3.29","63bef4ddef5b4d7295effbbd","bdp_rd","Tue Mar 28 2023 14:21:54 GMT-0500 (Central Daylight Time)","135331","","null","","","","offerFB","","<div class='trialBorder'><div class='vertical-center'><img style='vertical-align:center; align:center' src=img/fixation3.jpg></div><div class='cl'><div class='vertical-center'>$11<br>for<br>sure</div></div><div class='cr'><div class='vertical-center'><font style='color:orange'>$26<br>with a<br>50% chance</font></div></div><div class='respDivL'><div class='vertical-center'>(E)</div></div><div class='respDivR'><div class='vertical-center'><font style='color:orange'>(I)</font></div></div></div>","null","$11","$26","0","11","26",""
"html-keyboard-response","94","87693","0.0-5.0-1.30","63bef4ddef5b4d7295effbbd","bdp_rd","Tue Mar 28 2023 14:21:54 GMT-0500 (Central Daylight Time)","135331","","null","","","","FIX","","<div class='trialBorder'><div class='vertical-center'><img style='vertical-align:center; align:center' src=img/fixation3.jpg></div></div>","null","","","","","",""
"html-keyboard-response","95","88549","0.0-5.0-2.30","63bef4ddef5b4d7295effbbd","bdp_rd","Tue Mar 28 2023 14:21:54 GMT-0500 (Central Daylight Time)","135331","","854","","","","offer","","<div class='trialBorder'><div class='vertical-center'><img style='vertical-align:center; align:center' src=img/fixation3.jpg></div><div class='cl'><div class='vertical-center'>$6<br>for<br>sure</div></div><div class='cr'><div class='vertical-center'>$15<br>with a<br>50% chance</div></div><div class='respDivL'><div class='vertical-center'>(E)</div></div><div class='respDivR'><div class='vertical-center'>(I)</div></div></div>","I","$6","$15","0","6","15","RISKY"
"html-keyboard-response","96","88801","0.0-5.0-3.30","63bef4ddef5b4d7295effbbd","bdp_rd","Tue Mar 28 2023 14:21:54 GMT-0500 (Central Daylight Time)","135331","","null","","","","offerFB","","<div class='trialBorder'><div class='vertical-center'><img style='vertical-align:center; align:center' src=img/fixation3.jpg></div><div class='cl'><div class='vertical-center'>$6<br>for<br>sure</div></div><div class='cr'><div class='vertical-center'><font style='color:orange'>$15<br>with a<br>50% chance</font></div></div><div class='respDivL'><div class='vertical-center'>(E)</div></div><div class='respDivR'><div class='vertical-center'><font style='color:orange'>(I)</font></div></div></div>","null","$6","$15","0","6","15",""
"html-keyboard-response","97","89303","0.0-5.0-1.31","63bef4ddef5b4d7295effbbd","bdp_rd","Tue Mar 28 2023 14:21:54 GMT-0500 (Central Daylight Time)","135331","","null","","","","FIX","","<div class='trialBorder'><div class='vertical-center'><img style='vertical-align:center; align:center' src=img/fixation3.jpg></div></div>","null","","","","","",""
"html-keyboard-response","98","90180","0.0-5.0-2.31","63bef4ddef5b4d7295effbbd","bdp_rd","Tue Mar 28 2023 14:21:54 GMT-0500 (Central Daylight Time)","135331","","877","","","","offer","","<div class='trialBorder'><div class='vertical-center'><img style='vertical-align:center; align:center' src=img/fixation3.jpg></div><div class='cl'><div class='vertical-center'>$38<br>with a<br>50% chance</div></div><div class='cr'><div class='vertical-center'>$16<br>for<br>sure</div></div><div class='respDivL'><div class='vertical-center'>(E)</div></div><div class='respDivR'><div class='vertical-center'>(I)</div></div></div>","E","$16","$38","1","16","38","RISKY"
"html-keyboard-response","99","90432","0.0-5.0-3.31","63bef4ddef5b4d7295effbbd","bdp_rd","Tue Mar 28 2023 14:21:54 GMT-0500 (Central Daylight Time)","135331","","null","","","","offerFB","","<div class='trialBorder'><div class='vertical-center'><img style='vertical-align:center; align:center' src=img/fixation3.jpg></div><div class='cl'><div class='vertical-center'><font style='color:orange'>$38<br>with a<br>50% chance</font></div></div><div class='cr'><div class='vertical-center'>$16<br>for<br>sure</div></div><div class='respDivL'><div class='vertical-center'><font style='color:orange'>(E)</font></div></div><div class='respDivR'><div class='vertical-center'>(I)</div></div></div>","null","$16","$38","1","16","38",""
"html-keyboard-response","100","90934","0.0-5.0-1.32","63bef4ddef5b4d7295effbbd","bdp_rd","Tue Mar 28 2023 14:21:54 GMT-0500 (Central Daylight Time)","135331","","null","","","","FIX","","<div class='trialBorder'><div class='vertical-center'><img style='vertical-align:center; align:center' src=img/fixation3.jpg></div></div>","null","","","","","",""
"html-keyboard-response","101","91605","0.0-5.0-2.32","63bef4ddef5b4d7295effbbd","bdp_rd","Tue Mar 28 2023 14:21:54 GMT-0500 (Central Daylight Time)","135331","","670","","","","offer","","<div class='trialBorder'><div class='vertical-center'><img style='vertical-align:center; align:center' src=img/fixation3.jpg></div><div class='cl'><div class='vertical-center'>$66<br>with a<br>50% chance</div></div><div class='cr'><div class='vertical-center'>$33<br>for<br>sure</div></div><div class='respDivL'><div class='vertical-center'>(E)</div></div><div class='respDivR'><div class='vertical-center'>(I)</div></div></div>","E","$33","$66","1","33","66","RISKY"
"html-keyboard-response","102","91857","0.0-5.0-3.32","63bef4ddef5b4d7295effbbd","bdp_rd","Tue Mar 28 2023 14:21:54 GMT-0500 (Central Daylight Time)","135331","","null","","","","offerFB","","<div class='trialBorder'><div class='vertical-center'><img style='vertical-align:center; align:center' src=img/fixation3.jpg></div><div class='cl'><div class='vertical-center'><font style='color:orange'>$66<br>with a<br>50% chance</font></div></div><div class='cr'><div class='vertical-center'>$33<br>for<br>sure</div></div><div class='respDivL'><div class='vertical-center'><font style='color:orange'>(E)</font></div></div><div class='respDivR'><div class='vertical-center'>(I)</div></div></div>","null","$33","$66","1","33","66",""
"html-keyboard-response","103","92360","0.0-5.0-1.33","63bef4ddef5b4d7295effbbd","bdp_rd","Tue Mar 28 2023 14:21:54 GMT-0500 (Central Daylight Time)","135331","","null","","","","FIX","","<div class='trialBorder'><div class='vertical-center'><img style='vertical-align:center; align:center' src=img/fixation3.jpg></div></div>","null","","","","","",""
"html-keyboard-response","104","93077","0.0-5.0-2.33","63bef4ddef5b4d7295effbbd","bdp_rd","Tue Mar 28 2023 14:21:54 GMT-0500 (Central Daylight Time)","135331","","716","","","","offer","","<div class='trialBorder'><div class='vertical-center'><img style='vertical-align:center; align:center' src=img/fixation3.jpg></div><div class='cl'><div class='vertical-center'>$27<br>for<br>sure</div></div><div class='cr'><div class='vertical-center'>$47<br>with a<br>50% chance</div></div><div class='respDivL'><div class='vertical-center'>(E)</div></div><div class='respDivR'><div class='vertical-center'>(I)</div></div></div>","I","$27","$47","0","27","47","RISKY"
"html-keyboard-response","105","93329","0.0-5.0-3.33","63bef4ddef5b4d7295effbbd","bdp_rd","Tue Mar 28 2023 14:21:54 GMT-0500 (Central Daylight Time)","135331","","null","","","","offerFB","","<div class='trialBorder'><div class='vertical-center'><img style='vertical-align:center; align:center' src=img/fixation3.jpg></div><div class='cl'><div class='vertical-center'>$27<br>for<br>sure</div></div><div class='cr'><div class='vertical-center'><font style='color:orange'>$47<br>with a<br>50% chance</font></div></div><div class='respDivL'><div class='vertical-center'>(E)</div></div><div class='respDivR'><div class='vertical-center'><font style='color:orange'>(I)</font></div></div></div>","null","$27","$47","0","27","47",""
"html-keyboard-response","106","93831","0.0-5.0-1.34","63bef4ddef5b4d7295effbbd","bdp_rd","Tue Mar 28 2023 14:21:54 GMT-0500 (Central Daylight Time)","135331","","null","","","","FIX","","<div class='trialBorder'><div class='vertical-center'><img style='vertical-align:center; align:center' src=img/fixation3.jpg></div></div>","null","","","","","",""
"html-keyboard-response","107","94597","0.0-5.0-2.34","63bef4ddef5b4d7295effbbd","bdp_rd","Tue Mar 28 2023 14:21:54 GMT-0500 (Central Daylight Time)","135331","","765","","","","offer","","<div class='trialBorder'><div class='vertical-center'><img style='vertical-align:center; align:center' src=img/fixation3.jpg></div><div class='cl'><div class='vertical-center'>$13<br>with a<br>50% chance</div></div><div class='cr'><div class='vertical-center'>$6<br>for<br>sure</div></div><div class='respDivL'><div class='vertical-center'>(E)</div></div><div class='respDivR'><div class='vertical-center'>(I)</div></div></div>","E","$6","$13","1","6","13","RISKY"
"html-keyboard-response","108","94849","0.0-5.0-3.34","63bef4ddef5b4d7295effbbd","bdp_rd","Tue Mar 28 2023 14:21:54 GMT-0500 (Central Daylight Time)","135331","","null","","","","offerFB","","<div class='trialBorder'><div class='vertical-center'><img style='vertical-align:center; align:center' src=img/fixation3.jpg></div><div class='cl'><div class='vertical-center'><font style='color:orange'>$13<br>with a<br>50% chance</font></div></div><div class='cr'><div class='vertical-center'>$6<br>for<br>sure</div></div><div class='respDivL'><div class='vertical-center'><font style='color:orange'>(E)</font></div></div><div class='respDivR'><div class='vertical-center'>(I)</div></div></div>","null","$6","$13","1","6","13",""
"html-keyboard-response","109","95350","0.0-5.0-1.35","63bef4ddef5b4d7295effbbd","bdp_rd","Tue Mar 28 2023 14:21:54 GMT-0500 (Central Daylight Time)","135331","","null","","","","FIX","","<div class='trialBorder'><div class='vertical-center'><img style='vertical-align:center; align:center' src=img/fixation3.jpg></div></div>","null","","","","","",""
"html-keyboard-response","110","96414","0.0-5.0-2.35","63bef4ddef5b4d7295effbbd","bdp_rd","Tue Mar 28 2023 14:21:54 GMT-0500 (Central Daylight Time)","135331","","1063","","","","offer","","<div class='trialBorder'><div class='vertical-center'><img style='vertical-align:center; align:center' src=img/fixation3.jpg></div><div class='cl'><div class='vertical-center'>$15<br>for<br>sure</div></div><div class='cr'><div class='vertical-center'>$34<br>with a<br>50% chance</div></div><div class='respDivL'><div class='vertical-center'>(E)</div></div><div class='respDivR'><div class='vertical-center'>(I)</div></div></div>","I","$15","$34","0","15","34","RISKY"
"html-keyboard-response","111","96666","0.0-5.0-3.35","63bef4ddef5b4d7295effbbd","bdp_rd","Tue Mar 28 2023 14:21:54 GMT-0500 (Central Daylight Time)","135331","","null","","","","offerFB","","<div class='trialBorder'><div class='vertical-center'><img style='vertical-align:center; align:center' src=img/fixation3.jpg></div><div class='cl'><div class='vertical-center'>$15<br>for<br>sure</div></div><div class='cr'><div class='vertical-center'><font style='color:orange'>$34<br>with a<br>50% chance</font></div></div><div class='respDivL'><div class='vertical-center'>(E)</div></div><div class='respDivR'><div class='vertical-center'><font style='color:orange'>(I)</font></div></div></div>","null","$15","$34","0","15","34",""
"html-keyboard-response","112","97167","0.0-5.0-1.36","63bef4ddef5b4d7295effbbd","bdp_rd","Tue Mar 28 2023 14:21:54 GMT-0500 (Central Daylight Time)","135331","","null","","","","FIX","","<div class='trialBorder'><div class='vertical-center'><img style='vertical-align:center; align:center' src=img/fixation3.jpg></div></div>","null","","","","","",""
"html-keyboard-response","113","98125","0.0-5.0-2.36","63bef4ddef5b4d7295effbbd","bdp_rd","Tue Mar 28 2023 14:21:54 GMT-0500 (Central Daylight Time)","135331","","956","","","","offer","","<div class='trialBorder'><div class='vertical-center'><img style='vertical-align:center; align:center' src=img/fixation3.jpg></div><div class='cl'><div class='vertical-center'>$27<br>with a<br>50% chance</div></div><div class='cr'><div class='vertical-center'>$12<br>for<br>sure</div></div><div class='respDivL'><div class='vertical-center'>(E)</div></div><div class='respDivR'><div class='vertical-center'>(I)</div></div></div>","E","$12","$27","1","12","27","RISKY"
"html-keyboard-response","114","98391","0.0-5.0-3.36","63bef4ddef5b4d7295effbbd","bdp_rd","Tue Mar 28 2023 14:21:54 GMT-0500 (Central Daylight Time)","135331","","null","","","","offerFB","","<div class='trialBorder'><div class='vertical-center'><img style='vertical-align:center; align:center' src=img/fixation3.jpg></div><div class='cl'><div class='vertical-center'><font style='color:orange'>$27<br>with a<br>50% chance</font></div></div><div class='cr'><div class='vertical-center'>$12<br>for<br>sure</div></div><div class='respDivL'><div class='vertical-center'><font style='color:orange'>(E)</font></div></div><div class='respDivR'><div class='vertical-center'>(I)</div></div></div>","null","$12","$27","1","12","27",""
"html-keyboard-response","115","98893","0.0-5.0-1.37","63bef4ddef5b4d7295effbbd","bdp_rd","Tue Mar 28 2023 14:21:54 GMT-0500 (Central Daylight Time)","135331","","null","","","","FIX","","<div class='trialBorder'><div class='vertical-center'><img style='vertical-align:center; align:center' src=img/fixation3.jpg></div></div>","null","","","","","",""
"html-keyboard-response","116","99588","0.0-5.0-2.37","63bef4ddef5b4d7295effbbd","bdp_rd","Tue Mar 28 2023 14:21:54 GMT-0500 (Central Daylight Time)","135331","","695","","","","offer","","<div class='trialBorder'><div class='vertical-center'><img style='vertical-align:center; align:center' src=img/fixation3.jpg></div><div class='cl'><div class='vertical-center'>$1<br>for<br>sure</div></div><div class='cr'><div class='vertical-center'>$33<br>with a<br>50% chance</div></div><div class='respDivL'><div class='vertical-center'>(E)</div></div><div class='respDivR'><div class='vertical-center'>(I)</div></div></div>","I","$1","$33","0","1","33","RISKY"
"html-keyboard-response","117","99839","0.0-5.0-3.37","63bef4ddef5b4d7295effbbd","bdp_rd","Tue Mar 28 2023 14:21:54 GMT-0500 (Central Daylight Time)","135331","","null","","","","offerFB","","<div class='trialBorder'><div class='vertical-center'><img style='vertical-align:center; align:center' src=img/fixation3.jpg></div><div class='cl'><div class='vertical-center'>$1<br>for<br>sure</div></div><div class='cr'><div class='vertical-center'><font style='color:orange'>$33<br>with a<br>50% chance</font></div></div><div class='respDivL'><div class='vertical-center'>(E)</div></div><div class='respDivR'><div class='vertical-center'><font style='color:orange'>(I)</font></div></div></div>","null","$1","$33","0","1","33",""
"html-keyboard-response","118","100341","0.0-5.0-1.38","63bef4ddef5b4d7295effbbd","bdp_rd","Tue Mar 28 2023 14:21:54 GMT-0500 (Central Daylight Time)","135331","","null","","","","FIX","","<div class='trialBorder'><div class='vertical-center'><img style='vertical-align:center; align:center' src=img/fixation3.jpg></div></div>","null","","","","","",""
"html-keyboard-response","119","101148","0.0-5.0-2.38","63bef4ddef5b4d7295effbbd","bdp_rd","Tue Mar 28 2023 14:21:54 GMT-0500 (Central Daylight Time)","135331","","806","","","","offer","","<div class='trialBorder'><div class='vertical-center'><img style='vertical-align:center; align:center' src=img/fixation3.jpg></div><div class='cl'><div class='vertical-center'>$37<br>with a<br>50% chance</div></div><div class='cr'><div class='vertical-center'>$20<br>for<br>sure</div></div><div class='respDivL'><div class='vertical-center'>(E)</div></div><div class='respDivR'><div class='vertical-center'>(I)</div></div></div>","E","$20","$37","1","20","37","RISKY"
"html-keyboard-response","120","101401","0.0-5.0-3.38","63bef4ddef5b4d7295effbbd","bdp_rd","Tue Mar 28 2023 14:21:54 GMT-0500 (Central Daylight Time)","135331","","null","","","","offerFB","","<div class='trialBorder'><div class='vertical-center'><img style='vertical-align:center; align:center' src=img/fixation3.jpg></div><div class='cl'><div class='vertical-center'><font style='color:orange'>$37<br>with a<br>50% chance</font></div></div><div class='cr'><div class='vertical-center'>$20<br>for<br>sure</div></div><div class='respDivL'><div class='vertical-center'><font style='color:orange'>(E)</font></div></div><div class='respDivR'><div class='vertical-center'>(I)</div></div></div>","null","$20","$37","1","20","37",""
"html-keyboard-response","121","101903","0.0-5.0-1.39","63bef4ddef5b4d7295effbbd","bdp_rd","Tue Mar 28 2023 14:21:54 GMT-0500 (Central Daylight Time)","135331","","null","","","","FIX","","<div class='trialBorder'><div class='vertical-center'><img style='vertical-align:center; align:center' src=img/fixation3.jpg></div></div>","null","","","","","",""
"html-keyboard-response","122","102958","0.0-5.0-2.39","63bef4ddef5b4d7295effbbd","bdp_rd","Tue Mar 28 2023 14:21:54 GMT-0500 (Central Daylight Time)","135331","","1055","","","","offer","","<div class='trialBorder'><div class='vertical-center'><img style='vertical-align:center; align:center' src=img/fixation3.jpg></div><div class='cl'><div class='vertical-center'>$70<br>with a<br>50% chance</div></div><div class='cr'><div class='vertical-center'>$24<br>for<br>sure</div></div><div class='respDivL'><div class='vertical-center'>(E)</div></div><div class='respDivR'><div class='vertical-center'>(I)</div></div></div>","E","$24","$70","1","24","70","RISKY"
"html-keyboard-response","123","103210","0.0-5.0-3.39","63bef4ddef5b4d7295effbbd","bdp_rd","Tue Mar 28 2023 14:21:54 GMT-0500 (Central Daylight Time)","135331","","null","","","","offerFB","","<div class='trialBorder'><div class='vertical-center'><img style='vertical-align:center; align:center' src=img/fixation3.jpg></div><div class='cl'><div class='vertical-center'><font style='color:orange'>$70<br>with a<br>50% chance</font></div></div><div class='cr'><div class='vertical-center'>$24<br>for<br>sure</div></div><div class='respDivL'><div class='vertical-center'><font style='color:orange'>(E)</font></div></div><div class='respDivR'><div class='vertical-center'>(I)</div></div></div>","null","$24","$70","1","24","70",""
"html-keyboard-response","124","103711","0.0-5.0-1.40","63bef4ddef5b4d7295effbbd","bdp_rd","Tue Mar 28 2023 14:21:54 GMT-0500 (Central Daylight Time)","135331","","null","","","","FIX","","<div class='trialBorder'><div class='vertical-center'><img style='vertical-align:center; align:center' src=img/fixation3.jpg></div></div>","null","","","","","",""
"html-keyboard-response","125","104660","0.0-5.0-2.40","63bef4ddef5b4d7295effbbd","bdp_rd","Tue Mar 28 2023 14:21:54 GMT-0500 (Central Daylight Time)","135331","","947","","","","offer","","<div class='trialBorder'><div class='vertical-center'><img style='vertical-align:center; align:center' src=img/fixation3.jpg></div><div class='cl'><div class='vertical-center'>$10<br>with a<br>50% chance</div></div><div class='cr'><div class='vertical-center'>$7<br>for<br>sure</div></div><div class='respDivL'><div class='vertical-center'>(E)</div></div><div class='respDivR'><div class='vertical-center'>(I)</div></div></div>","E","$7","$10","1","7","10","RISKY"
"html-keyboard-response","126","104912","0.0-5.0-3.40","63bef4ddef5b4d7295effbbd","bdp_rd","Tue Mar 28 2023 14:21:54 GMT-0500 (Central Daylight Time)","135331","","null","","","","offerFB","","<div class='trialBorder'><div class='vertical-center'><img style='vertical-align:center; align:center' src=img/fixation3.jpg></div><div class='cl'><div class='vertical-center'><font style='color:orange'>$10<br>with a<br>50% chance</font></div></div><div class='cr'><div class='vertical-center'>$7<br>for<br>sure</div></div><div class='respDivL'><div class='vertical-center'><font style='color:orange'>(E)</font></div></div><div class='respDivR'><div class='vertical-center'>(I)</div></div></div>","null","$7","$10","1","7","10",""
"html-keyboard-response","127","105414","0.0-5.0-1.41","63bef4ddef5b4d7295effbbd","bdp_rd","Tue Mar 28 2023 14:21:54 GMT-0500 (Central Daylight Time)","135331","","null","","","","FIX","","<div class='trialBorder'><div class='vertical-center'><img style='vertical-align:center; align:center' src=img/fixation3.jpg></div></div>","null","","","","","",""
"html-keyboard-response","128","106565","0.0-5.0-2.41","63bef4ddef5b4d7295effbbd","bdp_rd","Tue Mar 28 2023 14:21:54 GMT-0500 (Central Daylight Time)","135331","","1150","","","","offer","","<div class='trialBorder'><div class='vertical-center'><img style='vertical-align:center; align:center' src=img/fixation3.jpg></div><div class='cl'><div class='vertical-center'>$16<br>for<br>sure</div></div><div class='cr'><div class='vertical-center'>$28<br>with a<br>50% chance</div></div><div class='respDivL'><div class='vertical-center'>(E)</div></div><div class='respDivR'><div class='vertical-center'>(I)</div></div></div>","I","$16","$28","0","16","28","RISKY"
"html-keyboard-response","129","106818","0.0-5.0-3.41","63bef4ddef5b4d7295effbbd","bdp_rd","Tue Mar 28 2023 14:21:54 GMT-0500 (Central Daylight Time)","135331","","null","","","","offerFB","","<div class='trialBorder'><div class='vertical-center'><img style='vertical-align:center; align:center' src=img/fixation3.jpg></div><div class='cl'><div class='vertical-center'>$16<br>for<br>sure</div></div><div class='cr'><div class='vertical-center'><font style='color:orange'>$28<br>with a<br>50% chance</font></div></div><div class='respDivL'><div class='vertical-center'>(E)</div></div><div class='respDivR'><div class='vertical-center'><font style='color:orange'>(I)</font></div></div></div>","null","$16","$28","0","16","28",""
"html-keyboard-response","130","107320","0.0-5.0-1.42","63bef4ddef5b4d7295effbbd","bdp_rd","Tue Mar 28 2023 14:21:54 GMT-0500 (Central Daylight Time)","135331","","null","","","","FIX","","<div class='trialBorder'><div class='vertical-center'><img style='vertical-align:center; align:center' src=img/fixation3.jpg></div></div>","null","","","","","",""
"html-keyboard-response","131","108134","0.0-5.0-2.42","63bef4ddef5b4d7295effbbd","bdp_rd","Tue Mar 28 2023 14:21:54 GMT-0500 (Central Daylight Time)","135331","","814","","","","offer","","<div class='trialBorder'><div class='vertical-center'><img style='vertical-align:center; align:center' src=img/fixation3.jpg></div><div class='cl'><div class='vertical-center'>$2<br>for<br>sure</div></div><div class='cr'><div class='vertical-center'>$21<br>with a<br>50% chance</div></div><div class='respDivL'><div class='vertical-center'>(E)</div></div><div class='respDivR'><div class='vertical-center'>(I)</div></div></div>","I","$2","$21","0","2","21","RISKY"
"html-keyboard-response","132","108388","0.0-5.0-3.42","63bef4ddef5b4d7295effbbd","bdp_rd","Tue Mar 28 2023 14:21:54 GMT-0500 (Central Daylight Time)","135331","","null","","","","offerFB","","<div class='trialBorder'><div class='vertical-center'><img style='vertical-align:center; align:center' src=img/fixation3.jpg></div><div class='cl'><div class='vertical-center'>$2<br>for<br>sure</div></div><div class='cr'><div class='vertical-center'><font style='color:orange'>$21<br>with a<br>50% chance</font></div></div><div class='respDivL'><div class='vertical-center'>(E)</div></div><div class='respDivR'><div class='vertical-center'><font style='color:orange'>(I)</font></div></div></div>","null","$2","$21","0","2","21",""
"html-keyboard-response","133","108889","0.0-5.0-1.43","63bef4ddef5b4d7295effbbd","bdp_rd","Tue Mar 28 2023 14:21:54 GMT-0500 (Central Daylight Time)","135331","","null","","","","FIX","","<div class='trialBorder'><div class='vertical-center'><img style='vertical-align:center; align:center' src=img/fixation3.jpg></div></div>","null","","","","","",""
"html-keyboard-response","134","111092","0.0-5.0-2.43","63bef4ddef5b4d7295effbbd","bdp_rd","Tue Mar 28 2023 14:21:54 GMT-0500 (Central Daylight Time)","135331","","2202","","","","offer","","<div class='trialBorder'><div class='vertical-center'><img style='vertical-align:center; align:center' src=img/fixation3.jpg></div><div class='cl'><div class='vertical-center'>$9<br>for<br>sure</div></div><div class='cr'><div class='vertical-center'>$32<br>with a<br>50% chance</div></div><div class='respDivL'><div class='vertical-center'>(E)</div></div><div class='respDivR'><div class='vertical-center'>(I)</div></div></div>","I","$9","$32","0","9","32","RISKY"
"html-keyboard-response","135","111343","0.0-5.0-3.43","63bef4ddef5b4d7295effbbd","bdp_rd","Tue Mar 28 2023 14:21:54 GMT-0500 (Central Daylight Time)","135331","","null","","","","offerFB","","<div class='trialBorder'><div class='vertical-center'><img style='vertical-align:center; align:center' src=img/fixation3.jpg></div><div class='cl'><div class='vertical-center'>$9<br>for<br>sure</div></div><div class='cr'><div class='vertical-center'><font style='color:orange'>$32<br>with a<br>50% chance</font></div></div><div class='respDivL'><div class='vertical-center'>(E)</div></div><div class='respDivR'><div class='vertical-center'><font style='color:orange'>(I)</font></div></div></div>","null","$9","$32","0","9","32",""
"html-keyboard-response","136","111846","0.0-5.0-1.44","63bef4ddef5b4d7295effbbd","bdp_rd","Tue Mar 28 2023 14:21:54 GMT-0500 (Central Daylight Time)","135331","","null","","","","FIX","","<div class='trialBorder'><div class='vertical-center'><img style='vertical-align:center; align:center' src=img/fixation3.jpg></div></div>","null","","","","","",""
"html-keyboard-response","137","112373","0.0-5.0-2.44","63bef4ddef5b4d7295effbbd","bdp_rd","Tue Mar 28 2023 14:21:54 GMT-0500 (Central Daylight Time)","135331","","527","","","","offer","","<div class='trialBorder'><div class='vertical-center'><img style='vertical-align:center; align:center' src=img/fixation3.jpg></div><div class='cl'><div class='vertical-center'>$8<br>for<br>sure</div></div><div class='cr'><div class='vertical-center'>$23<br>with a<br>50% chance</div></div><div class='respDivL'><div class='vertical-center'>(E)</div></div><div class='respDivR'><div class='vertical-center'>(I)</div></div></div>","I","$8","$23","0","8","23","RISKY"
"html-keyboard-response","138","112625","0.0-5.0-3.44","63bef4ddef5b4d7295effbbd","bdp_rd","Tue Mar 28 2023 14:21:54 GMT-0500 (Central Daylight Time)","135331","","null","","","","offerFB","","<div class='trialBorder'><div class='vertical-center'><img style='vertical-align:center; align:center' src=img/fixation3.jpg></div><div class='cl'><div class='vertical-center'>$8<br>for<br>sure</div></div><div class='cr'><div class='vertical-center'><font style='color:orange'>$23<br>with a<br>50% chance</font></div></div><div class='respDivL'><div class='vertical-center'>(E)</div></div><div class='respDivR'><div class='vertical-center'><font style='color:orange'>(I)</font></div></div></div>","null","$8","$23","0","8","23",""
"html-keyboard-response","139","113127","0.0-5.0-1.45","63bef4ddef5b4d7295effbbd","bdp_rd","Tue Mar 28 2023 14:21:54 GMT-0500 (Central Daylight Time)","135331","","null","","","","FIX","","<div class='trialBorder'><div class='vertical-center'><img style='vertical-align:center; align:center' src=img/fixation3.jpg></div></div>","null","","","","","",""
"html-keyboard-response","140","113661","0.0-5.0-2.45","63bef4ddef5b4d7295effbbd","bdp_rd","Tue Mar 28 2023 14:21:54 GMT-0500 (Central Daylight Time)","135331","","533","","","","offer","","<div class='trialBorder'><div class='vertical-center'><img style='vertical-align:center; align:center' src=img/fixation3.jpg></div><div class='cl'><div class='vertical-center'>$17<br>for<br>sure</div></div><div class='cr'><div class='vertical-center'>$43<br>with a<br>50% chance</div></div><div class='respDivL'><div class='vertical-center'>(E)</div></div><div class='respDivR'><div class='vertical-center'>(I)</div></div></div>","I","$17","$43","0","17","43","RISKY"
"html-keyboard-response","141","113913","0.0-5.0-3.45","63bef4ddef5b4d7295effbbd","bdp_rd","Tue Mar 28 2023 14:21:54 GMT-0500 (Central Daylight Time)","135331","","null","","","","offerFB","","<div class='trialBorder'><div class='vertical-center'><img style='vertical-align:center; align:center' src=img/fixation3.jpg></div><div class='cl'><div class='vertical-center'>$17<br>for<br>sure</div></div><div class='cr'><div class='vertical-center'><font style='color:orange'>$43<br>with a<br>50% chance</font></div></div><div class='respDivL'><div class='vertical-center'>(E)</div></div><div class='respDivR'><div class='vertical-center'><font style='color:orange'>(I)</font></div></div></div>","null","$17","$43","0","17","43",""
"html-keyboard-response","142","114414","0.0-5.0-1.46","63bef4ddef5b4d7295effbbd","bdp_rd","Tue Mar 28 2023 14:21:54 GMT-0500 (Central Daylight Time)","135331","","null","","","","FIX","","<div class='trialBorder'><div class='vertical-center'><img style='vertical-align:center; align:center' src=img/fixation3.jpg></div></div>","null","","","","","",""
"html-keyboard-response","143","115244","0.0-5.0-2.46","63bef4ddef5b4d7295effbbd","bdp_rd","Tue Mar 28 2023 14:21:54 GMT-0500 (Central Daylight Time)","135331","","829","","","","offer","","<div class='trialBorder'><div class='vertical-center'><img style='vertical-align:center; align:center' src=img/fixation3.jpg></div><div class='cl'><div class='vertical-center'>$98<br>with a<br>50% chance</div></div><div class='cr'><div class='vertical-center'>$53<br>for<br>sure</div></div><div class='respDivL'><div class='vertical-center'>(E)</div></div><div class='respDivR'><div class='vertical-center'>(I)</div></div></div>","E","$53","$98","1","53","98","RISKY"
"html-keyboard-response","144","115496","0.0-5.0-3.46","63bef4ddef5b4d7295effbbd","bdp_rd","Tue Mar 28 2023 14:21:54 GMT-0500 (Central Daylight Time)","135331","","null","","","","offerFB","","<div class='trialBorder'><div class='vertical-center'><img style='vertical-align:center; align:center' src=img/fixation3.jpg></div><div class='cl'><div class='vertical-center'><font style='color:orange'>$98<br>with a<br>50% chance</font></div></div><div class='cr'><div class='vertical-center'>$53<br>for<br>sure</div></div><div class='respDivL'><div class='vertical-center'><font style='color:orange'>(E)</font></div></div><div class='respDivR'><div class='vertical-center'>(I)</div></div></div>","null","$53","$98","1","53","98",""
"html-keyboard-response","145","115997","0.0-5.0-1.47","63bef4ddef5b4d7295effbbd","bdp_rd","Tue Mar 28 2023 14:21:54 GMT-0500 (Central Daylight Time)","135331","","null","","","","FIX","","<div class='trialBorder'><div class='vertical-center'><img style='vertical-align:center; align:center' src=img/fixation3.jpg></div></div>","null","","","","","",""
"html-keyboard-response","146","116628","0.0-5.0-2.47","63bef4ddef5b4d7295effbbd","bdp_rd","Tue Mar 28 2023 14:21:54 GMT-0500 (Central Daylight Time)","135331","","629","","","","offer","","<div class='trialBorder'><div class='vertical-center'><img style='vertical-align:center; align:center' src=img/fixation3.jpg></div><div class='cl'><div class='vertical-center'>$48<br>with a<br>50% chance</div></div><div class='cr'><div class='vertical-center'>$34<br>for<br>sure</div></div><div class='respDivL'><div class='vertical-center'>(E)</div></div><div class='respDivR'><div class='vertical-center'>(I)</div></div></div>","E","$34","$48","1","34","48","RISKY"
"html-keyboard-response","147","116879","0.0-5.0-3.47","63bef4ddef5b4d7295effbbd","bdp_rd","Tue Mar 28 2023 14:21:54 GMT-0500 (Central Daylight Time)","135331","","null","","","","offerFB","","<div class='trialBorder'><div class='vertical-center'><img style='vertical-align:center; align:center' src=img/fixation3.jpg></div><div class='cl'><div class='vertical-center'><font style='color:orange'>$48<br>with a<br>50% chance</font></div></div><div class='cr'><div class='vertical-center'>$34<br>for<br>sure</div></div><div class='respDivL'><div class='vertical-center'><font style='color:orange'>(E)</font></div></div><div class='respDivR'><div class='vertical-center'>(I)</div></div></div>","null","$34","$48","1","34","48",""
"html-keyboard-response","148","117380","0.0-5.0-1.48","63bef4ddef5b4d7295effbbd","bdp_rd","Tue Mar 28 2023 14:21:54 GMT-0500 (Central Daylight Time)","135331","","null","","","","FIX","","<div class='trialBorder'><div class='vertical-center'><img style='vertical-align:center; align:center' src=img/fixation3.jpg></div></div>","null","","","","","",""
"html-keyboard-response","149","118045","0.0-5.0-2.48","63bef4ddef5b4d7295effbbd","bdp_rd","Tue Mar 28 2023 14:21:54 GMT-0500 (Central Daylight Time)","135331","","663","","","","offer","","<div class='trialBorder'><div class='vertical-center'><img style='vertical-align:center; align:center' src=img/fixation3.jpg></div><div class='cl'><div class='vertical-center'>$14<br>with a<br>50% chance</div></div><div class='cr'><div class='vertical-center'>$4<br>for<br>sure</div></div><div class='respDivL'><div class='vertical-center'>(E)</div></div><div class='respDivR'><div class='vertical-center'>(I)</div></div></div>","E","$4","$14","1","4","14","RISKY"
"html-keyboard-response","150","118296","0.0-5.0-3.48","63bef4ddef5b4d7295effbbd","bdp_rd","Tue Mar 28 2023 14:21:54 GMT-0500 (Central Daylight Time)","135331","","null","","","","offerFB","","<div class='trialBorder'><div class='vertical-center'><img style='vertical-align:center; align:center' src=img/fixation3.jpg></div><div class='cl'><div class='vertical-center'><font style='color:orange'>$14<br>with a<br>50% chance</font></div></div><div class='cr'><div class='vertical-center'>$4<br>for<br>sure</div></div><div class='respDivL'><div class='vertical-center'><font style='color:orange'>(E)</font></div></div><div class='respDivR'><div class='vertical-center'>(I)</div></div></div>","null","$4","$14","1","4","14",""
"html-keyboard-response","151","118802","0.0-5.0-1.49","63bef4ddef5b4d7295effbbd","bdp_rd","Tue Mar 28 2023 14:21:54 GMT-0500 (Central Daylight Time)","135331","","null","","","","FIX","","<div class='trialBorder'><div class='vertical-center'><img style='vertical-align:center; align:center' src=img/fixation3.jpg></div></div>","null","","","","","",""
"html-keyboard-response","152","119333","0.0-5.0-2.49","63bef4ddef5b4d7295effbbd","bdp_rd","Tue Mar 28 2023 14:21:54 GMT-0500 (Central Daylight Time)","135331","","529","","","","offer","","<div class='trialBorder'><div class='vertical-center'><img style='vertical-align:center; align:center' src=img/fixation3.jpg></div><div class='cl'><div class='vertical-center'>$39<br>with a<br>50% chance</div></div><div class='cr'><div class='vertical-center'>$18<br>for<br>sure</div></div><div class='respDivL'><div class='vertical-center'>(E)</div></div><div class='respDivR'><div class='vertical-center'>(I)</div></div></div>","E","$18","$39","1","18","39","RISKY"
"html-keyboard-response","153","119585","0.0-5.0-3.49","63bef4ddef5b4d7295effbbd","bdp_rd","Tue Mar 28 2023 14:21:54 GMT-0500 (Central Daylight Time)","135331","","null","","","","offerFB","","<div class='trialBorder'><div class='vertical-center'><img style='vertical-align:center; align:center' src=img/fixation3.jpg></div><div class='cl'><div class='vertical-center'><font style='color:orange'>$39<br>with a<br>50% chance</font></div></div><div class='cr'><div class='vertical-center'>$18<br>for<br>sure</div></div><div class='respDivL'><div class='vertical-center'><font style='color:orange'>(E)</font></div></div><div class='respDivR'><div class='vertical-center'>(I)</div></div></div>","null","$18","$39","1","18","39",""
"html-keyboard-response","154","120087","0.0-5.0-1.50","63bef4ddef5b4d7295effbbd","bdp_rd","Tue Mar 28 2023 14:21:54 GMT-0500 (Central Daylight Time)","135331","","null","","","","FIX","","<div class='trialBorder'><div class='vertical-center'><img style='vertical-align:center; align:center' src=img/fixation3.jpg></div></div>","null","","","","","",""
"html-keyboard-response","155","120638","0.0-5.0-2.50","63bef4ddef5b4d7295effbbd","bdp_rd","Tue Mar 28 2023 14:21:54 GMT-0500 (Central Daylight Time)","135331","","549","","","","offer","","<div class='trialBorder'><div class='vertical-center'><img style='vertical-align:center; align:center' src=img/fixation3.jpg></div><div class='cl'><div class='vertical-center'>$71<br>with a<br>50% chance</div></div><div class='cr'><div class='vertical-center'>$7<br>for<br>sure</div></div><div class='respDivL'><div class='vertical-center'>(E)</div></div><div class='respDivR'><div class='vertical-center'>(I)</div></div></div>","E","$7","$71","1","7","71","RISKY"
"html-keyboard-response","156","120889","0.0-5.0-3.50","63bef4ddef5b4d7295effbbd","bdp_rd","Tue Mar 28 2023 14:21:54 GMT-0500 (Central Daylight Time)","135331","","null","","","","offerFB","","<div class='trialBorder'><div class='vertical-center'><img style='vertical-align:center; align:center' src=img/fixation3.jpg></div><div class='cl'><div class='vertical-center'><font style='color:orange'>$71<br>with a<br>50% chance</font></div></div><div class='cr'><div class='vertical-center'>$7<br>for<br>sure</div></div><div class='respDivL'><div class='vertical-center'><font style='color:orange'>(E)</font></div></div><div class='respDivR'><div class='vertical-center'>(I)</div></div></div>","null","$7","$71","1","7","71",""
"html-keyboard-response","157","121392","0.0-5.0-1.51","63bef4ddef5b4d7295effbbd","bdp_rd","Tue Mar 28 2023 14:21:54 GMT-0500 (Central Daylight Time)","135331","","null","","","","FIX","","<div class='trialBorder'><div class='vertical-center'><img style='vertical-align:center; align:center' src=img/fixation3.jpg></div></div>","null","","","","","",""
"html-keyboard-response","158","122223","0.0-5.0-2.51","63bef4ddef5b4d7295effbbd","bdp_rd","Tue Mar 28 2023 14:21:54 GMT-0500 (Central Daylight Time)","135331","","829","","","","offer","","<div class='trialBorder'><div class='vertical-center'><img style='vertical-align:center; align:center' src=img/fixation3.jpg></div><div class='cl'><div class='vertical-center'>$44<br>with a<br>50% chance</div></div><div class='cr'><div class='vertical-center'>$37<br>for<br>sure</div></div><div class='respDivL'><div class='vertical-center'>(E)</div></div><div class='respDivR'><div class='vertical-center'>(I)</div></div></div>","E","$37","$44","1","37","44","RISKY"
"html-keyboard-response","159","122475","0.0-5.0-3.51","63bef4ddef5b4d7295effbbd","bdp_rd","Tue Mar 28 2023 14:21:54 GMT-0500 (Central Daylight Time)","135331","","null","","","","offerFB","","<div class='trialBorder'><div class='vertical-center'><img style='vertical-align:center; align:center' src=img/fixation3.jpg></div><div class='cl'><div class='vertical-center'><font style='color:orange'>$44<br>with a<br>50% chance</font></div></div><div class='cr'><div class='vertical-center'>$37<br>for<br>sure</div></div><div class='respDivL'><div class='vertical-center'><font style='color:orange'>(E)</font></div></div><div class='respDivR'><div class='vertical-center'>(I)</div></div></div>","null","$37","$44","1","37","44",""
"html-keyboard-response","160","122977","0.0-5.0-1.52","63bef4ddef5b4d7295effbbd","bdp_rd","Tue Mar 28 2023 14:21:54 GMT-0500 (Central Daylight Time)","135331","","null","","","","FIX","","<div class='trialBorder'><div class='vertical-center'><img style='vertical-align:center; align:center' src=img/fixation3.jpg></div></div>","null","","","","","",""
"html-keyboard-response","161","123502","0.0-5.0-2.52","63bef4ddef5b4d7295effbbd","bdp_rd","Tue Mar 28 2023 14:21:54 GMT-0500 (Central Daylight Time)","135331","","523","","","","offer","","<div class='trialBorder'><div class='vertical-center'><img style='vertical-align:center; align:center' src=img/fixation3.jpg></div><div class='cl'><div class='vertical-center'>$22<br>for<br>sure</div></div><div class='cr'><div class='vertical-center'>$42<br>with a<br>50% chance</div></div><div class='respDivL'><div class='vertical-center'>(E)</div></div><div class='respDivR'><div class='vertical-center'>(I)</div></div></div>","I","$22","$42","0","22","42","RISKY"
"html-keyboard-response","162","123754","0.0-5.0-3.52","63bef4ddef5b4d7295effbbd","bdp_rd","Tue Mar 28 2023 14:21:54 GMT-0500 (Central Daylight Time)","135331","","null","","","","offerFB","","<div class='trialBorder'><div class='vertical-center'><img style='vertical-align:center; align:center' src=img/fixation3.jpg></div><div class='cl'><div class='vertical-center'>$22<br>for<br>sure</div></div><div class='cr'><div class='vertical-center'><font style='color:orange'>$42<br>with a<br>50% chance</font></div></div><div class='respDivL'><div class='vertical-center'>(E)</div></div><div class='respDivR'><div class='vertical-center'><font style='color:orange'>(I)</font></div></div></div>","null","$22","$42","0","22","42",""
"html-keyboard-response","163","124256","0.0-5.0-1.53","63bef4ddef5b4d7295effbbd","bdp_rd","Tue Mar 28 2023 14:21:54 GMT-0500 (Central Daylight Time)","135331","","null","","","","FIX","","<div class='trialBorder'><div class='vertical-center'><img style='vertical-align:center; align:center' src=img/fixation3.jpg></div></div>","null","","","","","",""
"html-keyboard-response","164","124741","0.0-5.0-2.53","63bef4ddef5b4d7295effbbd","bdp_rd","Tue Mar 28 2023 14:21:54 GMT-0500 (Central Daylight Time)","135331","","484","","","","offer","","<div class='trialBorder'><div class='vertical-center'><img style='vertical-align:center; align:center' src=img/fixation3.jpg></div><div class='cl'><div class='vertical-center'>$45<br>with a<br>50% chance</div></div><div class='cr'><div class='vertical-center'>$8<br>for<br>sure</div></div><div class='respDivL'><div class='vertical-center'>(E)</div></div><div class='respDivR'><div class='vertical-center'>(I)</div></div></div>","E","$8","$45","1","8","45","RISKY"
"html-keyboard-response","165","124994","0.0-5.0-3.53","63bef4ddef5b4d7295effbbd","bdp_rd","Tue Mar 28 2023 14:21:54 GMT-0500 (Central Daylight Time)","135331","","null","","","","offerFB","","<div class='trialBorder'><div class='vertical-center'><img style='vertical-align:center; align:center' src=img/fixation3.jpg></div><div class='cl'><div class='vertical-center'><font style='color:orange'>$45<br>with a<br>50% chance</font></div></div><div class='cr'><div class='vertical-center'>$8<br>for<br>sure</div></div><div class='respDivL'><div class='vertical-center'><font style='color:orange'>(E)</font></div></div><div class='respDivR'><div class='vertical-center'>(I)</div></div></div>","null","$8","$45","1","8","45",""
"html-keyboard-response","166","125495","0.0-5.0-1.54","63bef4ddef5b4d7295effbbd","bdp_rd","Tue Mar 28 2023 14:21:54 GMT-0500 (Central Daylight Time)","135331","","null","","","","FIX","","<div class='trialBorder'><div class='vertical-center'><img style='vertical-align:center; align:center' src=img/fixation3.jpg></div></div>","null","","","","","",""
"html-keyboard-response","167","126093","0.0-5.0-2.54","63bef4ddef5b4d7295effbbd","bdp_rd","Tue Mar 28 2023 14:21:54 GMT-0500 (Central Daylight Time)","135331","","597","","","","offer","","<div class='trialBorder'><div class='vertical-center'><img style='vertical-align:center; align:center' src=img/fixation3.jpg></div><div class='cl'><div class='vertical-center'>$31<br>for<br>sure</div></div><div class='cr'><div class='vertical-center'>$78<br>with a<br>50% chance</div></div><div class='respDivL'><div class='vertical-center'>(E)</div></div><div class='respDivR'><div class='vertical-center'>(I)</div></div></div>","I","$31","$78","0","31","78","RISKY"
"html-keyboard-response","168","126345","0.0-5.0-3.54","63bef4ddef5b4d7295effbbd","bdp_rd","Tue Mar 28 2023 14:21:54 GMT-0500 (Central Daylight Time)","135331","","null","","","","offerFB","","<div class='trialBorder'><div class='vertical-center'><img style='vertical-align:center; align:center' src=img/fixation3.jpg></div><div class='cl'><div class='vertical-center'>$31<br>for<br>sure</div></div><div class='cr'><div class='vertical-center'><font style='color:orange'>$78<br>with a<br>50% chance</font></div></div><div class='respDivL'><div class='vertical-center'>(E)</div></div><div class='respDivR'><div class='vertical-center'><font style='color:orange'>(I)</font></div></div></div>","null","$31","$78","0","31","78",""
"html-keyboard-response","169","126848","0.0-5.0-1.55","63bef4ddef5b4d7295effbbd","bdp_rd","Tue Mar 28 2023 14:21:54 GMT-0500 (Central Daylight Time)","135331","","null","","","","FIX","","<div class='trialBorder'><div class='vertical-center'><img style='vertical-align:center; align:center' src=img/fixation3.jpg></div></div>","null","","","","","",""
"html-keyboard-response","170","127422","0.0-5.0-2.55","63bef4ddef5b4d7295effbbd","bdp_rd","Tue Mar 28 2023 14:21:54 GMT-0500 (Central Daylight Time)","135331","","573","","","","offer","","<div class='trialBorder'><div class='vertical-center'><img style='vertical-align:center; align:center' src=img/fixation3.jpg></div><div class='cl'><div class='vertical-center'>$68<br>with a<br>50% chance</div></div><div class='cr'><div class='vertical-center'>$30<br>for<br>sure</div></div><div class='respDivL'><div class='vertical-center'>(E)</div></div><div class='respDivR'><div class='vertical-center'>(I)</div></div></div>","E","$30","$68","1","30","68","RISKY"
"html-keyboard-response","171","127673","0.0-5.0-3.55","63bef4ddef5b4d7295effbbd","bdp_rd","Tue Mar 28 2023 14:21:54 GMT-0500 (Central Daylight Time)","135331","","null","","","","offerFB","","<div class='trialBorder'><div class='vertical-center'><img style='vertical-align:center; align:center' src=img/fixation3.jpg></div><div class='cl'><div class='vertical-center'><font style='color:orange'>$68<br>with a<br>50% chance</font></div></div><div class='cr'><div class='vertical-center'>$30<br>for<br>sure</div></div><div class='respDivL'><div class='vertical-center'><font style='color:orange'>(E)</font></div></div><div class='respDivR'><div class='vertical-center'>(I)</div></div></div>","null","$30","$68","1","30","68",""
"html-keyboard-response","172","128174","0.0-5.0-1.56","63bef4ddef5b4d7295effbbd","bdp_rd","Tue Mar 28 2023 14:21:54 GMT-0500 (Central Daylight Time)","135331","","null","","","","FIX","","<div class='trialBorder'><div class='vertical-center'><img style='vertical-align:center; align:center' src=img/fixation3.jpg></div></div>","null","","","","","",""
"html-keyboard-response","173","129254","0.0-5.0-2.56","63bef4ddef5b4d7295effbbd","bdp_rd","Tue Mar 28 2023 14:21:54 GMT-0500 (Central Daylight Time)","135331","","1080","","","","offer","","<div class='trialBorder'><div class='vertical-center'><img style='vertical-align:center; align:center' src=img/fixation3.jpg></div><div class='cl'><div class='vertical-center'>$58<br>for<br>sure</div></div><div class='cr'><div class='vertical-center'>$69<br>with a<br>50% chance</div></div><div class='respDivL'><div class='vertical-center'>(E)</div></div><div class='respDivR'><div class='vertical-center'>(I)</div></div></div>","E","$58","$69","0","58","69","SURE"
