"trial_type","trial_index","time_elapsed","internal_node_id","subject_id","task","startTime","totalTime","view_history","rt","event","trial","time","trialtype","success","stimulus","key_press","sureOffer","riskyOffer","riskyLeft","sureAmt","riskyAmt","chosen"
"pavlovia","0","6","0.0-0.0","63bb98852cdc67dece8adb8e","bdp_rd","Sat Mar 25 2023 19:01:53 GMT-0500 (Central Daylight Time)","160961","","","","","","","","","","","","","","",""
"instructions","1","1522","0.0-1.0","63bb98852cdc67dece8adb8e","bdp_rd","Sat Mar 25 2023 19:01:53 GMT-0500 (Central Daylight Time)","160961","[{""page_index"":0,""viewing_time"":1516}]","1516","","","","","","","","","","","","",""
"","","","","63bb98852cdc67dece8adb8e","bdp_rd","Sat Mar 25 2023 19:01:53 GMT-0500 (Central Daylight Time)","160961","","","fullscreenenter","2","3769","fullscreenenter","","","","","","","","",""
"fullscreen","2","4768","0.0-2.0","63bb98852cdc67dece8adb8e","bdp_rd","Sat Mar 25 2023 19:01:53 GMT-0500 (Central Daylight Time)","160961","","","","","","","true","","","","","","","",""
"instructions","3","26796","0.0-4.0","63bb98852cdc67dece8adb8e","bdp_rd","Sat Mar 25 2023 19:01:53 GMT-0500 (Central Daylight Time)","160961","[{""page_index"":0,""viewing_time"":14106},{""page_index"":1,""viewing_time"":4203},{""page_index"":2,""viewing_time"":3717}]","22027","","","","","","","","","","","","",""
"html-keyboard-response","4","27306","0.0-5.0-1.0","63bb98852cdc67dece8adb8e","bdp_rd","Sat Mar 25 2023 19:01:53 GMT-0500 (Central Daylight Time)","160961","","null","","","","FIX","","<div class='trialBorder'><div class='vertical-center'><img style='vertical-align:center; align:center' src=img/fixation3.jpg></div></div>","null","","","","","",""
"html-keyboard-response","5","31919","0.0-5.0-2.0","63bb98852cdc67dece8adb8e","bdp_rd","Sat Mar 25 2023 19:01:53 GMT-0500 (Central Daylight Time)","160961","","4612","","","","offer","","<div class='trialBorder'><div class='vertical-center'><img style='vertical-align:center; align:center' src=img/fixation3.jpg></div><div class='cl'><div class='vertical-center'>$37<br>with a<br>50% chance</div></div><div class='cr'><div class='vertical-center'>$20<br>for<br>sure</div></div><div class='respDivL'><div class='vertical-center'>(E)</div></div><div class='respDivR'><div class='vertical-center'>(I)</div></div></div>","I","$20","$37","1","20","37","SURE"
"html-keyboard-response","6","32176","0.0-5.0-3.0","63bb98852cdc67dece8adb8e","bdp_rd","Sat Mar 25 2023 19:01:53 GMT-0500 (Central Daylight Time)","160961","","null","","","","offerFB","","<div class='trialBorder'><div class='vertical-center'><img style='vertical-align:center; align:center' src=img/fixation3.jpg></div><div class='cl'><div class='vertical-center'>$37<br>with a<br>50% chance</div></div><div class='cr'><div class='vertical-center'><font style='color:orange'>$20<br>for<br>sure</font></div></div><div class='respDivL'><div class='vertical-center'>(E)</div></div><div class='respDivR'><div class='vertical-center'><font style='color:orange'>(I)</font></div></div></div>","null","$20","$37","1","20","37",""
"html-keyboard-response","7","32681","0.0-5.0-1.1","63bb98852cdc67dece8adb8e","bdp_rd","Sat Mar 25 2023 19:01:53 GMT-0500 (Central Daylight Time)","160961","","null","","","","FIX","","<div class='trialBorder'><div class='vertical-center'><img style='vertical-align:center; align:center' src=img/fixation3.jpg></div></div>","null","","","","","",""
"html-keyboard-response","8","34220","0.0-5.0-2.1","63bb98852cdc67dece8adb8e","bdp_rd","Sat Mar 25 2023 19:01:53 GMT-0500 (Central Daylight Time)","160961","","1537","","","","offer","","<div class='trialBorder'><div class='vertical-center'><img style='vertical-align:center; align:center' src=img/fixation3.jpg></div><div class='cl'><div class='vertical-center'>$19<br>for<br>sure</div></div><div class='cr'><div class='vertical-center'>$51<br>with a<br>50% chance</div></div><div class='respDivL'><div class='vertical-center'>(E)</div></div><div class='respDivR'><div class='vertical-center'>(I)</div></div></div>","I","$19","$51","0","19","51","RISKY"
"html-keyboard-response","9","34472","0.0-5.0-3.1","63bb98852cdc67dece8adb8e","bdp_rd","Sat Mar 25 2023 19:01:53 GMT-0500 (Central Daylight Time)","160961","","null","","","","offerFB","","<div class='trialBorder'><div class='vertical-center'><img style='vertical-align:center; align:center' src=img/fixation3.jpg></div><div class='cl'><div class='vertical-center'>$19<br>for<br>sure</div></div><div class='cr'><div class='vertical-center'><font style='color:orange'>$51<br>with a<br>50% chance</font></div></div><div class='respDivL'><div class='vertical-center'>(E)</div></div><div class='respDivR'><div class='vertical-center'><font style='color:orange'>(I)</font></div></div></div>","null","$19","$51","0","19","51",""
"html-keyboard-response","10","34977","0.0-5.0-1.2","63bb98852cdc67dece8adb8e","bdp_rd","Sat Mar 25 2023 19:01:53 GMT-0500 (Central Daylight Time)","160961","","null","","","","FIX","","<div class='trialBorder'><div class='vertical-center'><img style='vertical-align:center; align:center' src=img/fixation3.jpg></div></div>","null","","","","","",""
"html-keyboard-response","11","37430","0.0-5.0-2.2","63bb98852cdc67dece8adb8e","bdp_rd","Sat Mar 25 2023 19:01:53 GMT-0500 (Central Daylight Time)","160961","","2453","","","","offer","","<div class='trialBorder'><div class='vertical-center'><img style='vertical-align:center; align:center' src=img/fixation3.jpg></div><div class='cl'><div class='vertical-center'>$21<br>with a<br>50% chance</div></div><div class='cr'><div class='vertical-center'>$2<br>for<br>sure</div></div><div class='respDivL'><div class='vertical-center'>(E)</div></div><div class='respDivR'><div class='vertical-center'>(I)</div></div></div>","E","$2","$21","1","2","21","RISKY"
"html-keyboard-response","12","37688","0.0-5.0-3.2","63bb98852cdc67dece8adb8e","bdp_rd","Sat Mar 25 2023 19:01:53 GMT-0500 (Central Daylight Time)","160961","","null","","","","offerFB","","<div class='trialBorder'><div class='vertical-center'><img style='vertical-align:center; align:center' src=img/fixation3.jpg></div><div class='cl'><div class='vertical-center'><font style='color:orange'>$21<br>with a<br>50% chance</font></div></div><div class='cr'><div class='vertical-center'>$2<br>for<br>sure</div></div><div class='respDivL'><div class='vertical-center'><font style='color:orange'>(E)</font></div></div><div class='respDivR'><div class='vertical-center'>(I)</div></div></div>","null","$2","$21","1","2","21",""
"html-keyboard-response","13","38191","0.0-5.0-1.3","63bb98852cdc67dece8adb8e","bdp_rd","Sat Mar 25 2023 19:01:53 GMT-0500 (Central Daylight Time)","160961","","null","","","","FIX","","<div class='trialBorder'><div class='vertical-center'><img style='vertical-align:center; align:center' src=img/fixation3.jpg></div></div>","null","","","","","",""
"html-keyboard-response","14","39632","0.0-5.0-2.3","63bb98852cdc67dece8adb8e","bdp_rd","Sat Mar 25 2023 19:01:53 GMT-0500 (Central Daylight Time)","160961","","1439","","","","offer","","<div class='trialBorder'><div class='vertical-center'><img style='vertical-align:center; align:center' src=img/fixation3.jpg></div><div class='cl'><div class='vertical-center'>$86<br>with a<br>50% chance</div></div><div class='cr'><div class='vertical-center'>$45<br>for<br>sure</div></div><div class='respDivL'><div class='vertical-center'>(E)</div></div><div class='respDivR'><div class='vertical-center'>(I)</div></div></div>","E","$45","$86","1","45","86","RISKY"
"html-keyboard-response","15","39888","0.0-5.0-3.3","63bb98852cdc67dece8adb8e","bdp_rd","Sat Mar 25 2023 19:01:53 GMT-0500 (Central Daylight Time)","160961","","null","","","","offerFB","","<div class='trialBorder'><div class='vertical-center'><img style='vertical-align:center; align:center' src=img/fixation3.jpg></div><div class='cl'><div class='vertical-center'><font style='color:orange'>$86<br>with a<br>50% chance</font></div></div><div class='cr'><div class='vertical-center'>$45<br>for<br>sure</div></div><div class='respDivL'><div class='vertical-center'><font style='color:orange'>(E)</font></div></div><div class='respDivR'><div class='vertical-center'>(I)</div></div></div>","null","$45","$86","1","45","86",""
"html-keyboard-response","16","40392","0.0-5.0-1.4","63bb98852cdc67dece8adb8e","bdp_rd","Sat Mar 25 2023 19:01:53 GMT-0500 (Central Daylight Time)","160961","","null","","","","FIX","","<div class='trialBorder'><div class='vertical-center'><img style='vertical-align:center; align:center' src=img/fixation3.jpg></div></div>","null","","","","","",""
"html-keyboard-response","17","42028","0.0-5.0-2.4","63bb98852cdc67dece8adb8e","bdp_rd","Sat Mar 25 2023 19:01:53 GMT-0500 (Central Daylight Time)","160961","","1635","","","","offer","","<div class='trialBorder'><div class='vertical-center'><img style='vertical-align:center; align:center' src=img/fixation3.jpg></div><div class='cl'><div class='vertical-center'>$6<br>for<br>sure</div></div><div class='cr'><div class='vertical-center'>$13<br>with a<br>50% chance</div></div><div class='respDivL'><div class='vertical-center'>(E)</div></div><div class='respDivR'><div class='vertical-center'>(I)</div></div></div>","I","$6","$13","0","6","13","RISKY"
"html-keyboard-response","18","42280","0.0-5.0-3.4","63bb98852cdc67dece8adb8e","bdp_rd","Sat Mar 25 2023 19:01:53 GMT-0500 (Central Daylight Time)","160961","","null","","","","offerFB","","<div class='trialBorder'><div class='vertical-center'><img style='vertical-align:center; align:center' src=img/fixation3.jpg></div><div class='cl'><div class='vertical-center'>$6<br>for<br>sure</div></div><div class='cr'><div class='vertical-center'><font style='color:orange'>$13<br>with a<br>50% chance</font></div></div><div class='respDivL'><div class='vertical-center'>(E)</div></div><div class='respDivR'><div class='vertical-center'><font style='color:orange'>(I)</font></div></div></div>","null","$6","$13","0","6","13",""
"html-keyboard-response","19","42783","0.0-5.0-1.5","63bb98852cdc67dece8adb8e","bdp_rd","Sat Mar 25 2023 19:01:53 GMT-0500 (Central Daylight Time)","160961","","null","","","","FIX","","<div class='trialBorder'><div class='vertical-center'><img style='vertical-align:center; align:center' src=img/fixation3.jpg></div></div>","null","","","","","",""
"html-keyboard-response","20","43983","0.0-5.0-2.5","63bb98852cdc67dece8adb8e","bdp_rd","Sat Mar 25 2023 19:01:53 GMT-0500 (Central Daylight Time)","160961","","1199","","","","offer","","<div class='trialBorder'><div class='vertical-center'><img style='vertical-align:center; align:center' src=img/fixation3.jpg></div><div class='cl'><div class='vertical-center'>$34<br>with a<br>50% chance</div></div><div class='cr'><div class='vertical-center'>$15<br>for<br>sure</div></div><div class='respDivL'><div class='vertical-center'>(E)</div></div><div class='respDivR'><div class='vertical-center'>(I)</div></div></div>","E","$15","$34","1","15","34","RISKY"
"html-keyboard-response","21","44239","0.0-5.0-3.5","63bb98852cdc67dece8adb8e","bdp_rd","Sat Mar 25 2023 19:01:53 GMT-0500 (Central Daylight Time)","160961","","null","","","","offerFB","","<div class='trialBorder'><div class='vertical-center'><img style='vertical-align:center; align:center' src=img/fixation3.jpg></div><div class='cl'><div class='vertical-center'><font style='color:orange'>$34<br>with a<br>50% chance</font></div></div><div class='cr'><div class='vertical-center'>$15<br>for<br>sure</div></div><div class='respDivL'><div class='vertical-center'><font style='color:orange'>(E)</font></div></div><div class='respDivR'><div class='vertical-center'>(I)</div></div></div>","null","$15","$34","1","15","34",""
"html-keyboard-response","22","44745","0.0-5.0-1.6","63bb98852cdc67dece8adb8e","bdp_rd","Sat Mar 25 2023 19:01:53 GMT-0500 (Central Daylight Time)","160961","","null","","","","FIX","","<div class='trialBorder'><div class='vertical-center'><img style='vertical-align:center; align:center' src=img/fixation3.jpg></div></div>","null","","","","","",""
"html-keyboard-response","23","45946","0.0-5.0-2.6","63bb98852cdc67dece8adb8e","bdp_rd","Sat Mar 25 2023 19:01:53 GMT-0500 (Central Daylight Time)","160961","","1201","","","","offer","","<div class='trialBorder'><div class='vertical-center'><img style='vertical-align:center; align:center' src=img/fixation3.jpg></div><div class='cl'><div class='vertical-center'>$14<br>with a<br>50% chance</div></div><div class='cr'><div class='vertical-center'>$4<br>for<br>sure</div></div><div class='respDivL'><div class='vertical-center'>(E)</div></div><div class='respDivR'><div class='vertical-center'>(I)</div></div></div>","E","$4","$14","1","4","14","RISKY"
"html-keyboard-response","24","46200","0.0-5.0-3.6","63bb98852cdc67dece8adb8e","bdp_rd","Sat Mar 25 2023 19:01:53 GMT-0500 (Central Daylight Time)","160961","","null","","","","offerFB","","<div class='trialBorder'><div class='vertical-center'><img style='vertical-align:center; align:center' src=img/fixation3.jpg></div><div class='cl'><div class='vertical-center'><font style='color:orange'>$14<br>with a<br>50% chance</font></div></div><div class='cr'><div class='vertical-center'>$4<br>for<br>sure</div></div><div class='respDivL'><div class='vertical-center'><font style='color:orange'>(E)</font></div></div><div class='respDivR'><div class='vertical-center'>(I)</div></div></div>","null","$4","$14","1","4","14",""
"html-keyboard-response","25","46704","0.0-5.0-1.7","63bb98852cdc67dece8adb8e","bdp_rd","Sat Mar 25 2023 19:01:53 GMT-0500 (Central Daylight Time)","160961","","null","","","","FIX","","<div class='trialBorder'><div class='vertical-center'><img style='vertical-align:center; align:center' src=img/fixation3.jpg></div></div>","null","","","","","",""
"html-keyboard-response","26","47594","0.0-5.0-2.7","63bb98852cdc67dece8adb8e","bdp_rd","Sat Mar 25 2023 19:01:53 GMT-0500 (Central Daylight Time)","160961","","888","","","","offer","","<div class='trialBorder'><div class='vertical-center'><img style='vertical-align:center; align:center' src=img/fixation3.jpg></div><div class='cl'><div class='vertical-center'>$17<br>with a<br>50% chance</div></div><div class='cr'><div class='vertical-center'>$3<br>for<br>sure</div></div><div class='respDivL'><div class='vertical-center'>(E)</div></div><div class='respDivR'><div class='vertical-center'>(I)</div></div></div>","E","$3","$17","1","3","17","RISKY"
"html-keyboard-response","27","47848","0.0-5.0-3.7","63bb98852cdc67dece8adb8e","bdp_rd","Sat Mar 25 2023 19:01:53 GMT-0500 (Central Daylight Time)","160961","","null","","","","offerFB","","<div class='trialBorder'><div class='vertical-center'><img style='vertical-align:center; align:center' src=img/fixation3.jpg></div><div class='cl'><div class='vertical-center'><font style='color:orange'>$17<br>with a<br>50% chance</font></div></div><div class='cr'><div class='vertical-center'>$3<br>for<br>sure</div></div><div class='respDivL'><div class='vertical-center'><font style='color:orange'>(E)</font></div></div><div class='respDivR'><div class='vertical-center'>(I)</div></div></div>","null","$3","$17","1","3","17",""
"html-keyboard-response","28","48352","0.0-5.0-1.8","63bb98852cdc67dece8adb8e","bdp_rd","Sat Mar 25 2023 19:01:53 GMT-0500 (Central Daylight Time)","160961","","null","","","","FIX","","<div class='trialBorder'><div class='vertical-center'><img style='vertical-align:center; align:center' src=img/fixation3.jpg></div></div>","null","","","","","",""
"html-keyboard-response","29","50398","0.0-5.0-2.8","63bb98852cdc67dece8adb8e","bdp_rd","Sat Mar 25 2023 19:01:53 GMT-0500 (Central Daylight Time)","160961","","2046","","","","offer","","<div class='trialBorder'><div class='vertical-center'><img style='vertical-align:center; align:center' src=img/fixation3.jpg></div><div class='cl'><div class='vertical-center'>$18<br>for<br>sure</div></div><div class='cr'><div class='vertical-center'>$39<br>with a<br>50% chance</div></div><div class='respDivL'><div class='vertical-center'>(E)</div></div><div class='respDivR'><div class='vertical-center'>(I)</div></div></div>","I","$18","$39","0","18","39","RISKY"
"html-keyboard-response","30","50657","0.0-5.0-3.8","63bb98852cdc67dece8adb8e","bdp_rd","Sat Mar 25 2023 19:01:53 GMT-0500 (Central Daylight Time)","160961","","null","","","","offerFB","","<div class='trialBorder'><div class='vertical-center'><img style='vertical-align:center; align:center' src=img/fixation3.jpg></div><div class='cl'><div class='vertical-center'>$18<br>for<br>sure</div></div><div class='cr'><div class='vertical-center'><font style='color:orange'>$39<br>with a<br>50% chance</font></div></div><div class='respDivL'><div class='vertical-center'>(E)</div></div><div class='respDivR'><div class='vertical-center'><font style='color:orange'>(I)</font></div></div></div>","null","$18","$39","0","18","39",""
"html-keyboard-response","31","51161","0.0-5.0-1.9","63bb98852cdc67dece8adb8e","bdp_rd","Sat Mar 25 2023 19:01:53 GMT-0500 (Central Daylight Time)","160961","","null","","","","FIX","","<div class='trialBorder'><div class='vertical-center'><img style='vertical-align:center; align:center' src=img/fixation3.jpg></div></div>","null","","","","","",""
"html-keyboard-response","32","53080","0.0-5.0-2.9","63bb98852cdc67dece8adb8e","bdp_rd","Sat Mar 25 2023 19:01:53 GMT-0500 (Central Daylight Time)","160961","","1918","","","","offer","","<div class='trialBorder'><div class='vertical-center'><img style='vertical-align:center; align:center' src=img/fixation3.jpg></div><div class='cl'><div class='vertical-center'>$18<br>with a<br>50% chance</div></div><div class='cr'><div class='vertical-center'>$9<br>for<br>sure</div></div><div class='respDivL'><div class='vertical-center'>(E)</div></div><div class='respDivR'><div class='vertical-center'>(I)</div></div></div>","E","$9","$18","1","9","18","RISKY"
"html-keyboard-response","33","53337","0.0-5.0-3.9","63bb98852cdc67dece8adb8e","bdp_rd","Sat Mar 25 2023 19:01:53 GMT-0500 (Central Daylight Time)","160961","","null","","","","offerFB","","<div class='trialBorder'><div class='vertical-center'><img style='vertical-align:center; align:center' src=img/fixation3.jpg></div><div class='cl'><div class='vertical-center'><font style='color:orange'>$18<br>with a<br>50% chance</font></div></div><div class='cr'><div class='vertical-center'>$9<br>for<br>sure</div></div><div class='respDivL'><div class='vertical-center'><font style='color:orange'>(E)</font></div></div><div class='respDivR'><div class='vertical-center'>(I)</div></div></div>","null","$9","$18","1","9","18",""
"html-keyboard-response","34","53840","0.0-5.0-1.10","63bb98852cdc67dece8adb8e","bdp_rd","Sat Mar 25 2023 19:01:53 GMT-0500 (Central Daylight Time)","160961","","null","","","","FIX","","<div class='trialBorder'><div class='vertical-center'><img style='vertical-align:center; align:center' src=img/fixation3.jpg></div></div>","null","","","","","",""
"html-keyboard-response","35","54866","0.0-5.0-2.10","63bb98852cdc67dece8adb8e","bdp_rd","Sat Mar 25 2023 19:01:53 GMT-0500 (Central Daylight Time)","160961","","1024","","","","offer","","<div class='trialBorder'><div class='vertical-center'><img style='vertical-align:center; align:center' src=img/fixation3.jpg></div><div class='cl'><div class='vertical-center'>$9<br>for<br>sure</div></div><div class='cr'><div class='vertical-center'>$32<br>with a<br>50% chance</div></div><div class='respDivL'><div class='vertical-center'>(E)</div></div><div class='respDivR'><div class='vertical-center'>(I)</div></div></div>","I","$9","$32","0","9","32","RISKY"
"html-keyboard-response","36","55120","0.0-5.0-3.10","63bb98852cdc67dece8adb8e","bdp_rd","Sat Mar 25 2023 19:01:53 GMT-0500 (Central Daylight Time)","160961","","null","","","","offerFB","","<div class='trialBorder'><div class='vertical-center'><img style='vertical-align:center; align:center' src=img/fixation3.jpg></div><div class='cl'><div class='vertical-center'>$9<br>for<br>sure</div></div><div class='cr'><div class='vertical-center'><font style='color:orange'>$32<br>with a<br>50% chance</font></div></div><div class='respDivL'><div class='vertical-center'>(E)</div></div><div class='respDivR'><div class='vertical-center'><font style='color:orange'>(I)</font></div></div></div>","null","$9","$32","0","9","32",""
"html-keyboard-response","37","55624","0.0-5.0-1.11","63bb98852cdc67dece8adb8e","bdp_rd","Sat Mar 25 2023 19:01:53 GMT-0500 (Central Daylight Time)","160961","","null","","","","FIX","","<div class='trialBorder'><div class='vertical-center'><img style='vertical-align:center; align:center' src=img/fixation3.jpg></div></div>","null","","","","","",""
"html-keyboard-response","38","56700","0.0-5.0-2.11","63bb98852cdc67dece8adb8e","bdp_rd","Sat Mar 25 2023 19:01:53 GMT-0500 (Central Daylight Time)","160961","","1075","","","","offer","","<div class='trialBorder'><div class='vertical-center'><img style='vertical-align:center; align:center' src=img/fixation3.jpg></div><div class='cl'><div class='vertical-center'>$10<br>for<br>sure</div></div><div class='cr'><div class='vertical-center'>$19<br>with a<br>50% chance</div></div><div class='respDivL'><div class='vertical-center'>(E)</div></div><div class='respDivR'><div class='vertical-center'>(I)</div></div></div>","I","$10","$19","0","10","19","RISKY"
"html-keyboard-response","39","56952","0.0-5.0-3.11","63bb98852cdc67dece8adb8e","bdp_rd","Sat Mar 25 2023 19:01:53 GMT-0500 (Central Daylight Time)","160961","","null","","","","offerFB","","<div class='trialBorder'><div class='vertical-center'><img style='vertical-align:center; align:center' src=img/fixation3.jpg></div><div class='cl'><div class='vertical-center'>$10<br>for<br>sure</div></div><div class='cr'><div class='vertical-center'><font style='color:orange'>$19<br>with a<br>50% chance</font></div></div><div class='respDivL'><div class='vertical-center'>(E)</div></div><div class='respDivR'><div class='vertical-center'><font style='color:orange'>(I)</font></div></div></div>","null","$10","$19","0","10","19",""
"html-keyboard-response","40","57456","0.0-5.0-1.12","63bb98852cdc67dece8adb8e","bdp_rd","Sat Mar 25 2023 19:01:53 GMT-0500 (Central Daylight Time)","160961","","null","","","","FIX","","<div class='trialBorder'><div class='vertical-center'><img style='vertical-align:center; align:center' src=img/fixation3.jpg></div></div>","null","","","","","",""
"html-keyboard-response","41","58883","0.0-5.0-2.12","63bb98852cdc67dece8adb8e","bdp_rd","Sat Mar 25 2023 19:01:53 GMT-0500 (Central Daylight Time)","160961","","1426","","","","offer","","<div class='trialBorder'><div class='vertical-center'><img style='vertical-align:center; align:center' src=img/fixation3.jpg></div><div class='cl'><div class='vertical-center'>$16<br>for<br>sure</div></div><div class='cr'><div class='vertical-center'>$28<br>with a<br>50% chance</div></div><div class='respDivL'><div class='vertical-center'>(E)</div></div><div class='respDivR'><div class='vertical-center'>(I)</div></div></div>","I","$16","$28","0","16","28","RISKY"
"html-keyboard-response","42","59137","0.0-5.0-3.12","63bb98852cdc67dece8adb8e","bdp_rd","Sat Mar 25 2023 19:01:53 GMT-0500 (Central Daylight Time)","160961","","null","","","","offerFB","","<div class='trialBorder'><div class='vertical-center'><img style='vertical-align:center; align:center' src=img/fixation3.jpg></div><div class='cl'><div class='vertical-center'>$16<br>for<br>sure</div></div><div class='cr'><div class='vertical-center'><font style='color:orange'>$28<br>with a<br>50% chance</font></div></div><div class='respDivL'><div class='vertical-center'>(E)</div></div><div class='respDivR'><div class='vertical-center'><font style='color:orange'>(I)</font></div></div></div>","null","$16","$28","0","16","28",""
"html-keyboard-response","43","59641","0.0-5.0-1.13","63bb98852cdc67dece8adb8e","bdp_rd","Sat Mar 25 2023 19:01:53 GMT-0500 (Central Daylight Time)","160961","","null","","","","FIX","","<div class='trialBorder'><div class='vertical-center'><img style='vertical-align:center; align:center' src=img/fixation3.jpg></div></div>","null","","","","","",""
"html-keyboard-response","44","61219","0.0-5.0-2.13","63bb98852cdc67dece8adb8e","bdp_rd","Sat Mar 25 2023 19:01:53 GMT-0500 (Central Daylight Time)","160961","","1577","","","","offer","","<div class='trialBorder'><div class='vertical-center'><img style='vertical-align:center; align:center' src=img/fixation3.jpg></div><div class='cl'><div class='vertical-center'>$25<br>for<br>sure</div></div><div class='cr'><div class='vertical-center'>$54<br>with a<br>50% chance</div></div><div class='respDivL'><div class='vertical-center'>(E)</div></div><div class='respDivR'><div class='vertical-center'>(I)</div></div></div>","I","$25","$54","0","25","54","RISKY"
"html-keyboard-response","45","61473","0.0-5.0-3.13","63bb98852cdc67dece8adb8e","bdp_rd","Sat Mar 25 2023 19:01:53 GMT-0500 (Central Daylight Time)","160961","","null","","","","offerFB","","<div class='trialBorder'><div class='vertical-center'><img style='vertical-align:center; align:center' src=img/fixation3.jpg></div><div class='cl'><div class='vertical-center'>$25<br>for<br>sure</div></div><div class='cr'><div class='vertical-center'><font style='color:orange'>$54<br>with a<br>50% chance</font></div></div><div class='respDivL'><div class='vertical-center'>(E)</div></div><div class='respDivR'><div class='vertical-center'><font style='color:orange'>(I)</font></div></div></div>","null","$25","$54","0","25","54",""
"html-keyboard-response","46","61977","0.0-5.0-1.14","63bb98852cdc67dece8adb8e","bdp_rd","Sat Mar 25 2023 19:01:53 GMT-0500 (Central Daylight Time)","160961","","null","","","","FIX","","<div class='trialBorder'><div class='vertical-center'><img style='vertical-align:center; align:center' src=img/fixation3.jpg></div></div>","null","","","","","",""
"html-keyboard-response","47","63075","0.0-5.0-2.14","63bb98852cdc67dece8adb8e","bdp_rd","Sat Mar 25 2023 19:01:53 GMT-0500 (Central Daylight Time)","160961","","1098","","","","offer","","<div class='trialBorder'><div class='vertical-center'><img style='vertical-align:center; align:center' src=img/fixation3.jpg></div><div class='cl'><div class='vertical-center'>$12<br>for<br>sure</div></div><div class='cr'><div class='vertical-center'>$27<br>with a<br>50% chance</div></div><div class='respDivL'><div class='vertical-center'>(E)</div></div><div class='respDivR'><div class='vertical-center'>(I)</div></div></div>","I","$12","$27","0","12","27","RISKY"
"html-keyboard-response","48","63328","0.0-5.0-3.14","63bb98852cdc67dece8adb8e","bdp_rd","Sat Mar 25 2023 19:01:53 GMT-0500 (Central Daylight Time)","160961","","null","","","","offerFB","","<div class='trialBorder'><div class='vertical-center'><img style='vertical-align:center; align:center' src=img/fixation3.jpg></div><div class='cl'><div class='vertical-center'>$12<br>for<br>sure</div></div><div class='cr'><div class='vertical-center'><font style='color:orange'>$27<br>with a<br>50% chance</font></div></div><div class='respDivL'><div class='vertical-center'>(E)</div></div><div class='respDivR'><div class='vertical-center'><font style='color:orange'>(I)</font></div></div></div>","null","$12","$27","0","12","27",""
"html-keyboard-response","49","63832","0.0-5.0-1.15","63bb98852cdc67dece8adb8e","bdp_rd","Sat Mar 25 2023 19:01:53 GMT-0500 (Central Daylight Time)","160961","","null","","","","FIX","","<div class='trialBorder'><div class='vertical-center'><img style='vertical-align:center; align:center' src=img/fixation3.jpg></div></div>","null","","","","","",""
"html-keyboard-response","50","64982","0.0-5.0-2.15","63bb98852cdc67dece8adb8e","bdp_rd","Sat Mar 25 2023 19:01:53 GMT-0500 (Central Daylight Time)","160961","","1148","","","","offer","","<div class='trialBorder'><div class='vertical-center'><img style='vertical-align:center; align:center' src=img/fixation3.jpg></div><div class='cl'><div class='vertical-center'>$45<br>with a<br>50% chance</div></div><div class='cr'><div class='vertical-center'>$8<br>for<br>sure</div></div><div class='respDivL'><div class='vertical-center'>(E)</div></div><div class='respDivR'><div class='vertical-center'>(I)</div></div></div>","E","$8","$45","1","8","45","RISKY"
"html-keyboard-response","51","65241","0.0-5.0-3.15","63bb98852cdc67dece8adb8e","bdp_rd","Sat Mar 25 2023 19:01:53 GMT-0500 (Central Daylight Time)","160961","","null","","","","offerFB","","<div class='trialBorder'><div class='vertical-center'><img style='vertical-align:center; align:center' src=img/fixation3.jpg></div><div class='cl'><div class='vertical-center'><font style='color:orange'>$45<br>with a<br>50% chance</font></div></div><div class='cr'><div class='vertical-center'>$8<br>for<br>sure</div></div><div class='respDivL'><div class='vertical-center'><font style='color:orange'>(E)</font></div></div><div class='respDivR'><div class='vertical-center'>(I)</div></div></div>","null","$8","$45","1","8","45",""
"html-keyboard-response","52","65745","0.0-5.0-1.16","63bb98852cdc67dece8adb8e","bdp_rd","Sat Mar 25 2023 19:01:53 GMT-0500 (Central Daylight Time)","160961","","null","","","","FIX","","<div class='trialBorder'><div class='vertical-center'><img style='vertical-align:center; align:center' src=img/fixation3.jpg></div></div>","null","","","","","",""
"html-keyboard-response","53","66926","0.0-5.0-2.16","63bb98852cdc67dece8adb8e","bdp_rd","Sat Mar 25 2023 19:01:53 GMT-0500 (Central Daylight Time)","160961","","1180","","","","offer","","<div class='trialBorder'><div class='vertical-center'><img style='vertical-align:center; align:center' src=img/fixation3.jpg></div><div class='cl'><div class='vertical-center'>$13<br>for<br>sure</div></div><div class='cr'><div class='vertical-center'>$24<br>with a<br>50% chance</div></div><div class='respDivL'><div class='vertical-center'>(E)</div></div><div class='respDivR'><div class='vertical-center'>(I)</div></div></div>","I","$13","$24","0","13","24","RISKY"
"html-keyboard-response","54","67186","0.0-5.0-3.16","63bb98852cdc67dece8adb8e","bdp_rd","Sat Mar 25 2023 19:01:53 GMT-0500 (Central Daylight Time)","160961","","null","","","","offerFB","","<div class='trialBorder'><div class='vertical-center'><img style='vertical-align:center; align:center' src=img/fixation3.jpg></div><div class='cl'><div class='vertical-center'>$13<br>for<br>sure</div></div><div class='cr'><div class='vertical-center'><font style='color:orange'>$24<br>with a<br>50% chance</font></div></div><div class='respDivL'><div class='vertical-center'>(E)</div></div><div class='respDivR'><div class='vertical-center'><font style='color:orange'>(I)</font></div></div></div>","null","$13","$24","0","13","24",""
"html-keyboard-response","55","67689","0.0-5.0-1.17","63bb98852cdc67dece8adb8e","bdp_rd","Sat Mar 25 2023 19:01:53 GMT-0500 (Central Daylight Time)","160961","","null","","","","FIX","","<div class='trialBorder'><div class='vertical-center'><img style='vertical-align:center; align:center' src=img/fixation3.jpg></div></div>","null","","","","","",""
"html-keyboard-response","56","69194","0.0-5.0-2.17","63bb98852cdc67dece8adb8e","bdp_rd","Sat Mar 25 2023 19:01:53 GMT-0500 (Central Daylight Time)","160961","","1505","","","","offer","","<div class='trialBorder'><div class='vertical-center'><img style='vertical-align:center; align:center' src=img/fixation3.jpg></div><div class='cl'><div class='vertical-center'>$58<br>for<br>sure</div></div><div class='cr'><div class='vertical-center'>$69<br>with a<br>50% chance</div></div><div class='respDivL'><div class='vertical-center'>(E)</div></div><div class='respDivR'><div class='vertical-center'>(I)</div></div></div>","E","$58","$69","0","58","69","SURE"
"html-keyboard-response","57","69449","0.0-5.0-3.17","63bb98852cdc67dece8adb8e","bdp_rd","Sat Mar 25 2023 19:01:53 GMT-0500 (Central Daylight Time)","160961","","null","","","","offerFB","","<div class='trialBorder'><div class='vertical-center'><img style='vertical-align:center; align:center' src=img/fixation3.jpg></div><div class='cl'><div class='vertical-center'><font style='color:orange'>$58<br>for<br>sure</font></div></div><div class='cr'><div class='vertical-center'>$69<br>with a<br>50% chance</div></div><div class='respDivL'><div class='vertical-center'><font style='color:orange'>(E)</font></div></div><div class='respDivR'><div class='vertical-center'>(I)</div></div></div>","null","$58","$69","0","58","69",""
"html-keyboard-response","58","69953","0.0-5.0-1.18","63bb98852cdc67dece8adb8e","bdp_rd","Sat Mar 25 2023 19:01:53 GMT-0500 (Central Daylight Time)","160961","","null","","","","FIX","","<div class='trialBorder'><div class='vertical-center'><img style='vertical-align:center; align:center' src=img/fixation3.jpg></div></div>","null","","","","","",""
"html-keyboard-response","59","71516","0.0-5.0-2.18","63bb98852cdc67dece8adb8e","bdp_rd","Sat Mar 25 2023 19:01:53 GMT-0500 (Central Daylight Time)","160961","","1563","","","","offer","","<div class='trialBorder'><div class='vertical-center'><img style='vertical-align:center; align:center' src=img/fixation3.jpg></div><div class='cl'><div class='vertical-center'>$41<br>with a<br>50% chance</div></div><div class='cr'><div class='vertical-center'>$13<br>for<br>sure</div></div><div class='respDivL'><div class='vertical-center'>(E)</div></div><div class='respDivR'><div class='vertical-center'>(I)</div></div></div>","E","$13","$41","1","13","41","RISKY"
"html-keyboard-response","60","71769","0.0-5.0-3.18","63bb98852cdc67dece8adb8e","bdp_rd","Sat Mar 25 2023 19:01:53 GMT-0500 (Central Daylight Time)","160961","","null","","","","offerFB","","<div class='trialBorder'><div class='vertical-center'><img style='vertical-align:center; align:center' src=img/fixation3.jpg></div><div class='cl'><div class='vertical-center'><font style='color:orange'>$41<br>with a<br>50% chance</font></div></div><div class='cr'><div class='vertical-center'>$13<br>for<br>sure</div></div><div class='respDivL'><div class='vertical-center'><font style='color:orange'>(E)</font></div></div><div class='respDivR'><div class='vertical-center'>(I)</div></div></div>","null","$13","$41","1","13","41",""
"html-keyboard-response","61","72272","0.0-5.0-1.19","63bb98852cdc67dece8adb8e","bdp_rd","Sat Mar 25 2023 19:01:53 GMT-0500 (Central Daylight Time)","160961","","null","","","","FIX","","<div class='trialBorder'><div class='vertical-center'><img style='vertical-align:center; align:center' src=img/fixation3.jpg></div></div>","null","","","","","",""
"html-keyboard-response","62","74140","0.0-5.0-2.19","63bb98852cdc67dece8adb8e","bdp_rd","Sat Mar 25 2023 19:01:53 GMT-0500 (Central Daylight Time)","160961","","1867","","","","offer","","<div class='trialBorder'><div class='vertical-center'><img style='vertical-align:center; align:center' src=img/fixation3.jpg></div><div class='cl'><div class='vertical-center'>$42<br>with a<br>50% chance</div></div><div class='cr'><div class='vertical-center'>$22<br>for<br>sure</div></div><div class='respDivL'><div class='vertical-center'>(E)</div></div><div class='respDivR'><div class='vertical-center'>(I)</div></div></div>","E","$22","$42","1","22","42","RISKY"
"html-keyboard-response","63","74392","0.0-5.0-3.19","63bb98852cdc67dece8adb8e","bdp_rd","Sat Mar 25 2023 19:01:53 GMT-0500 (Central Daylight Time)","160961","","null","","","","offerFB","","<div class='trialBorder'><div class='vertical-center'><img style='vertical-align:center; align:center' src=img/fixation3.jpg></div><div class='cl'><div class='vertical-center'><font style='color:orange'>$42<br>with a<br>50% chance</font></div></div><div class='cr'><div class='vertical-center'>$22<br>for<br>sure</div></div><div class='respDivL'><div class='vertical-center'><font style='color:orange'>(E)</font></div></div><div class='respDivR'><div class='vertical-center'>(I)</div></div></div>","null","$22","$42","1","22","42",""
"html-keyboard-response","64","74897","0.0-5.0-1.20","63bb98852cdc67dece8adb8e","bdp_rd","Sat Mar 25 2023 19:01:53 GMT-0500 (Central Daylight Time)","160961","","null","","","","FIX","","<div class='trialBorder'><div class='vertical-center'><img style='vertical-align:center; align:center' src=img/fixation3.jpg></div></div>","null","","","","","",""
"html-keyboard-response","65","75857","0.0-5.0-2.20","63bb98852cdc67dece8adb8e","bdp_rd","Sat Mar 25 2023 19:01:53 GMT-0500 (Central Daylight Time)","160961","","959","","","","offer","","<div class='trialBorder'><div class='vertical-center'><img style='vertical-align:center; align:center' src=img/fixation3.jpg></div><div class='cl'><div class='vertical-center'>$12<br>for<br>sure</div></div><div class='cr'><div class='vertical-center'>$35<br>with a<br>50% chance</div></div><div class='respDivL'><div class='vertical-center'>(E)</div></div><div class='respDivR'><div class='vertical-center'>(I)</div></div></div>","I","$12","$35","0","12","35","RISKY"
"html-keyboard-response","66","76113","0.0-5.0-3.20","63bb98852cdc67dece8adb8e","bdp_rd","Sat Mar 25 2023 19:01:53 GMT-0500 (Central Daylight Time)","160961","","null","","","","offerFB","","<div class='trialBorder'><div class='vertical-center'><img style='vertical-align:center; align:center' src=img/fixation3.jpg></div><div class='cl'><div class='vertical-center'>$12<br>for<br>sure</div></div><div class='cr'><div class='vertical-center'><font style='color:orange'>$35<br>with a<br>50% chance</font></div></div><div class='respDivL'><div class='vertical-center'>(E)</div></div><div class='respDivR'><div class='vertical-center'><font style='color:orange'>(I)</font></div></div></div>","null","$12","$35","0","12","35",""
"html-keyboard-response","67","76617","0.0-5.0-1.21","63bb98852cdc67dece8adb8e","bdp_rd","Sat Mar 25 2023 19:01:53 GMT-0500 (Central Daylight Time)","160961","","null","","","","FIX","","<div class='trialBorder'><div class='vertical-center'><img style='vertical-align:center; align:center' src=img/fixation3.jpg></div></div>","null","","","","","",""
"html-keyboard-response","68","78034","0.0-5.0-2.21","63bb98852cdc67dece8adb8e","bdp_rd","Sat Mar 25 2023 19:01:53 GMT-0500 (Central Daylight Time)","160961","","1417","","","","offer","","<div class='trialBorder'><div class='vertical-center'><img style='vertical-align:center; align:center' src=img/fixation3.jpg></div><div class='cl'><div class='vertical-center'>$26<br>with a<br>50% chance</div></div><div class='cr'><div class='vertical-center'>$11<br>for<br>sure</div></div><div class='respDivL'><div class='vertical-center'>(E)</div></div><div class='respDivR'><div class='vertical-center'>(I)</div></div></div>","E","$11","$26","1","11","26","RISKY"
"html-keyboard-response","69","78289","0.0-5.0-3.21","63bb98852cdc67dece8adb8e","bdp_rd","Sat Mar 25 2023 19:01:53 GMT-0500 (Central Daylight Time)","160961","","null","","","","offerFB","","<div class='trialBorder'><div class='vertical-center'><img style='vertical-align:center; align:center' src=img/fixation3.jpg></div><div class='cl'><div class='vertical-center'><font style='color:orange'>$26<br>with a<br>50% chance</font></div></div><div class='cr'><div class='vertical-center'>$11<br>for<br>sure</div></div><div class='respDivL'><div class='vertical-center'><font style='color:orange'>(E)</font></div></div><div class='respDivR'><div class='vertical-center'>(I)</div></div></div>","null","$11","$26","1","11","26",""
"html-keyboard-response","70","78792","0.0-5.0-1.22","63bb98852cdc67dece8adb8e","bdp_rd","Sat Mar 25 2023 19:01:53 GMT-0500 (Central Daylight Time)","160961","","null","","","","FIX","","<div class='trialBorder'><div class='vertical-center'><img style='vertical-align:center; align:center' src=img/fixation3.jpg></div></div>","null","","","","","",""
"html-keyboard-response","71","79935","0.0-5.0-2.22","63bb98852cdc67dece8adb8e","bdp_rd","Sat Mar 25 2023 19:01:53 GMT-0500 (Central Daylight Time)","160961","","1142","","","","offer","","<div class='trialBorder'><div class='vertical-center'><img style='vertical-align:center; align:center' src=img/fixation3.jpg></div><div class='cl'><div class='vertical-center'>$18<br>for<br>sure</div></div><div class='cr'><div class='vertical-center'>$36<br>with a<br>50% chance</div></div><div class='respDivL'><div class='vertical-center'>(E)</div></div><div class='respDivR'><div class='vertical-center'>(I)</div></div></div>","I","$18","$36","0","18","36","RISKY"
"html-keyboard-response","72","80192","0.0-5.0-3.22","63bb98852cdc67dece8adb8e","bdp_rd","Sat Mar 25 2023 19:01:53 GMT-0500 (Central Daylight Time)","160961","","null","","","","offerFB","","<div class='trialBorder'><div class='vertical-center'><img style='vertical-align:center; align:center' src=img/fixation3.jpg></div><div class='cl'><div class='vertical-center'>$18<br>for<br>sure</div></div><div class='cr'><div class='vertical-center'><font style='color:orange'>$36<br>with a<br>50% chance</font></div></div><div class='respDivL'><div class='vertical-center'>(E)</div></div><div class='respDivR'><div class='vertical-center'><font style='color:orange'>(I)</font></div></div></div>","null","$18","$36","0","18","36",""
"html-keyboard-response","73","80697","0.0-5.0-1.23","63bb98852cdc67dece8adb8e","bdp_rd","Sat Mar 25 2023 19:01:53 GMT-0500 (Central Daylight Time)","160961","","null","","","","FIX","","<div class='trialBorder'><div class='vertical-center'><img style='vertical-align:center; align:center' src=img/fixation3.jpg></div></div>","null","","","","","",""
"html-keyboard-response","74","83121","0.0-5.0-2.23","63bb98852cdc67dece8adb8e","bdp_rd","Sat Mar 25 2023 19:01:53 GMT-0500 (Central Daylight Time)","160961","","2424","","","","offer","","<div class='trialBorder'><div class='vertical-center'><img style='vertical-align:center; align:center' src=img/fixation3.jpg></div><div class='cl'><div class='vertical-center'>$53<br>for<br>sure</div></div><div class='cr'><div class='vertical-center'>$98<br>with a<br>50% chance</div></div><div class='respDivL'><div class='vertical-center'>(E)</div></div><div class='respDivR'><div class='vertical-center'>(I)</div></div></div>","I","$53","$98","0","53","98","RISKY"
"html-keyboard-response","75","83377","0.0-5.0-3.23","63bb98852cdc67dece8adb8e","bdp_rd","Sat Mar 25 2023 19:01:53 GMT-0500 (Central Daylight Time)","160961","","null","","","","offerFB","","<div class='trialBorder'><div class='vertical-center'><img style='vertical-align:center; align:center' src=img/fixation3.jpg></div><div class='cl'><div class='vertical-center'>$53<br>for<br>sure</div></div><div class='cr'><div class='vertical-center'><font style='color:orange'>$98<br>with a<br>50% chance</font></div></div><div class='respDivL'><div class='vertical-center'>(E)</div></div><div class='respDivR'><div class='vertical-center'><font style='color:orange'>(I)</font></div></div></div>","null","$53","$98","0","53","98",""
"html-keyboard-response","76","83881","0.0-5.0-1.24","63bb98852cdc67dece8adb8e","bdp_rd","Sat Mar 25 2023 19:01:53 GMT-0500 (Central Daylight Time)","160961","","null","","","","FIX","","<div class='trialBorder'><div class='vertical-center'><img style='vertical-align:center; align:center' src=img/fixation3.jpg></div></div>","null","","","","","",""
"html-keyboard-response","77","85716","0.0-5.0-2.24","63bb98852cdc67dece8adb8e","bdp_rd","Sat Mar 25 2023 19:01:53 GMT-0500 (Central Daylight Time)","160961","","1835","","","","offer","","<div class='trialBorder'><div class='vertical-center'><img style='vertical-align:center; align:center' src=img/fixation3.jpg></div><div class='cl'><div class='vertical-center'>$50<br>with a<br>50% chance</div></div><div class='cr'><div class='vertical-center'>$5<br>for<br>sure</div></div><div class='respDivL'><div class='vertical-center'>(E)</div></div><div class='respDivR'><div class='vertical-center'>(I)</div></div></div>","E","$5","$50","1","5","50","RISKY"
"html-keyboard-response","78","85968","0.0-5.0-3.24","63bb98852cdc67dece8adb8e","bdp_rd","Sat Mar 25 2023 19:01:53 GMT-0500 (Central Daylight Time)","160961","","null","","","","offerFB","","<div class='trialBorder'><div class='vertical-center'><img style='vertical-align:center; align:center' src=img/fixation3.jpg></div><div class='cl'><div class='vertical-center'><font style='color:orange'>$50<br>with a<br>50% chance</font></div></div><div class='cr'><div class='vertical-center'>$5<br>for<br>sure</div></div><div class='respDivL'><div class='vertical-center'><font style='color:orange'>(E)</font></div></div><div class='respDivR'><div class='vertical-center'>(I)</div></div></div>","null","$5","$50","1","5","50",""
"html-keyboard-response","79","86472","0.0-5.0-1.25","63bb98852cdc67dece8adb8e","bdp_rd","Sat Mar 25 2023 19:01:53 GMT-0500 (Central Daylight Time)","160961","","null","","","","FIX","","<div class='trialBorder'><div class='vertical-center'><img style='vertical-align:center; align:center' src=img/fixation3.jpg></div></div>","null","","","","","",""
"html-keyboard-response","80","87559","0.0-5.0-2.25","63bb98852cdc67dece8adb8e","bdp_rd","Sat Mar 25 2023 19:01:53 GMT-0500 (Central Daylight Time)","160961","","1086","","","","offer","","<div class='trialBorder'><div class='vertical-center'><img style='vertical-align:center; align:center' src=img/fixation3.jpg></div><div class='cl'><div class='vertical-center'>$17<br>for<br>sure</div></div><div class='cr'><div class='vertical-center'>$43<br>with a<br>50% chance</div></div><div class='respDivL'><div class='vertical-center'>(E)</div></div><div class='respDivR'><div class='vertical-center'>(I)</div></div></div>","I","$17","$43","0","17","43","RISKY"
"html-keyboard-response","81","87817","0.0-5.0-3.25","63bb98852cdc67dece8adb8e","bdp_rd","Sat Mar 25 2023 19:01:53 GMT-0500 (Central Daylight Time)","160961","","null","","","","offerFB","","<div class='trialBorder'><div class='vertical-center'><img style='vertical-align:center; align:center' src=img/fixation3.jpg></div><div class='cl'><div class='vertical-center'>$17<br>for<br>sure</div></div><div class='cr'><div class='vertical-center'><font style='color:orange'>$43<br>with a<br>50% chance</font></div></div><div class='respDivL'><div class='vertical-center'>(E)</div></div><div class='respDivR'><div class='vertical-center'><font style='color:orange'>(I)</font></div></div></div>","null","$17","$43","0","17","43",""
"html-keyboard-response","82","88320","0.0-5.0-1.26","63bb98852cdc67dece8adb8e","bdp_rd","Sat Mar 25 2023 19:01:53 GMT-0500 (Central Daylight Time)","160961","","null","","","","FIX","","<div class='trialBorder'><div class='vertical-center'><img style='vertical-align:center; align:center' src=img/fixation3.jpg></div></div>","null","","","","","",""
"html-keyboard-response","83","89019","0.0-5.0-2.26","63bb98852cdc67dece8adb8e","bdp_rd","Sat Mar 25 2023 19:01:53 GMT-0500 (Central Daylight Time)","160961","","698","","","","offer","","<div class='trialBorder'><div class='vertical-center'><img style='vertical-align:center; align:center' src=img/fixation3.jpg></div><div class='cl'><div class='vertical-center'>$6<br>for<br>sure</div></div><div class='cr'><div class='vertical-center'>$15<br>with a<br>50% chance</div></div><div class='respDivL'><div class='vertical-center'>(E)</div></div><div class='respDivR'><div class='vertical-center'>(I)</div></div></div>","I","$6","$15","0","6","15","RISKY"
"html-keyboard-response","84","89273","0.0-5.0-3.26","63bb98852cdc67dece8adb8e","bdp_rd","Sat Mar 25 2023 19:01:53 GMT-0500 (Central Daylight Time)","160961","","null","","","","offerFB","","<div class='trialBorder'><div class='vertical-center'><img style='vertical-align:center; align:center' src=img/fixation3.jpg></div><div class='cl'><div class='vertical-center'>$6<br>for<br>sure</div></div><div class='cr'><div class='vertical-center'><font style='color:orange'>$15<br>with a<br>50% chance</font></div></div><div class='respDivL'><div class='vertical-center'>(E)</div></div><div class='respDivR'><div class='vertical-center'><font style='color:orange'>(I)</font></div></div></div>","null","$6","$15","0","6","15",""
"html-keyboard-response","85","89776","0.0-5.0-1.27","63bb98852cdc67dece8adb8e","bdp_rd","Sat Mar 25 2023 19:01:53 GMT-0500 (Central Daylight Time)","160961","","null","","","","FIX","","<div class='trialBorder'><div class='vertical-center'><img style='vertical-align:center; align:center' src=img/fixation3.jpg></div></div>","null","","","","","",""
"html-keyboard-response","86","91496","0.0-5.0-2.27","63bb98852cdc67dece8adb8e","bdp_rd","Sat Mar 25 2023 19:01:53 GMT-0500 (Central Daylight Time)","160961","","1718","","","","offer","","<div class='trialBorder'><div class='vertical-center'><img style='vertical-align:center; align:center' src=img/fixation3.jpg></div><div class='cl'><div class='vertical-center'>$40<br>for<br>sure</div></div><div class='cr'><div class='vertical-center'>$95<br>with a<br>50% chance</div></div><div class='respDivL'><div class='vertical-center'>(E)</div></div><div class='respDivR'><div class='vertical-center'>(I)</div></div></div>","I","$40","$95","0","40","95","RISKY"
"html-keyboard-response","87","91752","0.0-5.0-3.27","63bb98852cdc67dece8adb8e","bdp_rd","Sat Mar 25 2023 19:01:53 GMT-0500 (Central Daylight Time)","160961","","null","","","","offerFB","","<div class='trialBorder'><div class='vertical-center'><img style='vertical-align:center; align:center' src=img/fixation3.jpg></div><div class='cl'><div class='vertical-center'>$40<br>for<br>sure</div></div><div class='cr'><div class='vertical-center'><font style='color:orange'>$95<br>with a<br>50% chance</font></div></div><div class='respDivL'><div class='vertical-center'>(E)</div></div><div class='respDivR'><div class='vertical-center'><font style='color:orange'>(I)</font></div></div></div>","null","$40","$95","0","40","95",""
"html-keyboard-response","88","92257","0.0-5.0-1.28","63bb98852cdc67dece8adb8e","bdp_rd","Sat Mar 25 2023 19:01:53 GMT-0500 (Central Daylight Time)","160961","","null","","","","FIX","","<div class='trialBorder'><div class='vertical-center'><img style='vertical-align:center; align:center' src=img/fixation3.jpg></div></div>","null","","","","","",""
"html-keyboard-response","89","94063","0.0-5.0-2.28","63bb98852cdc67dece8adb8e","bdp_rd","Sat Mar 25 2023 19:01:53 GMT-0500 (Central Daylight Time)","160961","","1805","","","","offer","","<div class='trialBorder'><div class='vertical-center'><img style='vertical-align:center; align:center' src=img/fixation3.jpg></div><div class='cl'><div class='vertical-center'>$59<br>with a<br>50% chance</div></div><div class='cr'><div class='vertical-center'>$22<br>for<br>sure</div></div><div class='respDivL'><div class='vertical-center'>(E)</div></div><div class='respDivR'><div class='vertical-center'>(I)</div></div></div>","E","$22","$59","1","22","59","RISKY"
"html-keyboard-response","90","94321","0.0-5.0-3.28","63bb98852cdc67dece8adb8e","bdp_rd","Sat Mar 25 2023 19:01:53 GMT-0500 (Central Daylight Time)","160961","","null","","","","offerFB","","<div class='trialBorder'><div class='vertical-center'><img style='vertical-align:center; align:center' src=img/fixation3.jpg></div><div class='cl'><div class='vertical-center'><font style='color:orange'>$59<br>with a<br>50% chance</font></div></div><div class='cr'><div class='vertical-center'>$22<br>for<br>sure</div></div><div class='respDivL'><div class='vertical-center'><font style='color:orange'>(E)</font></div></div><div class='respDivR'><div class='vertical-center'>(I)</div></div></div>","null","$22","$59","1","22","59",""
"html-keyboard-response","91","94824","0.0-5.0-1.29","63bb98852cdc67dece8adb8e","bdp_rd","Sat Mar 25 2023 19:01:53 GMT-0500 (Central Daylight Time)","160961","","null","","","","FIX","","<div class='trialBorder'><div class='vertical-center'><img style='vertical-align:center; align:center' src=img/fixation3.jpg></div></div>","null","","","","","",""
"html-keyboard-response","92","95647","0.0-5.0-2.29","63bb98852cdc67dece8adb8e","bdp_rd","Sat Mar 25 2023 19:01:53 GMT-0500 (Central Daylight Time)","160961","","822","","","","offer","","<div class='trialBorder'><div class='vertical-center'><img style='vertical-align:center; align:center' src=img/fixation3.jpg></div><div class='cl'><div class='vertical-center'>$15<br>for<br>sure</div></div><div class='cr'><div class='vertical-center'>$31<br>with a<br>50% chance</div></div><div class='respDivL'><div class='vertical-center'>(E)</div></div><div class='respDivR'><div class='vertical-center'>(I)</div></div></div>","I","$15","$31","0","15","31","RISKY"
"html-keyboard-response","93","95905","0.0-5.0-3.29","63bb98852cdc67dece8adb8e","bdp_rd","Sat Mar 25 2023 19:01:53 GMT-0500 (Central Daylight Time)","160961","","null","","","","offerFB","","<div class='trialBorder'><div class='vertical-center'><img style='vertical-align:center; align:center' src=img/fixation3.jpg></div><div class='cl'><div class='vertical-center'>$15<br>for<br>sure</div></div><div class='cr'><div class='vertical-center'><font style='color:orange'>$31<br>with a<br>50% chance</font></div></div><div class='respDivL'><div class='vertical-center'>(E)</div></div><div class='respDivR'><div class='vertical-center'><font style='color:orange'>(I)</font></div></div></div>","null","$15","$31","0","15","31",""
"html-keyboard-response","94","96408","0.0-5.0-1.30","63bb98852cdc67dece8adb8e","bdp_rd","Sat Mar 25 2023 19:01:53 GMT-0500 (Central Daylight Time)","160961","","null","","","","FIX","","<div class='trialBorder'><div class='vertical-center'><img style='vertical-align:center; align:center' src=img/fixation3.jpg></div></div>","null","","","","","",""
"html-keyboard-response","95","97390","0.0-5.0-2.30","63bb98852cdc67dece8adb8e","bdp_rd","Sat Mar 25 2023 19:01:53 GMT-0500 (Central Daylight Time)","160961","","980","","","","offer","","<div class='trialBorder'><div class='vertical-center'><img style='vertical-align:center; align:center' src=img/fixation3.jpg></div><div class='cl'><div class='vertical-center'>$81<br>with a<br>50% chance</div></div><div class='cr'><div class='vertical-center'>$39<br>for<br>sure</div></div><div class='respDivL'><div class='vertical-center'>(E)</div></div><div class='respDivR'><div class='vertical-center'>(I)</div></div></div>","E","$39","$81","1","39","81","RISKY"
"html-keyboard-response","96","97649","0.0-5.0-3.30","63bb98852cdc67dece8adb8e","bdp_rd","Sat Mar 25 2023 19:01:53 GMT-0500 (Central Daylight Time)","160961","","null","","","","offerFB","","<div class='trialBorder'><div class='vertical-center'><img style='vertical-align:center; align:center' src=img/fixation3.jpg></div><div class='cl'><div class='vertical-center'><font style='color:orange'>$81<br>with a<br>50% chance</font></div></div><div class='cr'><div class='vertical-center'>$39<br>for<br>sure</div></div><div class='respDivL'><div class='vertical-center'><font style='color:orange'>(E)</font></div></div><div class='respDivR'><div class='vertical-center'>(I)</div></div></div>","null","$39","$81","1","39","81",""
"html-keyboard-response","97","98153","0.0-5.0-1.31","63bb98852cdc67dece8adb8e","bdp_rd","Sat Mar 25 2023 19:01:53 GMT-0500 (Central Daylight Time)","160961","","null","","","","FIX","","<div class='trialBorder'><div class='vertical-center'><img style='vertical-align:center; align:center' src=img/fixation3.jpg></div></div>","null","","","","","",""
"html-keyboard-response","98","99523","0.0-5.0-2.31","63bb98852cdc67dece8adb8e","bdp_rd","Sat Mar 25 2023 19:01:53 GMT-0500 (Central Daylight Time)","160961","","1370","","","","offer","","<div class='trialBorder'><div class='vertical-center'><img style='vertical-align:center; align:center' src=img/fixation3.jpg></div><div class='cl'><div class='vertical-center'>$78<br>with a<br>50% chance</div></div><div class='cr'><div class='vertical-center'>$31<br>for<br>sure</div></div><div class='respDivL'><div class='vertical-center'>(E)</div></div><div class='respDivR'><div class='vertical-center'>(I)</div></div></div>","E","$31","$78","1","31","78","RISKY"
"html-keyboard-response","99","99777","0.0-5.0-3.31","63bb98852cdc67dece8adb8e","bdp_rd","Sat Mar 25 2023 19:01:53 GMT-0500 (Central Daylight Time)","160961","","null","","","","offerFB","","<div class='trialBorder'><div class='vertical-center'><img style='vertical-align:center; align:center' src=img/fixation3.jpg></div><div class='cl'><div class='vertical-center'><font style='color:orange'>$78<br>with a<br>50% chance</font></div></div><div class='cr'><div class='vertical-center'>$31<br>for<br>sure</div></div><div class='respDivL'><div class='vertical-center'><font style='color:orange'>(E)</font></div></div><div class='respDivR'><div class='vertical-center'>(I)</div></div></div>","null","$31","$78","1","31","78",""
"html-keyboard-response","100","100281","0.0-5.0-1.32","63bb98852cdc67dece8adb8e","bdp_rd","Sat Mar 25 2023 19:01:53 GMT-0500 (Central Daylight Time)","160961","","null","","","","FIX","","<div class='trialBorder'><div class='vertical-center'><img style='vertical-align:center; align:center' src=img/fixation3.jpg></div></div>","null","","","","","",""
"html-keyboard-response","101","102180","0.0-5.0-2.32","63bb98852cdc67dece8adb8e","bdp_rd","Sat Mar 25 2023 19:01:53 GMT-0500 (Central Daylight Time)","160961","","1899","","","","offer","","<div class='trialBorder'><div class='vertical-center'><img style='vertical-align:center; align:center' src=img/fixation3.jpg></div><div class='cl'><div class='vertical-center'>$68<br>with a<br>50% chance</div></div><div class='cr'><div class='vertical-center'>$30<br>for<br>sure</div></div><div class='respDivL'><div class='vertical-center'>(E)</div></div><div class='respDivR'><div class='vertical-center'>(I)</div></div></div>","E","$30","$68","1","30","68","RISKY"
"html-keyboard-response","102","102433","0.0-5.0-3.32","63bb98852cdc67dece8adb8e","bdp_rd","Sat Mar 25 2023 19:01:53 GMT-0500 (Central Daylight Time)","160961","","null","","","","offerFB","","<div class='trialBorder'><div class='vertical-center'><img style='vertical-align:center; align:center' src=img/fixation3.jpg></div><div class='cl'><div class='vertical-center'><font style='color:orange'>$68<br>with a<br>50% chance</font></div></div><div class='cr'><div class='vertical-center'>$30<br>for<br>sure</div></div><div class='respDivL'><div class='vertical-center'><font style='color:orange'>(E)</font></div></div><div class='respDivR'><div class='vertical-center'>(I)</div></div></div>","null","$30","$68","1","30","68",""
"html-keyboard-response","103","102936","0.0-5.0-1.33","63bb98852cdc67dece8adb8e","bdp_rd","Sat Mar 25 2023 19:01:53 GMT-0500 (Central Daylight Time)","160961","","null","","","","FIX","","<div class='trialBorder'><div class='vertical-center'><img style='vertical-align:center; align:center' src=img/fixation3.jpg></div></div>","null","","","","","",""
"html-keyboard-response","104","103836","0.0-5.0-2.33","63bb98852cdc67dece8adb8e","bdp_rd","Sat Mar 25 2023 19:01:53 GMT-0500 (Central Daylight Time)","160961","","899","","","","offer","","<div class='trialBorder'><div class='vertical-center'><img style='vertical-align:center; align:center' src=img/fixation3.jpg></div><div class='cl'><div class='vertical-center'>$29<br>with a<br>50% chance</div></div><div class='cr'><div class='vertical-center'>$14<br>for<br>sure</div></div><div class='respDivL'><div class='vertical-center'>(E)</div></div><div class='respDivR'><div class='vertical-center'>(I)</div></div></div>","E","$14","$29","1","14","29","RISKY"
"html-keyboard-response","105","104089","0.0-5.0-3.33","63bb98852cdc67dece8adb8e","bdp_rd","Sat Mar 25 2023 19:01:53 GMT-0500 (Central Daylight Time)","160961","","null","","","","offerFB","","<div class='trialBorder'><div class='vertical-center'><img style='vertical-align:center; align:center' src=img/fixation3.jpg></div><div class='cl'><div class='vertical-center'><font style='color:orange'>$29<br>with a<br>50% chance</font></div></div><div class='cr'><div class='vertical-center'>$14<br>for<br>sure</div></div><div class='respDivL'><div class='vertical-center'><font style='color:orange'>(E)</font></div></div><div class='respDivR'><div class='vertical-center'>(I)</div></div></div>","null","$14","$29","1","14","29",""
"html-keyboard-response","106","104593","0.0-5.0-1.34","63bb98852cdc67dece8adb8e","bdp_rd","Sat Mar 25 2023 19:01:53 GMT-0500 (Central Daylight Time)","160961","","null","","","","FIX","","<div class='trialBorder'><div class='vertical-center'><img style='vertical-align:center; align:center' src=img/fixation3.jpg></div></div>","null","","","","","",""
"html-keyboard-response","107","105556","0.0-5.0-2.34","63bb98852cdc67dece8adb8e","bdp_rd","Sat Mar 25 2023 19:01:53 GMT-0500 (Central Daylight Time)","160961","","962","","","","offer","","<div class='trialBorder'><div class='vertical-center'><img style='vertical-align:center; align:center' src=img/fixation3.jpg></div><div class='cl'><div class='vertical-center'>$37<br>for<br>sure</div></div><div class='cr'><div class='vertical-center'>$44<br>with a<br>50% chance</div></div><div class='respDivL'><div class='vertical-center'>(E)</div></div><div class='respDivR'><div class='vertical-center'>(I)</div></div></div>","I","$37","$44","0","37","44","RISKY"
"html-keyboard-response","108","105809","0.0-5.0-3.34","63bb98852cdc67dece8adb8e","bdp_rd","Sat Mar 25 2023 19:01:53 GMT-0500 (Central Daylight Time)","160961","","null","","","","offerFB","","<div class='trialBorder'><div class='vertical-center'><img style='vertical-align:center; align:center' src=img/fixation3.jpg></div><div class='cl'><div class='vertical-center'>$37<br>for<br>sure</div></div><div class='cr'><div class='vertical-center'><font style='color:orange'>$44<br>with a<br>50% chance</font></div></div><div class='respDivL'><div class='vertical-center'>(E)</div></div><div class='respDivR'><div class='vertical-center'><font style='color:orange'>(I)</font></div></div></div>","null","$37","$44","0","37","44",""
"html-keyboard-response","109","106313","0.0-5.0-1.35","63bb98852cdc67dece8adb8e","bdp_rd","Sat Mar 25 2023 19:01:53 GMT-0500 (Central Daylight Time)","160961","","null","","","","FIX","","<div class='trialBorder'><div class='vertical-center'><img style='vertical-align:center; align:center' src=img/fixation3.jpg></div></div>","null","","","","","",""
"html-keyboard-response","110","107295","0.0-5.0-2.35","63bb98852cdc67dece8adb8e","bdp_rd","Sat Mar 25 2023 19:01:53 GMT-0500 (Central Daylight Time)","160961","","980","","","","offer","","<div class='trialBorder'><div class='vertical-center'><img style='vertical-align:center; align:center' src=img/fixation3.jpg></div><div class='cl'><div class='vertical-center'>$8<br>for<br>sure</div></div><div class='cr'><div class='vertical-center'>$23<br>with a<br>50% chance</div></div><div class='respDivL'><div class='vertical-center'>(E)</div></div><div class='respDivR'><div class='vertical-center'>(I)</div></div></div>","I","$8","$23","0","8","23","RISKY"
"html-keyboard-response","111","107552","0.0-5.0-3.35","63bb98852cdc67dece8adb8e","bdp_rd","Sat Mar 25 2023 19:01:53 GMT-0500 (Central Daylight Time)","160961","","null","","","","offerFB","","<div class='trialBorder'><div class='vertical-center'><img style='vertical-align:center; align:center' src=img/fixation3.jpg></div><div class='cl'><div class='vertical-center'>$8<br>for<br>sure</div></div><div class='cr'><div class='vertical-center'><font style='color:orange'>$23<br>with a<br>50% chance</font></div></div><div class='respDivL'><div class='vertical-center'>(E)</div></div><div class='respDivR'><div class='vertical-center'><font style='color:orange'>(I)</font></div></div></div>","null","$8","$23","0","8","23",""
"html-keyboard-response","112","108057","0.0-5.0-1.36","63bb98852cdc67dece8adb8e","bdp_rd","Sat Mar 25 2023 19:01:53 GMT-0500 (Central Daylight Time)","160961","","null","","","","FIX","","<div class='trialBorder'><div class='vertical-center'><img style='vertical-align:center; align:center' src=img/fixation3.jpg></div></div>","null","","","","","",""
"html-keyboard-response","113","109083","0.0-5.0-2.36","63bb98852cdc67dece8adb8e","bdp_rd","Sat Mar 25 2023 19:01:53 GMT-0500 (Central Daylight Time)","160961","","1025","","","","offer","","<div class='trialBorder'><div class='vertical-center'><img style='vertical-align:center; align:center' src=img/fixation3.jpg></div><div class='cl'><div class='vertical-center'>$28<br>for<br>sure</div></div><div class='cr'><div class='vertical-center'>$89<br>with a<br>50% chance</div></div><div class='respDivL'><div class='vertical-center'>(E)</div></div><div class='respDivR'><div class='vertical-center'>(I)</div></div></div>","I","$28","$89","0","28","89","RISKY"
"html-keyboard-response","114","109337","0.0-5.0-3.36","63bb98852cdc67dece8adb8e","bdp_rd","Sat Mar 25 2023 19:01:53 GMT-0500 (Central Daylight Time)","160961","","null","","","","offerFB","","<div class='trialBorder'><div class='vertical-center'><img style='vertical-align:center; align:center' src=img/fixation3.jpg></div><div class='cl'><div class='vertical-center'>$28<br>for<br>sure</div></div><div class='cr'><div class='vertical-center'><font style='color:orange'>$89<br>with a<br>50% chance</font></div></div><div class='respDivL'><div class='vertical-center'>(E)</div></div><div class='respDivR'><div class='vertical-center'><font style='color:orange'>(I)</font></div></div></div>","null","$28","$89","0","28","89",""
"html-keyboard-response","115","109841","0.0-5.0-1.37","63bb98852cdc67dece8adb8e","bdp_rd","Sat Mar 25 2023 19:01:53 GMT-0500 (Central Daylight Time)","160961","","null","","","","FIX","","<div class='trialBorder'><div class='vertical-center'><img style='vertical-align:center; align:center' src=img/fixation3.jpg></div></div>","null","","","","","",""
"html-keyboard-response","116","111059","0.0-5.0-2.37","63bb98852cdc67dece8adb8e","bdp_rd","Sat Mar 25 2023 19:01:53 GMT-0500 (Central Daylight Time)","160961","","1218","","","","offer","","<div class='trialBorder'><div class='vertical-center'><img style='vertical-align:center; align:center' src=img/fixation3.jpg></div><div class='cl'><div class='vertical-center'>$92<br>with a<br>50% chance</div></div><div class='cr'><div class='vertical-center'>$26<br>for<br>sure</div></div><div class='respDivL'><div class='vertical-center'>(E)</div></div><div class='respDivR'><div class='vertical-center'>(I)</div></div></div>","E","$26","$92","1","26","92","RISKY"
"html-keyboard-response","117","111312","0.0-5.0-3.37","63bb98852cdc67dece8adb8e","bdp_rd","Sat Mar 25 2023 19:01:53 GMT-0500 (Central Daylight Time)","160961","","null","","","","offerFB","","<div class='trialBorder'><div class='vertical-center'><img style='vertical-align:center; align:center' src=img/fixation3.jpg></div><div class='cl'><div class='vertical-center'><font style='color:orange'>$92<br>with a<br>50% chance</font></div></div><div class='cr'><div class='vertical-center'>$26<br>for<br>sure</div></div><div class='respDivL'><div class='vertical-center'><font style='color:orange'>(E)</font></div></div><div class='respDivR'><div class='vertical-center'>(I)</div></div></div>","null","$26","$92","1","26","92",""
"html-keyboard-response","118","111816","0.0-5.0-1.38","63bb98852cdc67dece8adb8e","bdp_rd","Sat Mar 25 2023 19:01:53 GMT-0500 (Central Daylight Time)","160961","","null","","","","FIX","","<div class='trialBorder'><div class='vertical-center'><img style='vertical-align:center; align:center' src=img/fixation3.jpg></div></div>","null","","","","","",""
"html-keyboard-response","119","113327","0.0-5.0-2.38","63bb98852cdc67dece8adb8e","bdp_rd","Sat Mar 25 2023 19:01:53 GMT-0500 (Central Daylight Time)","160961","","1509","","","","offer","","<div class='trialBorder'><div class='vertical-center'><img style='vertical-align:center; align:center' src=img/fixation3.jpg></div><div class='cl'><div class='vertical-center'>$46<br>with a<br>50% chance</div></div><div class='cr'><div class='vertical-center'>$29<br>for<br>sure</div></div><div class='respDivL'><div class='vertical-center'>(E)</div></div><div class='respDivR'><div class='vertical-center'>(I)</div></div></div>","E","$29","$46","1","29","46","RISKY"
"html-keyboard-response","120","113586","0.0-5.0-3.38","63bb98852cdc67dece8adb8e","bdp_rd","Sat Mar 25 2023 19:01:53 GMT-0500 (Central Daylight Time)","160961","","null","","","","offerFB","","<div class='trialBorder'><div class='vertical-center'><img style='vertical-align:center; align:center' src=img/fixation3.jpg></div><div class='cl'><div class='vertical-center'><font style='color:orange'>$46<br>with a<br>50% chance</font></div></div><div class='cr'><div class='vertical-center'>$29<br>for<br>sure</div></div><div class='respDivL'><div class='vertical-center'><font style='color:orange'>(E)</font></div></div><div class='respDivR'><div class='vertical-center'>(I)</div></div></div>","null","$29","$46","1","29","46",""
"html-keyboard-response","121","114088","0.0-5.0-1.39","63bb98852cdc67dece8adb8e","bdp_rd","Sat Mar 25 2023 19:01:53 GMT-0500 (Central Daylight Time)","160961","","null","","","","FIX","","<div class='trialBorder'><div class='vertical-center'><img style='vertical-align:center; align:center' src=img/fixation3.jpg></div></div>","null","","","","","",""
"html-keyboard-response","122","115201","0.0-5.0-2.39","63bb98852cdc67dece8adb8e","bdp_rd","Sat Mar 25 2023 19:01:53 GMT-0500 (Central Daylight Time)","160961","","1112","","","","offer","","<div class='trialBorder'><div class='vertical-center'><img style='vertical-align:center; align:center' src=img/fixation3.jpg></div><div class='cl'><div class='vertical-center'>$14<br>for<br>sure</div></div><div class='cr'><div class='vertical-center'>$22<br>with a<br>50% chance</div></div><div class='respDivL'><div class='vertical-center'>(E)</div></div><div class='respDivR'><div class='vertical-center'>(I)</div></div></div>","I","$14","$22","0","14","22","RISKY"
"html-keyboard-response","123","115457","0.0-5.0-3.39","63bb98852cdc67dece8adb8e","bdp_rd","Sat Mar 25 2023 19:01:53 GMT-0500 (Central Daylight Time)","160961","","null","","","","offerFB","","<div class='trialBorder'><div class='vertical-center'><img style='vertical-align:center; align:center' src=img/fixation3.jpg></div><div class='cl'><div class='vertical-center'>$14<br>for<br>sure</div></div><div class='cr'><div class='vertical-center'><font style='color:orange'>$22<br>with a<br>50% chance</font></div></div><div class='respDivL'><div class='vertical-center'>(E)</div></div><div class='respDivR'><div class='vertical-center'><font style='color:orange'>(I)</font></div></div></div>","null","$14","$22","0","14","22",""
"html-keyboard-response","124","115961","0.0-5.0-1.40","63bb98852cdc67dece8adb8e","bdp_rd","Sat Mar 25 2023 19:01:53 GMT-0500 (Central Daylight Time)","160961","","null","","","","FIX","","<div class='trialBorder'><div class='vertical-center'><img style='vertical-align:center; align:center' src=img/fixation3.jpg></div></div>","null","","","","","",""
"html-keyboard-response","125","116748","0.0-5.0-2.40","63bb98852cdc67dece8adb8e","bdp_rd","Sat Mar 25 2023 19:01:53 GMT-0500 (Central Daylight Time)","160961","","786","","","","offer","","<div class='trialBorder'><div class='vertical-center'><img style='vertical-align:center; align:center' src=img/fixation3.jpg></div><div class='cl'><div class='vertical-center'>$30<br>with a<br>50% chance</div></div><div class='cr'><div class='vertical-center'>$1<br>for<br>sure</div></div><div class='respDivL'><div class='vertical-center'>(E)</div></div><div class='respDivR'><div class='vertical-center'>(I)</div></div></div>","E","$1","$30","1","1","30","RISKY"
"html-keyboard-response","126","117000","0.0-5.0-3.40","63bb98852cdc67dece8adb8e","bdp_rd","Sat Mar 25 2023 19:01:53 GMT-0500 (Central Daylight Time)","160961","","null","","","","offerFB","","<div class='trialBorder'><div class='vertical-center'><img style='vertical-align:center; align:center' src=img/fixation3.jpg></div><div class='cl'><div class='vertical-center'><font style='color:orange'>$30<br>with a<br>50% chance</font></div></div><div class='cr'><div class='vertical-center'>$1<br>for<br>sure</div></div><div class='respDivL'><div class='vertical-center'><font style='color:orange'>(E)</font></div></div><div class='respDivR'><div class='vertical-center'>(I)</div></div></div>","null","$1","$30","1","1","30",""
"html-keyboard-response","127","117505","0.0-5.0-1.41","63bb98852cdc67dece8adb8e","bdp_rd","Sat Mar 25 2023 19:01:53 GMT-0500 (Central Daylight Time)","160961","","null","","","","FIX","","<div class='trialBorder'><div class='vertical-center'><img style='vertical-align:center; align:center' src=img/fixation3.jpg></div></div>","null","","","","","",""
"html-keyboard-response","128","118544","0.0-5.0-2.41","63bb98852cdc67dece8adb8e","bdp_rd","Sat Mar 25 2023 19:01:53 GMT-0500 (Central Daylight Time)","160961","","1039","","","","offer","","<div class='trialBorder'><div class='vertical-center'><img style='vertical-align:center; align:center' src=img/fixation3.jpg></div><div class='cl'><div class='vertical-center'>$12<br>with a<br>50% chance</div></div><div class='cr'><div class='vertical-center'>$3<br>for<br>sure</div></div><div class='respDivL'><div class='vertical-center'>(E)</div></div><div class='respDivR'><div class='vertical-center'>(I)</div></div></div>","E","$3","$12","1","3","12","RISKY"
"html-keyboard-response","129","118801","0.0-5.0-3.41","63bb98852cdc67dece8adb8e","bdp_rd","Sat Mar 25 2023 19:01:53 GMT-0500 (Central Daylight Time)","160961","","null","","","","offerFB","","<div class='trialBorder'><div class='vertical-center'><img style='vertical-align:center; align:center' src=img/fixation3.jpg></div><div class='cl'><div class='vertical-center'><font style='color:orange'>$12<br>with a<br>50% chance</font></div></div><div class='cr'><div class='vertical-center'>$3<br>for<br>sure</div></div><div class='respDivL'><div class='vertical-center'><font style='color:orange'>(E)</font></div></div><div class='respDivR'><div class='vertical-center'>(I)</div></div></div>","null","$3","$12","1","3","12",""
"html-keyboard-response","130","119305","0.0-5.0-1.42","63bb98852cdc67dece8adb8e","bdp_rd","Sat Mar 25 2023 19:01:53 GMT-0500 (Central Daylight Time)","160961","","null","","","","FIX","","<div class='trialBorder'><div class='vertical-center'><img style='vertical-align:center; align:center' src=img/fixation3.jpg></div></div>","null","","","","","",""
"html-keyboard-response","131","120158","0.0-5.0-2.42","63bb98852cdc67dece8adb8e","bdp_rd","Sat Mar 25 2023 19:01:53 GMT-0500 (Central Daylight Time)","160961","","853","","","","offer","","<div class='trialBorder'><div class='vertical-center'><img style='vertical-align:center; align:center' src=img/fixation3.jpg></div><div class='cl'><div class='vertical-center'>$11<br>for<br>sure</div></div><div class='cr'><div class='vertical-center'>$62<br>with a<br>50% chance</div></div><div class='respDivL'><div class='vertical-center'>(E)</div></div><div class='respDivR'><div class='vertical-center'>(I)</div></div></div>","I","$11","$62","0","11","62","RISKY"
"html-keyboard-response","132","120417","0.0-5.0-3.42","63bb98852cdc67dece8adb8e","bdp_rd","Sat Mar 25 2023 19:01:53 GMT-0500 (Central Daylight Time)","160961","","null","","","","offerFB","","<div class='trialBorder'><div class='vertical-center'><img style='vertical-align:center; align:center' src=img/fixation3.jpg></div><div class='cl'><div class='vertical-center'>$11<br>for<br>sure</div></div><div class='cr'><div class='vertical-center'><font style='color:orange'>$62<br>with a<br>50% chance</font></div></div><div class='respDivL'><div class='vertical-center'>(E)</div></div><div class='respDivR'><div class='vertical-center'><font style='color:orange'>(I)</font></div></div></div>","null","$11","$62","0","11","62",""
"html-keyboard-response","133","120921","0.0-5.0-1.43","63bb98852cdc67dece8adb8e","bdp_rd","Sat Mar 25 2023 19:01:53 GMT-0500 (Central Daylight Time)","160961","","null","","","","FIX","","<div class='trialBorder'><div class='vertical-center'><img style='vertical-align:center; align:center' src=img/fixation3.jpg></div></div>","null","","","","","",""
"html-keyboard-response","134","125170","0.0-5.0-2.43","63bb98852cdc67dece8adb8e","bdp_rd","Sat Mar 25 2023 19:01:53 GMT-0500 (Central Daylight Time)","160961","","4247","","","","offer","","<div class='trialBorder'><div class='vertical-center'><img style='vertical-align:center; align:center' src=img/fixation3.jpg></div><div class='cl'><div class='vertical-center'>$20<br>for<br>sure</div></div><div class='cr'><div class='vertical-center'>$80<br>with a<br>50% chance</div></div><div class='respDivL'><div class='vertical-center'>(E)</div></div><div class='respDivR'><div class='vertical-center'>(I)</div></div></div>","I","$20","$80","0","20","80","RISKY"
"html-keyboard-response","135","125424","0.0-5.0-3.43","63bb98852cdc67dece8adb8e","bdp_rd","Sat Mar 25 2023 19:01:53 GMT-0500 (Central Daylight Time)","160961","","null","","","","offerFB","","<div class='trialBorder'><div class='vertical-center'><img style='vertical-align:center; align:center' src=img/fixation3.jpg></div><div class='cl'><div class='vertical-center'>$20<br>for<br>sure</div></div><div class='cr'><div class='vertical-center'><font style='color:orange'>$80<br>with a<br>50% chance</font></div></div><div class='respDivL'><div class='vertical-center'>(E)</div></div><div class='respDivR'><div class='vertical-center'><font style='color:orange'>(I)</font></div></div></div>","null","$20","$80","0","20","80",""
"html-keyboard-response","136","125928","0.0-5.0-1.44","63bb98852cdc67dece8adb8e","bdp_rd","Sat Mar 25 2023 19:01:53 GMT-0500 (Central Daylight Time)","160961","","null","","","","FIX","","<div class='trialBorder'><div class='vertical-center'><img style='vertical-align:center; align:center' src=img/fixation3.jpg></div></div>","null","","","","","",""
"html-keyboard-response","137","127455","0.0-5.0-2.44","63bb98852cdc67dece8adb8e","bdp_rd","Sat Mar 25 2023 19:01:53 GMT-0500 (Central Daylight Time)","160961","","1526","","","","offer","","<div class='trialBorder'><div class='vertical-center'><img style='vertical-align:center; align:center' src=img/fixation3.jpg></div><div class='cl'><div class='vertical-center'>$16<br>for<br>sure</div></div><div class='cr'><div class='vertical-center'>$38<br>with a<br>50% chance</div></div><div class='respDivL'><div class='vertical-center'>(E)</div></div><div class='respDivR'><div class='vertical-center'>(I)</div></div></div>","I","$16","$38","0","16","38","RISKY"
"html-keyboard-response","138","127713","0.0-5.0-3.44","63bb98852cdc67dece8adb8e","bdp_rd","Sat Mar 25 2023 19:01:53 GMT-0500 (Central Daylight Time)","160961","","null","","","","offerFB","","<div class='trialBorder'><div class='vertical-center'><img style='vertical-align:center; align:center' src=img/fixation3.jpg></div><div class='cl'><div class='vertical-center'>$16<br>for<br>sure</div></div><div class='cr'><div class='vertical-center'><font style='color:orange'>$38<br>with a<br>50% chance</font></div></div><div class='respDivL'><div class='vertical-center'>(E)</div></div><div class='respDivR'><div class='vertical-center'><font style='color:orange'>(I)</font></div></div></div>","null","$16","$38","0","16","38",""
"html-keyboard-response","139","128216","0.0-5.0-1.45","63bb98852cdc67dece8adb8e","bdp_rd","Sat Mar 25 2023 19:01:53 GMT-0500 (Central Daylight Time)","160961","","null","","","","FIX","","<div class='trialBorder'><div class='vertical-center'><img style='vertical-align:center; align:center' src=img/fixation3.jpg></div></div>","null","","","","","",""
"html-keyboard-response","140","130080","0.0-5.0-2.45","63bb98852cdc67dece8adb8e","bdp_rd","Sat Mar 25 2023 19:01:53 GMT-0500 (Central Daylight Time)","160961","","1862","","","","offer","","<div class='trialBorder'><div class='vertical-center'><img style='vertical-align:center; align:center' src=img/fixation3.jpg></div><div class='cl'><div class='vertical-center'>$24<br>for<br>sure</div></div><div class='cr'><div class='vertical-center'>$70<br>with a<br>50% chance</div></div><div class='respDivL'><div class='vertical-center'>(E)</div></div><div class='respDivR'><div class='vertical-center'>(I)</div></div></div>","I","$24","$70","0","24","70","RISKY"
"html-keyboard-response","141","130337","0.0-5.0-3.45","63bb98852cdc67dece8adb8e","bdp_rd","Sat Mar 25 2023 19:01:53 GMT-0500 (Central Daylight Time)","160961","","null","","","","offerFB","","<div class='trialBorder'><div class='vertical-center'><img style='vertical-align:center; align:center' src=img/fixation3.jpg></div><div class='cl'><div class='vertical-center'>$24<br>for<br>sure</div></div><div class='cr'><div class='vertical-center'><font style='color:orange'>$70<br>with a<br>50% chance</font></div></div><div class='respDivL'><div class='vertical-center'>(E)</div></div><div class='respDivR'><div class='vertical-center'><font style='color:orange'>(I)</font></div></div></div>","null","$24","$70","0","24","70",""
"html-keyboard-response","142","130840","0.0-5.0-1.46","63bb98852cdc67dece8adb8e","bdp_rd","Sat Mar 25 2023 19:01:53 GMT-0500 (Central Daylight Time)","160961","","null","","","","FIX","","<div class='trialBorder'><div class='vertical-center'><img style='vertical-align:center; align:center' src=img/fixation3.jpg></div></div>","null","","","","","",""
"html-keyboard-response","143","132853","0.0-5.0-2.46","63bb98852cdc67dece8adb8e","bdp_rd","Sat Mar 25 2023 19:01:53 GMT-0500 (Central Daylight Time)","160961","","2012","","","","offer","","<div class='trialBorder'><div class='vertical-center'><img style='vertical-align:center; align:center' src=img/fixation3.jpg></div><div class='cl'><div class='vertical-center'>$34<br>for<br>sure</div></div><div class='cr'><div class='vertical-center'>$48<br>with a<br>50% chance</div></div><div class='respDivL'><div class='vertical-center'>(E)</div></div><div class='respDivR'><div class='vertical-center'>(I)</div></div></div>","E","$34","$48","0","34","48","SURE"
"html-keyboard-response","144","133104","0.0-5.0-3.46","63bb98852cdc67dece8adb8e","bdp_rd","Sat Mar 25 2023 19:01:53 GMT-0500 (Central Daylight Time)","160961","","null","","","","offerFB","","<div class='trialBorder'><div class='vertical-center'><img style='vertical-align:center; align:center' src=img/fixation3.jpg></div><div class='cl'><div class='vertical-center'><font style='color:orange'>$34<br>for<br>sure</font></div></div><div class='cr'><div class='vertical-center'>$48<br>with a<br>50% chance</div></div><div class='respDivL'><div class='vertical-center'><font style='color:orange'>(E)</font></div></div><div class='respDivR'><div class='vertical-center'>(I)</div></div></div>","null","$34","$48","0","34","48",""
"html-keyboard-response","145","133608","0.0-5.0-1.47","63bb98852cdc67dece8adb8e","bdp_rd","Sat Mar 25 2023 19:01:53 GMT-0500 (Central Daylight Time)","160961","","null","","","","FIX","","<div class='trialBorder'><div class='vertical-center'><img style='vertical-align:center; align:center' src=img/fixation3.jpg></div></div>","null","","","","","",""
"html-keyboard-response","146","134724","0.0-5.0-2.47","63bb98852cdc67dece8adb8e","bdp_rd","Sat Mar 25 2023 19:01:53 GMT-0500 (Central Daylight Time)","160961","","1115","","","","offer","","<div class='trialBorder'><div class='vertical-center'><img style='vertical-align:center; align:center' src=img/fixation3.jpg></div><div class='cl'><div class='vertical-center'>$73<br>with a<br>50% chance</div></div><div class='cr'><div class='vertical-center'>$42<br>for<br>sure</div></div><div class='respDivL'><div class='vertical-center'>(E)</div></div><div class='respDivR'><div class='vertical-center'>(I)</div></div></div>","E","$42","$73","1","42","73","RISKY"
"html-keyboard-response","147","134976","0.0-5.0-3.47","63bb98852cdc67dece8adb8e","bdp_rd","Sat Mar 25 2023 19:01:53 GMT-0500 (Central Daylight Time)","160961","","null","","","","offerFB","","<div class='trialBorder'><div class='vertical-center'><img style='vertical-align:center; align:center' src=img/fixation3.jpg></div><div class='cl'><div class='vertical-center'><font style='color:orange'>$73<br>with a<br>50% chance</font></div></div><div class='cr'><div class='vertical-center'>$42<br>for<br>sure</div></div><div class='respDivL'><div class='vertical-center'><font style='color:orange'>(E)</font></div></div><div class='respDivR'><div class='vertical-center'>(I)</div></div></div>","null","$42","$73","1","42","73",""
"html-keyboard-response","148","135480","0.0-5.0-1.48","63bb98852cdc67dece8adb8e","bdp_rd","Sat Mar 25 2023 19:01:53 GMT-0500 (Central Daylight Time)","160961","","null","","","","FIX","","<div class='trialBorder'><div class='vertical-center'><img style='vertical-align:center; align:center' src=img/fixation3.jpg></div></div>","null","","","","","",""
"html-keyboard-response","149","136890","0.0-5.0-2.48","63bb98852cdc67dece8adb8e","bdp_rd","Sat Mar 25 2023 19:01:53 GMT-0500 (Central Daylight Time)","160961","","1409","","","","offer","","<div class='trialBorder'><div class='vertical-center'><img style='vertical-align:center; align:center' src=img/fixation3.jpg></div><div class='cl'><div class='vertical-center'>$65<br>with a<br>50% chance</div></div><div class='cr'><div class='vertical-center'>$46<br>for<br>sure</div></div><div class='respDivL'><div class='vertical-center'>(E)</div></div><div class='respDivR'><div class='vertical-center'>(I)</div></div></div>","E","$46","$65","1","46","65","RISKY"
"html-keyboard-response","150","137144","0.0-5.0-3.48","63bb98852cdc67dece8adb8e","bdp_rd","Sat Mar 25 2023 19:01:53 GMT-0500 (Central Daylight Time)","160961","","null","","","","offerFB","","<div class='trialBorder'><div class='vertical-center'><img style='vertical-align:center; align:center' src=img/fixation3.jpg></div><div class='cl'><div class='vertical-center'><font style='color:orange'>$65<br>with a<br>50% chance</font></div></div><div class='cr'><div class='vertical-center'>$46<br>for<br>sure</div></div><div class='respDivL'><div class='vertical-center'><font style='color:orange'>(E)</font></div></div><div class='respDivR'><div class='vertical-center'>(I)</div></div></div>","null","$46","$65","1","46","65",""
"html-keyboard-response","151","137649","0.0-5.0-1.49","63bb98852cdc67dece8adb8e","bdp_rd","Sat Mar 25 2023 19:01:53 GMT-0500 (Central Daylight Time)","160961","","null","","","","FIX","","<div class='trialBorder'><div class='vertical-center'><img style='vertical-align:center; align:center' src=img/fixation3.jpg></div></div>","null","","","","","",""
"html-keyboard-response","152","138576","0.0-5.0-2.49","63bb98852cdc67dece8adb8e","bdp_rd","Sat Mar 25 2023 19:01:53 GMT-0500 (Central Daylight Time)","160961","","927","","","","offer","","<div class='trialBorder'><div class='vertical-center'><img style='vertical-align:center; align:center' src=img/fixation3.jpg></div><div class='cl'><div class='vertical-center'>$100<br>with a<br>50% chance</div></div><div class='cr'><div class='vertical-center'>$63<br>for<br>sure</div></div><div class='respDivL'><div class='vertical-center'>(E)</div></div><div class='respDivR'><div class='vertical-center'>(I)</div></div></div>","E","$63","$100","1","63","10","RISKY"
"html-keyboard-response","153","138833","0.0-5.0-3.49","63bb98852cdc67dece8adb8e","bdp_rd","Sat Mar 25 2023 19:01:53 GMT-0500 (Central Daylight Time)","160961","","null","","","","offerFB","","<div class='trialBorder'><div class='vertical-center'><img style='vertical-align:center; align:center' src=img/fixation3.jpg></div><div class='cl'><div class='vertical-center'><font style='color:orange'>$100<br>with a<br>50% chance</font></div></div><div class='cr'><div class='vertical-center'>$63<br>for<br>sure</div></div><div class='respDivL'><div class='vertical-center'><font style='color:orange'>(E)</font></div></div><div class='respDivR'><div class='vertical-center'>(I)</div></div></div>","null","$63","$100","1","63","10",""
"html-keyboard-response","154","139336","0.0-5.0-1.50","63bb98852cdc67dece8adb8e","bdp_rd","Sat Mar 25 2023 19:01:53 GMT-0500 (Central Daylight Time)","160961","","null","","","","FIX","","<div class='trialBorder'><div class='vertical-center'><img style='vertical-align:center; align:center' src=img/fixation3.jpg></div></div>","null","","","","","",""
"html-keyboard-response","155","140347","0.0-5.0-2.50","63bb98852cdc67dece8adb8e","bdp_rd","Sat Mar 25 2023 19:01:53 GMT-0500 (Central Daylight Time)","160961","","1010","","","","offer","","<div class='trialBorder'><div class='vertical-center'><img style='vertical-align:center; align:center' src=img/fixation3.jpg></div><div class='cl'><div class='vertical-center'>$47<br>with a<br>50% chance</div></div><div class='cr'><div class='vertical-center'>$27<br>for<br>sure</div></div><div class='respDivL'><div class='vertical-center'>(E)</div></div><div class='respDivR'><div class='vertical-center'>(I)</div></div></div>","E","$27","$47","1","27","47","RISKY"
"html-keyboard-response","156","140601","0.0-5.0-3.50","63bb98852cdc67dece8adb8e","bdp_rd","Sat Mar 25 2023 19:01:53 GMT-0500 (Central Daylight Time)","160961","","null","","","","offerFB","","<div class='trialBorder'><div class='vertical-center'><img style='vertical-align:center; align:center' src=img/fixation3.jpg></div><div class='cl'><div class='vertical-center'><font style='color:orange'>$47<br>with a<br>50% chance</font></div></div><div class='cr'><div class='vertical-center'>$27<br>for<br>sure</div></div><div class='respDivL'><div class='vertical-center'><font style='color:orange'>(E)</font></div></div><div class='respDivR'><div class='vertical-center'>(I)</div></div></div>","null","$27","$47","1","27","47",""
"html-keyboard-response","157","141104","0.0-5.0-1.51","63bb98852cdc67dece8adb8e","bdp_rd","Sat Mar 25 2023 19:01:53 GMT-0500 (Central Daylight Time)","160961","","null","","","","FIX","","<div class='trialBorder'><div class='vertical-center'><img style='vertical-align:center; align:center' src=img/fixation3.jpg></div></div>","null","","","","","",""
"html-keyboard-response","158","141933","0.0-5.0-2.51","63bb98852cdc67dece8adb8e","bdp_rd","Sat Mar 25 2023 19:01:53 GMT-0500 (Central Daylight Time)","160961","","828","","","","offer","","<div class='trialBorder'><div class='vertical-center'><img style='vertical-align:center; align:center' src=img/fixation3.jpg></div><div class='cl'><div class='vertical-center'>$2<br>for<br>sure</div></div><div class='cr'><div class='vertical-center'>$64<br>with a<br>50% chance</div></div><div class='respDivL'><div class='vertical-center'>(E)</div></div><div class='respDivR'><div class='vertical-center'>(I)</div></div></div>","I","$2","$64","0","2","64","RISKY"
"html-keyboard-response","159","142186","0.0-5.0-3.51","63bb98852cdc67dece8adb8e","bdp_rd","Sat Mar 25 2023 19:01:53 GMT-0500 (Central Daylight Time)","160961","","null","","","","offerFB","","<div class='trialBorder'><div class='vertical-center'><img style='vertical-align:center; align:center' src=img/fixation3.jpg></div><div class='cl'><div class='vertical-center'>$2<br>for<br>sure</div></div><div class='cr'><div class='vertical-center'><font style='color:orange'>$64<br>with a<br>50% chance</font></div></div><div class='respDivL'><div class='vertical-center'>(E)</div></div><div class='respDivR'><div class='vertical-center'><font style='color:orange'>(I)</font></div></div></div>","null","$2","$64","0","2","64",""
"html-keyboard-response","160","142689","0.0-5.0-1.52","63bb98852cdc67dece8adb8e","bdp_rd","Sat Mar 25 2023 19:01:53 GMT-0500 (Central Daylight Time)","160961","","null","","","","FIX","","<div class='trialBorder'><div class='vertical-center'><img style='vertical-align:center; align:center' src=img/fixation3.jpg></div></div>","null","","","","","",""
"html-keyboard-response","161","144052","0.0-5.0-2.52","63bb98852cdc67dece8adb8e","bdp_rd","Sat Mar 25 2023 19:01:53 GMT-0500 (Central Daylight Time)","160961","","1363","","","","offer","","<div class='trialBorder'><div class='vertical-center'><img style='vertical-align:center; align:center' src=img/fixation3.jpg></div><div class='cl'><div class='vertical-center'>$7<br>for<br>sure</div></div><div class='cr'><div class='vertical-center'>$71<br>with a<br>50% chance</div></div><div class='respDivL'><div class='vertical-center'>(E)</div></div><div class='respDivR'><div class='vertical-center'>(I)</div></div></div>","I","$7","$71","0","7","71","RISKY"
"html-keyboard-response","162","144304","0.0-5.0-3.52","63bb98852cdc67dece8adb8e","bdp_rd","Sat Mar 25 2023 19:01:53 GMT-0500 (Central Daylight Time)","160961","","null","","","","offerFB","","<div class='trialBorder'><div class='vertical-center'><img style='vertical-align:center; align:center' src=img/fixation3.jpg></div><div class='cl'><div class='vertical-center'>$7<br>for<br>sure</div></div><div class='cr'><div class='vertical-center'><font style='color:orange'>$71<br>with a<br>50% chance</font></div></div><div class='respDivL'><div class='vertical-center'>(E)</div></div><div class='respDivR'><div class='vertical-center'><font style='color:orange'>(I)</font></div></div></div>","null","$7","$71","0","7","71",""
"html-keyboard-response","163","144809","0.0-5.0-1.53","63bb98852cdc67dece8adb8e","bdp_rd","Sat Mar 25 2023 19:01:53 GMT-0500 (Central Daylight Time)","160961","","null","","","","FIX","","<div class='trialBorder'><div class='vertical-center'><img style='vertical-align:center; align:center' src=img/fixation3.jpg></div></div>","null","","","","","",""
"html-keyboard-response","164","146009","0.0-5.0-2.53","63bb98852cdc67dece8adb8e","bdp_rd","Sat Mar 25 2023 19:01:53 GMT-0500 (Central Daylight Time)","160961","","1200","","","","offer","","<div class='trialBorder'><div class='vertical-center'><img style='vertical-align:center; align:center' src=img/fixation3.jpg></div><div class='cl'><div class='vertical-center'>$40<br>with a<br>50% chance</div></div><div class='cr'><div class='vertical-center'>$10<br>for<br>sure</div></div><div class='respDivL'><div class='vertical-center'>(E)</div></div><div class='respDivR'><div class='vertical-center'>(I)</div></div></div>","E","$10","$40","1","10","40","RISKY"
"html-keyboard-response","165","146265","0.0-5.0-3.53","63bb98852cdc67dece8adb8e","bdp_rd","Sat Mar 25 2023 19:01:53 GMT-0500 (Central Daylight Time)","160961","","null","","","","offerFB","","<div class='trialBorder'><div class='vertical-center'><img style='vertical-align:center; align:center' src=img/fixation3.jpg></div><div class='cl'><div class='vertical-center'><font style='color:orange'>$40<br>with a<br>50% chance</font></div></div><div class='cr'><div class='vertical-center'>$10<br>for<br>sure</div></div><div class='respDivL'><div class='vertical-center'><font style='color:orange'>(E)</font></div></div><div class='respDivR'><div class='vertical-center'>(I)</div></div></div>","null","$10","$40","1","10","40",""
"html-keyboard-response","166","146769","0.0-5.0-1.54","63bb98852cdc67dece8adb8e","bdp_rd","Sat Mar 25 2023 19:01:53 GMT-0500 (Central Daylight Time)","160961","","null","","","","FIX","","<div class='trialBorder'><div class='vertical-center'><img style='vertical-align:center; align:center' src=img/fixation3.jpg></div></div>","null","","","","","",""
"html-keyboard-response","167","147518","0.0-5.0-2.54","63bb98852cdc67dece8adb8e","bdp_rd","Sat Mar 25 2023 19:01:53 GMT-0500 (Central Daylight Time)","160961","","748","","","","offer","","<div class='trialBorder'><div class='vertical-center'><img style='vertical-align:center; align:center' src=img/fixation3.jpg></div><div class='cl'><div class='vertical-center'>$33<br>with a<br>50% chance</div></div><div class='cr'><div class='vertical-center'>$1<br>for<br>sure</div></div><div class='respDivL'><div class='vertical-center'>(E)</div></div><div class='respDivR'><div class='vertical-center'>(I)</div></div></div>","E","$1","$33","1","1","33","RISKY"
"html-keyboard-response","168","147777","0.0-5.0-3.54","63bb98852cdc67dece8adb8e","bdp_rd","Sat Mar 25 2023 19:01:53 GMT-0500 (Central Daylight Time)","160961","","null","","","","offerFB","","<div class='trialBorder'><div class='vertical-center'><img style='vertical-align:center; align:center' src=img/fixation3.jpg></div><div class='cl'><div class='vertical-center'><font style='color:orange'>$33<br>with a<br>50% chance</font></div></div><div class='cr'><div class='vertical-center'>$1<br>for<br>sure</div></div><div class='respDivL'><div class='vertical-center'><font style='color:orange'>(E)</font></div></div><div class='respDivR'><div class='vertical-center'>(I)</div></div></div>","null","$1","$33","1","1","33",""
"html-keyboard-response","169","148280","0.0-5.0-1.55","63bb98852cdc67dece8adb8e","bdp_rd","Sat Mar 25 2023 19:01:53 GMT-0500 (Central Daylight Time)","160961","","null","","","","FIX","","<div class='trialBorder'><div class='vertical-center'><img style='vertical-align:center; align:center' src=img/fixation3.jpg></div></div>","null","","","","","",""
"html-keyboard-response","170","149492","0.0-5.0-2.55","63bb98852cdc67dece8adb8e","bdp_rd","Sat Mar 25 2023 19:01:53 GMT-0500 (Central Daylight Time)","160961","","1211","","","","offer","","<div class='trialBorder'><div class='vertical-center'><img style='vertical-align:center; align:center' src=img/fixation3.jpg></div><div class='cl'><div class='vertical-center'>$21<br>for<br>sure</div></div><div class='cr'><div class='vertical-center'>$25<br>with a<br>50% chance</div></div><div class='respDivL'><div class='vertical-center'>(E)</div></div><div class='respDivR'><div class='vertical-center'>(I)</div></div></div>","E","$21","$25","0","21","25","SURE"
"html-keyboard-response","171","149744","0.0-5.0-3.55","63bb98852cdc67dece8adb8e","bdp_rd","Sat Mar 25 2023 19:01:53 GMT-0500 (Central Daylight Time)","160961","","null","","","","offerFB","","<div class='trialBorder'><div class='vertical-center'><img style='vertical-align:center; align:center' src=img/fixation3.jpg></div><div class='cl'><div class='vertical-center'><font style='color:orange'>$21<br>for<br>sure</font></div></div><div class='cr'><div class='vertical-center'>$25<br>with a<br>50% chance</div></div><div class='respDivL'><div class='vertical-center'><font style='color:orange'>(E)</font></div></div><div class='respDivR'><div class='vertical-center'>(I)</div></div></div>","null","$21","$25","0","21","25",""
"html-keyboard-response","172","150249","0.0-5.0-1.56","63bb98852cdc67dece8adb8e","bdp_rd","Sat Mar 25 2023 19:01:53 GMT-0500 (Central Daylight Time)","160961","","null","","","","FIX","","<div class='trialBorder'><div class='vertical-center'><img style='vertical-align:center; align:center' src=img/fixation3.jpg></div></div>","null","","","","","",""
"html-keyboard-response","173","151261","0.0-5.0-2.56","63bb98852cdc67dece8adb8e","bdp_rd","Sat Mar 25 2023 19:01:53 GMT-0500 (Central Daylight Time)","160961","","1012","","","","offer","","<div class='trialBorder'><div class='vertical-center'><img style='vertical-align:center; align:center' src=img/fixation3.jpg></div><div class='cl'><div class='vertical-center'>$10<br>with a<br>50% chance</div></div><div class='cr'><div class='vertical-center'>$7<br>for<br>sure</div></div><div class='respDivL'><div class='vertical-center'>(E)</div></div><div class='respDivR'><div class='vertical-center'>(I)</div></div></div>","E","$7","$10","1","7","10","RISKY"
