"trial_type","trial_index","time_elapsed","internal_node_id","subject_id","task","startTime","totalTime","view_history","rt","event","trial","time","trialtype","success","stimulus","key_press","sureOffer","riskyOffer","riskyLeft","sureAmt","riskyAmt","chosen"
"pavlovia","0","4","0.0-0.0","63d82d20ed2b67b4f77f1fc7","bdp_rd","Mon Mar 27 2023 07:26:05 GMT-0700 (Pacific Daylight Time)","99151","","","","","","","","","","","","","","",""
"instructions","1","1226","0.0-1.0","63d82d20ed2b67b4f77f1fc7","bdp_rd","Mon Mar 27 2023 07:26:05 GMT-0700 (Pacific Daylight Time)","99151","[{""page_index"":0,""viewing_time"":1222}]","1222","","","","","","","","","","","","",""
"","","","","63d82d20ed2b67b4f77f1fc7","bdp_rd","Mon Mar 27 2023 07:26:05 GMT-0700 (Pacific Daylight Time)","99151","","","fullscreenenter","2","2899","fullscreenenter","","","","","","","","",""
"","","","","63d82d20ed2b67b4f77f1fc7","bdp_rd","Mon Mar 27 2023 07:26:05 GMT-0700 (Pacific Daylight Time)","99151","","","fullscreenexit","2","3816","fullscreenexit","","","","","","","","",""
"fullscreen","2","3891","0.0-2.0","63d82d20ed2b67b4f77f1fc7","bdp_rd","Mon Mar 27 2023 07:26:05 GMT-0700 (Pacific Daylight Time)","99151","","","","","","","true","","","","","","","",""
"image-keyboard-response","3","5096","0.0-3.0-0.0","63d82d20ed2b67b4f77f1fc7","bdp_rd","Mon Mar 27 2023 07:26:05 GMT-0700 (Pacific Daylight Time)","99151","","1203","","","","fullscreenfail","","","32","","","","","",""
"instructions","4","8460","0.0-4.0","63d82d20ed2b67b4f77f1fc7","bdp_rd","Mon Mar 27 2023 07:26:05 GMT-0700 (Pacific Daylight Time)","99151","[{""page_index"":0,""viewing_time"":1247},{""page_index"":1,""viewing_time"":948},{""page_index"":2,""viewing_time"":908}]","3104","","","","","","","","","","","","",""
"html-keyboard-response","5","8961","0.0-5.0-1.0","63d82d20ed2b67b4f77f1fc7","bdp_rd","Mon Mar 27 2023 07:26:05 GMT-0700 (Pacific Daylight Time)","99151","","null","","","","FIX","","<div class='trialBorder'><div class='vertical-center'><img style='vertical-align:center; align:center' src=img/fixation3.jpg></div></div>","null","","","","","",""
"html-keyboard-response","6","10395","0.0-5.0-2.0","63d82d20ed2b67b4f77f1fc7","bdp_rd","Mon Mar 27 2023 07:26:05 GMT-0700 (Pacific Daylight Time)","99151","","1432","","","","offer","","<div class='trialBorder'><div class='vertical-center'><img style='vertical-align:center; align:center' src=img/fixation3.jpg></div><div class='cl'><div class='vertical-center'>$2<br>for<br>sure</div></div><div class='cr'><div class='vertical-center'>$21<br>with a<br>50% chance</div></div><div class='respDivL'><div class='vertical-center'>(E)</div></div><div class='respDivR'><div class='vertical-center'>(I)</div></div></div>","I","$2","$21","0","2","21","RISKY"
"html-keyboard-response","7","10650","0.0-5.0-3.0","63d82d20ed2b67b4f77f1fc7","bdp_rd","Mon Mar 27 2023 07:26:05 GMT-0700 (Pacific Daylight Time)","99151","","null","","","","offerFB","","<div class='trialBorder'><div class='vertical-center'><img style='vertical-align:center; align:center' src=img/fixation3.jpg></div><div class='cl'><div class='vertical-center'>$2<br>for<br>sure</div></div><div class='cr'><div class='vertical-center'><font style='color:orange'>$21<br>with a<br>50% chance</font></div></div><div class='respDivL'><div class='vertical-center'>(E)</div></div><div class='respDivR'><div class='vertical-center'><font style='color:orange'>(I)</font></div></div></div>","null","$2","$21","0","2","21",""
"html-keyboard-response","8","11155","0.0-5.0-1.1","63d82d20ed2b67b4f77f1fc7","bdp_rd","Mon Mar 27 2023 07:26:05 GMT-0700 (Pacific Daylight Time)","99151","","null","","","","FIX","","<div class='trialBorder'><div class='vertical-center'><img style='vertical-align:center; align:center' src=img/fixation3.jpg></div></div>","null","","","","","",""
"html-keyboard-response","9","11295","0.0-5.0-2.1","63d82d20ed2b67b4f77f1fc7","bdp_rd","Mon Mar 27 2023 07:26:05 GMT-0700 (Pacific Daylight Time)","99151","","138","","","","offer","","<div class='trialBorder'><div class='vertical-center'><img style='vertical-align:center; align:center' src=img/fixation3.jpg></div><div class='cl'><div class='vertical-center'>$21<br>for<br>sure</div></div><div class='cr'><div class='vertical-center'>$25<br>with a<br>50% chance</div></div><div class='respDivL'><div class='vertical-center'>(E)</div></div><div class='respDivR'><div class='vertical-center'>(I)</div></div></div>","I","$21","$25","0","21","25","RISKY"
"html-keyboard-response","10","11553","0.0-5.0-3.1","63d82d20ed2b67b4f77f1fc7","bdp_rd","Mon Mar 27 2023 07:26:05 GMT-0700 (Pacific Daylight Time)","99151","","null","","","","offerFB","","<div class='trialBorder'><div class='vertical-center'><img style='vertical-align:center; align:center' src=img/fixation3.jpg></div><div class='cl'><div class='vertical-center'>$21<br>for<br>sure</div></div><div class='cr'><div class='vertical-center'><font style='color:orange'>$25<br>with a<br>50% chance</font></div></div><div class='respDivL'><div class='vertical-center'>(E)</div></div><div class='respDivR'><div class='vertical-center'><font style='color:orange'>(I)</font></div></div></div>","null","$21","$25","0","21","25",""
"html-keyboard-response","11","12058","0.0-5.0-1.2","63d82d20ed2b67b4f77f1fc7","bdp_rd","Mon Mar 27 2023 07:26:05 GMT-0700 (Pacific Daylight Time)","99151","","null","","","","FIX","","<div class='trialBorder'><div class='vertical-center'><img style='vertical-align:center; align:center' src=img/fixation3.jpg></div></div>","null","","","","","",""
"html-keyboard-response","12","12195","0.0-5.0-2.2","63d82d20ed2b67b4f77f1fc7","bdp_rd","Mon Mar 27 2023 07:26:05 GMT-0700 (Pacific Daylight Time)","99151","","135","","","","offer","","<div class='trialBorder'><div class='vertical-center'><img style='vertical-align:center; align:center' src=img/fixation3.jpg></div><div class='cl'><div class='vertical-center'>$27<br>for<br>sure</div></div><div class='cr'><div class='vertical-center'>$47<br>with a<br>50% chance</div></div><div class='respDivL'><div class='vertical-center'>(E)</div></div><div class='respDivR'><div class='vertical-center'>(I)</div></div></div>","I","$27","$47","0","27","47","RISKY"
"html-keyboard-response","13","12450","0.0-5.0-3.2","63d82d20ed2b67b4f77f1fc7","bdp_rd","Mon Mar 27 2023 07:26:05 GMT-0700 (Pacific Daylight Time)","99151","","null","","","","offerFB","","<div class='trialBorder'><div class='vertical-center'><img style='vertical-align:center; align:center' src=img/fixation3.jpg></div><div class='cl'><div class='vertical-center'>$27<br>for<br>sure</div></div><div class='cr'><div class='vertical-center'><font style='color:orange'>$47<br>with a<br>50% chance</font></div></div><div class='respDivL'><div class='vertical-center'>(E)</div></div><div class='respDivR'><div class='vertical-center'><font style='color:orange'>(I)</font></div></div></div>","null","$27","$47","0","27","47",""
"html-keyboard-response","14","12952","0.0-5.0-1.3","63d82d20ed2b67b4f77f1fc7","bdp_rd","Mon Mar 27 2023 07:26:05 GMT-0700 (Pacific Daylight Time)","99151","","null","","","","FIX","","<div class='trialBorder'><div class='vertical-center'><img style='vertical-align:center; align:center' src=img/fixation3.jpg></div></div>","null","","","","","",""
"html-keyboard-response","15","13713","0.0-5.0-2.3","63d82d20ed2b67b4f77f1fc7","bdp_rd","Mon Mar 27 2023 07:26:05 GMT-0700 (Pacific Daylight Time)","99151","","760","","","","offer","","<div class='trialBorder'><div class='vertical-center'><img style='vertical-align:center; align:center' src=img/fixation3.jpg></div><div class='cl'><div class='vertical-center'>$2<br>for<br>sure</div></div><div class='cr'><div class='vertical-center'>$64<br>with a<br>50% chance</div></div><div class='respDivL'><div class='vertical-center'>(E)</div></div><div class='respDivR'><div class='vertical-center'>(I)</div></div></div>","I","$2","$64","0","2","64","RISKY"
"html-keyboard-response","16","13973","0.0-5.0-3.3","63d82d20ed2b67b4f77f1fc7","bdp_rd","Mon Mar 27 2023 07:26:05 GMT-0700 (Pacific Daylight Time)","99151","","null","","","","offerFB","","<div class='trialBorder'><div class='vertical-center'><img style='vertical-align:center; align:center' src=img/fixation3.jpg></div><div class='cl'><div class='vertical-center'>$2<br>for<br>sure</div></div><div class='cr'><div class='vertical-center'><font style='color:orange'>$64<br>with a<br>50% chance</font></div></div><div class='respDivL'><div class='vertical-center'>(E)</div></div><div class='respDivR'><div class='vertical-center'><font style='color:orange'>(I)</font></div></div></div>","null","$2","$64","0","2","64",""
"html-keyboard-response","17","14481","0.0-5.0-1.4","63d82d20ed2b67b4f77f1fc7","bdp_rd","Mon Mar 27 2023 07:26:05 GMT-0700 (Pacific Daylight Time)","99151","","null","","","","FIX","","<div class='trialBorder'><div class='vertical-center'><img style='vertical-align:center; align:center' src=img/fixation3.jpg></div></div>","null","","","","","",""
"html-keyboard-response","18","14603","0.0-5.0-2.4","63d82d20ed2b67b4f77f1fc7","bdp_rd","Mon Mar 27 2023 07:26:05 GMT-0700 (Pacific Daylight Time)","99151","","121","","","","offer","","<div class='trialBorder'><div class='vertical-center'><img style='vertical-align:center; align:center' src=img/fixation3.jpg></div><div class='cl'><div class='vertical-center'>$65<br>with a<br>50% chance</div></div><div class='cr'><div class='vertical-center'>$46<br>for<br>sure</div></div><div class='respDivL'><div class='vertical-center'>(E)</div></div><div class='respDivR'><div class='vertical-center'>(I)</div></div></div>","I","$46","$65","1","46","65","SURE"
"html-keyboard-response","19","14856","0.0-5.0-3.4","63d82d20ed2b67b4f77f1fc7","bdp_rd","Mon Mar 27 2023 07:26:05 GMT-0700 (Pacific Daylight Time)","99151","","null","","","","offerFB","","<div class='trialBorder'><div class='vertical-center'><img style='vertical-align:center; align:center' src=img/fixation3.jpg></div><div class='cl'><div class='vertical-center'>$65<br>with a<br>50% chance</div></div><div class='cr'><div class='vertical-center'><font style='color:orange'>$46<br>for<br>sure</font></div></div><div class='respDivL'><div class='vertical-center'>(E)</div></div><div class='respDivR'><div class='vertical-center'><font style='color:orange'>(I)</font></div></div></div>","null","$46","$65","1","46","65",""
"html-keyboard-response","20","15361","0.0-5.0-1.5","63d82d20ed2b67b4f77f1fc7","bdp_rd","Mon Mar 27 2023 07:26:05 GMT-0700 (Pacific Daylight Time)","99151","","null","","","","FIX","","<div class='trialBorder'><div class='vertical-center'><img style='vertical-align:center; align:center' src=img/fixation3.jpg></div></div>","null","","","","","",""
"html-keyboard-response","21","15626","0.0-5.0-2.5","63d82d20ed2b67b4f77f1fc7","bdp_rd","Mon Mar 27 2023 07:26:05 GMT-0700 (Pacific Daylight Time)","99151","","265","","","","offer","","<div class='trialBorder'><div class='vertical-center'><img style='vertical-align:center; align:center' src=img/fixation3.jpg></div><div class='cl'><div class='vertical-center'>$20<br>for<br>sure</div></div><div class='cr'><div class='vertical-center'>$37<br>with a<br>50% chance</div></div><div class='respDivL'><div class='vertical-center'>(E)</div></div><div class='respDivR'><div class='vertical-center'>(I)</div></div></div>","I","$20","$37","0","20","37","RISKY"
"html-keyboard-response","22","15880","0.0-5.0-3.5","63d82d20ed2b67b4f77f1fc7","bdp_rd","Mon Mar 27 2023 07:26:05 GMT-0700 (Pacific Daylight Time)","99151","","null","","","","offerFB","","<div class='trialBorder'><div class='vertical-center'><img style='vertical-align:center; align:center' src=img/fixation3.jpg></div><div class='cl'><div class='vertical-center'>$20<br>for<br>sure</div></div><div class='cr'><div class='vertical-center'><font style='color:orange'>$37<br>with a<br>50% chance</font></div></div><div class='respDivL'><div class='vertical-center'>(E)</div></div><div class='respDivR'><div class='vertical-center'><font style='color:orange'>(I)</font></div></div></div>","null","$20","$37","0","20","37",""
"html-keyboard-response","23","16385","0.0-5.0-1.6","63d82d20ed2b67b4f77f1fc7","bdp_rd","Mon Mar 27 2023 07:26:05 GMT-0700 (Pacific Daylight Time)","99151","","null","","","","FIX","","<div class='trialBorder'><div class='vertical-center'><img style='vertical-align:center; align:center' src=img/fixation3.jpg></div></div>","null","","","","","",""
"html-keyboard-response","24","16503","0.0-5.0-2.6","63d82d20ed2b67b4f77f1fc7","bdp_rd","Mon Mar 27 2023 07:26:05 GMT-0700 (Pacific Daylight Time)","99151","","117","","","","offer","","<div class='trialBorder'><div class='vertical-center'><img style='vertical-align:center; align:center' src=img/fixation3.jpg></div><div class='cl'><div class='vertical-center'>$59<br>with a<br>50% chance</div></div><div class='cr'><div class='vertical-center'>$22<br>for<br>sure</div></div><div class='respDivL'><div class='vertical-center'>(E)</div></div><div class='respDivR'><div class='vertical-center'>(I)</div></div></div>","E","$22","$59","1","22","59","RISKY"
"html-keyboard-response","25","16760","0.0-5.0-3.6","63d82d20ed2b67b4f77f1fc7","bdp_rd","Mon Mar 27 2023 07:26:05 GMT-0700 (Pacific Daylight Time)","99151","","null","","","","offerFB","","<div class='trialBorder'><div class='vertical-center'><img style='vertical-align:center; align:center' src=img/fixation3.jpg></div><div class='cl'><div class='vertical-center'><font style='color:orange'>$59<br>with a<br>50% chance</font></div></div><div class='cr'><div class='vertical-center'>$22<br>for<br>sure</div></div><div class='respDivL'><div class='vertical-center'><font style='color:orange'>(E)</font></div></div><div class='respDivR'><div class='vertical-center'>(I)</div></div></div>","null","$22","$59","1","22","59",""
"html-keyboard-response","26","17265","0.0-5.0-1.7","63d82d20ed2b67b4f77f1fc7","bdp_rd","Mon Mar 27 2023 07:26:05 GMT-0700 (Pacific Daylight Time)","99151","","null","","","","FIX","","<div class='trialBorder'><div class='vertical-center'><img style='vertical-align:center; align:center' src=img/fixation3.jpg></div></div>","null","","","","","",""
"html-keyboard-response","27","17313","0.0-5.0-2.7","63d82d20ed2b67b4f77f1fc7","bdp_rd","Mon Mar 27 2023 07:26:05 GMT-0700 (Pacific Daylight Time)","99151","","47","","","","offer","","<div class='trialBorder'><div class='vertical-center'><img style='vertical-align:center; align:center' src=img/fixation3.jpg></div><div class='cl'><div class='vertical-center'>$25<br>for<br>sure</div></div><div class='cr'><div class='vertical-center'>$54<br>with a<br>50% chance</div></div><div class='respDivL'><div class='vertical-center'>(E)</div></div><div class='respDivR'><div class='vertical-center'>(I)</div></div></div>","E","$25","$54","0","25","54","SURE"
"html-keyboard-response","28","17570","0.0-5.0-3.7","63d82d20ed2b67b4f77f1fc7","bdp_rd","Mon Mar 27 2023 07:26:05 GMT-0700 (Pacific Daylight Time)","99151","","null","","","","offerFB","","<div class='trialBorder'><div class='vertical-center'><img style='vertical-align:center; align:center' src=img/fixation3.jpg></div><div class='cl'><div class='vertical-center'><font style='color:orange'>$25<br>for<br>sure</font></div></div><div class='cr'><div class='vertical-center'>$54<br>with a<br>50% chance</div></div><div class='respDivL'><div class='vertical-center'><font style='color:orange'>(E)</font></div></div><div class='respDivR'><div class='vertical-center'>(I)</div></div></div>","null","$25","$54","0","25","54",""
"html-keyboard-response","29","18072","0.0-5.0-1.8","63d82d20ed2b67b4f77f1fc7","bdp_rd","Mon Mar 27 2023 07:26:05 GMT-0700 (Pacific Daylight Time)","99151","","null","","","","FIX","","<div class='trialBorder'><div class='vertical-center'><img style='vertical-align:center; align:center' src=img/fixation3.jpg></div></div>","null","","","","","",""
"html-keyboard-response","30","18292","0.0-5.0-2.8","63d82d20ed2b67b4f77f1fc7","bdp_rd","Mon Mar 27 2023 07:26:05 GMT-0700 (Pacific Daylight Time)","99151","","219","","","","offer","","<div class='trialBorder'><div class='vertical-center'><img style='vertical-align:center; align:center' src=img/fixation3.jpg></div><div class='cl'><div class='vertical-center'>$8<br>for<br>sure</div></div><div class='cr'><div class='vertical-center'>$23<br>with a<br>50% chance</div></div><div class='respDivL'><div class='vertical-center'>(E)</div></div><div class='respDivR'><div class='vertical-center'>(I)</div></div></div>","I","$8","$23","0","8","23","RISKY"
"html-keyboard-response","31","18545","0.0-5.0-3.8","63d82d20ed2b67b4f77f1fc7","bdp_rd","Mon Mar 27 2023 07:26:05 GMT-0700 (Pacific Daylight Time)","99151","","null","","","","offerFB","","<div class='trialBorder'><div class='vertical-center'><img style='vertical-align:center; align:center' src=img/fixation3.jpg></div><div class='cl'><div class='vertical-center'>$8<br>for<br>sure</div></div><div class='cr'><div class='vertical-center'><font style='color:orange'>$23<br>with a<br>50% chance</font></div></div><div class='respDivL'><div class='vertical-center'>(E)</div></div><div class='respDivR'><div class='vertical-center'><font style='color:orange'>(I)</font></div></div></div>","null","$8","$23","0","8","23",""
"html-keyboard-response","32","19050","0.0-5.0-1.9","63d82d20ed2b67b4f77f1fc7","bdp_rd","Mon Mar 27 2023 07:26:05 GMT-0700 (Pacific Daylight Time)","99151","","null","","","","FIX","","<div class='trialBorder'><div class='vertical-center'><img style='vertical-align:center; align:center' src=img/fixation3.jpg></div></div>","null","","","","","",""
"html-keyboard-response","33","19518","0.0-5.0-2.9","63d82d20ed2b67b4f77f1fc7","bdp_rd","Mon Mar 27 2023 07:26:05 GMT-0700 (Pacific Daylight Time)","99151","","468","","","","offer","","<div class='trialBorder'><div class='vertical-center'><img style='vertical-align:center; align:center' src=img/fixation3.jpg></div><div class='cl'><div class='vertical-center'>$15<br>with a<br>50% chance</div></div><div class='cr'><div class='vertical-center'>$6<br>for<br>sure</div></div><div class='respDivL'><div class='vertical-center'>(E)</div></div><div class='respDivR'><div class='vertical-center'>(I)</div></div></div>","I","$6","$15","1","6","15","SURE"
"html-keyboard-response","34","19779","0.0-5.0-3.9","63d82d20ed2b67b4f77f1fc7","bdp_rd","Mon Mar 27 2023 07:26:05 GMT-0700 (Pacific Daylight Time)","99151","","null","","","","offerFB","","<div class='trialBorder'><div class='vertical-center'><img style='vertical-align:center; align:center' src=img/fixation3.jpg></div><div class='cl'><div class='vertical-center'>$15<br>with a<br>50% chance</div></div><div class='cr'><div class='vertical-center'><font style='color:orange'>$6<br>for<br>sure</font></div></div><div class='respDivL'><div class='vertical-center'>(E)</div></div><div class='respDivR'><div class='vertical-center'><font style='color:orange'>(I)</font></div></div></div>","null","$6","$15","1","6","15",""
"html-keyboard-response","35","20284","0.0-5.0-1.10","63d82d20ed2b67b4f77f1fc7","bdp_rd","Mon Mar 27 2023 07:26:05 GMT-0700 (Pacific Daylight Time)","99151","","null","","","","FIX","","<div class='trialBorder'><div class='vertical-center'><img style='vertical-align:center; align:center' src=img/fixation3.jpg></div></div>","null","","","","","",""
"html-keyboard-response","36","20362","0.0-5.0-2.10","63d82d20ed2b67b4f77f1fc7","bdp_rd","Mon Mar 27 2023 07:26:05 GMT-0700 (Pacific Daylight Time)","99151","","78","","","","offer","","<div class='trialBorder'><div class='vertical-center'><img style='vertical-align:center; align:center' src=img/fixation3.jpg></div><div class='cl'><div class='vertical-center'>$32<br>with a<br>50% chance</div></div><div class='cr'><div class='vertical-center'>$9<br>for<br>sure</div></div><div class='respDivL'><div class='vertical-center'>(E)</div></div><div class='respDivR'><div class='vertical-center'>(I)</div></div></div>","E","$9","$32","1","9","32","RISKY"
"html-keyboard-response","37","20617","0.0-5.0-3.10","63d82d20ed2b67b4f77f1fc7","bdp_rd","Mon Mar 27 2023 07:26:05 GMT-0700 (Pacific Daylight Time)","99151","","null","","","","offerFB","","<div class='trialBorder'><div class='vertical-center'><img style='vertical-align:center; align:center' src=img/fixation3.jpg></div><div class='cl'><div class='vertical-center'><font style='color:orange'>$32<br>with a<br>50% chance</font></div></div><div class='cr'><div class='vertical-center'>$9<br>for<br>sure</div></div><div class='respDivL'><div class='vertical-center'><font style='color:orange'>(E)</font></div></div><div class='respDivR'><div class='vertical-center'>(I)</div></div></div>","null","$9","$32","1","9","32",""
"html-keyboard-response","38","21125","0.0-5.0-1.11","63d82d20ed2b67b4f77f1fc7","bdp_rd","Mon Mar 27 2023 07:26:05 GMT-0700 (Pacific Daylight Time)","99151","","null","","","","FIX","","<div class='trialBorder'><div class='vertical-center'><img style='vertical-align:center; align:center' src=img/fixation3.jpg></div></div>","null","","","","","",""
"html-keyboard-response","39","21206","0.0-5.0-2.11","63d82d20ed2b67b4f77f1fc7","bdp_rd","Mon Mar 27 2023 07:26:05 GMT-0700 (Pacific Daylight Time)","99151","","81","","","","offer","","<div class='trialBorder'><div class='vertical-center'><img style='vertical-align:center; align:center' src=img/fixation3.jpg></div><div class='cl'><div class='vertical-center'>$1<br>for<br>sure</div></div><div class='cr'><div class='vertical-center'>$33<br>with a<br>50% chance</div></div><div class='respDivL'><div class='vertical-center'>(E)</div></div><div class='respDivR'><div class='vertical-center'>(I)</div></div></div>","E","$1","$33","0","1","33","SURE"
"html-keyboard-response","40","21465","0.0-5.0-3.11","63d82d20ed2b67b4f77f1fc7","bdp_rd","Mon Mar 27 2023 07:26:05 GMT-0700 (Pacific Daylight Time)","99151","","null","","","","offerFB","","<div class='trialBorder'><div class='vertical-center'><img style='vertical-align:center; align:center' src=img/fixation3.jpg></div><div class='cl'><div class='vertical-center'><font style='color:orange'>$1<br>for<br>sure</font></div></div><div class='cr'><div class='vertical-center'>$33<br>with a<br>50% chance</div></div><div class='respDivL'><div class='vertical-center'><font style='color:orange'>(E)</font></div></div><div class='respDivR'><div class='vertical-center'>(I)</div></div></div>","null","$1","$33","0","1","33",""
"html-keyboard-response","41","21970","0.0-5.0-1.12","63d82d20ed2b67b4f77f1fc7","bdp_rd","Mon Mar 27 2023 07:26:05 GMT-0700 (Pacific Daylight Time)","99151","","null","","","","FIX","","<div class='trialBorder'><div class='vertical-center'><img style='vertical-align:center; align:center' src=img/fixation3.jpg></div></div>","null","","","","","",""
"html-keyboard-response","42","22083","0.0-5.0-2.12","63d82d20ed2b67b4f77f1fc7","bdp_rd","Mon Mar 27 2023 07:26:05 GMT-0700 (Pacific Daylight Time)","99151","","113","","","","offer","","<div class='trialBorder'><div class='vertical-center'><img style='vertical-align:center; align:center' src=img/fixation3.jpg></div><div class='cl'><div class='vertical-center'>$81<br>with a<br>50% chance</div></div><div class='cr'><div class='vertical-center'>$39<br>for<br>sure</div></div><div class='respDivL'><div class='vertical-center'>(E)</div></div><div class='respDivR'><div class='vertical-center'>(I)</div></div></div>","E","$39","$81","1","39","81","RISKY"
"html-keyboard-response","43","22339","0.0-5.0-3.12","63d82d20ed2b67b4f77f1fc7","bdp_rd","Mon Mar 27 2023 07:26:05 GMT-0700 (Pacific Daylight Time)","99151","","null","","","","offerFB","","<div class='trialBorder'><div class='vertical-center'><img style='vertical-align:center; align:center' src=img/fixation3.jpg></div><div class='cl'><div class='vertical-center'><font style='color:orange'>$81<br>with a<br>50% chance</font></div></div><div class='cr'><div class='vertical-center'>$39<br>for<br>sure</div></div><div class='respDivL'><div class='vertical-center'><font style='color:orange'>(E)</font></div></div><div class='respDivR'><div class='vertical-center'>(I)</div></div></div>","null","$39","$81","1","39","81",""
"html-keyboard-response","44","22840","0.0-5.0-1.13","63d82d20ed2b67b4f77f1fc7","bdp_rd","Mon Mar 27 2023 07:26:05 GMT-0700 (Pacific Daylight Time)","99151","","null","","","","FIX","","<div class='trialBorder'><div class='vertical-center'><img style='vertical-align:center; align:center' src=img/fixation3.jpg></div></div>","null","","","","","",""
"html-keyboard-response","45","23073","0.0-5.0-2.13","63d82d20ed2b67b4f77f1fc7","bdp_rd","Mon Mar 27 2023 07:26:05 GMT-0700 (Pacific Daylight Time)","99151","","232","","","","offer","","<div class='trialBorder'><div class='vertical-center'><img style='vertical-align:center; align:center' src=img/fixation3.jpg></div><div class='cl'><div class='vertical-center'>$8<br>for<br>sure</div></div><div class='cr'><div class='vertical-center'>$45<br>with a<br>50% chance</div></div><div class='respDivL'><div class='vertical-center'>(E)</div></div><div class='respDivR'><div class='vertical-center'>(I)</div></div></div>","E","$8","$45","0","8","45","SURE"
"html-keyboard-response","46","23328","0.0-5.0-3.13","63d82d20ed2b67b4f77f1fc7","bdp_rd","Mon Mar 27 2023 07:26:05 GMT-0700 (Pacific Daylight Time)","99151","","null","","","","offerFB","","<div class='trialBorder'><div class='vertical-center'><img style='vertical-align:center; align:center' src=img/fixation3.jpg></div><div class='cl'><div class='vertical-center'><font style='color:orange'>$8<br>for<br>sure</font></div></div><div class='cr'><div class='vertical-center'>$45<br>with a<br>50% chance</div></div><div class='respDivL'><div class='vertical-center'><font style='color:orange'>(E)</font></div></div><div class='respDivR'><div class='vertical-center'>(I)</div></div></div>","null","$8","$45","0","8","45",""
"html-keyboard-response","47","23833","0.0-5.0-1.14","63d82d20ed2b67b4f77f1fc7","bdp_rd","Mon Mar 27 2023 07:26:05 GMT-0700 (Pacific Daylight Time)","99151","","null","","","","FIX","","<div class='trialBorder'><div class='vertical-center'><img style='vertical-align:center; align:center' src=img/fixation3.jpg></div></div>","null","","","","","",""
"html-keyboard-response","48","23861","0.0-5.0-2.14","63d82d20ed2b67b4f77f1fc7","bdp_rd","Mon Mar 27 2023 07:26:05 GMT-0700 (Pacific Daylight Time)","99151","","27","","","","offer","","<div class='trialBorder'><div class='vertical-center'><img style='vertical-align:center; align:center' src=img/fixation3.jpg></div><div class='cl'><div class='vertical-center'>$24<br>with a<br>50% chance</div></div><div class='cr'><div class='vertical-center'>$13<br>for<br>sure</div></div><div class='respDivL'><div class='vertical-center'>(E)</div></div><div class='respDivR'><div class='vertical-center'>(I)</div></div></div>","E","$13","$24","1","13","24","RISKY"
"html-keyboard-response","49","24115","0.0-5.0-3.14","63d82d20ed2b67b4f77f1fc7","bdp_rd","Mon Mar 27 2023 07:26:05 GMT-0700 (Pacific Daylight Time)","99151","","null","","","","offerFB","","<div class='trialBorder'><div class='vertical-center'><img style='vertical-align:center; align:center' src=img/fixation3.jpg></div><div class='cl'><div class='vertical-center'><font style='color:orange'>$24<br>with a<br>50% chance</font></div></div><div class='cr'><div class='vertical-center'>$13<br>for<br>sure</div></div><div class='respDivL'><div class='vertical-center'><font style='color:orange'>(E)</font></div></div><div class='respDivR'><div class='vertical-center'>(I)</div></div></div>","null","$13","$24","1","13","24",""
"html-keyboard-response","50","24617","0.0-5.0-1.15","63d82d20ed2b67b4f77f1fc7","bdp_rd","Mon Mar 27 2023 07:26:05 GMT-0700 (Pacific Daylight Time)","99151","","null","","","","FIX","","<div class='trialBorder'><div class='vertical-center'><img style='vertical-align:center; align:center' src=img/fixation3.jpg></div></div>","null","","","","","",""
"html-keyboard-response","51","25233","0.0-5.0-2.15","63d82d20ed2b67b4f77f1fc7","bdp_rd","Mon Mar 27 2023 07:26:05 GMT-0700 (Pacific Daylight Time)","99151","","616","","","","offer","","<div class='trialBorder'><div class='vertical-center'><img style='vertical-align:center; align:center' src=img/fixation3.jpg></div><div class='cl'><div class='vertical-center'>$13<br>with a<br>50% chance</div></div><div class='cr'><div class='vertical-center'>$6<br>for<br>sure</div></div><div class='respDivL'><div class='vertical-center'>(E)</div></div><div class='respDivR'><div class='vertical-center'>(I)</div></div></div>","E","$6","$13","1","6","13","RISKY"
"html-keyboard-response","52","25490","0.0-5.0-3.15","63d82d20ed2b67b4f77f1fc7","bdp_rd","Mon Mar 27 2023 07:26:05 GMT-0700 (Pacific Daylight Time)","99151","","null","","","","offerFB","","<div class='trialBorder'><div class='vertical-center'><img style='vertical-align:center; align:center' src=img/fixation3.jpg></div><div class='cl'><div class='vertical-center'><font style='color:orange'>$13<br>with a<br>50% chance</font></div></div><div class='cr'><div class='vertical-center'>$6<br>for<br>sure</div></div><div class='respDivL'><div class='vertical-center'><font style='color:orange'>(E)</font></div></div><div class='respDivR'><div class='vertical-center'>(I)</div></div></div>","null","$6","$13","1","6","13",""
"html-keyboard-response","53","25992","0.0-5.0-1.16","63d82d20ed2b67b4f77f1fc7","bdp_rd","Mon Mar 27 2023 07:26:05 GMT-0700 (Pacific Daylight Time)","99151","","null","","","","FIX","","<div class='trialBorder'><div class='vertical-center'><img style='vertical-align:center; align:center' src=img/fixation3.jpg></div></div>","null","","","","","",""
"html-keyboard-response","54","30443","0.0-5.0-2.16","63d82d20ed2b67b4f77f1fc7","bdp_rd","Mon Mar 27 2023 07:26:05 GMT-0700 (Pacific Daylight Time)","99151","","4449","","","","offer","","<div class='trialBorder'><div class='vertical-center'><img style='vertical-align:center; align:center' src=img/fixation3.jpg></div><div class='cl'><div class='vertical-center'>$15<br>for<br>sure</div></div><div class='cr'><div class='vertical-center'>$31<br>with a<br>50% chance</div></div><div class='respDivL'><div class='vertical-center'>(E)</div></div><div class='respDivR'><div class='vertical-center'>(I)</div></div></div>","E","$15","$31","0","15","31","SURE"
"html-keyboard-response","55","30698","0.0-5.0-3.16","63d82d20ed2b67b4f77f1fc7","bdp_rd","Mon Mar 27 2023 07:26:05 GMT-0700 (Pacific Daylight Time)","99151","","null","","","","offerFB","","<div class='trialBorder'><div class='vertical-center'><img style='vertical-align:center; align:center' src=img/fixation3.jpg></div><div class='cl'><div class='vertical-center'><font style='color:orange'>$15<br>for<br>sure</font></div></div><div class='cr'><div class='vertical-center'>$31<br>with a<br>50% chance</div></div><div class='respDivL'><div class='vertical-center'><font style='color:orange'>(E)</font></div></div><div class='respDivR'><div class='vertical-center'>(I)</div></div></div>","null","$15","$31","0","15","31",""
"html-keyboard-response","56","31204","0.0-5.0-1.17","63d82d20ed2b67b4f77f1fc7","bdp_rd","Mon Mar 27 2023 07:26:05 GMT-0700 (Pacific Daylight Time)","99151","","null","","","","FIX","","<div class='trialBorder'><div class='vertical-center'><img style='vertical-align:center; align:center' src=img/fixation3.jpg></div></div>","null","","","","","",""
"html-keyboard-response","57","33277","0.0-5.0-2.17","63d82d20ed2b67b4f77f1fc7","bdp_rd","Mon Mar 27 2023 07:26:05 GMT-0700 (Pacific Daylight Time)","99151","","2072","","","","offer","","<div class='trialBorder'><div class='vertical-center'><img style='vertical-align:center; align:center' src=img/fixation3.jpg></div><div class='cl'><div class='vertical-center'>$26<br>with a<br>50% chance</div></div><div class='cr'><div class='vertical-center'>$11<br>for<br>sure</div></div><div class='respDivL'><div class='vertical-center'>(E)</div></div><div class='respDivR'><div class='vertical-center'>(I)</div></div></div>","E","$11","$26","1","11","26","RISKY"
"html-keyboard-response","58","33536","0.0-5.0-3.17","63d82d20ed2b67b4f77f1fc7","bdp_rd","Mon Mar 27 2023 07:26:05 GMT-0700 (Pacific Daylight Time)","99151","","null","","","","offerFB","","<div class='trialBorder'><div class='vertical-center'><img style='vertical-align:center; align:center' src=img/fixation3.jpg></div><div class='cl'><div class='vertical-center'><font style='color:orange'>$26<br>with a<br>50% chance</font></div></div><div class='cr'><div class='vertical-center'>$11<br>for<br>sure</div></div><div class='respDivL'><div class='vertical-center'><font style='color:orange'>(E)</font></div></div><div class='respDivR'><div class='vertical-center'>(I)</div></div></div>","null","$11","$26","1","11","26",""
"html-keyboard-response","59","34041","0.0-5.0-1.18","63d82d20ed2b67b4f77f1fc7","bdp_rd","Mon Mar 27 2023 07:26:05 GMT-0700 (Pacific Daylight Time)","99151","","null","","","","FIX","","<div class='trialBorder'><div class='vertical-center'><img style='vertical-align:center; align:center' src=img/fixation3.jpg></div></div>","null","","","","","",""
"html-keyboard-response","60","36438","0.0-5.0-2.18","63d82d20ed2b67b4f77f1fc7","bdp_rd","Mon Mar 27 2023 07:26:05 GMT-0700 (Pacific Daylight Time)","99151","","2396","","","","offer","","<div class='trialBorder'><div class='vertical-center'><img style='vertical-align:center; align:center' src=img/fixation3.jpg></div><div class='cl'><div class='vertical-center'>$95<br>with a<br>50% chance</div></div><div class='cr'><div class='vertical-center'>$40<br>for<br>sure</div></div><div class='respDivL'><div class='vertical-center'>(E)</div></div><div class='respDivR'><div class='vertical-center'>(I)</div></div></div>","E","$40","$95","1","40","95","RISKY"
"html-keyboard-response","61","36696","0.0-5.0-3.18","63d82d20ed2b67b4f77f1fc7","bdp_rd","Mon Mar 27 2023 07:26:05 GMT-0700 (Pacific Daylight Time)","99151","","null","","","","offerFB","","<div class='trialBorder'><div class='vertical-center'><img style='vertical-align:center; align:center' src=img/fixation3.jpg></div><div class='cl'><div class='vertical-center'><font style='color:orange'>$95<br>with a<br>50% chance</font></div></div><div class='cr'><div class='vertical-center'>$40<br>for<br>sure</div></div><div class='respDivL'><div class='vertical-center'><font style='color:orange'>(E)</font></div></div><div class='respDivR'><div class='vertical-center'>(I)</div></div></div>","null","$40","$95","1","40","95",""
"html-keyboard-response","62","37202","0.0-5.0-1.19","63d82d20ed2b67b4f77f1fc7","bdp_rd","Mon Mar 27 2023 07:26:05 GMT-0700 (Pacific Daylight Time)","99151","","null","","","","FIX","","<div class='trialBorder'><div class='vertical-center'><img style='vertical-align:center; align:center' src=img/fixation3.jpg></div></div>","null","","","","","",""
"html-keyboard-response","63","46260","0.0-5.0-2.19","63d82d20ed2b67b4f77f1fc7","bdp_rd","Mon Mar 27 2023 07:26:05 GMT-0700 (Pacific Daylight Time)","99151","","9058","","","","offer","","<div class='trialBorder'><div class='vertical-center'><img style='vertical-align:center; align:center' src=img/fixation3.jpg></div><div class='cl'><div class='vertical-center'>$12<br>with a<br>50% chance</div></div><div class='cr'><div class='vertical-center'>$3<br>for<br>sure</div></div><div class='respDivL'><div class='vertical-center'>(E)</div></div><div class='respDivR'><div class='vertical-center'>(I)</div></div></div>","I","$3","$12","1","3","12","SURE"
"html-keyboard-response","64","46522","0.0-5.0-3.19","63d82d20ed2b67b4f77f1fc7","bdp_rd","Mon Mar 27 2023 07:26:05 GMT-0700 (Pacific Daylight Time)","99151","","null","","","","offerFB","","<div class='trialBorder'><div class='vertical-center'><img style='vertical-align:center; align:center' src=img/fixation3.jpg></div><div class='cl'><div class='vertical-center'>$12<br>with a<br>50% chance</div></div><div class='cr'><div class='vertical-center'><font style='color:orange'>$3<br>for<br>sure</font></div></div><div class='respDivL'><div class='vertical-center'>(E)</div></div><div class='respDivR'><div class='vertical-center'><font style='color:orange'>(I)</font></div></div></div>","null","$3","$12","1","3","12",""
"html-keyboard-response","65","47023","0.0-5.0-1.20","63d82d20ed2b67b4f77f1fc7","bdp_rd","Mon Mar 27 2023 07:26:05 GMT-0700 (Pacific Daylight Time)","99151","","null","","","","FIX","","<div class='trialBorder'><div class='vertical-center'><img style='vertical-align:center; align:center' src=img/fixation3.jpg></div></div>","null","","","","","",""
"html-keyboard-response","66","47081","0.0-5.0-2.20","63d82d20ed2b67b4f77f1fc7","bdp_rd","Mon Mar 27 2023 07:26:05 GMT-0700 (Pacific Daylight Time)","99151","","57","","","","offer","","<div class='trialBorder'><div class='vertical-center'><img style='vertical-align:center; align:center' src=img/fixation3.jpg></div><div class='cl'><div class='vertical-center'>$71<br>with a<br>50% chance</div></div><div class='cr'><div class='vertical-center'>$7<br>for<br>sure</div></div><div class='respDivL'><div class='vertical-center'>(E)</div></div><div class='respDivR'><div class='vertical-center'>(I)</div></div></div>","I","$7","$71","1","7","71","SURE"
"html-keyboard-response","67","47337","0.0-5.0-3.20","63d82d20ed2b67b4f77f1fc7","bdp_rd","Mon Mar 27 2023 07:26:05 GMT-0700 (Pacific Daylight Time)","99151","","null","","","","offerFB","","<div class='trialBorder'><div class='vertical-center'><img style='vertical-align:center; align:center' src=img/fixation3.jpg></div><div class='cl'><div class='vertical-center'>$71<br>with a<br>50% chance</div></div><div class='cr'><div class='vertical-center'><font style='color:orange'>$7<br>for<br>sure</font></div></div><div class='respDivL'><div class='vertical-center'>(E)</div></div><div class='respDivR'><div class='vertical-center'><font style='color:orange'>(I)</font></div></div></div>","null","$7","$71","1","7","71",""
"html-keyboard-response","68","47839","0.0-5.0-1.21","63d82d20ed2b67b4f77f1fc7","bdp_rd","Mon Mar 27 2023 07:26:05 GMT-0700 (Pacific Daylight Time)","99151","","null","","","","FIX","","<div class='trialBorder'><div class='vertical-center'><img style='vertical-align:center; align:center' src=img/fixation3.jpg></div></div>","null","","","","","",""
"html-keyboard-response","69","48397","0.0-5.0-2.21","63d82d20ed2b67b4f77f1fc7","bdp_rd","Mon Mar 27 2023 07:26:05 GMT-0700 (Pacific Daylight Time)","99151","","557","","","","offer","","<div class='trialBorder'><div class='vertical-center'><img style='vertical-align:center; align:center' src=img/fixation3.jpg></div><div class='cl'><div class='vertical-center'>$22<br>with a<br>50% chance</div></div><div class='cr'><div class='vertical-center'>$14<br>for<br>sure</div></div><div class='respDivL'><div class='vertical-center'>(E)</div></div><div class='respDivR'><div class='vertical-center'>(I)</div></div></div>","I","$14","$22","1","14","22","SURE"
"html-keyboard-response","70","48658","0.0-5.0-3.21","63d82d20ed2b67b4f77f1fc7","bdp_rd","Mon Mar 27 2023 07:26:05 GMT-0700 (Pacific Daylight Time)","99151","","null","","","","offerFB","","<div class='trialBorder'><div class='vertical-center'><img style='vertical-align:center; align:center' src=img/fixation3.jpg></div><div class='cl'><div class='vertical-center'>$22<br>with a<br>50% chance</div></div><div class='cr'><div class='vertical-center'><font style='color:orange'>$14<br>for<br>sure</font></div></div><div class='respDivL'><div class='vertical-center'>(E)</div></div><div class='respDivR'><div class='vertical-center'><font style='color:orange'>(I)</font></div></div></div>","null","$14","$22","1","14","22",""
"html-keyboard-response","71","49159","0.0-5.0-1.22","63d82d20ed2b67b4f77f1fc7","bdp_rd","Mon Mar 27 2023 07:26:05 GMT-0700 (Pacific Daylight Time)","99151","","null","","","","FIX","","<div class='trialBorder'><div class='vertical-center'><img style='vertical-align:center; align:center' src=img/fixation3.jpg></div></div>","null","","","","","",""
"html-keyboard-response","72","49410","0.0-5.0-2.22","63d82d20ed2b67b4f77f1fc7","bdp_rd","Mon Mar 27 2023 07:26:05 GMT-0700 (Pacific Daylight Time)","99151","","249","","","","offer","","<div class='trialBorder'><div class='vertical-center'><img style='vertical-align:center; align:center' src=img/fixation3.jpg></div><div class='cl'><div class='vertical-center'>$30<br>for<br>sure</div></div><div class='cr'><div class='vertical-center'>$68<br>with a<br>50% chance</div></div><div class='respDivL'><div class='vertical-center'>(E)</div></div><div class='respDivR'><div class='vertical-center'>(I)</div></div></div>","E","$30","$68","0","30","68","SURE"
"html-keyboard-response","73","49665","0.0-5.0-3.22","63d82d20ed2b67b4f77f1fc7","bdp_rd","Mon Mar 27 2023 07:26:05 GMT-0700 (Pacific Daylight Time)","99151","","null","","","","offerFB","","<div class='trialBorder'><div class='vertical-center'><img style='vertical-align:center; align:center' src=img/fixation3.jpg></div><div class='cl'><div class='vertical-center'><font style='color:orange'>$30<br>for<br>sure</font></div></div><div class='cr'><div class='vertical-center'>$68<br>with a<br>50% chance</div></div><div class='respDivL'><div class='vertical-center'><font style='color:orange'>(E)</font></div></div><div class='respDivR'><div class='vertical-center'>(I)</div></div></div>","null","$30","$68","0","30","68",""
"html-keyboard-response","74","50170","0.0-5.0-1.23","63d82d20ed2b67b4f77f1fc7","bdp_rd","Mon Mar 27 2023 07:26:05 GMT-0700 (Pacific Daylight Time)","99151","","null","","","","FIX","","<div class='trialBorder'><div class='vertical-center'><img style='vertical-align:center; align:center' src=img/fixation3.jpg></div></div>","null","","","","","",""
"html-keyboard-response","75","50355","0.0-5.0-2.23","63d82d20ed2b67b4f77f1fc7","bdp_rd","Mon Mar 27 2023 07:26:05 GMT-0700 (Pacific Daylight Time)","99151","","184","","","","offer","","<div class='trialBorder'><div class='vertical-center'><img style='vertical-align:center; align:center' src=img/fixation3.jpg></div><div class='cl'><div class='vertical-center'>$34<br>with a<br>50% chance</div></div><div class='cr'><div class='vertical-center'>$15<br>for<br>sure</div></div><div class='respDivL'><div class='vertical-center'>(E)</div></div><div class='respDivR'><div class='vertical-center'>(I)</div></div></div>","E","$15","$34","1","15","34","RISKY"
"html-keyboard-response","76","50608","0.0-5.0-3.23","63d82d20ed2b67b4f77f1fc7","bdp_rd","Mon Mar 27 2023 07:26:05 GMT-0700 (Pacific Daylight Time)","99151","","null","","","","offerFB","","<div class='trialBorder'><div class='vertical-center'><img style='vertical-align:center; align:center' src=img/fixation3.jpg></div><div class='cl'><div class='vertical-center'><font style='color:orange'>$34<br>with a<br>50% chance</font></div></div><div class='cr'><div class='vertical-center'>$15<br>for<br>sure</div></div><div class='respDivL'><div class='vertical-center'><font style='color:orange'>(E)</font></div></div><div class='respDivR'><div class='vertical-center'>(I)</div></div></div>","null","$15","$34","1","15","34",""
"html-keyboard-response","77","51113","0.0-5.0-1.24","63d82d20ed2b67b4f77f1fc7","bdp_rd","Mon Mar 27 2023 07:26:05 GMT-0700 (Pacific Daylight Time)","99151","","null","","","","FIX","","<div class='trialBorder'><div class='vertical-center'><img style='vertical-align:center; align:center' src=img/fixation3.jpg></div></div>","null","","","","","",""
"html-keyboard-response","78","51153","0.0-5.0-2.24","63d82d20ed2b67b4f77f1fc7","bdp_rd","Mon Mar 27 2023 07:26:05 GMT-0700 (Pacific Daylight Time)","99151","","39","","","","offer","","<div class='trialBorder'><div class='vertical-center'><img style='vertical-align:center; align:center' src=img/fixation3.jpg></div><div class='cl'><div class='vertical-center'>$89<br>with a<br>50% chance</div></div><div class='cr'><div class='vertical-center'>$28<br>for<br>sure</div></div><div class='respDivL'><div class='vertical-center'>(E)</div></div><div class='respDivR'><div class='vertical-center'>(I)</div></div></div>","I","$28","$89","1","28","89","SURE"
"html-keyboard-response","79","51409","0.0-5.0-3.24","63d82d20ed2b67b4f77f1fc7","bdp_rd","Mon Mar 27 2023 07:26:05 GMT-0700 (Pacific Daylight Time)","99151","","null","","","","offerFB","","<div class='trialBorder'><div class='vertical-center'><img style='vertical-align:center; align:center' src=img/fixation3.jpg></div><div class='cl'><div class='vertical-center'>$89<br>with a<br>50% chance</div></div><div class='cr'><div class='vertical-center'><font style='color:orange'>$28<br>for<br>sure</font></div></div><div class='respDivL'><div class='vertical-center'>(E)</div></div><div class='respDivR'><div class='vertical-center'><font style='color:orange'>(I)</font></div></div></div>","null","$28","$89","1","28","89",""
"html-keyboard-response","80","51911","0.0-5.0-1.25","63d82d20ed2b67b4f77f1fc7","bdp_rd","Mon Mar 27 2023 07:26:05 GMT-0700 (Pacific Daylight Time)","99151","","null","","","","FIX","","<div class='trialBorder'><div class='vertical-center'><img style='vertical-align:center; align:center' src=img/fixation3.jpg></div></div>","null","","","","","",""
"html-keyboard-response","81","51963","0.0-5.0-2.25","63d82d20ed2b67b4f77f1fc7","bdp_rd","Mon Mar 27 2023 07:26:05 GMT-0700 (Pacific Daylight Time)","99151","","51","","","","offer","","<div class='trialBorder'><div class='vertical-center'><img style='vertical-align:center; align:center' src=img/fixation3.jpg></div><div class='cl'><div class='vertical-center'>$18<br>for<br>sure</div></div><div class='cr'><div class='vertical-center'>$36<br>with a<br>50% chance</div></div><div class='respDivL'><div class='vertical-center'>(E)</div></div><div class='respDivR'><div class='vertical-center'>(I)</div></div></div>","I","$18","$36","0","18","36","RISKY"
"html-keyboard-response","82","52216","0.0-5.0-3.25","63d82d20ed2b67b4f77f1fc7","bdp_rd","Mon Mar 27 2023 07:26:05 GMT-0700 (Pacific Daylight Time)","99151","","null","","","","offerFB","","<div class='trialBorder'><div class='vertical-center'><img style='vertical-align:center; align:center' src=img/fixation3.jpg></div><div class='cl'><div class='vertical-center'>$18<br>for<br>sure</div></div><div class='cr'><div class='vertical-center'><font style='color:orange'>$36<br>with a<br>50% chance</font></div></div><div class='respDivL'><div class='vertical-center'>(E)</div></div><div class='respDivR'><div class='vertical-center'><font style='color:orange'>(I)</font></div></div></div>","null","$18","$36","0","18","36",""
"html-keyboard-response","83","52721","0.0-5.0-1.26","63d82d20ed2b67b4f77f1fc7","bdp_rd","Mon Mar 27 2023 07:26:05 GMT-0700 (Pacific Daylight Time)","99151","","null","","","","FIX","","<div class='trialBorder'><div class='vertical-center'><img style='vertical-align:center; align:center' src=img/fixation3.jpg></div></div>","null","","","","","",""
"html-keyboard-response","84","52762","0.0-5.0-2.26","63d82d20ed2b67b4f77f1fc7","bdp_rd","Mon Mar 27 2023 07:26:05 GMT-0700 (Pacific Daylight Time)","99151","","41","","","","offer","","<div class='trialBorder'><div class='vertical-center'><img style='vertical-align:center; align:center' src=img/fixation3.jpg></div><div class='cl'><div class='vertical-center'>$35<br>with a<br>50% chance</div></div><div class='cr'><div class='vertical-center'>$12<br>for<br>sure</div></div><div class='respDivL'><div class='vertical-center'>(E)</div></div><div class='respDivR'><div class='vertical-center'>(I)</div></div></div>","E","$12","$35","1","12","35","RISKY"
"html-keyboard-response","85","53017","0.0-5.0-3.26","63d82d20ed2b67b4f77f1fc7","bdp_rd","Mon Mar 27 2023 07:26:05 GMT-0700 (Pacific Daylight Time)","99151","","null","","","","offerFB","","<div class='trialBorder'><div class='vertical-center'><img style='vertical-align:center; align:center' src=img/fixation3.jpg></div><div class='cl'><div class='vertical-center'><font style='color:orange'>$35<br>with a<br>50% chance</font></div></div><div class='cr'><div class='vertical-center'>$12<br>for<br>sure</div></div><div class='respDivL'><div class='vertical-center'><font style='color:orange'>(E)</font></div></div><div class='respDivR'><div class='vertical-center'>(I)</div></div></div>","null","$12","$35","1","12","35",""
"html-keyboard-response","86","53519","0.0-5.0-1.27","63d82d20ed2b67b4f77f1fc7","bdp_rd","Mon Mar 27 2023 07:26:05 GMT-0700 (Pacific Daylight Time)","99151","","null","","","","FIX","","<div class='trialBorder'><div class='vertical-center'><img style='vertical-align:center; align:center' src=img/fixation3.jpg></div></div>","null","","","","","",""
"html-keyboard-response","87","53651","0.0-5.0-2.27","63d82d20ed2b67b4f77f1fc7","bdp_rd","Mon Mar 27 2023 07:26:05 GMT-0700 (Pacific Daylight Time)","99151","","131","","","","offer","","<div class='trialBorder'><div class='vertical-center'><img style='vertical-align:center; align:center' src=img/fixation3.jpg></div><div class='cl'><div class='vertical-center'>$18<br>for<br>sure</div></div><div class='cr'><div class='vertical-center'>$39<br>with a<br>50% chance</div></div><div class='respDivL'><div class='vertical-center'>(E)</div></div><div class='respDivR'><div class='vertical-center'>(I)</div></div></div>","E","$18","$39","0","18","39","SURE"
"html-keyboard-response","88","53905","0.0-5.0-3.27","63d82d20ed2b67b4f77f1fc7","bdp_rd","Mon Mar 27 2023 07:26:05 GMT-0700 (Pacific Daylight Time)","99151","","null","","","","offerFB","","<div class='trialBorder'><div class='vertical-center'><img style='vertical-align:center; align:center' src=img/fixation3.jpg></div><div class='cl'><div class='vertical-center'><font style='color:orange'>$18<br>for<br>sure</font></div></div><div class='cr'><div class='vertical-center'>$39<br>with a<br>50% chance</div></div><div class='respDivL'><div class='vertical-center'><font style='color:orange'>(E)</font></div></div><div class='respDivR'><div class='vertical-center'>(I)</div></div></div>","null","$18","$39","0","18","39",""
"html-keyboard-response","89","54407","0.0-5.0-1.28","63d82d20ed2b67b4f77f1fc7","bdp_rd","Mon Mar 27 2023 07:26:05 GMT-0700 (Pacific Daylight Time)","99151","","null","","","","FIX","","<div class='trialBorder'><div class='vertical-center'><img style='vertical-align:center; align:center' src=img/fixation3.jpg></div></div>","null","","","","","",""
"html-keyboard-response","90","54461","0.0-5.0-2.28","63d82d20ed2b67b4f77f1fc7","bdp_rd","Mon Mar 27 2023 07:26:05 GMT-0700 (Pacific Daylight Time)","99151","","53","","","","offer","","<div class='trialBorder'><div class='vertical-center'><img style='vertical-align:center; align:center' src=img/fixation3.jpg></div><div class='cl'><div class='vertical-center'>$98<br>with a<br>50% chance</div></div><div class='cr'><div class='vertical-center'>$53<br>for<br>sure</div></div><div class='respDivL'><div class='vertical-center'>(E)</div></div><div class='respDivR'><div class='vertical-center'>(I)</div></div></div>","I","$53","$98","1","53","98","SURE"
"html-keyboard-response","91","54721","0.0-5.0-3.28","63d82d20ed2b67b4f77f1fc7","bdp_rd","Mon Mar 27 2023 07:26:05 GMT-0700 (Pacific Daylight Time)","99151","","null","","","","offerFB","","<div class='trialBorder'><div class='vertical-center'><img style='vertical-align:center; align:center' src=img/fixation3.jpg></div><div class='cl'><div class='vertical-center'>$98<br>with a<br>50% chance</div></div><div class='cr'><div class='vertical-center'><font style='color:orange'>$53<br>for<br>sure</font></div></div><div class='respDivL'><div class='vertical-center'>(E)</div></div><div class='respDivR'><div class='vertical-center'><font style='color:orange'>(I)</font></div></div></div>","null","$53","$98","1","53","98",""
"html-keyboard-response","92","55226","0.0-5.0-1.29","63d82d20ed2b67b4f77f1fc7","bdp_rd","Mon Mar 27 2023 07:26:05 GMT-0700 (Pacific Daylight Time)","99151","","null","","","","FIX","","<div class='trialBorder'><div class='vertical-center'><img style='vertical-align:center; align:center' src=img/fixation3.jpg></div></div>","null","","","","","",""
"html-keyboard-response","93","55316","0.0-5.0-2.29","63d82d20ed2b67b4f77f1fc7","bdp_rd","Mon Mar 27 2023 07:26:05 GMT-0700 (Pacific Daylight Time)","99151","","90","","","","offer","","<div class='trialBorder'><div class='vertical-center'><img style='vertical-align:center; align:center' src=img/fixation3.jpg></div><div class='cl'><div class='vertical-center'>$78<br>with a<br>50% chance</div></div><div class='cr'><div class='vertical-center'>$31<br>for<br>sure</div></div><div class='respDivL'><div class='vertical-center'>(E)</div></div><div class='respDivR'><div class='vertical-center'>(I)</div></div></div>","E","$31","$78","1","31","78","RISKY"
"html-keyboard-response","94","55568","0.0-5.0-3.29","63d82d20ed2b67b4f77f1fc7","bdp_rd","Mon Mar 27 2023 07:26:05 GMT-0700 (Pacific Daylight Time)","99151","","null","","","","offerFB","","<div class='trialBorder'><div class='vertical-center'><img style='vertical-align:center; align:center' src=img/fixation3.jpg></div><div class='cl'><div class='vertical-center'><font style='color:orange'>$78<br>with a<br>50% chance</font></div></div><div class='cr'><div class='vertical-center'>$31<br>for<br>sure</div></div><div class='respDivL'><div class='vertical-center'><font style='color:orange'>(E)</font></div></div><div class='respDivR'><div class='vertical-center'>(I)</div></div></div>","null","$31","$78","1","31","78",""
"html-keyboard-response","95","56073","0.0-5.0-1.30","63d82d20ed2b67b4f77f1fc7","bdp_rd","Mon Mar 27 2023 07:26:05 GMT-0700 (Pacific Daylight Time)","99151","","null","","","","FIX","","<div class='trialBorder'><div class='vertical-center'><img style='vertical-align:center; align:center' src=img/fixation3.jpg></div></div>","null","","","","","",""
"html-keyboard-response","96","56486","0.0-5.0-2.30","63d82d20ed2b67b4f77f1fc7","bdp_rd","Mon Mar 27 2023 07:26:05 GMT-0700 (Pacific Daylight Time)","99151","","412","","","","offer","","<div class='trialBorder'><div class='vertical-center'><img style='vertical-align:center; align:center' src=img/fixation3.jpg></div><div class='cl'><div class='vertical-center'>$4<br>for<br>sure</div></div><div class='cr'><div class='vertical-center'>$11<br>with a<br>50% chance</div></div><div class='respDivL'><div class='vertical-center'>(E)</div></div><div class='respDivR'><div class='vertical-center'>(I)</div></div></div>","E","$4","$11","0","4","11","SURE"
"html-keyboard-response","97","56744","0.0-5.0-3.30","63d82d20ed2b67b4f77f1fc7","bdp_rd","Mon Mar 27 2023 07:26:05 GMT-0700 (Pacific Daylight Time)","99151","","null","","","","offerFB","","<div class='trialBorder'><div class='vertical-center'><img style='vertical-align:center; align:center' src=img/fixation3.jpg></div><div class='cl'><div class='vertical-center'><font style='color:orange'>$4<br>for<br>sure</font></div></div><div class='cr'><div class='vertical-center'>$11<br>with a<br>50% chance</div></div><div class='respDivL'><div class='vertical-center'><font style='color:orange'>(E)</font></div></div><div class='respDivR'><div class='vertical-center'>(I)</div></div></div>","null","$4","$11","0","4","11",""
"html-keyboard-response","98","57249","0.0-5.0-1.31","63d82d20ed2b67b4f77f1fc7","bdp_rd","Mon Mar 27 2023 07:26:05 GMT-0700 (Pacific Daylight Time)","99151","","null","","","","FIX","","<div class='trialBorder'><div class='vertical-center'><img style='vertical-align:center; align:center' src=img/fixation3.jpg></div></div>","null","","","","","",""
"html-keyboard-response","99","57532","0.0-5.0-2.31","63d82d20ed2b67b4f77f1fc7","bdp_rd","Mon Mar 27 2023 07:26:05 GMT-0700 (Pacific Daylight Time)","99151","","282","","","","offer","","<div class='trialBorder'><div class='vertical-center'><img style='vertical-align:center; align:center' src=img/fixation3.jpg></div><div class='cl'><div class='vertical-center'>$24<br>for<br>sure</div></div><div class='cr'><div class='vertical-center'>$70<br>with a<br>50% chance</div></div><div class='respDivL'><div class='vertical-center'>(E)</div></div><div class='respDivR'><div class='vertical-center'>(I)</div></div></div>","I","$24","$70","0","24","70","RISKY"
"html-keyboard-response","100","57791","0.0-5.0-3.31","63d82d20ed2b67b4f77f1fc7","bdp_rd","Mon Mar 27 2023 07:26:05 GMT-0700 (Pacific Daylight Time)","99151","","null","","","","offerFB","","<div class='trialBorder'><div class='vertical-center'><img style='vertical-align:center; align:center' src=img/fixation3.jpg></div><div class='cl'><div class='vertical-center'>$24<br>for<br>sure</div></div><div class='cr'><div class='vertical-center'><font style='color:orange'>$70<br>with a<br>50% chance</font></div></div><div class='respDivL'><div class='vertical-center'>(E)</div></div><div class='respDivR'><div class='vertical-center'><font style='color:orange'>(I)</font></div></div></div>","null","$24","$70","0","24","70",""
"html-keyboard-response","101","58296","0.0-5.0-1.32","63d82d20ed2b67b4f77f1fc7","bdp_rd","Mon Mar 27 2023 07:26:05 GMT-0700 (Pacific Daylight Time)","99151","","null","","","","FIX","","<div class='trialBorder'><div class='vertical-center'><img style='vertical-align:center; align:center' src=img/fixation3.jpg></div></div>","null","","","","","",""
"html-keyboard-response","102","58804","0.0-5.0-2.32","63d82d20ed2b67b4f77f1fc7","bdp_rd","Mon Mar 27 2023 07:26:05 GMT-0700 (Pacific Daylight Time)","99151","","506","","","","offer","","<div class='trialBorder'><div class='vertical-center'><img style='vertical-align:center; align:center' src=img/fixation3.jpg></div><div class='cl'><div class='vertical-center'>$100<br>with a<br>50% chance</div></div><div class='cr'><div class='vertical-center'>$63<br>for<br>sure</div></div><div class='respDivL'><div class='vertical-center'>(E)</div></div><div class='respDivR'><div class='vertical-center'>(I)</div></div></div>","I","$63","$100","1","63","10","SURE"
"html-keyboard-response","103","59056","0.0-5.0-3.32","63d82d20ed2b67b4f77f1fc7","bdp_rd","Mon Mar 27 2023 07:26:05 GMT-0700 (Pacific Daylight Time)","99151","","null","","","","offerFB","","<div class='trialBorder'><div class='vertical-center'><img style='vertical-align:center; align:center' src=img/fixation3.jpg></div><div class='cl'><div class='vertical-center'>$100<br>with a<br>50% chance</div></div><div class='cr'><div class='vertical-center'><font style='color:orange'>$63<br>for<br>sure</font></div></div><div class='respDivL'><div class='vertical-center'>(E)</div></div><div class='respDivR'><div class='vertical-center'><font style='color:orange'>(I)</font></div></div></div>","null","$63","$100","1","63","10",""
"html-keyboard-response","104","59559","0.0-5.0-1.33","63d82d20ed2b67b4f77f1fc7","bdp_rd","Mon Mar 27 2023 07:26:05 GMT-0700 (Pacific Daylight Time)","99151","","null","","","","FIX","","<div class='trialBorder'><div class='vertical-center'><img style='vertical-align:center; align:center' src=img/fixation3.jpg></div></div>","null","","","","","",""
"html-keyboard-response","105","59996","0.0-5.0-2.33","63d82d20ed2b67b4f77f1fc7","bdp_rd","Mon Mar 27 2023 07:26:05 GMT-0700 (Pacific Daylight Time)","99151","","436","","","","offer","","<div class='trialBorder'><div class='vertical-center'><img style='vertical-align:center; align:center' src=img/fixation3.jpg></div><div class='cl'><div class='vertical-center'>$38<br>with a<br>50% chance</div></div><div class='cr'><div class='vertical-center'>$16<br>for<br>sure</div></div><div class='respDivL'><div class='vertical-center'>(E)</div></div><div class='respDivR'><div class='vertical-center'>(I)</div></div></div>","I","$16","$38","1","16","38","SURE"
"html-keyboard-response","106","60247","0.0-5.0-3.33","63d82d20ed2b67b4f77f1fc7","bdp_rd","Mon Mar 27 2023 07:26:05 GMT-0700 (Pacific Daylight Time)","99151","","null","","","","offerFB","","<div class='trialBorder'><div class='vertical-center'><img style='vertical-align:center; align:center' src=img/fixation3.jpg></div><div class='cl'><div class='vertical-center'>$38<br>with a<br>50% chance</div></div><div class='cr'><div class='vertical-center'><font style='color:orange'>$16<br>for<br>sure</font></div></div><div class='respDivL'><div class='vertical-center'>(E)</div></div><div class='respDivR'><div class='vertical-center'><font style='color:orange'>(I)</font></div></div></div>","null","$16","$38","1","16","38",""
"html-keyboard-response","107","60752","0.0-5.0-1.34","63d82d20ed2b67b4f77f1fc7","bdp_rd","Mon Mar 27 2023 07:26:05 GMT-0700 (Pacific Daylight Time)","99151","","null","","","","FIX","","<div class='trialBorder'><div class='vertical-center'><img style='vertical-align:center; align:center' src=img/fixation3.jpg></div></div>","null","","","","","",""
"html-keyboard-response","108","61031","0.0-5.0-2.34","63d82d20ed2b67b4f77f1fc7","bdp_rd","Mon Mar 27 2023 07:26:05 GMT-0700 (Pacific Daylight Time)","99151","","279","","","","offer","","<div class='trialBorder'><div class='vertical-center'><img style='vertical-align:center; align:center' src=img/fixation3.jpg></div><div class='cl'><div class='vertical-center'>$17<br>for<br>sure</div></div><div class='cr'><div class='vertical-center'>$43<br>with a<br>50% chance</div></div><div class='respDivL'><div class='vertical-center'>(E)</div></div><div class='respDivR'><div class='vertical-center'>(I)</div></div></div>","E","$17","$43","0","17","43","SURE"
"html-keyboard-response","109","61289","0.0-5.0-3.34","63d82d20ed2b67b4f77f1fc7","bdp_rd","Mon Mar 27 2023 07:26:05 GMT-0700 (Pacific Daylight Time)","99151","","null","","","","offerFB","","<div class='trialBorder'><div class='vertical-center'><img style='vertical-align:center; align:center' src=img/fixation3.jpg></div><div class='cl'><div class='vertical-center'><font style='color:orange'>$17<br>for<br>sure</font></div></div><div class='cr'><div class='vertical-center'>$43<br>with a<br>50% chance</div></div><div class='respDivL'><div class='vertical-center'><font style='color:orange'>(E)</font></div></div><div class='respDivR'><div class='vertical-center'>(I)</div></div></div>","null","$17","$43","0","17","43",""
"html-keyboard-response","110","61791","0.0-5.0-1.35","63d82d20ed2b67b4f77f1fc7","bdp_rd","Mon Mar 27 2023 07:26:05 GMT-0700 (Pacific Daylight Time)","99151","","null","","","","FIX","","<div class='trialBorder'><div class='vertical-center'><img style='vertical-align:center; align:center' src=img/fixation3.jpg></div></div>","null","","","","","",""
"html-keyboard-response","111","61931","0.0-5.0-2.35","63d82d20ed2b67b4f77f1fc7","bdp_rd","Mon Mar 27 2023 07:26:05 GMT-0700 (Pacific Daylight Time)","99151","","139","","","","offer","","<div class='trialBorder'><div class='vertical-center'><img style='vertical-align:center; align:center' src=img/fixation3.jpg></div><div class='cl'><div class='vertical-center'>$16<br>with a<br>50% chance</div></div><div class='cr'><div class='vertical-center'>$5<br>for<br>sure</div></div><div class='respDivL'><div class='vertical-center'>(E)</div></div><div class='respDivR'><div class='vertical-center'>(I)</div></div></div>","E","$5","$16","1","5","16","RISKY"
"html-keyboard-response","112","62183","0.0-5.0-3.35","63d82d20ed2b67b4f77f1fc7","bdp_rd","Mon Mar 27 2023 07:26:05 GMT-0700 (Pacific Daylight Time)","99151","","null","","","","offerFB","","<div class='trialBorder'><div class='vertical-center'><img style='vertical-align:center; align:center' src=img/fixation3.jpg></div><div class='cl'><div class='vertical-center'><font style='color:orange'>$16<br>with a<br>50% chance</font></div></div><div class='cr'><div class='vertical-center'>$5<br>for<br>sure</div></div><div class='respDivL'><div class='vertical-center'><font style='color:orange'>(E)</font></div></div><div class='respDivR'><div class='vertical-center'>(I)</div></div></div>","null","$5","$16","1","5","16",""
"html-keyboard-response","113","62688","0.0-5.0-1.36","63d82d20ed2b67b4f77f1fc7","bdp_rd","Mon Mar 27 2023 07:26:05 GMT-0700 (Pacific Daylight Time)","99151","","null","","","","FIX","","<div class='trialBorder'><div class='vertical-center'><img style='vertical-align:center; align:center' src=img/fixation3.jpg></div></div>","null","","","","","",""
"html-keyboard-response","114","63281","0.0-5.0-2.36","63d82d20ed2b67b4f77f1fc7","bdp_rd","Mon Mar 27 2023 07:26:05 GMT-0700 (Pacific Daylight Time)","99151","","592","","","","offer","","<div class='trialBorder'><div class='vertical-center'><img style='vertical-align:center; align:center' src=img/fixation3.jpg></div><div class='cl'><div class='vertical-center'>$1<br>for<br>sure</div></div><div class='cr'><div class='vertical-center'>$30<br>with a<br>50% chance</div></div><div class='respDivL'><div class='vertical-center'>(E)</div></div><div class='respDivR'><div class='vertical-center'>(I)</div></div></div>","E","$1","$30","0","1","30","SURE"
"html-keyboard-response","115","63536","0.0-5.0-3.36","63d82d20ed2b67b4f77f1fc7","bdp_rd","Mon Mar 27 2023 07:26:05 GMT-0700 (Pacific Daylight Time)","99151","","null","","","","offerFB","","<div class='trialBorder'><div class='vertical-center'><img style='vertical-align:center; align:center' src=img/fixation3.jpg></div><div class='cl'><div class='vertical-center'><font style='color:orange'>$1<br>for<br>sure</font></div></div><div class='cr'><div class='vertical-center'>$30<br>with a<br>50% chance</div></div><div class='respDivL'><div class='vertical-center'><font style='color:orange'>(E)</font></div></div><div class='respDivR'><div class='vertical-center'>(I)</div></div></div>","null","$1","$30","0","1","30",""
"html-keyboard-response","116","64040","0.0-5.0-1.37","63d82d20ed2b67b4f77f1fc7","bdp_rd","Mon Mar 27 2023 07:26:05 GMT-0700 (Pacific Daylight Time)","99151","","null","","","","FIX","","<div class='trialBorder'><div class='vertical-center'><img style='vertical-align:center; align:center' src=img/fixation3.jpg></div></div>","null","","","","","",""
"html-keyboard-response","117","64631","0.0-5.0-2.37","63d82d20ed2b67b4f77f1fc7","bdp_rd","Mon Mar 27 2023 07:26:05 GMT-0700 (Pacific Daylight Time)","99151","","590","","","","offer","","<div class='trialBorder'><div class='vertical-center'><img style='vertical-align:center; align:center' src=img/fixation3.jpg></div><div class='cl'><div class='vertical-center'>$14<br>with a<br>50% chance</div></div><div class='cr'><div class='vertical-center'>$4<br>for<br>sure</div></div><div class='respDivL'><div class='vertical-center'>(E)</div></div><div class='respDivR'><div class='vertical-center'>(I)</div></div></div>","E","$4","$14","1","4","14","RISKY"
"html-keyboard-response","118","64888","0.0-5.0-3.37","63d82d20ed2b67b4f77f1fc7","bdp_rd","Mon Mar 27 2023 07:26:05 GMT-0700 (Pacific Daylight Time)","99151","","null","","","","offerFB","","<div class='trialBorder'><div class='vertical-center'><img style='vertical-align:center; align:center' src=img/fixation3.jpg></div><div class='cl'><div class='vertical-center'><font style='color:orange'>$14<br>with a<br>50% chance</font></div></div><div class='cr'><div class='vertical-center'>$4<br>for<br>sure</div></div><div class='respDivL'><div class='vertical-center'><font style='color:orange'>(E)</font></div></div><div class='respDivR'><div class='vertical-center'>(I)</div></div></div>","null","$4","$14","1","4","14",""
"html-keyboard-response","119","65393","0.0-5.0-1.38","63d82d20ed2b67b4f77f1fc7","bdp_rd","Mon Mar 27 2023 07:26:05 GMT-0700 (Pacific Daylight Time)","99151","","null","","","","FIX","","<div class='trialBorder'><div class='vertical-center'><img style='vertical-align:center; align:center' src=img/fixation3.jpg></div></div>","null","","","","","",""
"html-keyboard-response","120","66105","0.0-5.0-2.38","63d82d20ed2b67b4f77f1fc7","bdp_rd","Mon Mar 27 2023 07:26:05 GMT-0700 (Pacific Daylight Time)","99151","","712","","","","offer","","<div class='trialBorder'><div class='vertical-center'><img style='vertical-align:center; align:center' src=img/fixation3.jpg></div><div class='cl'><div class='vertical-center'>$5<br>for<br>sure</div></div><div class='cr'><div class='vertical-center'>$50<br>with a<br>50% chance</div></div><div class='respDivL'><div class='vertical-center'>(E)</div></div><div class='respDivR'><div class='vertical-center'>(I)</div></div></div>","I","$5","$50","0","5","50","RISKY"
"html-keyboard-response","121","66364","0.0-5.0-3.38","63d82d20ed2b67b4f77f1fc7","bdp_rd","Mon Mar 27 2023 07:26:05 GMT-0700 (Pacific Daylight Time)","99151","","null","","","","offerFB","","<div class='trialBorder'><div class='vertical-center'><img style='vertical-align:center; align:center' src=img/fixation3.jpg></div><div class='cl'><div class='vertical-center'>$5<br>for<br>sure</div></div><div class='cr'><div class='vertical-center'><font style='color:orange'>$50<br>with a<br>50% chance</font></div></div><div class='respDivL'><div class='vertical-center'>(E)</div></div><div class='respDivR'><div class='vertical-center'><font style='color:orange'>(I)</font></div></div></div>","null","$5","$50","0","5","50",""
"html-keyboard-response","122","66873","0.0-5.0-1.39","63d82d20ed2b67b4f77f1fc7","bdp_rd","Mon Mar 27 2023 07:26:05 GMT-0700 (Pacific Daylight Time)","99151","","null","","","","FIX","","<div class='trialBorder'><div class='vertical-center'><img style='vertical-align:center; align:center' src=img/fixation3.jpg></div></div>","null","","","","","",""
"html-keyboard-response","123","67545","0.0-5.0-2.39","63d82d20ed2b67b4f77f1fc7","bdp_rd","Mon Mar 27 2023 07:26:05 GMT-0700 (Pacific Daylight Time)","99151","","671","","","","offer","","<div class='trialBorder'><div class='vertical-center'><img style='vertical-align:center; align:center' src=img/fixation3.jpg></div><div class='cl'><div class='vertical-center'>$45<br>for<br>sure</div></div><div class='cr'><div class='vertical-center'>$86<br>with a<br>50% chance</div></div><div class='respDivL'><div class='vertical-center'>(E)</div></div><div class='respDivR'><div class='vertical-center'>(I)</div></div></div>","I","$45","$86","0","45","86","RISKY"
"html-keyboard-response","124","67799","0.0-5.0-3.39","63d82d20ed2b67b4f77f1fc7","bdp_rd","Mon Mar 27 2023 07:26:05 GMT-0700 (Pacific Daylight Time)","99151","","null","","","","offerFB","","<div class='trialBorder'><div class='vertical-center'><img style='vertical-align:center; align:center' src=img/fixation3.jpg></div><div class='cl'><div class='vertical-center'>$45<br>for<br>sure</div></div><div class='cr'><div class='vertical-center'><font style='color:orange'>$86<br>with a<br>50% chance</font></div></div><div class='respDivL'><div class='vertical-center'>(E)</div></div><div class='respDivR'><div class='vertical-center'><font style='color:orange'>(I)</font></div></div></div>","null","$45","$86","0","45","86",""
"html-keyboard-response","125","68304","0.0-5.0-1.40","63d82d20ed2b67b4f77f1fc7","bdp_rd","Mon Mar 27 2023 07:26:05 GMT-0700 (Pacific Daylight Time)","99151","","null","","","","FIX","","<div class='trialBorder'><div class='vertical-center'><img style='vertical-align:center; align:center' src=img/fixation3.jpg></div></div>","null","","","","","",""
"html-keyboard-response","126","69052","0.0-5.0-2.40","63d82d20ed2b67b4f77f1fc7","bdp_rd","Mon Mar 27 2023 07:26:05 GMT-0700 (Pacific Daylight Time)","99151","","747","","","","offer","","<div class='trialBorder'><div class='vertical-center'><img style='vertical-align:center; align:center' src=img/fixation3.jpg></div><div class='cl'><div class='vertical-center'>$14<br>for<br>sure</div></div><div class='cr'><div class='vertical-center'>$29<br>with a<br>50% chance</div></div><div class='respDivL'><div class='vertical-center'>(E)</div></div><div class='respDivR'><div class='vertical-center'>(I)</div></div></div>","E","$14","$29","0","14","29","SURE"
"html-keyboard-response","127","69311","0.0-5.0-3.40","63d82d20ed2b67b4f77f1fc7","bdp_rd","Mon Mar 27 2023 07:26:05 GMT-0700 (Pacific Daylight Time)","99151","","null","","","","offerFB","","<div class='trialBorder'><div class='vertical-center'><img style='vertical-align:center; align:center' src=img/fixation3.jpg></div><div class='cl'><div class='vertical-center'><font style='color:orange'>$14<br>for<br>sure</font></div></div><div class='cr'><div class='vertical-center'>$29<br>with a<br>50% chance</div></div><div class='respDivL'><div class='vertical-center'><font style='color:orange'>(E)</font></div></div><div class='respDivR'><div class='vertical-center'>(I)</div></div></div>","null","$14","$29","0","14","29",""
"html-keyboard-response","128","69816","0.0-5.0-1.41","63d82d20ed2b67b4f77f1fc7","bdp_rd","Mon Mar 27 2023 07:26:05 GMT-0700 (Pacific Daylight Time)","99151","","null","","","","FIX","","<div class='trialBorder'><div class='vertical-center'><img style='vertical-align:center; align:center' src=img/fixation3.jpg></div></div>","null","","","","","",""
"html-keyboard-response","129","70201","0.0-5.0-2.41","63d82d20ed2b67b4f77f1fc7","bdp_rd","Mon Mar 27 2023 07:26:05 GMT-0700 (Pacific Daylight Time)","99151","","384","","","","offer","","<div class='trialBorder'><div class='vertical-center'><img style='vertical-align:center; align:center' src=img/fixation3.jpg></div><div class='cl'><div class='vertical-center'>$80<br>with a<br>50% chance</div></div><div class='cr'><div class='vertical-center'>$20<br>for<br>sure</div></div><div class='respDivL'><div class='vertical-center'>(E)</div></div><div class='respDivR'><div class='vertical-center'>(I)</div></div></div>","I","$20","$80","1","20","80","SURE"
"html-keyboard-response","130","70458","0.0-5.0-3.41","63d82d20ed2b67b4f77f1fc7","bdp_rd","Mon Mar 27 2023 07:26:05 GMT-0700 (Pacific Daylight Time)","99151","","null","","","","offerFB","","<div class='trialBorder'><div class='vertical-center'><img style='vertical-align:center; align:center' src=img/fixation3.jpg></div><div class='cl'><div class='vertical-center'>$80<br>with a<br>50% chance</div></div><div class='cr'><div class='vertical-center'><font style='color:orange'>$20<br>for<br>sure</font></div></div><div class='respDivL'><div class='vertical-center'>(E)</div></div><div class='respDivR'><div class='vertical-center'><font style='color:orange'>(I)</font></div></div></div>","null","$20","$80","1","20","80",""
"html-keyboard-response","131","70960","0.0-5.0-1.42","63d82d20ed2b67b4f77f1fc7","bdp_rd","Mon Mar 27 2023 07:26:05 GMT-0700 (Pacific Daylight Time)","99151","","null","","","","FIX","","<div class='trialBorder'><div class='vertical-center'><img style='vertical-align:center; align:center' src=img/fixation3.jpg></div></div>","null","","","","","",""
"html-keyboard-response","132","71088","0.0-5.0-2.42","63d82d20ed2b67b4f77f1fc7","bdp_rd","Mon Mar 27 2023 07:26:05 GMT-0700 (Pacific Daylight Time)","99151","","127","","","","offer","","<div class='trialBorder'><div class='vertical-center'><img style='vertical-align:center; align:center' src=img/fixation3.jpg></div><div class='cl'><div class='vertical-center'>$28<br>with a<br>50% chance</div></div><div class='cr'><div class='vertical-center'>$16<br>for<br>sure</div></div><div class='respDivL'><div class='vertical-center'>(E)</div></div><div class='respDivR'><div class='vertical-center'>(I)</div></div></div>","E","$16","$28","1","16","28","RISKY"
"html-keyboard-response","133","71346","0.0-5.0-3.42","63d82d20ed2b67b4f77f1fc7","bdp_rd","Mon Mar 27 2023 07:26:05 GMT-0700 (Pacific Daylight Time)","99151","","null","","","","offerFB","","<div class='trialBorder'><div class='vertical-center'><img style='vertical-align:center; align:center' src=img/fixation3.jpg></div><div class='cl'><div class='vertical-center'><font style='color:orange'>$28<br>with a<br>50% chance</font></div></div><div class='cr'><div class='vertical-center'>$16<br>for<br>sure</div></div><div class='respDivL'><div class='vertical-center'><font style='color:orange'>(E)</font></div></div><div class='respDivR'><div class='vertical-center'>(I)</div></div></div>","null","$16","$28","1","16","28",""
"html-keyboard-response","134","71848","0.0-5.0-1.43","63d82d20ed2b67b4f77f1fc7","bdp_rd","Mon Mar 27 2023 07:26:05 GMT-0700 (Pacific Daylight Time)","99151","","null","","","","FIX","","<div class='trialBorder'><div class='vertical-center'><img style='vertical-align:center; align:center' src=img/fixation3.jpg></div></div>","null","","","","","",""
"html-keyboard-response","135","72023","0.0-5.0-2.43","63d82d20ed2b67b4f77f1fc7","bdp_rd","Mon Mar 27 2023 07:26:05 GMT-0700 (Pacific Daylight Time)","99151","","174","","","","offer","","<div class='trialBorder'><div class='vertical-center'><img style='vertical-align:center; align:center' src=img/fixation3.jpg></div><div class='cl'><div class='vertical-center'>$92<br>with a<br>50% chance</div></div><div class='cr'><div class='vertical-center'>$26<br>for<br>sure</div></div><div class='respDivL'><div class='vertical-center'>(E)</div></div><div class='respDivR'><div class='vertical-center'>(I)</div></div></div>","E","$26","$92","1","26","92","RISKY"
"html-keyboard-response","136","72280","0.0-5.0-3.43","63d82d20ed2b67b4f77f1fc7","bdp_rd","Mon Mar 27 2023 07:26:05 GMT-0700 (Pacific Daylight Time)","99151","","null","","","","offerFB","","<div class='trialBorder'><div class='vertical-center'><img style='vertical-align:center; align:center' src=img/fixation3.jpg></div><div class='cl'><div class='vertical-center'><font style='color:orange'>$92<br>with a<br>50% chance</font></div></div><div class='cr'><div class='vertical-center'>$26<br>for<br>sure</div></div><div class='respDivL'><div class='vertical-center'><font style='color:orange'>(E)</font></div></div><div class='respDivR'><div class='vertical-center'>(I)</div></div></div>","null","$26","$92","1","26","92",""
"html-keyboard-response","137","72785","0.0-5.0-1.44","63d82d20ed2b67b4f77f1fc7","bdp_rd","Mon Mar 27 2023 07:26:05 GMT-0700 (Pacific Daylight Time)","99151","","null","","","","FIX","","<div class='trialBorder'><div class='vertical-center'><img style='vertical-align:center; align:center' src=img/fixation3.jpg></div></div>","null","","","","","",""
"html-keyboard-response","138","82699","0.0-5.0-2.44","63d82d20ed2b67b4f77f1fc7","bdp_rd","Mon Mar 27 2023 07:26:05 GMT-0700 (Pacific Daylight Time)","99151","","9913","","","","offer","","<div class='trialBorder'><div class='vertical-center'><img style='vertical-align:center; align:center' src=img/fixation3.jpg></div><div class='cl'><div class='vertical-center'>$13<br>for<br>sure</div></div><div class='cr'><div class='vertical-center'>$41<br>with a<br>50% chance</div></div><div class='respDivL'><div class='vertical-center'>(E)</div></div><div class='respDivR'><div class='vertical-center'>(I)</div></div></div>","I","$13","$41","0","13","41","RISKY"
"html-keyboard-response","139","82953","0.0-5.0-3.44","63d82d20ed2b67b4f77f1fc7","bdp_rd","Mon Mar 27 2023 07:26:05 GMT-0700 (Pacific Daylight Time)","99151","","null","","","","offerFB","","<div class='trialBorder'><div class='vertical-center'><img style='vertical-align:center; align:center' src=img/fixation3.jpg></div><div class='cl'><div class='vertical-center'>$13<br>for<br>sure</div></div><div class='cr'><div class='vertical-center'><font style='color:orange'>$41<br>with a<br>50% chance</font></div></div><div class='respDivL'><div class='vertical-center'>(E)</div></div><div class='respDivR'><div class='vertical-center'><font style='color:orange'>(I)</font></div></div></div>","null","$13","$41","0","13","41",""
"html-keyboard-response","140","83455","0.0-5.0-1.45","63d82d20ed2b67b4f77f1fc7","bdp_rd","Mon Mar 27 2023 07:26:05 GMT-0700 (Pacific Daylight Time)","99151","","null","","","","FIX","","<div class='trialBorder'><div class='vertical-center'><img style='vertical-align:center; align:center' src=img/fixation3.jpg></div></div>","null","","","","","",""
"html-keyboard-response","141","84229","0.0-5.0-2.45","63d82d20ed2b67b4f77f1fc7","bdp_rd","Mon Mar 27 2023 07:26:05 GMT-0700 (Pacific Daylight Time)","99151","","773","","","","offer","","<div class='trialBorder'><div class='vertical-center'><img style='vertical-align:center; align:center' src=img/fixation3.jpg></div><div class='cl'><div class='vertical-center'>$12<br>for<br>sure</div></div><div class='cr'><div class='vertical-center'>$27<br>with a<br>50% chance</div></div><div class='respDivL'><div class='vertical-center'>(E)</div></div><div class='respDivR'><div class='vertical-center'>(I)</div></div></div>","I","$12","$27","0","12","27","RISKY"
"html-keyboard-response","142","84488","0.0-5.0-3.45","63d82d20ed2b67b4f77f1fc7","bdp_rd","Mon Mar 27 2023 07:26:05 GMT-0700 (Pacific Daylight Time)","99151","","null","","","","offerFB","","<div class='trialBorder'><div class='vertical-center'><img style='vertical-align:center; align:center' src=img/fixation3.jpg></div><div class='cl'><div class='vertical-center'>$12<br>for<br>sure</div></div><div class='cr'><div class='vertical-center'><font style='color:orange'>$27<br>with a<br>50% chance</font></div></div><div class='respDivL'><div class='vertical-center'>(E)</div></div><div class='respDivR'><div class='vertical-center'><font style='color:orange'>(I)</font></div></div></div>","null","$12","$27","0","12","27",""
"html-keyboard-response","143","84993","0.0-5.0-1.46","63d82d20ed2b67b4f77f1fc7","bdp_rd","Mon Mar 27 2023 07:26:05 GMT-0700 (Pacific Daylight Time)","99151","","null","","","","FIX","","<div class='trialBorder'><div class='vertical-center'><img style='vertical-align:center; align:center' src=img/fixation3.jpg></div></div>","null","","","","","",""
"html-keyboard-response","144","85128","0.0-5.0-2.46","63d82d20ed2b67b4f77f1fc7","bdp_rd","Mon Mar 27 2023 07:26:05 GMT-0700 (Pacific Daylight Time)","99151","","134","","","","offer","","<div class='trialBorder'><div class='vertical-center'><img style='vertical-align:center; align:center' src=img/fixation3.jpg></div><div class='cl'><div class='vertical-center'>$11<br>for<br>sure</div></div><div class='cr'><div class='vertical-center'>$62<br>with a<br>50% chance</div></div><div class='respDivL'><div class='vertical-center'>(E)</div></div><div class='respDivR'><div class='vertical-center'>(I)</div></div></div>","I","$11","$62","0","11","62","RISKY"
"html-keyboard-response","145","85385","0.0-5.0-3.46","63d82d20ed2b67b4f77f1fc7","bdp_rd","Mon Mar 27 2023 07:26:05 GMT-0700 (Pacific Daylight Time)","99151","","null","","","","offerFB","","<div class='trialBorder'><div class='vertical-center'><img style='vertical-align:center; align:center' src=img/fixation3.jpg></div><div class='cl'><div class='vertical-center'>$11<br>for<br>sure</div></div><div class='cr'><div class='vertical-center'><font style='color:orange'>$62<br>with a<br>50% chance</font></div></div><div class='respDivL'><div class='vertical-center'>(E)</div></div><div class='respDivR'><div class='vertical-center'><font style='color:orange'>(I)</font></div></div></div>","null","$11","$62","0","11","62",""
"html-keyboard-response","146","85887","0.0-5.0-1.47","63d82d20ed2b67b4f77f1fc7","bdp_rd","Mon Mar 27 2023 07:26:05 GMT-0700 (Pacific Daylight Time)","99151","","null","","","","FIX","","<div class='trialBorder'><div class='vertical-center'><img style='vertical-align:center; align:center' src=img/fixation3.jpg></div></div>","null","","","","","",""
"html-keyboard-response","147","86512","0.0-5.0-2.47","63d82d20ed2b67b4f77f1fc7","bdp_rd","Mon Mar 27 2023 07:26:05 GMT-0700 (Pacific Daylight Time)","99151","","625","","","","offer","","<div class='trialBorder'><div class='vertical-center'><img style='vertical-align:center; align:center' src=img/fixation3.jpg></div><div class='cl'><div class='vertical-center'>$10<br>for<br>sure</div></div><div class='cr'><div class='vertical-center'>$40<br>with a<br>50% chance</div></div><div class='respDivL'><div class='vertical-center'>(E)</div></div><div class='respDivR'><div class='vertical-center'>(I)</div></div></div>","I","$10","$40","0","10","40","RISKY"
"html-keyboard-response","148","86769","0.0-5.0-3.47","63d82d20ed2b67b4f77f1fc7","bdp_rd","Mon Mar 27 2023 07:26:05 GMT-0700 (Pacific Daylight Time)","99151","","null","","","","offerFB","","<div class='trialBorder'><div class='vertical-center'><img style='vertical-align:center; align:center' src=img/fixation3.jpg></div><div class='cl'><div class='vertical-center'>$10<br>for<br>sure</div></div><div class='cr'><div class='vertical-center'><font style='color:orange'>$40<br>with a<br>50% chance</font></div></div><div class='respDivL'><div class='vertical-center'>(E)</div></div><div class='respDivR'><div class='vertical-center'><font style='color:orange'>(I)</font></div></div></div>","null","$10","$40","0","10","40",""
"html-keyboard-response","149","87272","0.0-5.0-1.48","63d82d20ed2b67b4f77f1fc7","bdp_rd","Mon Mar 27 2023 07:26:05 GMT-0700 (Pacific Daylight Time)","99151","","null","","","","FIX","","<div class='trialBorder'><div class='vertical-center'><img style='vertical-align:center; align:center' src=img/fixation3.jpg></div></div>","null","","","","","",""
"html-keyboard-response","150","87333","0.0-5.0-2.48","63d82d20ed2b67b4f77f1fc7","bdp_rd","Mon Mar 27 2023 07:26:05 GMT-0700 (Pacific Daylight Time)","99151","","61","","","","offer","","<div class='trialBorder'><div class='vertical-center'><img style='vertical-align:center; align:center' src=img/fixation3.jpg></div><div class='cl'><div class='vertical-center'>$69<br>with a<br>50% chance</div></div><div class='cr'><div class='vertical-center'>$58<br>for<br>sure</div></div><div class='respDivL'><div class='vertical-center'>(E)</div></div><div class='respDivR'><div class='vertical-center'>(I)</div></div></div>","E","$58","$69","1","58","69","RISKY"
"html-keyboard-response","151","87591","0.0-5.0-3.48","63d82d20ed2b67b4f77f1fc7","bdp_rd","Mon Mar 27 2023 07:26:05 GMT-0700 (Pacific Daylight Time)","99151","","null","","","","offerFB","","<div class='trialBorder'><div class='vertical-center'><img style='vertical-align:center; align:center' src=img/fixation3.jpg></div><div class='cl'><div class='vertical-center'><font style='color:orange'>$69<br>with a<br>50% chance</font></div></div><div class='cr'><div class='vertical-center'>$58<br>for<br>sure</div></div><div class='respDivL'><div class='vertical-center'><font style='color:orange'>(E)</font></div></div><div class='respDivR'><div class='vertical-center'>(I)</div></div></div>","null","$58","$69","1","58","69",""
"html-keyboard-response","152","88096","0.0-5.0-1.49","63d82d20ed2b67b4f77f1fc7","bdp_rd","Mon Mar 27 2023 07:26:05 GMT-0700 (Pacific Daylight Time)","99151","","null","","","","FIX","","<div class='trialBorder'><div class='vertical-center'><img style='vertical-align:center; align:center' src=img/fixation3.jpg></div></div>","null","","","","","",""
"html-keyboard-response","153","88132","0.0-5.0-2.49","63d82d20ed2b67b4f77f1fc7","bdp_rd","Mon Mar 27 2023 07:26:05 GMT-0700 (Pacific Daylight Time)","99151","","35","","","","offer","","<div class='trialBorder'><div class='vertical-center'><img style='vertical-align:center; align:center' src=img/fixation3.jpg></div><div class='cl'><div class='vertical-center'>$42<br>with a<br>50% chance</div></div><div class='cr'><div class='vertical-center'>$22<br>for<br>sure</div></div><div class='respDivL'><div class='vertical-center'>(E)</div></div><div class='respDivR'><div class='vertical-center'>(I)</div></div></div>","E","$22","$42","1","22","42","RISKY"
"html-keyboard-response","154","88392","0.0-5.0-3.49","63d82d20ed2b67b4f77f1fc7","bdp_rd","Mon Mar 27 2023 07:26:05 GMT-0700 (Pacific Daylight Time)","99151","","null","","","","offerFB","","<div class='trialBorder'><div class='vertical-center'><img style='vertical-align:center; align:center' src=img/fixation3.jpg></div><div class='cl'><div class='vertical-center'><font style='color:orange'>$42<br>with a<br>50% chance</font></div></div><div class='cr'><div class='vertical-center'>$22<br>for<br>sure</div></div><div class='respDivL'><div class='vertical-center'><font style='color:orange'>(E)</font></div></div><div class='respDivR'><div class='vertical-center'>(I)</div></div></div>","null","$22","$42","1","22","42",""
"html-keyboard-response","155","88897","0.0-5.0-1.50","63d82d20ed2b67b4f77f1fc7","bdp_rd","Mon Mar 27 2023 07:26:05 GMT-0700 (Pacific Daylight Time)","99151","","null","","","","FIX","","<div class='trialBorder'><div class='vertical-center'><img style='vertical-align:center; align:center' src=img/fixation3.jpg></div></div>","null","","","","","",""
"html-keyboard-response","156","89111","0.0-5.0-2.50","63d82d20ed2b67b4f77f1fc7","bdp_rd","Mon Mar 27 2023 07:26:05 GMT-0700 (Pacific Daylight Time)","99151","","213","","","","offer","","<div class='trialBorder'><div class='vertical-center'><img style='vertical-align:center; align:center' src=img/fixation3.jpg></div><div class='cl'><div class='vertical-center'>$7<br>for<br>sure</div></div><div class='cr'><div class='vertical-center'>$10<br>with a<br>50% chance</div></div><div class='respDivL'><div class='vertical-center'>(E)</div></div><div class='respDivR'><div class='vertical-center'>(I)</div></div></div>","E","$7","$10","0","7","10","SURE"
"html-keyboard-response","157","89367","0.0-5.0-3.50","63d82d20ed2b67b4f77f1fc7","bdp_rd","Mon Mar 27 2023 07:26:05 GMT-0700 (Pacific Daylight Time)","99151","","null","","","","offerFB","","<div class='trialBorder'><div class='vertical-center'><img style='vertical-align:center; align:center' src=img/fixation3.jpg></div><div class='cl'><div class='vertical-center'><font style='color:orange'>$7<br>for<br>sure</font></div></div><div class='cr'><div class='vertical-center'>$10<br>with a<br>50% chance</div></div><div class='respDivL'><div class='vertical-center'><font style='color:orange'>(E)</font></div></div><div class='respDivR'><div class='vertical-center'>(I)</div></div></div>","null","$7","$10","0","7","10",""
"html-keyboard-response","158","89872","0.0-5.0-1.51","63d82d20ed2b67b4f77f1fc7","bdp_rd","Mon Mar 27 2023 07:26:05 GMT-0700 (Pacific Daylight Time)","99151","","null","","","","FIX","","<div class='trialBorder'><div class='vertical-center'><img style='vertical-align:center; align:center' src=img/fixation3.jpg></div></div>","null","","","","","",""
"html-keyboard-response","159","89887","0.0-5.0-2.51","63d82d20ed2b67b4f77f1fc7","bdp_rd","Mon Mar 27 2023 07:26:05 GMT-0700 (Pacific Daylight Time)","99151","","14","","","","offer","","<div class='trialBorder'><div class='vertical-center'><img style='vertical-align:center; align:center' src=img/fixation3.jpg></div><div class='cl'><div class='vertical-center'>$33<br>for<br>sure</div></div><div class='cr'><div class='vertical-center'>$66<br>with a<br>50% chance</div></div><div class='respDivL'><div class='vertical-center'>(E)</div></div><div class='respDivR'><div class='vertical-center'>(I)</div></div></div>","I","$33","$66","0","33","66","RISKY"
"html-keyboard-response","160","90145","0.0-5.0-3.51","63d82d20ed2b67b4f77f1fc7","bdp_rd","Mon Mar 27 2023 07:26:05 GMT-0700 (Pacific Daylight Time)","99151","","null","","","","offerFB","","<div class='trialBorder'><div class='vertical-center'><img style='vertical-align:center; align:center' src=img/fixation3.jpg></div><div class='cl'><div class='vertical-center'>$33<br>for<br>sure</div></div><div class='cr'><div class='vertical-center'><font style='color:orange'>$66<br>with a<br>50% chance</font></div></div><div class='respDivL'><div class='vertical-center'>(E)</div></div><div class='respDivR'><div class='vertical-center'><font style='color:orange'>(I)</font></div></div></div>","null","$33","$66","0","33","66",""
"html-keyboard-response","161","90650","0.0-5.0-1.52","63d82d20ed2b67b4f77f1fc7","bdp_rd","Mon Mar 27 2023 07:26:05 GMT-0700 (Pacific Daylight Time)","99151","","null","","","","FIX","","<div class='trialBorder'><div class='vertical-center'><img style='vertical-align:center; align:center' src=img/fixation3.jpg></div></div>","null","","","","","",""
"html-keyboard-response","162","90990","0.0-5.0-2.52","63d82d20ed2b67b4f77f1fc7","bdp_rd","Mon Mar 27 2023 07:26:05 GMT-0700 (Pacific Daylight Time)","99151","","339","","","","offer","","<div class='trialBorder'><div class='vertical-center'><img style='vertical-align:center; align:center' src=img/fixation3.jpg></div><div class='cl'><div class='vertical-center'>$46<br>with a<br>50% chance</div></div><div class='cr'><div class='vertical-center'>$29<br>for<br>sure</div></div><div class='respDivL'><div class='vertical-center'>(E)</div></div><div class='respDivR'><div class='vertical-center'>(I)</div></div></div>","I","$29","$46","1","29","46","SURE"
"html-keyboard-response","163","91248","0.0-5.0-3.52","63d82d20ed2b67b4f77f1fc7","bdp_rd","Mon Mar 27 2023 07:26:05 GMT-0700 (Pacific Daylight Time)","99151","","null","","","","offerFB","","<div class='trialBorder'><div class='vertical-center'><img style='vertical-align:center; align:center' src=img/fixation3.jpg></div><div class='cl'><div class='vertical-center'>$46<br>with a<br>50% chance</div></div><div class='cr'><div class='vertical-center'><font style='color:orange'>$29<br>for<br>sure</font></div></div><div class='respDivL'><div class='vertical-center'>(E)</div></div><div class='respDivR'><div class='vertical-center'><font style='color:orange'>(I)</font></div></div></div>","null","$29","$46","1","29","46",""
"html-keyboard-response","164","91753","0.0-5.0-1.53","63d82d20ed2b67b4f77f1fc7","bdp_rd","Mon Mar 27 2023 07:26:05 GMT-0700 (Pacific Daylight Time)","99151","","null","","","","FIX","","<div class='trialBorder'><div class='vertical-center'><img style='vertical-align:center; align:center' src=img/fixation3.jpg></div></div>","null","","","","","",""
"html-keyboard-response","165","91957","0.0-5.0-2.53","63d82d20ed2b67b4f77f1fc7","bdp_rd","Mon Mar 27 2023 07:26:05 GMT-0700 (Pacific Daylight Time)","99151","","203","","","","offer","","<div class='trialBorder'><div class='vertical-center'><img style='vertical-align:center; align:center' src=img/fixation3.jpg></div><div class='cl'><div class='vertical-center'>$34<br>for<br>sure</div></div><div class='cr'><div class='vertical-center'>$48<br>with a<br>50% chance</div></div><div class='respDivL'><div class='vertical-center'>(E)</div></div><div class='respDivR'><div class='vertical-center'>(I)</div></div></div>","I","$34","$48","0","34","48","RISKY"
"html-keyboard-response","166","92217","0.0-5.0-3.53","63d82d20ed2b67b4f77f1fc7","bdp_rd","Mon Mar 27 2023 07:26:05 GMT-0700 (Pacific Daylight Time)","99151","","null","","","","offerFB","","<div class='trialBorder'><div class='vertical-center'><img style='vertical-align:center; align:center' src=img/fixation3.jpg></div><div class='cl'><div class='vertical-center'>$34<br>for<br>sure</div></div><div class='cr'><div class='vertical-center'><font style='color:orange'>$48<br>with a<br>50% chance</font></div></div><div class='respDivL'><div class='vertical-center'>(E)</div></div><div class='respDivR'><div class='vertical-center'><font style='color:orange'>(I)</font></div></div></div>","null","$34","$48","0","34","48",""
"html-keyboard-response","167","92719","0.0-5.0-1.54","63d82d20ed2b67b4f77f1fc7","bdp_rd","Mon Mar 27 2023 07:26:05 GMT-0700 (Pacific Daylight Time)","99151","","null","","","","FIX","","<div class='trialBorder'><div class='vertical-center'><img style='vertical-align:center; align:center' src=img/fixation3.jpg></div></div>","null","","","","","",""
"html-keyboard-response","168","93026","0.0-5.0-2.54","63d82d20ed2b67b4f77f1fc7","bdp_rd","Mon Mar 27 2023 07:26:05 GMT-0700 (Pacific Daylight Time)","99151","","306","","","","offer","","<div class='trialBorder'><div class='vertical-center'><img style='vertical-align:center; align:center' src=img/fixation3.jpg></div><div class='cl'><div class='vertical-center'>$42<br>for<br>sure</div></div><div class='cr'><div class='vertical-center'>$73<br>with a<br>50% chance</div></div><div class='respDivL'><div class='vertical-center'>(E)</div></div><div class='respDivR'><div class='vertical-center'>(I)</div></div></div>","I","$42","$73","0","42","73","RISKY"
"html-keyboard-response","169","93280","0.0-5.0-3.54","63d82d20ed2b67b4f77f1fc7","bdp_rd","Mon Mar 27 2023 07:26:05 GMT-0700 (Pacific Daylight Time)","99151","","null","","","","offerFB","","<div class='trialBorder'><div class='vertical-center'><img style='vertical-align:center; align:center' src=img/fixation3.jpg></div><div class='cl'><div class='vertical-center'>$42<br>for<br>sure</div></div><div class='cr'><div class='vertical-center'><font style='color:orange'>$73<br>with a<br>50% chance</font></div></div><div class='respDivL'><div class='vertical-center'>(E)</div></div><div class='respDivR'><div class='vertical-center'><font style='color:orange'>(I)</font></div></div></div>","null","$42","$73","0","42","73",""
"html-keyboard-response","170","93784","0.0-5.0-1.55","63d82d20ed2b67b4f77f1fc7","bdp_rd","Mon Mar 27 2023 07:26:05 GMT-0700 (Pacific Daylight Time)","99151","","null","","","","FIX","","<div class='trialBorder'><div class='vertical-center'><img style='vertical-align:center; align:center' src=img/fixation3.jpg></div></div>","null","","","","","",""
"html-keyboard-response","171","94038","0.0-5.0-2.55","63d82d20ed2b67b4f77f1fc7","bdp_rd","Mon Mar 27 2023 07:26:05 GMT-0700 (Pacific Daylight Time)","99151","","253","","","","offer","","<div class='trialBorder'><div class='vertical-center'><img style='vertical-align:center; align:center' src=img/fixation3.jpg></div><div class='cl'><div class='vertical-center'>$44<br>with a<br>50% chance</div></div><div class='cr'><div class='vertical-center'>$37<br>for<br>sure</div></div><div class='respDivL'><div class='vertical-center'>(E)</div></div><div class='respDivR'><div class='vertical-center'>(I)</div></div></div>","I","$37","$44","1","37","44","SURE"
"html-keyboard-response","172","94298","0.0-5.0-3.55","63d82d20ed2b67b4f77f1fc7","bdp_rd","Mon Mar 27 2023 07:26:05 GMT-0700 (Pacific Daylight Time)","99151","","null","","","","offerFB","","<div class='trialBorder'><div class='vertical-center'><img style='vertical-align:center; align:center' src=img/fixation3.jpg></div><div class='cl'><div class='vertical-center'>$44<br>with a<br>50% chance</div></div><div class='cr'><div class='vertical-center'><font style='color:orange'>$37<br>for<br>sure</font></div></div><div class='respDivL'><div class='vertical-center'>(E)</div></div><div class='respDivR'><div class='vertical-center'><font style='color:orange'>(I)</font></div></div></div>","null","$37","$44","1","37","44",""
"html-keyboard-response","173","94806","0.0-5.0-1.56","63d82d20ed2b67b4f77f1fc7","bdp_rd","Mon Mar 27 2023 07:26:05 GMT-0700 (Pacific Daylight Time)","99151","","null","","","","FIX","","<div class='trialBorder'><div class='vertical-center'><img style='vertical-align:center; align:center' src=img/fixation3.jpg></div></div>","null","","","","","",""
"html-keyboard-response","174","94894","0.0-5.0-2.56","63d82d20ed2b67b4f77f1fc7","bdp_rd","Mon Mar 27 2023 07:26:05 GMT-0700 (Pacific Daylight Time)","99151","","87","","","","offer","","<div class='trialBorder'><div class='vertical-center'><img style='vertical-align:center; align:center' src=img/fixation3.jpg></div><div class='cl'><div class='vertical-center'>$19<br>for<br>sure</div></div><div class='cr'><div class='vertical-center'>$51<br>with a<br>50% chance</div></div><div class='respDivL'><div class='vertical-center'>(E)</div></div><div class='respDivR'><div class='vertical-center'>(I)</div></div></div>","I","$19","$51","0","19","51","RISKY"
