"event","trial","time","trialtype","subject_id","task","startTime","totalTime","trial_type","trial_index","time_elapsed","internal_node_id","view_history","rt","success","stimulus","key_press","sureOffer","riskyOffer","riskyLeft","sureAmt","riskyAmt","chosen"
"focus","0","0","focusevent","63d40583fbdb78bfb9b0d3a4","bdp_rd","Sun Mar 26 2023 19:02:08 GMT-0400 (Eastern Daylight Time)","174328","","","","","","","","","","","","","","",""
"","","","","63d40583fbdb78bfb9b0d3a4","bdp_rd","Sun Mar 26 2023 19:02:08 GMT-0400 (Eastern Daylight Time)","174328","pavlovia","0","2","0.0-0.0","","","","","","","","","","",""
"","","","","63d40583fbdb78bfb9b0d3a4","bdp_rd","Sun Mar 26 2023 19:02:08 GMT-0400 (Eastern Daylight Time)","174328","instructions","1","1073","0.0-1.0","[{""page_index"":0,""viewing_time"":1071}]","1071","","","","","","","","",""
"fullscreenexit","2","3016","fullscreenexit","63d40583fbdb78bfb9b0d3a4","bdp_rd","Sun Mar 26 2023 19:02:08 GMT-0400 (Eastern Daylight Time)","174328","","","","","","","","","","","","","","",""
"","","","","63d40583fbdb78bfb9b0d3a4","bdp_rd","Sun Mar 26 2023 19:02:08 GMT-0400 (Eastern Daylight Time)","174328","fullscreen","2","3826","0.0-2.0","","","true","","","","","","","",""
"","","","fullscreenfail","63d40583fbdb78bfb9b0d3a4","bdp_rd","Sun Mar 26 2023 19:02:08 GMT-0400 (Eastern Daylight Time)","174328","image-keyboard-response","3","5132","0.0-3.0-0.0","","1305","","","32","","","","","",""
"","","","","63d40583fbdb78bfb9b0d3a4","bdp_rd","Sun Mar 26 2023 19:02:08 GMT-0400 (Eastern Daylight Time)","174328","instructions","4","20535","0.0-4.0","[{""page_index"":0,""viewing_time"":11232},{""page_index"":1,""viewing_time"":2315},{""page_index"":2,""viewing_time"":1604}]","15151","","","","","","","","",""
"","","","FIX","63d40583fbdb78bfb9b0d3a4","bdp_rd","Sun Mar 26 2023 19:02:08 GMT-0400 (Eastern Daylight Time)","174328","html-keyboard-response","5","21051","0.0-5.0-1.0","","null","","<div class='trialBorder'><div class='vertical-center'><img style='vertical-align:center; align:center' src=img/fixation3.jpg></div></div>","null","","","","","",""
"","","","offer","63d40583fbdb78bfb9b0d3a4","bdp_rd","Sun Mar 26 2023 19:02:08 GMT-0400 (Eastern Daylight Time)","174328","html-keyboard-response","6","24474","0.0-5.0-2.0","","3421","","<div class='trialBorder'><div class='vertical-center'><img style='vertical-align:center; align:center' src=img/fixation3.jpg></div><div class='cl'><div class='vertical-center'>$15<br>for<br>sure</div></div><div class='cr'><div class='vertical-center'>$31<br>with a<br>50% chance</div></div><div class='respDivL'><div class='vertical-center'>(E)</div></div><div class='respDivR'><div class='vertical-center'>(I)</div></div></div>","E","$15","$31","0","15","31","SURE"
"","","","offerFB","63d40583fbdb78bfb9b0d3a4","bdp_rd","Sun Mar 26 2023 19:02:08 GMT-0400 (Eastern Daylight Time)","174328","html-keyboard-response","7","24726","0.0-5.0-3.0","","null","","<div class='trialBorder'><div class='vertical-center'><img style='vertical-align:center; align:center' src=img/fixation3.jpg></div><div class='cl'><div class='vertical-center'><font style='color:orange'>$15<br>for<br>sure</font></div></div><div class='cr'><div class='vertical-center'>$31<br>with a<br>50% chance</div></div><div class='respDivL'><div class='vertical-center'><font style='color:orange'>(E)</font></div></div><div class='respDivR'><div class='vertical-center'>(I)</div></div></div>","null","$15","$31","0","15","31",""
"","","","FIX","63d40583fbdb78bfb9b0d3a4","bdp_rd","Sun Mar 26 2023 19:02:08 GMT-0400 (Eastern Daylight Time)","174328","html-keyboard-response","8","25236","0.0-5.0-1.1","","null","","<div class='trialBorder'><div class='vertical-center'><img style='vertical-align:center; align:center' src=img/fixation3.jpg></div></div>","null","","","","","",""
"","","","offer","63d40583fbdb78bfb9b0d3a4","bdp_rd","Sun Mar 26 2023 19:02:08 GMT-0400 (Eastern Daylight Time)","174328","html-keyboard-response","9","26727","0.0-5.0-2.1","","1490","","<div class='trialBorder'><div class='vertical-center'><img style='vertical-align:center; align:center' src=img/fixation3.jpg></div><div class='cl'><div class='vertical-center'>$42<br>with a<br>50% chance</div></div><div class='cr'><div class='vertical-center'>$22<br>for<br>sure</div></div><div class='respDivL'><div class='vertical-center'>(E)</div></div><div class='respDivR'><div class='vertical-center'>(I)</div></div></div>","I","$22","$42","1","22","42","SURE"
"","","","offerFB","63d40583fbdb78bfb9b0d3a4","bdp_rd","Sun Mar 26 2023 19:02:08 GMT-0400 (Eastern Daylight Time)","174328","html-keyboard-response","10","26979","0.0-5.0-3.1","","null","","<div class='trialBorder'><div class='vertical-center'><img style='vertical-align:center; align:center' src=img/fixation3.jpg></div><div class='cl'><div class='vertical-center'>$42<br>with a<br>50% chance</div></div><div class='cr'><div class='vertical-center'><font style='color:orange'>$22<br>for<br>sure</font></div></div><div class='respDivL'><div class='vertical-center'>(E)</div></div><div class='respDivR'><div class='vertical-center'><font style='color:orange'>(I)</font></div></div></div>","null","$22","$42","1","22","42",""
"","","","FIX","63d40583fbdb78bfb9b0d3a4","bdp_rd","Sun Mar 26 2023 19:02:08 GMT-0400 (Eastern Daylight Time)","174328","html-keyboard-response","11","27489","0.0-5.0-1.2","","null","","<div class='trialBorder'><div class='vertical-center'><img style='vertical-align:center; align:center' src=img/fixation3.jpg></div></div>","null","","","","","",""
"","","","offer","63d40583fbdb78bfb9b0d3a4","bdp_rd","Sun Mar 26 2023 19:02:08 GMT-0400 (Eastern Daylight Time)","174328","html-keyboard-response","12","28519","0.0-5.0-2.2","","1030","","<div class='trialBorder'><div class='vertical-center'><img style='vertical-align:center; align:center' src=img/fixation3.jpg></div><div class='cl'><div class='vertical-center'>$19<br>for<br>sure</div></div><div class='cr'><div class='vertical-center'>$51<br>with a<br>50% chance</div></div><div class='respDivL'><div class='vertical-center'>(E)</div></div><div class='respDivR'><div class='vertical-center'>(I)</div></div></div>","I","$19","$51","0","19","51","RISKY"
"","","","offerFB","63d40583fbdb78bfb9b0d3a4","bdp_rd","Sun Mar 26 2023 19:02:08 GMT-0400 (Eastern Daylight Time)","174328","html-keyboard-response","13","28771","0.0-5.0-3.2","","null","","<div class='trialBorder'><div class='vertical-center'><img style='vertical-align:center; align:center' src=img/fixation3.jpg></div><div class='cl'><div class='vertical-center'>$19<br>for<br>sure</div></div><div class='cr'><div class='vertical-center'><font style='color:orange'>$51<br>with a<br>50% chance</font></div></div><div class='respDivL'><div class='vertical-center'>(E)</div></div><div class='respDivR'><div class='vertical-center'><font style='color:orange'>(I)</font></div></div></div>","null","$19","$51","0","19","51",""
"","","","FIX","63d40583fbdb78bfb9b0d3a4","bdp_rd","Sun Mar 26 2023 19:02:08 GMT-0400 (Eastern Daylight Time)","174328","html-keyboard-response","14","29280","0.0-5.0-1.3","","null","","<div class='trialBorder'><div class='vertical-center'><img style='vertical-align:center; align:center' src=img/fixation3.jpg></div></div>","null","","","","","",""
"","","","offer","63d40583fbdb78bfb9b0d3a4","bdp_rd","Sun Mar 26 2023 19:02:08 GMT-0400 (Eastern Daylight Time)","174328","html-keyboard-response","15","30391","0.0-5.0-2.3","","1110","","<div class='trialBorder'><div class='vertical-center'><img style='vertical-align:center; align:center' src=img/fixation3.jpg></div><div class='cl'><div class='vertical-center'>$45<br>with a<br>50% chance</div></div><div class='cr'><div class='vertical-center'>$8<br>for<br>sure</div></div><div class='respDivL'><div class='vertical-center'>(E)</div></div><div class='respDivR'><div class='vertical-center'>(I)</div></div></div>","E","$8","$45","1","8","45","RISKY"
"","","","offerFB","63d40583fbdb78bfb9b0d3a4","bdp_rd","Sun Mar 26 2023 19:02:08 GMT-0400 (Eastern Daylight Time)","174328","html-keyboard-response","16","30655","0.0-5.0-3.3","","null","","<div class='trialBorder'><div class='vertical-center'><img style='vertical-align:center; align:center' src=img/fixation3.jpg></div><div class='cl'><div class='vertical-center'><font style='color:orange'>$45<br>with a<br>50% chance</font></div></div><div class='cr'><div class='vertical-center'>$8<br>for<br>sure</div></div><div class='respDivL'><div class='vertical-center'><font style='color:orange'>(E)</font></div></div><div class='respDivR'><div class='vertical-center'>(I)</div></div></div>","null","$8","$45","1","8","45",""
"","","","FIX","63d40583fbdb78bfb9b0d3a4","bdp_rd","Sun Mar 26 2023 19:02:08 GMT-0400 (Eastern Daylight Time)","174328","html-keyboard-response","17","31164","0.0-5.0-1.4","","null","","<div class='trialBorder'><div class='vertical-center'><img style='vertical-align:center; align:center' src=img/fixation3.jpg></div></div>","null","","","","","",""
"","","","offer","63d40583fbdb78bfb9b0d3a4","bdp_rd","Sun Mar 26 2023 19:02:08 GMT-0400 (Eastern Daylight Time)","174328","html-keyboard-response","18","32387","0.0-5.0-2.4","","1222","","<div class='trialBorder'><div class='vertical-center'><img style='vertical-align:center; align:center' src=img/fixation3.jpg></div><div class='cl'><div class='vertical-center'>$4<br>for<br>sure</div></div><div class='cr'><div class='vertical-center'>$11<br>with a<br>50% chance</div></div><div class='respDivL'><div class='vertical-center'>(E)</div></div><div class='respDivR'><div class='vertical-center'>(I)</div></div></div>","E","$4","$11","0","4","11","SURE"
"","","","offerFB","63d40583fbdb78bfb9b0d3a4","bdp_rd","Sun Mar 26 2023 19:02:08 GMT-0400 (Eastern Daylight Time)","174328","html-keyboard-response","19","32645","0.0-5.0-3.4","","null","","<div class='trialBorder'><div class='vertical-center'><img style='vertical-align:center; align:center' src=img/fixation3.jpg></div><div class='cl'><div class='vertical-center'><font style='color:orange'>$4<br>for<br>sure</font></div></div><div class='cr'><div class='vertical-center'>$11<br>with a<br>50% chance</div></div><div class='respDivL'><div class='vertical-center'><font style='color:orange'>(E)</font></div></div><div class='respDivR'><div class='vertical-center'>(I)</div></div></div>","null","$4","$11","0","4","11",""
"","","","FIX","63d40583fbdb78bfb9b0d3a4","bdp_rd","Sun Mar 26 2023 19:02:08 GMT-0400 (Eastern Daylight Time)","174328","html-keyboard-response","20","33156","0.0-5.0-1.5","","null","","<div class='trialBorder'><div class='vertical-center'><img style='vertical-align:center; align:center' src=img/fixation3.jpg></div></div>","null","","","","","",""
"","","","offer","63d40583fbdb78bfb9b0d3a4","bdp_rd","Sun Mar 26 2023 19:02:08 GMT-0400 (Eastern Daylight Time)","174328","html-keyboard-response","21","34503","0.0-5.0-2.5","","1347","","<div class='trialBorder'><div class='vertical-center'><img style='vertical-align:center; align:center' src=img/fixation3.jpg></div><div class='cl'><div class='vertical-center'>$7<br>for<br>sure</div></div><div class='cr'><div class='vertical-center'>$10<br>with a<br>50% chance</div></div><div class='respDivL'><div class='vertical-center'>(E)</div></div><div class='respDivR'><div class='vertical-center'>(I)</div></div></div>","E","$7","$10","0","7","10","SURE"
"","","","offerFB","63d40583fbdb78bfb9b0d3a4","bdp_rd","Sun Mar 26 2023 19:02:08 GMT-0400 (Eastern Daylight Time)","174328","html-keyboard-response","22","34765","0.0-5.0-3.5","","null","","<div class='trialBorder'><div class='vertical-center'><img style='vertical-align:center; align:center' src=img/fixation3.jpg></div><div class='cl'><div class='vertical-center'><font style='color:orange'>$7<br>for<br>sure</font></div></div><div class='cr'><div class='vertical-center'>$10<br>with a<br>50% chance</div></div><div class='respDivL'><div class='vertical-center'><font style='color:orange'>(E)</font></div></div><div class='respDivR'><div class='vertical-center'>(I)</div></div></div>","null","$7","$10","0","7","10",""
"","","","FIX","63d40583fbdb78bfb9b0d3a4","bdp_rd","Sun Mar 26 2023 19:02:08 GMT-0400 (Eastern Daylight Time)","174328","html-keyboard-response","23","35274","0.0-5.0-1.6","","null","","<div class='trialBorder'><div class='vertical-center'><img style='vertical-align:center; align:center' src=img/fixation3.jpg></div></div>","null","","","","","",""
"","","","offer","63d40583fbdb78bfb9b0d3a4","bdp_rd","Sun Mar 26 2023 19:02:08 GMT-0400 (Eastern Daylight Time)","174328","html-keyboard-response","24","37274","0.0-5.0-2.6","","2000","","<div class='trialBorder'><div class='vertical-center'><img style='vertical-align:center; align:center' src=img/fixation3.jpg></div><div class='cl'><div class='vertical-center'>$11<br>for<br>sure</div></div><div class='cr'><div class='vertical-center'>$26<br>with a<br>50% chance</div></div><div class='respDivL'><div class='vertical-center'>(E)</div></div><div class='respDivR'><div class='vertical-center'>(I)</div></div></div>","E","$11","$26","0","11","26","SURE"
"","","","offerFB","63d40583fbdb78bfb9b0d3a4","bdp_rd","Sun Mar 26 2023 19:02:08 GMT-0400 (Eastern Daylight Time)","174328","html-keyboard-response","25","37530","0.0-5.0-3.6","","null","","<div class='trialBorder'><div class='vertical-center'><img style='vertical-align:center; align:center' src=img/fixation3.jpg></div><div class='cl'><div class='vertical-center'><font style='color:orange'>$11<br>for<br>sure</font></div></div><div class='cr'><div class='vertical-center'>$26<br>with a<br>50% chance</div></div><div class='respDivL'><div class='vertical-center'><font style='color:orange'>(E)</font></div></div><div class='respDivR'><div class='vertical-center'>(I)</div></div></div>","null","$11","$26","0","11","26",""
"","","","FIX","63d40583fbdb78bfb9b0d3a4","bdp_rd","Sun Mar 26 2023 19:02:08 GMT-0400 (Eastern Daylight Time)","174328","html-keyboard-response","26","38039","0.0-5.0-1.7","","null","","<div class='trialBorder'><div class='vertical-center'><img style='vertical-align:center; align:center' src=img/fixation3.jpg></div></div>","null","","","","","",""
"","","","offer","63d40583fbdb78bfb9b0d3a4","bdp_rd","Sun Mar 26 2023 19:02:08 GMT-0400 (Eastern Daylight Time)","174328","html-keyboard-response","27","39450","0.0-5.0-2.7","","1411","","<div class='trialBorder'><div class='vertical-center'><img style='vertical-align:center; align:center' src=img/fixation3.jpg></div><div class='cl'><div class='vertical-center'>$78<br>with a<br>50% chance</div></div><div class='cr'><div class='vertical-center'>$31<br>for<br>sure</div></div><div class='respDivL'><div class='vertical-center'>(E)</div></div><div class='respDivR'><div class='vertical-center'>(I)</div></div></div>","E","$31","$78","1","31","78","RISKY"
"","","","offerFB","63d40583fbdb78bfb9b0d3a4","bdp_rd","Sun Mar 26 2023 19:02:08 GMT-0400 (Eastern Daylight Time)","174328","html-keyboard-response","28","39706","0.0-5.0-3.7","","null","","<div class='trialBorder'><div class='vertical-center'><img style='vertical-align:center; align:center' src=img/fixation3.jpg></div><div class='cl'><div class='vertical-center'><font style='color:orange'>$78<br>with a<br>50% chance</font></div></div><div class='cr'><div class='vertical-center'>$31<br>for<br>sure</div></div><div class='respDivL'><div class='vertical-center'><font style='color:orange'>(E)</font></div></div><div class='respDivR'><div class='vertical-center'>(I)</div></div></div>","null","$31","$78","1","31","78",""
"","","","FIX","63d40583fbdb78bfb9b0d3a4","bdp_rd","Sun Mar 26 2023 19:02:08 GMT-0400 (Eastern Daylight Time)","174328","html-keyboard-response","29","40215","0.0-5.0-1.8","","null","","<div class='trialBorder'><div class='vertical-center'><img style='vertical-align:center; align:center' src=img/fixation3.jpg></div></div>","null","","","","","",""
"","","","offer","63d40583fbdb78bfb9b0d3a4","bdp_rd","Sun Mar 26 2023 19:02:08 GMT-0400 (Eastern Daylight Time)","174328","html-keyboard-response","30","42511","0.0-5.0-2.8","","2296","","<div class='trialBorder'><div class='vertical-center'><img style='vertical-align:center; align:center' src=img/fixation3.jpg></div><div class='cl'><div class='vertical-center'>$86<br>with a<br>50% chance</div></div><div class='cr'><div class='vertical-center'>$45<br>for<br>sure</div></div><div class='respDivL'><div class='vertical-center'>(E)</div></div><div class='respDivR'><div class='vertical-center'>(I)</div></div></div>","E","$45","$86","1","45","86","RISKY"
"","","","offerFB","63d40583fbdb78bfb9b0d3a4","bdp_rd","Sun Mar 26 2023 19:02:08 GMT-0400 (Eastern Daylight Time)","174328","html-keyboard-response","31","42763","0.0-5.0-3.8","","null","","<div class='trialBorder'><div class='vertical-center'><img style='vertical-align:center; align:center' src=img/fixation3.jpg></div><div class='cl'><div class='vertical-center'><font style='color:orange'>$86<br>with a<br>50% chance</font></div></div><div class='cr'><div class='vertical-center'>$45<br>for<br>sure</div></div><div class='respDivL'><div class='vertical-center'><font style='color:orange'>(E)</font></div></div><div class='respDivR'><div class='vertical-center'>(I)</div></div></div>","null","$45","$86","1","45","86",""
"","","","FIX","63d40583fbdb78bfb9b0d3a4","bdp_rd","Sun Mar 26 2023 19:02:08 GMT-0400 (Eastern Daylight Time)","174328","html-keyboard-response","32","43274","0.0-5.0-1.9","","null","","<div class='trialBorder'><div class='vertical-center'><img style='vertical-align:center; align:center' src=img/fixation3.jpg></div></div>","null","","","","","",""
"","","","offer","63d40583fbdb78bfb9b0d3a4","bdp_rd","Sun Mar 26 2023 19:02:08 GMT-0400 (Eastern Daylight Time)","174328","html-keyboard-response","33","44988","0.0-5.0-2.9","","1714","","<div class='trialBorder'><div class='vertical-center'><img style='vertical-align:center; align:center' src=img/fixation3.jpg></div><div class='cl'><div class='vertical-center'>$41<br>with a<br>50% chance</div></div><div class='cr'><div class='vertical-center'>$13<br>for<br>sure</div></div><div class='respDivL'><div class='vertical-center'>(E)</div></div><div class='respDivR'><div class='vertical-center'>(I)</div></div></div>","I","$13","$41","1","13","41","SURE"
"","","","offerFB","63d40583fbdb78bfb9b0d3a4","bdp_rd","Sun Mar 26 2023 19:02:08 GMT-0400 (Eastern Daylight Time)","174328","html-keyboard-response","34","45240","0.0-5.0-3.9","","null","","<div class='trialBorder'><div class='vertical-center'><img style='vertical-align:center; align:center' src=img/fixation3.jpg></div><div class='cl'><div class='vertical-center'>$41<br>with a<br>50% chance</div></div><div class='cr'><div class='vertical-center'><font style='color:orange'>$13<br>for<br>sure</font></div></div><div class='respDivL'><div class='vertical-center'>(E)</div></div><div class='respDivR'><div class='vertical-center'><font style='color:orange'>(I)</font></div></div></div>","null","$13","$41","1","13","41",""
"","","","FIX","63d40583fbdb78bfb9b0d3a4","bdp_rd","Sun Mar 26 2023 19:02:08 GMT-0400 (Eastern Daylight Time)","174328","html-keyboard-response","35","45748","0.0-5.0-1.10","","null","","<div class='trialBorder'><div class='vertical-center'><img style='vertical-align:center; align:center' src=img/fixation3.jpg></div></div>","null","","","","","",""
"","","","offer","63d40583fbdb78bfb9b0d3a4","bdp_rd","Sun Mar 26 2023 19:02:08 GMT-0400 (Eastern Daylight Time)","174328","html-keyboard-response","36","46749","0.0-5.0-2.10","","1001","","<div class='trialBorder'><div class='vertical-center'><img style='vertical-align:center; align:center' src=img/fixation3.jpg></div><div class='cl'><div class='vertical-center'>$28<br>with a<br>50% chance</div></div><div class='cr'><div class='vertical-center'>$16<br>for<br>sure</div></div><div class='respDivL'><div class='vertical-center'>(E)</div></div><div class='respDivR'><div class='vertical-center'>(I)</div></div></div>","I","$16","$28","1","16","28","SURE"
"","","","offerFB","63d40583fbdb78bfb9b0d3a4","bdp_rd","Sun Mar 26 2023 19:02:08 GMT-0400 (Eastern Daylight Time)","174328","html-keyboard-response","37","47002","0.0-5.0-3.10","","null","","<div class='trialBorder'><div class='vertical-center'><img style='vertical-align:center; align:center' src=img/fixation3.jpg></div><div class='cl'><div class='vertical-center'>$28<br>with a<br>50% chance</div></div><div class='cr'><div class='vertical-center'><font style='color:orange'>$16<br>for<br>sure</font></div></div><div class='respDivL'><div class='vertical-center'>(E)</div></div><div class='respDivR'><div class='vertical-center'><font style='color:orange'>(I)</font></div></div></div>","null","$16","$28","1","16","28",""
"","","","FIX","63d40583fbdb78bfb9b0d3a4","bdp_rd","Sun Mar 26 2023 19:02:08 GMT-0400 (Eastern Daylight Time)","174328","html-keyboard-response","38","47510","0.0-5.0-1.11","","null","","<div class='trialBorder'><div class='vertical-center'><img style='vertical-align:center; align:center' src=img/fixation3.jpg></div></div>","null","","","","","",""
"","","","offer","63d40583fbdb78bfb9b0d3a4","bdp_rd","Sun Mar 26 2023 19:02:08 GMT-0400 (Eastern Daylight Time)","174328","html-keyboard-response","39","49073","0.0-5.0-2.11","","1562","","<div class='trialBorder'><div class='vertical-center'><img style='vertical-align:center; align:center' src=img/fixation3.jpg></div><div class='cl'><div class='vertical-center'>$22<br>for<br>sure</div></div><div class='cr'><div class='vertical-center'>$59<br>with a<br>50% chance</div></div><div class='respDivL'><div class='vertical-center'>(E)</div></div><div class='respDivR'><div class='vertical-center'>(I)</div></div></div>","I","$22","$59","0","22","59","RISKY"
"","","","offerFB","63d40583fbdb78bfb9b0d3a4","bdp_rd","Sun Mar 26 2023 19:02:08 GMT-0400 (Eastern Daylight Time)","174328","html-keyboard-response","40","49331","0.0-5.0-3.11","","null","","<div class='trialBorder'><div class='vertical-center'><img style='vertical-align:center; align:center' src=img/fixation3.jpg></div><div class='cl'><div class='vertical-center'>$22<br>for<br>sure</div></div><div class='cr'><div class='vertical-center'><font style='color:orange'>$59<br>with a<br>50% chance</font></div></div><div class='respDivL'><div class='vertical-center'>(E)</div></div><div class='respDivR'><div class='vertical-center'><font style='color:orange'>(I)</font></div></div></div>","null","$22","$59","0","22","59",""
"","","","FIX","63d40583fbdb78bfb9b0d3a4","bdp_rd","Sun Mar 26 2023 19:02:08 GMT-0400 (Eastern Daylight Time)","174328","html-keyboard-response","41","49840","0.0-5.0-1.12","","null","","<div class='trialBorder'><div class='vertical-center'><img style='vertical-align:center; align:center' src=img/fixation3.jpg></div></div>","null","","","","","",""
"","","","offer","63d40583fbdb78bfb9b0d3a4","bdp_rd","Sun Mar 26 2023 19:02:08 GMT-0400 (Eastern Daylight Time)","174328","html-keyboard-response","42","51674","0.0-5.0-2.12","","1833","","<div class='trialBorder'><div class='vertical-center'><img style='vertical-align:center; align:center' src=img/fixation3.jpg></div><div class='cl'><div class='vertical-center'>$1<br>for<br>sure</div></div><div class='cr'><div class='vertical-center'>$33<br>with a<br>50% chance</div></div><div class='respDivL'><div class='vertical-center'>(E)</div></div><div class='respDivR'><div class='vertical-center'>(I)</div></div></div>","I","$1","$33","0","1","33","RISKY"
"","","","offerFB","63d40583fbdb78bfb9b0d3a4","bdp_rd","Sun Mar 26 2023 19:02:08 GMT-0400 (Eastern Daylight Time)","174328","html-keyboard-response","43","51927","0.0-5.0-3.12","","null","","<div class='trialBorder'><div class='vertical-center'><img style='vertical-align:center; align:center' src=img/fixation3.jpg></div><div class='cl'><div class='vertical-center'>$1<br>for<br>sure</div></div><div class='cr'><div class='vertical-center'><font style='color:orange'>$33<br>with a<br>50% chance</font></div></div><div class='respDivL'><div class='vertical-center'>(E)</div></div><div class='respDivR'><div class='vertical-center'><font style='color:orange'>(I)</font></div></div></div>","null","$1","$33","0","1","33",""
"","","","FIX","63d40583fbdb78bfb9b0d3a4","bdp_rd","Sun Mar 26 2023 19:02:08 GMT-0400 (Eastern Daylight Time)","174328","html-keyboard-response","44","52436","0.0-5.0-1.13","","null","","<div class='trialBorder'><div class='vertical-center'><img style='vertical-align:center; align:center' src=img/fixation3.jpg></div></div>","null","","","","","",""
"","","","offer","63d40583fbdb78bfb9b0d3a4","bdp_rd","Sun Mar 26 2023 19:02:08 GMT-0400 (Eastern Daylight Time)","174328","html-keyboard-response","45","54075","0.0-5.0-2.13","","1639","","<div class='trialBorder'><div class='vertical-center'><img style='vertical-align:center; align:center' src=img/fixation3.jpg></div><div class='cl'><div class='vertical-center'>$36<br>with a<br>50% chance</div></div><div class='cr'><div class='vertical-center'>$18<br>for<br>sure</div></div><div class='respDivL'><div class='vertical-center'>(E)</div></div><div class='respDivR'><div class='vertical-center'>(I)</div></div></div>","I","$18","$36","1","18","36","SURE"
"","","","offerFB","63d40583fbdb78bfb9b0d3a4","bdp_rd","Sun Mar 26 2023 19:02:08 GMT-0400 (Eastern Daylight Time)","174328","html-keyboard-response","46","54338","0.0-5.0-3.13","","null","","<div class='trialBorder'><div class='vertical-center'><img style='vertical-align:center; align:center' src=img/fixation3.jpg></div><div class='cl'><div class='vertical-center'>$36<br>with a<br>50% chance</div></div><div class='cr'><div class='vertical-center'><font style='color:orange'>$18<br>for<br>sure</font></div></div><div class='respDivL'><div class='vertical-center'>(E)</div></div><div class='respDivR'><div class='vertical-center'><font style='color:orange'>(I)</font></div></div></div>","null","$18","$36","1","18","36",""
"","","","FIX","63d40583fbdb78bfb9b0d3a4","bdp_rd","Sun Mar 26 2023 19:02:08 GMT-0400 (Eastern Daylight Time)","174328","html-keyboard-response","47","54847","0.0-5.0-1.14","","null","","<div class='trialBorder'><div class='vertical-center'><img style='vertical-align:center; align:center' src=img/fixation3.jpg></div></div>","null","","","","","",""
"","","","offer","63d40583fbdb78bfb9b0d3a4","bdp_rd","Sun Mar 26 2023 19:02:08 GMT-0400 (Eastern Daylight Time)","174328","html-keyboard-response","48","56195","0.0-5.0-2.14","","1348","","<div class='trialBorder'><div class='vertical-center'><img style='vertical-align:center; align:center' src=img/fixation3.jpg></div><div class='cl'><div class='vertical-center'>$38<br>with a<br>50% chance</div></div><div class='cr'><div class='vertical-center'>$16<br>for<br>sure</div></div><div class='respDivL'><div class='vertical-center'>(E)</div></div><div class='respDivR'><div class='vertical-center'>(I)</div></div></div>","E","$16","$38","1","16","38","RISKY"
"","","","offerFB","63d40583fbdb78bfb9b0d3a4","bdp_rd","Sun Mar 26 2023 19:02:08 GMT-0400 (Eastern Daylight Time)","174328","html-keyboard-response","49","56456","0.0-5.0-3.14","","null","","<div class='trialBorder'><div class='vertical-center'><img style='vertical-align:center; align:center' src=img/fixation3.jpg></div><div class='cl'><div class='vertical-center'><font style='color:orange'>$38<br>with a<br>50% chance</font></div></div><div class='cr'><div class='vertical-center'>$16<br>for<br>sure</div></div><div class='respDivL'><div class='vertical-center'><font style='color:orange'>(E)</font></div></div><div class='respDivR'><div class='vertical-center'>(I)</div></div></div>","null","$16","$38","1","16","38",""
"","","","FIX","63d40583fbdb78bfb9b0d3a4","bdp_rd","Sun Mar 26 2023 19:02:08 GMT-0400 (Eastern Daylight Time)","174328","html-keyboard-response","50","56966","0.0-5.0-1.15","","null","","<div class='trialBorder'><div class='vertical-center'><img style='vertical-align:center; align:center' src=img/fixation3.jpg></div></div>","null","","","","","",""
"","","","offer","63d40583fbdb78bfb9b0d3a4","bdp_rd","Sun Mar 26 2023 19:02:08 GMT-0400 (Eastern Daylight Time)","174328","html-keyboard-response","51","58482","0.0-5.0-2.15","","1516","","<div class='trialBorder'><div class='vertical-center'><img style='vertical-align:center; align:center' src=img/fixation3.jpg></div><div class='cl'><div class='vertical-center'>$6<br>for<br>sure</div></div><div class='cr'><div class='vertical-center'>$15<br>with a<br>50% chance</div></div><div class='respDivL'><div class='vertical-center'>(E)</div></div><div class='respDivR'><div class='vertical-center'>(I)</div></div></div>","E","$6","$15","0","6","15","SURE"
"","","","offerFB","63d40583fbdb78bfb9b0d3a4","bdp_rd","Sun Mar 26 2023 19:02:08 GMT-0400 (Eastern Daylight Time)","174328","html-keyboard-response","52","58741","0.0-5.0-3.15","","null","","<div class='trialBorder'><div class='vertical-center'><img style='vertical-align:center; align:center' src=img/fixation3.jpg></div><div class='cl'><div class='vertical-center'><font style='color:orange'>$6<br>for<br>sure</font></div></div><div class='cr'><div class='vertical-center'>$15<br>with a<br>50% chance</div></div><div class='respDivL'><div class='vertical-center'><font style='color:orange'>(E)</font></div></div><div class='respDivR'><div class='vertical-center'>(I)</div></div></div>","null","$6","$15","0","6","15",""
"","","","FIX","63d40583fbdb78bfb9b0d3a4","bdp_rd","Sun Mar 26 2023 19:02:08 GMT-0400 (Eastern Daylight Time)","174328","html-keyboard-response","53","59250","0.0-5.0-1.16","","null","","<div class='trialBorder'><div class='vertical-center'><img style='vertical-align:center; align:center' src=img/fixation3.jpg></div></div>","null","","","","","",""
"","","","offer","63d40583fbdb78bfb9b0d3a4","bdp_rd","Sun Mar 26 2023 19:02:08 GMT-0400 (Eastern Daylight Time)","174328","html-keyboard-response","54","62853","0.0-5.0-2.16","","3602","","<div class='trialBorder'><div class='vertical-center'><img style='vertical-align:center; align:center' src=img/fixation3.jpg></div><div class='cl'><div class='vertical-center'>$35<br>with a<br>50% chance</div></div><div class='cr'><div class='vertical-center'>$12<br>for<br>sure</div></div><div class='respDivL'><div class='vertical-center'>(E)</div></div><div class='respDivR'><div class='vertical-center'>(I)</div></div></div>","E","$12","$35","1","12","35","RISKY"
"","","","offerFB","63d40583fbdb78bfb9b0d3a4","bdp_rd","Sun Mar 26 2023 19:02:08 GMT-0400 (Eastern Daylight Time)","174328","html-keyboard-response","55","63116","0.0-5.0-3.16","","null","","<div class='trialBorder'><div class='vertical-center'><img style='vertical-align:center; align:center' src=img/fixation3.jpg></div><div class='cl'><div class='vertical-center'><font style='color:orange'>$35<br>with a<br>50% chance</font></div></div><div class='cr'><div class='vertical-center'>$12<br>for<br>sure</div></div><div class='respDivL'><div class='vertical-center'><font style='color:orange'>(E)</font></div></div><div class='respDivR'><div class='vertical-center'>(I)</div></div></div>","null","$12","$35","1","12","35",""
"","","","FIX","63d40583fbdb78bfb9b0d3a4","bdp_rd","Sun Mar 26 2023 19:02:08 GMT-0400 (Eastern Daylight Time)","174328","html-keyboard-response","56","63627","0.0-5.0-1.17","","null","","<div class='trialBorder'><div class='vertical-center'><img style='vertical-align:center; align:center' src=img/fixation3.jpg></div></div>","null","","","","","",""
"","","","offer","63d40583fbdb78bfb9b0d3a4","bdp_rd","Sun Mar 26 2023 19:02:08 GMT-0400 (Eastern Daylight Time)","174328","html-keyboard-response","57","64961","0.0-5.0-2.17","","1333","","<div class='trialBorder'><div class='vertical-center'><img style='vertical-align:center; align:center' src=img/fixation3.jpg></div><div class='cl'><div class='vertical-center'>$24<br>for<br>sure</div></div><div class='cr'><div class='vertical-center'>$70<br>with a<br>50% chance</div></div><div class='respDivL'><div class='vertical-center'>(E)</div></div><div class='respDivR'><div class='vertical-center'>(I)</div></div></div>","I","$24","$70","0","24","70","RISKY"
"","","","offerFB","63d40583fbdb78bfb9b0d3a4","bdp_rd","Sun Mar 26 2023 19:02:08 GMT-0400 (Eastern Daylight Time)","174328","html-keyboard-response","58","65219","0.0-5.0-3.17","","null","","<div class='trialBorder'><div class='vertical-center'><img style='vertical-align:center; align:center' src=img/fixation3.jpg></div><div class='cl'><div class='vertical-center'>$24<br>for<br>sure</div></div><div class='cr'><div class='vertical-center'><font style='color:orange'>$70<br>with a<br>50% chance</font></div></div><div class='respDivL'><div class='vertical-center'>(E)</div></div><div class='respDivR'><div class='vertical-center'><font style='color:orange'>(I)</font></div></div></div>","null","$24","$70","0","24","70",""
"","","","FIX","63d40583fbdb78bfb9b0d3a4","bdp_rd","Sun Mar 26 2023 19:02:08 GMT-0400 (Eastern Daylight Time)","174328","html-keyboard-response","59","65728","0.0-5.0-1.18","","null","","<div class='trialBorder'><div class='vertical-center'><img style='vertical-align:center; align:center' src=img/fixation3.jpg></div></div>","null","","","","","",""
"","","","offer","63d40583fbdb78bfb9b0d3a4","bdp_rd","Sun Mar 26 2023 19:02:08 GMT-0400 (Eastern Daylight Time)","174328","html-keyboard-response","60","66559","0.0-5.0-2.18","","831","","<div class='trialBorder'><div class='vertical-center'><img style='vertical-align:center; align:center' src=img/fixation3.jpg></div><div class='cl'><div class='vertical-center'>$64<br>with a<br>50% chance</div></div><div class='cr'><div class='vertical-center'>$2<br>for<br>sure</div></div><div class='respDivL'><div class='vertical-center'>(E)</div></div><div class='respDivR'><div class='vertical-center'>(I)</div></div></div>","E","$2","$64","1","2","64","RISKY"
"","","","offerFB","63d40583fbdb78bfb9b0d3a4","bdp_rd","Sun Mar 26 2023 19:02:08 GMT-0400 (Eastern Daylight Time)","174328","html-keyboard-response","61","66822","0.0-5.0-3.18","","null","","<div class='trialBorder'><div class='vertical-center'><img style='vertical-align:center; align:center' src=img/fixation3.jpg></div><div class='cl'><div class='vertical-center'><font style='color:orange'>$64<br>with a<br>50% chance</font></div></div><div class='cr'><div class='vertical-center'>$2<br>for<br>sure</div></div><div class='respDivL'><div class='vertical-center'><font style='color:orange'>(E)</font></div></div><div class='respDivR'><div class='vertical-center'>(I)</div></div></div>","null","$2","$64","1","2","64",""
"","","","FIX","63d40583fbdb78bfb9b0d3a4","bdp_rd","Sun Mar 26 2023 19:02:08 GMT-0400 (Eastern Daylight Time)","174328","html-keyboard-response","62","67329","0.0-5.0-1.19","","null","","<div class='trialBorder'><div class='vertical-center'><img style='vertical-align:center; align:center' src=img/fixation3.jpg></div></div>","null","","","","","",""
"","","","offer","63d40583fbdb78bfb9b0d3a4","bdp_rd","Sun Mar 26 2023 19:02:08 GMT-0400 (Eastern Daylight Time)","174328","html-keyboard-response","63","68130","0.0-5.0-2.19","","801","","<div class='trialBorder'><div class='vertical-center'><img style='vertical-align:center; align:center' src=img/fixation3.jpg></div><div class='cl'><div class='vertical-center'>$18<br>for<br>sure</div></div><div class='cr'><div class='vertical-center'>$39<br>with a<br>50% chance</div></div><div class='respDivL'><div class='vertical-center'>(E)</div></div><div class='respDivR'><div class='vertical-center'>(I)</div></div></div>","I","$18","$39","0","18","39","RISKY"
"","","","offerFB","63d40583fbdb78bfb9b0d3a4","bdp_rd","Sun Mar 26 2023 19:02:08 GMT-0400 (Eastern Daylight Time)","174328","html-keyboard-response","64","68393","0.0-5.0-3.19","","null","","<div class='trialBorder'><div class='vertical-center'><img style='vertical-align:center; align:center' src=img/fixation3.jpg></div><div class='cl'><div class='vertical-center'>$18<br>for<br>sure</div></div><div class='cr'><div class='vertical-center'><font style='color:orange'>$39<br>with a<br>50% chance</font></div></div><div class='respDivL'><div class='vertical-center'>(E)</div></div><div class='respDivR'><div class='vertical-center'><font style='color:orange'>(I)</font></div></div></div>","null","$18","$39","0","18","39",""
"","","","FIX","63d40583fbdb78bfb9b0d3a4","bdp_rd","Sun Mar 26 2023 19:02:08 GMT-0400 (Eastern Daylight Time)","174328","html-keyboard-response","65","68902","0.0-5.0-1.20","","null","","<div class='trialBorder'><div class='vertical-center'><img style='vertical-align:center; align:center' src=img/fixation3.jpg></div></div>","null","","","","","",""
"","","","offer","63d40583fbdb78bfb9b0d3a4","bdp_rd","Sun Mar 26 2023 19:02:08 GMT-0400 (Eastern Daylight Time)","174328","html-keyboard-response","66","69573","0.0-5.0-2.20","","670","","<div class='trialBorder'><div class='vertical-center'><img style='vertical-align:center; align:center' src=img/fixation3.jpg></div><div class='cl'><div class='vertical-center'>$73<br>with a<br>50% chance</div></div><div class='cr'><div class='vertical-center'>$42<br>for<br>sure</div></div><div class='respDivL'><div class='vertical-center'>(E)</div></div><div class='respDivR'><div class='vertical-center'>(I)</div></div></div>","E","$42","$73","1","42","73","RISKY"
"","","","offerFB","63d40583fbdb78bfb9b0d3a4","bdp_rd","Sun Mar 26 2023 19:02:08 GMT-0400 (Eastern Daylight Time)","174328","html-keyboard-response","67","69830","0.0-5.0-3.20","","null","","<div class='trialBorder'><div class='vertical-center'><img style='vertical-align:center; align:center' src=img/fixation3.jpg></div><div class='cl'><div class='vertical-center'><font style='color:orange'>$73<br>with a<br>50% chance</font></div></div><div class='cr'><div class='vertical-center'>$42<br>for<br>sure</div></div><div class='respDivL'><div class='vertical-center'><font style='color:orange'>(E)</font></div></div><div class='respDivR'><div class='vertical-center'>(I)</div></div></div>","null","$42","$73","1","42","73",""
"","","","FIX","63d40583fbdb78bfb9b0d3a4","bdp_rd","Sun Mar 26 2023 19:02:08 GMT-0400 (Eastern Daylight Time)","174328","html-keyboard-response","68","70340","0.0-5.0-1.21","","null","","<div class='trialBorder'><div class='vertical-center'><img style='vertical-align:center; align:center' src=img/fixation3.jpg></div></div>","null","","","","","",""
"","","","offer","63d40583fbdb78bfb9b0d3a4","bdp_rd","Sun Mar 26 2023 19:02:08 GMT-0400 (Eastern Daylight Time)","174328","html-keyboard-response","69","71177","0.0-5.0-2.21","","837","","<div class='trialBorder'><div class='vertical-center'><img style='vertical-align:center; align:center' src=img/fixation3.jpg></div><div class='cl'><div class='vertical-center'>$46<br>for<br>sure</div></div><div class='cr'><div class='vertical-center'>$65<br>with a<br>50% chance</div></div><div class='respDivL'><div class='vertical-center'>(E)</div></div><div class='respDivR'><div class='vertical-center'>(I)</div></div></div>","I","$46","$65","0","46","65","RISKY"
"","","","offerFB","63d40583fbdb78bfb9b0d3a4","bdp_rd","Sun Mar 26 2023 19:02:08 GMT-0400 (Eastern Daylight Time)","174328","html-keyboard-response","70","71436","0.0-5.0-3.21","","null","","<div class='trialBorder'><div class='vertical-center'><img style='vertical-align:center; align:center' src=img/fixation3.jpg></div><div class='cl'><div class='vertical-center'>$46<br>for<br>sure</div></div><div class='cr'><div class='vertical-center'><font style='color:orange'>$65<br>with a<br>50% chance</font></div></div><div class='respDivL'><div class='vertical-center'>(E)</div></div><div class='respDivR'><div class='vertical-center'><font style='color:orange'>(I)</font></div></div></div>","null","$46","$65","0","46","65",""
"","","","FIX","63d40583fbdb78bfb9b0d3a4","bdp_rd","Sun Mar 26 2023 19:02:08 GMT-0400 (Eastern Daylight Time)","174328","html-keyboard-response","71","71946","0.0-5.0-1.22","","null","","<div class='trialBorder'><div class='vertical-center'><img style='vertical-align:center; align:center' src=img/fixation3.jpg></div></div>","null","","","","","",""
"","","","offer","63d40583fbdb78bfb9b0d3a4","bdp_rd","Sun Mar 26 2023 19:02:08 GMT-0400 (Eastern Daylight Time)","174328","html-keyboard-response","72","73582","0.0-5.0-2.22","","1636","","<div class='trialBorder'><div class='vertical-center'><img style='vertical-align:center; align:center' src=img/fixation3.jpg></div><div class='cl'><div class='vertical-center'>$9<br>for<br>sure</div></div><div class='cr'><div class='vertical-center'>$18<br>with a<br>50% chance</div></div><div class='respDivL'><div class='vertical-center'>(E)</div></div><div class='respDivR'><div class='vertical-center'>(I)</div></div></div>","E","$9","$18","0","9","18","SURE"
"","","","offerFB","63d40583fbdb78bfb9b0d3a4","bdp_rd","Sun Mar 26 2023 19:02:08 GMT-0400 (Eastern Daylight Time)","174328","html-keyboard-response","73","73847","0.0-5.0-3.22","","null","","<div class='trialBorder'><div class='vertical-center'><img style='vertical-align:center; align:center' src=img/fixation3.jpg></div><div class='cl'><div class='vertical-center'><font style='color:orange'>$9<br>for<br>sure</font></div></div><div class='cr'><div class='vertical-center'>$18<br>with a<br>50% chance</div></div><div class='respDivL'><div class='vertical-center'><font style='color:orange'>(E)</font></div></div><div class='respDivR'><div class='vertical-center'>(I)</div></div></div>","null","$9","$18","0","9","18",""
"","","","FIX","63d40583fbdb78bfb9b0d3a4","bdp_rd","Sun Mar 26 2023 19:02:08 GMT-0400 (Eastern Daylight Time)","174328","html-keyboard-response","74","74355","0.0-5.0-1.23","","null","","<div class='trialBorder'><div class='vertical-center'><img style='vertical-align:center; align:center' src=img/fixation3.jpg></div></div>","null","","","","","",""
"","","","offer","63d40583fbdb78bfb9b0d3a4","bdp_rd","Sun Mar 26 2023 19:02:08 GMT-0400 (Eastern Daylight Time)","174328","html-keyboard-response","75","75286","0.0-5.0-2.23","","931","","<div class='trialBorder'><div class='vertical-center'><img style='vertical-align:center; align:center' src=img/fixation3.jpg></div><div class='cl'><div class='vertical-center'>$25<br>for<br>sure</div></div><div class='cr'><div class='vertical-center'>$54<br>with a<br>50% chance</div></div><div class='respDivL'><div class='vertical-center'>(E)</div></div><div class='respDivR'><div class='vertical-center'>(I)</div></div></div>","I","$25","$54","0","25","54","RISKY"
"","","","offerFB","63d40583fbdb78bfb9b0d3a4","bdp_rd","Sun Mar 26 2023 19:02:08 GMT-0400 (Eastern Daylight Time)","174328","html-keyboard-response","76","75544","0.0-5.0-3.23","","null","","<div class='trialBorder'><div class='vertical-center'><img style='vertical-align:center; align:center' src=img/fixation3.jpg></div><div class='cl'><div class='vertical-center'>$25<br>for<br>sure</div></div><div class='cr'><div class='vertical-center'><font style='color:orange'>$54<br>with a<br>50% chance</font></div></div><div class='respDivL'><div class='vertical-center'>(E)</div></div><div class='respDivR'><div class='vertical-center'><font style='color:orange'>(I)</font></div></div></div>","null","$25","$54","0","25","54",""
"","","","FIX","63d40583fbdb78bfb9b0d3a4","bdp_rd","Sun Mar 26 2023 19:02:08 GMT-0400 (Eastern Daylight Time)","174328","html-keyboard-response","77","76054","0.0-5.0-1.24","","null","","<div class='trialBorder'><div class='vertical-center'><img style='vertical-align:center; align:center' src=img/fixation3.jpg></div></div>","null","","","","","",""
"","","","offer","63d40583fbdb78bfb9b0d3a4","bdp_rd","Sun Mar 26 2023 19:02:08 GMT-0400 (Eastern Daylight Time)","174328","html-keyboard-response","78","76967","0.0-5.0-2.24","","912","","<div class='trialBorder'><div class='vertical-center'><img style='vertical-align:center; align:center' src=img/fixation3.jpg></div><div class='cl'><div class='vertical-center'>$46<br>with a<br>50% chance</div></div><div class='cr'><div class='vertical-center'>$29<br>for<br>sure</div></div><div class='respDivL'><div class='vertical-center'>(E)</div></div><div class='respDivR'><div class='vertical-center'>(I)</div></div></div>","E","$29","$46","1","29","46","RISKY"
"","","","offerFB","63d40583fbdb78bfb9b0d3a4","bdp_rd","Sun Mar 26 2023 19:02:08 GMT-0400 (Eastern Daylight Time)","174328","html-keyboard-response","79","77228","0.0-5.0-3.24","","null","","<div class='trialBorder'><div class='vertical-center'><img style='vertical-align:center; align:center' src=img/fixation3.jpg></div><div class='cl'><div class='vertical-center'><font style='color:orange'>$46<br>with a<br>50% chance</font></div></div><div class='cr'><div class='vertical-center'>$29<br>for<br>sure</div></div><div class='respDivL'><div class='vertical-center'><font style='color:orange'>(E)</font></div></div><div class='respDivR'><div class='vertical-center'>(I)</div></div></div>","null","$29","$46","1","29","46",""
"","","","FIX","63d40583fbdb78bfb9b0d3a4","bdp_rd","Sun Mar 26 2023 19:02:08 GMT-0400 (Eastern Daylight Time)","174328","html-keyboard-response","80","77738","0.0-5.0-1.25","","null","","<div class='trialBorder'><div class='vertical-center'><img style='vertical-align:center; align:center' src=img/fixation3.jpg></div></div>","null","","","","","",""
"","","","offer","63d40583fbdb78bfb9b0d3a4","bdp_rd","Sun Mar 26 2023 19:02:08 GMT-0400 (Eastern Daylight Time)","174328","html-keyboard-response","81","78438","0.0-5.0-2.25","","699","","<div class='trialBorder'><div class='vertical-center'><img style='vertical-align:center; align:center' src=img/fixation3.jpg></div><div class='cl'><div class='vertical-center'>$71<br>with a<br>50% chance</div></div><div class='cr'><div class='vertical-center'>$7<br>for<br>sure</div></div><div class='respDivL'><div class='vertical-center'>(E)</div></div><div class='respDivR'><div class='vertical-center'>(I)</div></div></div>","E","$7","$71","1","7","71","RISKY"
"","","","offerFB","63d40583fbdb78bfb9b0d3a4","bdp_rd","Sun Mar 26 2023 19:02:08 GMT-0400 (Eastern Daylight Time)","174328","html-keyboard-response","82","78696","0.0-5.0-3.25","","null","","<div class='trialBorder'><div class='vertical-center'><img style='vertical-align:center; align:center' src=img/fixation3.jpg></div><div class='cl'><div class='vertical-center'><font style='color:orange'>$71<br>with a<br>50% chance</font></div></div><div class='cr'><div class='vertical-center'>$7<br>for<br>sure</div></div><div class='respDivL'><div class='vertical-center'><font style='color:orange'>(E)</font></div></div><div class='respDivR'><div class='vertical-center'>(I)</div></div></div>","null","$7","$71","1","7","71",""
"","","","FIX","63d40583fbdb78bfb9b0d3a4","bdp_rd","Sun Mar 26 2023 19:02:08 GMT-0400 (Eastern Daylight Time)","174328","html-keyboard-response","83","79206","0.0-5.0-1.26","","null","","<div class='trialBorder'><div class='vertical-center'><img style='vertical-align:center; align:center' src=img/fixation3.jpg></div></div>","null","","","","","",""
"","","","offer","63d40583fbdb78bfb9b0d3a4","bdp_rd","Sun Mar 26 2023 19:02:08 GMT-0400 (Eastern Daylight Time)","174328","html-keyboard-response","84","81318","0.0-5.0-2.26","","2111","","<div class='trialBorder'><div class='vertical-center'><img style='vertical-align:center; align:center' src=img/fixation3.jpg></div><div class='cl'><div class='vertical-center'>$40<br>with a<br>50% chance</div></div><div class='cr'><div class='vertical-center'>$10<br>for<br>sure</div></div><div class='respDivL'><div class='vertical-center'>(E)</div></div><div class='respDivR'><div class='vertical-center'>(I)</div></div></div>","E","$10","$40","1","10","40","RISKY"
"","","","offerFB","63d40583fbdb78bfb9b0d3a4","bdp_rd","Sun Mar 26 2023 19:02:08 GMT-0400 (Eastern Daylight Time)","174328","html-keyboard-response","85","81570","0.0-5.0-3.26","","null","","<div class='trialBorder'><div class='vertical-center'><img style='vertical-align:center; align:center' src=img/fixation3.jpg></div><div class='cl'><div class='vertical-center'><font style='color:orange'>$40<br>with a<br>50% chance</font></div></div><div class='cr'><div class='vertical-center'>$10<br>for<br>sure</div></div><div class='respDivL'><div class='vertical-center'><font style='color:orange'>(E)</font></div></div><div class='respDivR'><div class='vertical-center'>(I)</div></div></div>","null","$10","$40","1","10","40",""
"","","","FIX","63d40583fbdb78bfb9b0d3a4","bdp_rd","Sun Mar 26 2023 19:02:08 GMT-0400 (Eastern Daylight Time)","174328","html-keyboard-response","86","82079","0.0-5.0-1.27","","null","","<div class='trialBorder'><div class='vertical-center'><img style='vertical-align:center; align:center' src=img/fixation3.jpg></div></div>","null","","","","","",""
"","","","offer","63d40583fbdb78bfb9b0d3a4","bdp_rd","Sun Mar 26 2023 19:02:08 GMT-0400 (Eastern Daylight Time)","174328","html-keyboard-response","87","82975","0.0-5.0-2.27","","896","","<div class='trialBorder'><div class='vertical-center'><img style='vertical-align:center; align:center' src=img/fixation3.jpg></div><div class='cl'><div class='vertical-center'>$6<br>for<br>sure</div></div><div class='cr'><div class='vertical-center'>$13<br>with a<br>50% chance</div></div><div class='respDivL'><div class='vertical-center'>(E)</div></div><div class='respDivR'><div class='vertical-center'>(I)</div></div></div>","E","$6","$13","0","6","13","SURE"
"","","","offerFB","63d40583fbdb78bfb9b0d3a4","bdp_rd","Sun Mar 26 2023 19:02:08 GMT-0400 (Eastern Daylight Time)","174328","html-keyboard-response","88","83236","0.0-5.0-3.27","","null","","<div class='trialBorder'><div class='vertical-center'><img style='vertical-align:center; align:center' src=img/fixation3.jpg></div><div class='cl'><div class='vertical-center'><font style='color:orange'>$6<br>for<br>sure</font></div></div><div class='cr'><div class='vertical-center'>$13<br>with a<br>50% chance</div></div><div class='respDivL'><div class='vertical-center'><font style='color:orange'>(E)</font></div></div><div class='respDivR'><div class='vertical-center'>(I)</div></div></div>","null","$6","$13","0","6","13",""
"","","","FIX","63d40583fbdb78bfb9b0d3a4","bdp_rd","Sun Mar 26 2023 19:02:08 GMT-0400 (Eastern Daylight Time)","174328","html-keyboard-response","89","83746","0.0-5.0-1.28","","null","","<div class='trialBorder'><div class='vertical-center'><img style='vertical-align:center; align:center' src=img/fixation3.jpg></div></div>","null","","","","","",""
"","","","offer","63d40583fbdb78bfb9b0d3a4","bdp_rd","Sun Mar 26 2023 19:02:08 GMT-0400 (Eastern Daylight Time)","174328","html-keyboard-response","90","86782","0.0-5.0-2.28","","3035","","<div class='trialBorder'><div class='vertical-center'><img style='vertical-align:center; align:center' src=img/fixation3.jpg></div><div class='cl'><div class='vertical-center'>$69<br>with a<br>50% chance</div></div><div class='cr'><div class='vertical-center'>$58<br>for<br>sure</div></div><div class='respDivL'><div class='vertical-center'>(E)</div></div><div class='respDivR'><div class='vertical-center'>(I)</div></div></div>","I","$58","$69","1","58","69","SURE"
"","","","offerFB","63d40583fbdb78bfb9b0d3a4","bdp_rd","Sun Mar 26 2023 19:02:08 GMT-0400 (Eastern Daylight Time)","174328","html-keyboard-response","91","87039","0.0-5.0-3.28","","null","","<div class='trialBorder'><div class='vertical-center'><img style='vertical-align:center; align:center' src=img/fixation3.jpg></div><div class='cl'><div class='vertical-center'>$69<br>with a<br>50% chance</div></div><div class='cr'><div class='vertical-center'><font style='color:orange'>$58<br>for<br>sure</font></div></div><div class='respDivL'><div class='vertical-center'>(E)</div></div><div class='respDivR'><div class='vertical-center'><font style='color:orange'>(I)</font></div></div></div>","null","$58","$69","1","58","69",""
"","","","FIX","63d40583fbdb78bfb9b0d3a4","bdp_rd","Sun Mar 26 2023 19:02:08 GMT-0400 (Eastern Daylight Time)","174328","html-keyboard-response","92","87550","0.0-5.0-1.29","","null","","<div class='trialBorder'><div class='vertical-center'><img style='vertical-align:center; align:center' src=img/fixation3.jpg></div></div>","null","","","","","",""
"","","","offer","63d40583fbdb78bfb9b0d3a4","bdp_rd","Sun Mar 26 2023 19:02:08 GMT-0400 (Eastern Daylight Time)","174328","html-keyboard-response","93","88565","0.0-5.0-2.29","","1014","","<div class='trialBorder'><div class='vertical-center'><img style='vertical-align:center; align:center' src=img/fixation3.jpg></div><div class='cl'><div class='vertical-center'>$9<br>for<br>sure</div></div><div class='cr'><div class='vertical-center'>$32<br>with a<br>50% chance</div></div><div class='respDivL'><div class='vertical-center'>(E)</div></div><div class='respDivR'><div class='vertical-center'>(I)</div></div></div>","I","$9","$32","0","9","32","RISKY"
"","","","offerFB","63d40583fbdb78bfb9b0d3a4","bdp_rd","Sun Mar 26 2023 19:02:08 GMT-0400 (Eastern Daylight Time)","174328","html-keyboard-response","94","88816","0.0-5.0-3.29","","null","","<div class='trialBorder'><div class='vertical-center'><img style='vertical-align:center; align:center' src=img/fixation3.jpg></div><div class='cl'><div class='vertical-center'>$9<br>for<br>sure</div></div><div class='cr'><div class='vertical-center'><font style='color:orange'>$32<br>with a<br>50% chance</font></div></div><div class='respDivL'><div class='vertical-center'>(E)</div></div><div class='respDivR'><div class='vertical-center'><font style='color:orange'>(I)</font></div></div></div>","null","$9","$32","0","9","32",""
"","","","FIX","63d40583fbdb78bfb9b0d3a4","bdp_rd","Sun Mar 26 2023 19:02:08 GMT-0400 (Eastern Daylight Time)","174328","html-keyboard-response","95","89327","0.0-5.0-1.30","","null","","<div class='trialBorder'><div class='vertical-center'><img style='vertical-align:center; align:center' src=img/fixation3.jpg></div></div>","null","","","","","",""
"","","","offer","63d40583fbdb78bfb9b0d3a4","bdp_rd","Sun Mar 26 2023 19:02:08 GMT-0400 (Eastern Daylight Time)","174328","html-keyboard-response","96","91386","0.0-5.0-2.30","","2059","","<div class='trialBorder'><div class='vertical-center'><img style='vertical-align:center; align:center' src=img/fixation3.jpg></div><div class='cl'><div class='vertical-center'>$8<br>for<br>sure</div></div><div class='cr'><div class='vertical-center'>$23<br>with a<br>50% chance</div></div><div class='respDivL'><div class='vertical-center'>(E)</div></div><div class='respDivR'><div class='vertical-center'>(I)</div></div></div>","E","$8","$23","0","8","23","SURE"
"","","","offerFB","63d40583fbdb78bfb9b0d3a4","bdp_rd","Sun Mar 26 2023 19:02:08 GMT-0400 (Eastern Daylight Time)","174328","html-keyboard-response","97","91644","0.0-5.0-3.30","","null","","<div class='trialBorder'><div class='vertical-center'><img style='vertical-align:center; align:center' src=img/fixation3.jpg></div><div class='cl'><div class='vertical-center'><font style='color:orange'>$8<br>for<br>sure</font></div></div><div class='cr'><div class='vertical-center'>$23<br>with a<br>50% chance</div></div><div class='respDivL'><div class='vertical-center'><font style='color:orange'>(E)</font></div></div><div class='respDivR'><div class='vertical-center'>(I)</div></div></div>","null","$8","$23","0","8","23",""
"","","","FIX","63d40583fbdb78bfb9b0d3a4","bdp_rd","Sun Mar 26 2023 19:02:08 GMT-0400 (Eastern Daylight Time)","174328","html-keyboard-response","98","92154","0.0-5.0-1.31","","null","","<div class='trialBorder'><div class='vertical-center'><img style='vertical-align:center; align:center' src=img/fixation3.jpg></div></div>","null","","","","","",""
"","","","offer","63d40583fbdb78bfb9b0d3a4","bdp_rd","Sun Mar 26 2023 19:02:08 GMT-0400 (Eastern Daylight Time)","174328","html-keyboard-response","99","93583","0.0-5.0-2.31","","1429","","<div class='trialBorder'><div class='vertical-center'><img style='vertical-align:center; align:center' src=img/fixation3.jpg></div><div class='cl'><div class='vertical-center'>$44<br>with a<br>50% chance</div></div><div class='cr'><div class='vertical-center'>$37<br>for<br>sure</div></div><div class='respDivL'><div class='vertical-center'>(E)</div></div><div class='respDivR'><div class='vertical-center'>(I)</div></div></div>","I","$37","$44","1","37","44","SURE"
"","","","offerFB","63d40583fbdb78bfb9b0d3a4","bdp_rd","Sun Mar 26 2023 19:02:08 GMT-0400 (Eastern Daylight Time)","174328","html-keyboard-response","100","93837","0.0-5.0-3.31","","null","","<div class='trialBorder'><div class='vertical-center'><img style='vertical-align:center; align:center' src=img/fixation3.jpg></div><div class='cl'><div class='vertical-center'>$44<br>with a<br>50% chance</div></div><div class='cr'><div class='vertical-center'><font style='color:orange'>$37<br>for<br>sure</font></div></div><div class='respDivL'><div class='vertical-center'>(E)</div></div><div class='respDivR'><div class='vertical-center'><font style='color:orange'>(I)</font></div></div></div>","null","$37","$44","1","37","44",""
"","","","FIX","63d40583fbdb78bfb9b0d3a4","bdp_rd","Sun Mar 26 2023 19:02:08 GMT-0400 (Eastern Daylight Time)","174328","html-keyboard-response","101","94347","0.0-5.0-1.32","","null","","<div class='trialBorder'><div class='vertical-center'><img style='vertical-align:center; align:center' src=img/fixation3.jpg></div></div>","null","","","","","",""
"","","","offer","63d40583fbdb78bfb9b0d3a4","bdp_rd","Sun Mar 26 2023 19:02:08 GMT-0400 (Eastern Daylight Time)","174328","html-keyboard-response","102","95371","0.0-5.0-2.32","","1023","","<div class='trialBorder'><div class='vertical-center'><img style='vertical-align:center; align:center' src=img/fixation3.jpg></div><div class='cl'><div class='vertical-center'>$2<br>for<br>sure</div></div><div class='cr'><div class='vertical-center'>$21<br>with a<br>50% chance</div></div><div class='respDivL'><div class='vertical-center'>(E)</div></div><div class='respDivR'><div class='vertical-center'>(I)</div></div></div>","I","$2","$21","0","2","21","RISKY"
"","","","offerFB","63d40583fbdb78bfb9b0d3a4","bdp_rd","Sun Mar 26 2023 19:02:08 GMT-0400 (Eastern Daylight Time)","174328","html-keyboard-response","103","95628","0.0-5.0-3.32","","null","","<div class='trialBorder'><div class='vertical-center'><img style='vertical-align:center; align:center' src=img/fixation3.jpg></div><div class='cl'><div class='vertical-center'>$2<br>for<br>sure</div></div><div class='cr'><div class='vertical-center'><font style='color:orange'>$21<br>with a<br>50% chance</font></div></div><div class='respDivL'><div class='vertical-center'>(E)</div></div><div class='respDivR'><div class='vertical-center'><font style='color:orange'>(I)</font></div></div></div>","null","$2","$21","0","2","21",""
"","","","FIX","63d40583fbdb78bfb9b0d3a4","bdp_rd","Sun Mar 26 2023 19:02:08 GMT-0400 (Eastern Daylight Time)","174328","html-keyboard-response","104","96136","0.0-5.0-1.33","","null","","<div class='trialBorder'><div class='vertical-center'><img style='vertical-align:center; align:center' src=img/fixation3.jpg></div></div>","null","","","","","",""
"","","","offer","63d40583fbdb78bfb9b0d3a4","bdp_rd","Sun Mar 26 2023 19:02:08 GMT-0400 (Eastern Daylight Time)","174328","html-keyboard-response","105","97545","0.0-5.0-2.33","","1409","","<div class='trialBorder'><div class='vertical-center'><img style='vertical-align:center; align:center' src=img/fixation3.jpg></div><div class='cl'><div class='vertical-center'>$48<br>with a<br>50% chance</div></div><div class='cr'><div class='vertical-center'>$34<br>for<br>sure</div></div><div class='respDivL'><div class='vertical-center'>(E)</div></div><div class='respDivR'><div class='vertical-center'>(I)</div></div></div>","I","$34","$48","1","34","48","SURE"
"","","","offerFB","63d40583fbdb78bfb9b0d3a4","bdp_rd","Sun Mar 26 2023 19:02:08 GMT-0400 (Eastern Daylight Time)","174328","html-keyboard-response","106","97807","0.0-5.0-3.33","","null","","<div class='trialBorder'><div class='vertical-center'><img style='vertical-align:center; align:center' src=img/fixation3.jpg></div><div class='cl'><div class='vertical-center'>$48<br>with a<br>50% chance</div></div><div class='cr'><div class='vertical-center'><font style='color:orange'>$34<br>for<br>sure</font></div></div><div class='respDivL'><div class='vertical-center'>(E)</div></div><div class='respDivR'><div class='vertical-center'><font style='color:orange'>(I)</font></div></div></div>","null","$34","$48","1","34","48",""
"","","","FIX","63d40583fbdb78bfb9b0d3a4","bdp_rd","Sun Mar 26 2023 19:02:08 GMT-0400 (Eastern Daylight Time)","174328","html-keyboard-response","107","98317","0.0-5.0-1.34","","null","","<div class='trialBorder'><div class='vertical-center'><img style='vertical-align:center; align:center' src=img/fixation3.jpg></div></div>","null","","","","","",""
"","","","offer","63d40583fbdb78bfb9b0d3a4","bdp_rd","Sun Mar 26 2023 19:02:08 GMT-0400 (Eastern Daylight Time)","174328","html-keyboard-response","108","99555","0.0-5.0-2.34","","1237","","<div class='trialBorder'><div class='vertical-center'><img style='vertical-align:center; align:center' src=img/fixation3.jpg></div><div class='cl'><div class='vertical-center'>$33<br>for<br>sure</div></div><div class='cr'><div class='vertical-center'>$66<br>with a<br>50% chance</div></div><div class='respDivL'><div class='vertical-center'>(E)</div></div><div class='respDivR'><div class='vertical-center'>(I)</div></div></div>","I","$33","$66","0","33","66","RISKY"
"","","","offerFB","63d40583fbdb78bfb9b0d3a4","bdp_rd","Sun Mar 26 2023 19:02:08 GMT-0400 (Eastern Daylight Time)","174328","html-keyboard-response","109","99815","0.0-5.0-3.34","","null","","<div class='trialBorder'><div class='vertical-center'><img style='vertical-align:center; align:center' src=img/fixation3.jpg></div><div class='cl'><div class='vertical-center'>$33<br>for<br>sure</div></div><div class='cr'><div class='vertical-center'><font style='color:orange'>$66<br>with a<br>50% chance</font></div></div><div class='respDivL'><div class='vertical-center'>(E)</div></div><div class='respDivR'><div class='vertical-center'><font style='color:orange'>(I)</font></div></div></div>","null","$33","$66","0","33","66",""
"","","","FIX","63d40583fbdb78bfb9b0d3a4","bdp_rd","Sun Mar 26 2023 19:02:08 GMT-0400 (Eastern Daylight Time)","174328","html-keyboard-response","110","100323","0.0-5.0-1.35","","null","","<div class='trialBorder'><div class='vertical-center'><img style='vertical-align:center; align:center' src=img/fixation3.jpg></div></div>","null","","","","","",""
"","","","offer","63d40583fbdb78bfb9b0d3a4","bdp_rd","Sun Mar 26 2023 19:02:08 GMT-0400 (Eastern Daylight Time)","174328","html-keyboard-response","111","102428","0.0-5.0-2.35","","2104","","<div class='trialBorder'><div class='vertical-center'><img style='vertical-align:center; align:center' src=img/fixation3.jpg></div><div class='cl'><div class='vertical-center'>$14<br>for<br>sure</div></div><div class='cr'><div class='vertical-center'>$22<br>with a<br>50% chance</div></div><div class='respDivL'><div class='vertical-center'>(E)</div></div><div class='respDivR'><div class='vertical-center'>(I)</div></div></div>","E","$14","$22","0","14","22","SURE"
"","","","offerFB","63d40583fbdb78bfb9b0d3a4","bdp_rd","Sun Mar 26 2023 19:02:08 GMT-0400 (Eastern Daylight Time)","174328","html-keyboard-response","112","102687","0.0-5.0-3.35","","null","","<div class='trialBorder'><div class='vertical-center'><img style='vertical-align:center; align:center' src=img/fixation3.jpg></div><div class='cl'><div class='vertical-center'><font style='color:orange'>$14<br>for<br>sure</font></div></div><div class='cr'><div class='vertical-center'>$22<br>with a<br>50% chance</div></div><div class='respDivL'><div class='vertical-center'><font style='color:orange'>(E)</font></div></div><div class='respDivR'><div class='vertical-center'>(I)</div></div></div>","null","$14","$22","0","14","22",""
"","","","FIX","63d40583fbdb78bfb9b0d3a4","bdp_rd","Sun Mar 26 2023 19:02:08 GMT-0400 (Eastern Daylight Time)","174328","html-keyboard-response","113","103197","0.0-5.0-1.36","","null","","<div class='trialBorder'><div class='vertical-center'><img style='vertical-align:center; align:center' src=img/fixation3.jpg></div></div>","null","","","","","",""
"","","","offer","63d40583fbdb78bfb9b0d3a4","bdp_rd","Sun Mar 26 2023 19:02:08 GMT-0400 (Eastern Daylight Time)","174328","html-keyboard-response","114","103982","0.0-5.0-2.36","","785","","<div class='trialBorder'><div class='vertical-center'><img style='vertical-align:center; align:center' src=img/fixation3.jpg></div><div class='cl'><div class='vertical-center'>$1<br>for<br>sure</div></div><div class='cr'><div class='vertical-center'>$30<br>with a<br>50% chance</div></div><div class='respDivL'><div class='vertical-center'>(E)</div></div><div class='respDivR'><div class='vertical-center'>(I)</div></div></div>","I","$1","$30","0","1","30","RISKY"
"","","","offerFB","63d40583fbdb78bfb9b0d3a4","bdp_rd","Sun Mar 26 2023 19:02:08 GMT-0400 (Eastern Daylight Time)","174328","html-keyboard-response","115","104246","0.0-5.0-3.36","","null","","<div class='trialBorder'><div class='vertical-center'><img style='vertical-align:center; align:center' src=img/fixation3.jpg></div><div class='cl'><div class='vertical-center'>$1<br>for<br>sure</div></div><div class='cr'><div class='vertical-center'><font style='color:orange'>$30<br>with a<br>50% chance</font></div></div><div class='respDivL'><div class='vertical-center'>(E)</div></div><div class='respDivR'><div class='vertical-center'><font style='color:orange'>(I)</font></div></div></div>","null","$1","$30","0","1","30",""
"","","","FIX","63d40583fbdb78bfb9b0d3a4","bdp_rd","Sun Mar 26 2023 19:02:08 GMT-0400 (Eastern Daylight Time)","174328","html-keyboard-response","116","104757","0.0-5.0-1.37","","null","","<div class='trialBorder'><div class='vertical-center'><img style='vertical-align:center; align:center' src=img/fixation3.jpg></div></div>","null","","","","","",""
"","","","offer","63d40583fbdb78bfb9b0d3a4","bdp_rd","Sun Mar 26 2023 19:02:08 GMT-0400 (Eastern Daylight Time)","174328","html-keyboard-response","117","106966","0.0-5.0-2.37","","2208","","<div class='trialBorder'><div class='vertical-center'><img style='vertical-align:center; align:center' src=img/fixation3.jpg></div><div class='cl'><div class='vertical-center'>$62<br>with a<br>50% chance</div></div><div class='cr'><div class='vertical-center'>$11<br>for<br>sure</div></div><div class='respDivL'><div class='vertical-center'>(E)</div></div><div class='respDivR'><div class='vertical-center'>(I)</div></div></div>","E","$11","$62","1","11","62","RISKY"
"","","","offerFB","63d40583fbdb78bfb9b0d3a4","bdp_rd","Sun Mar 26 2023 19:02:08 GMT-0400 (Eastern Daylight Time)","174328","html-keyboard-response","118","107229","0.0-5.0-3.37","","null","","<div class='trialBorder'><div class='vertical-center'><img style='vertical-align:center; align:center' src=img/fixation3.jpg></div><div class='cl'><div class='vertical-center'><font style='color:orange'>$62<br>with a<br>50% chance</font></div></div><div class='cr'><div class='vertical-center'>$11<br>for<br>sure</div></div><div class='respDivL'><div class='vertical-center'><font style='color:orange'>(E)</font></div></div><div class='respDivR'><div class='vertical-center'>(I)</div></div></div>","null","$11","$62","1","11","62",""
"","","","FIX","63d40583fbdb78bfb9b0d3a4","bdp_rd","Sun Mar 26 2023 19:02:08 GMT-0400 (Eastern Daylight Time)","174328","html-keyboard-response","119","107740","0.0-5.0-1.38","","null","","<div class='trialBorder'><div class='vertical-center'><img style='vertical-align:center; align:center' src=img/fixation3.jpg></div></div>","null","","","","","",""
"","","","offer","63d40583fbdb78bfb9b0d3a4","bdp_rd","Sun Mar 26 2023 19:02:08 GMT-0400 (Eastern Daylight Time)","174328","html-keyboard-response","120","109196","0.0-5.0-2.38","","1455","","<div class='trialBorder'><div class='vertical-center'><img style='vertical-align:center; align:center' src=img/fixation3.jpg></div><div class='cl'><div class='vertical-center'>$98<br>with a<br>50% chance</div></div><div class='cr'><div class='vertical-center'>$53<br>for<br>sure</div></div><div class='respDivL'><div class='vertical-center'>(E)</div></div><div class='respDivR'><div class='vertical-center'>(I)</div></div></div>","E","$53","$98","1","53","98","RISKY"
"","","","offerFB","63d40583fbdb78bfb9b0d3a4","bdp_rd","Sun Mar 26 2023 19:02:08 GMT-0400 (Eastern Daylight Time)","174328","html-keyboard-response","121","109452","0.0-5.0-3.38","","null","","<div class='trialBorder'><div class='vertical-center'><img style='vertical-align:center; align:center' src=img/fixation3.jpg></div><div class='cl'><div class='vertical-center'><font style='color:orange'>$98<br>with a<br>50% chance</font></div></div><div class='cr'><div class='vertical-center'>$53<br>for<br>sure</div></div><div class='respDivL'><div class='vertical-center'><font style='color:orange'>(E)</font></div></div><div class='respDivR'><div class='vertical-center'>(I)</div></div></div>","null","$53","$98","1","53","98",""
"","","","FIX","63d40583fbdb78bfb9b0d3a4","bdp_rd","Sun Mar 26 2023 19:02:08 GMT-0400 (Eastern Daylight Time)","174328","html-keyboard-response","122","109964","0.0-5.0-1.39","","null","","<div class='trialBorder'><div class='vertical-center'><img style='vertical-align:center; align:center' src=img/fixation3.jpg></div></div>","null","","","","","",""
"","","","offer","63d40583fbdb78bfb9b0d3a4","bdp_rd","Sun Mar 26 2023 19:02:08 GMT-0400 (Eastern Daylight Time)","174328","html-keyboard-response","123","111809","0.0-5.0-2.39","","1844","","<div class='trialBorder'><div class='vertical-center'><img style='vertical-align:center; align:center' src=img/fixation3.jpg></div><div class='cl'><div class='vertical-center'>$89<br>with a<br>50% chance</div></div><div class='cr'><div class='vertical-center'>$28<br>for<br>sure</div></div><div class='respDivL'><div class='vertical-center'>(E)</div></div><div class='respDivR'><div class='vertical-center'>(I)</div></div></div>","E","$28","$89","1","28","89","RISKY"
"","","","offerFB","63d40583fbdb78bfb9b0d3a4","bdp_rd","Sun Mar 26 2023 19:02:08 GMT-0400 (Eastern Daylight Time)","174328","html-keyboard-response","124","112062","0.0-5.0-3.39","","null","","<div class='trialBorder'><div class='vertical-center'><img style='vertical-align:center; align:center' src=img/fixation3.jpg></div><div class='cl'><div class='vertical-center'><font style='color:orange'>$89<br>with a<br>50% chance</font></div></div><div class='cr'><div class='vertical-center'>$28<br>for<br>sure</div></div><div class='respDivL'><div class='vertical-center'><font style='color:orange'>(E)</font></div></div><div class='respDivR'><div class='vertical-center'>(I)</div></div></div>","null","$28","$89","1","28","89",""
"","","","FIX","63d40583fbdb78bfb9b0d3a4","bdp_rd","Sun Mar 26 2023 19:02:08 GMT-0400 (Eastern Daylight Time)","174328","html-keyboard-response","125","112572","0.0-5.0-1.40","","null","","<div class='trialBorder'><div class='vertical-center'><img style='vertical-align:center; align:center' src=img/fixation3.jpg></div></div>","null","","","","","",""
"","","","offer","63d40583fbdb78bfb9b0d3a4","bdp_rd","Sun Mar 26 2023 19:02:08 GMT-0400 (Eastern Daylight Time)","174328","html-keyboard-response","126","113990","0.0-5.0-2.40","","1418","","<div class='trialBorder'><div class='vertical-center'><img style='vertical-align:center; align:center' src=img/fixation3.jpg></div><div class='cl'><div class='vertical-center'>$10<br>for<br>sure</div></div><div class='cr'><div class='vertical-center'>$19<br>with a<br>50% chance</div></div><div class='respDivL'><div class='vertical-center'>(E)</div></div><div class='respDivR'><div class='vertical-center'>(I)</div></div></div>","E","$10","$19","0","10","19","SURE"
"","","","offerFB","63d40583fbdb78bfb9b0d3a4","bdp_rd","Sun Mar 26 2023 19:02:08 GMT-0400 (Eastern Daylight Time)","174328","html-keyboard-response","127","114240","0.0-5.0-3.40","","null","","<div class='trialBorder'><div class='vertical-center'><img style='vertical-align:center; align:center' src=img/fixation3.jpg></div><div class='cl'><div class='vertical-center'><font style='color:orange'>$10<br>for<br>sure</font></div></div><div class='cr'><div class='vertical-center'>$19<br>with a<br>50% chance</div></div><div class='respDivL'><div class='vertical-center'><font style='color:orange'>(E)</font></div></div><div class='respDivR'><div class='vertical-center'>(I)</div></div></div>","null","$10","$19","0","10","19",""
"","","","FIX","63d40583fbdb78bfb9b0d3a4","bdp_rd","Sun Mar 26 2023 19:02:08 GMT-0400 (Eastern Daylight Time)","174328","html-keyboard-response","128","114748","0.0-5.0-1.41","","null","","<div class='trialBorder'><div class='vertical-center'><img style='vertical-align:center; align:center' src=img/fixation3.jpg></div></div>","null","","","","","",""
"","","","offer","63d40583fbdb78bfb9b0d3a4","bdp_rd","Sun Mar 26 2023 19:02:08 GMT-0400 (Eastern Daylight Time)","174328","html-keyboard-response","129","116958","0.0-5.0-2.41","","2209","","<div class='trialBorder'><div class='vertical-center'><img style='vertical-align:center; align:center' src=img/fixation3.jpg></div><div class='cl'><div class='vertical-center'>$13<br>for<br>sure</div></div><div class='cr'><div class='vertical-center'>$24<br>with a<br>50% chance</div></div><div class='respDivL'><div class='vertical-center'>(E)</div></div><div class='respDivR'><div class='vertical-center'>(I)</div></div></div>","E","$13","$24","0","13","24","SURE"
"","","","offerFB","63d40583fbdb78bfb9b0d3a4","bdp_rd","Sun Mar 26 2023 19:02:08 GMT-0400 (Eastern Daylight Time)","174328","html-keyboard-response","130","117221","0.0-5.0-3.41","","null","","<div class='trialBorder'><div class='vertical-center'><img style='vertical-align:center; align:center' src=img/fixation3.jpg></div><div class='cl'><div class='vertical-center'><font style='color:orange'>$13<br>for<br>sure</font></div></div><div class='cr'><div class='vertical-center'>$24<br>with a<br>50% chance</div></div><div class='respDivL'><div class='vertical-center'><font style='color:orange'>(E)</font></div></div><div class='respDivR'><div class='vertical-center'>(I)</div></div></div>","null","$13","$24","0","13","24",""
"","","","FIX","63d40583fbdb78bfb9b0d3a4","bdp_rd","Sun Mar 26 2023 19:02:08 GMT-0400 (Eastern Daylight Time)","174328","html-keyboard-response","131","117731","0.0-5.0-1.42","","null","","<div class='trialBorder'><div class='vertical-center'><img style='vertical-align:center; align:center' src=img/fixation3.jpg></div></div>","null","","","","","",""
"","","","offer","63d40583fbdb78bfb9b0d3a4","bdp_rd","Sun Mar 26 2023 19:02:08 GMT-0400 (Eastern Daylight Time)","174328","html-keyboard-response","132","119863","0.0-5.0-2.42","","2132","","<div class='trialBorder'><div class='vertical-center'><img style='vertical-align:center; align:center' src=img/fixation3.jpg></div><div class='cl'><div class='vertical-center'>$14<br>with a<br>50% chance</div></div><div class='cr'><div class='vertical-center'>$4<br>for<br>sure</div></div><div class='respDivL'><div class='vertical-center'>(E)</div></div><div class='respDivR'><div class='vertical-center'>(I)</div></div></div>","E","$4","$14","1","4","14","RISKY"
"","","","offerFB","63d40583fbdb78bfb9b0d3a4","bdp_rd","Sun Mar 26 2023 19:02:08 GMT-0400 (Eastern Daylight Time)","174328","html-keyboard-response","133","120127","0.0-5.0-3.42","","null","","<div class='trialBorder'><div class='vertical-center'><img style='vertical-align:center; align:center' src=img/fixation3.jpg></div><div class='cl'><div class='vertical-center'><font style='color:orange'>$14<br>with a<br>50% chance</font></div></div><div class='cr'><div class='vertical-center'>$4<br>for<br>sure</div></div><div class='respDivL'><div class='vertical-center'><font style='color:orange'>(E)</font></div></div><div class='respDivR'><div class='vertical-center'>(I)</div></div></div>","null","$4","$14","1","4","14",""
"","","","FIX","63d40583fbdb78bfb9b0d3a4","bdp_rd","Sun Mar 26 2023 19:02:08 GMT-0400 (Eastern Daylight Time)","174328","html-keyboard-response","134","120636","0.0-5.0-1.43","","null","","<div class='trialBorder'><div class='vertical-center'><img style='vertical-align:center; align:center' src=img/fixation3.jpg></div></div>","null","","","","","",""
"","","","offer","63d40583fbdb78bfb9b0d3a4","bdp_rd","Sun Mar 26 2023 19:02:08 GMT-0400 (Eastern Daylight Time)","174328","html-keyboard-response","135","121657","0.0-5.0-2.43","","1020","","<div class='trialBorder'><div class='vertical-center'><img style='vertical-align:center; align:center' src=img/fixation3.jpg></div><div class='cl'><div class='vertical-center'>$25<br>with a<br>50% chance</div></div><div class='cr'><div class='vertical-center'>$21<br>for<br>sure</div></div><div class='respDivL'><div class='vertical-center'>(E)</div></div><div class='respDivR'><div class='vertical-center'>(I)</div></div></div>","I","$21","$25","1","21","25","SURE"
"","","","offerFB","63d40583fbdb78bfb9b0d3a4","bdp_rd","Sun Mar 26 2023 19:02:08 GMT-0400 (Eastern Daylight Time)","174328","html-keyboard-response","136","121919","0.0-5.0-3.43","","null","","<div class='trialBorder'><div class='vertical-center'><img style='vertical-align:center; align:center' src=img/fixation3.jpg></div><div class='cl'><div class='vertical-center'>$25<br>with a<br>50% chance</div></div><div class='cr'><div class='vertical-center'><font style='color:orange'>$21<br>for<br>sure</font></div></div><div class='respDivL'><div class='vertical-center'>(E)</div></div><div class='respDivR'><div class='vertical-center'><font style='color:orange'>(I)</font></div></div></div>","null","$21","$25","1","21","25",""
"","","","FIX","63d40583fbdb78bfb9b0d3a4","bdp_rd","Sun Mar 26 2023 19:02:08 GMT-0400 (Eastern Daylight Time)","174328","html-keyboard-response","137","122429","0.0-5.0-1.44","","null","","<div class='trialBorder'><div class='vertical-center'><img style='vertical-align:center; align:center' src=img/fixation3.jpg></div></div>","null","","","","","",""
"","","","offer","63d40583fbdb78bfb9b0d3a4","bdp_rd","Sun Mar 26 2023 19:02:08 GMT-0400 (Eastern Daylight Time)","174328","html-keyboard-response","138","123506","0.0-5.0-2.44","","1076","","<div class='trialBorder'><div class='vertical-center'><img style='vertical-align:center; align:center' src=img/fixation3.jpg></div><div class='cl'><div class='vertical-center'>$12<br>with a<br>50% chance</div></div><div class='cr'><div class='vertical-center'>$3<br>for<br>sure</div></div><div class='respDivL'><div class='vertical-center'>(E)</div></div><div class='respDivR'><div class='vertical-center'>(I)</div></div></div>","E","$3","$12","1","3","12","RISKY"
"","","","offerFB","63d40583fbdb78bfb9b0d3a4","bdp_rd","Sun Mar 26 2023 19:02:08 GMT-0400 (Eastern Daylight Time)","174328","html-keyboard-response","139","123771","0.0-5.0-3.44","","null","","<div class='trialBorder'><div class='vertical-center'><img style='vertical-align:center; align:center' src=img/fixation3.jpg></div><div class='cl'><div class='vertical-center'><font style='color:orange'>$12<br>with a<br>50% chance</font></div></div><div class='cr'><div class='vertical-center'>$3<br>for<br>sure</div></div><div class='respDivL'><div class='vertical-center'><font style='color:orange'>(E)</font></div></div><div class='respDivR'><div class='vertical-center'>(I)</div></div></div>","null","$3","$12","1","3","12",""
"","","","FIX","63d40583fbdb78bfb9b0d3a4","bdp_rd","Sun Mar 26 2023 19:02:08 GMT-0400 (Eastern Daylight Time)","174328","html-keyboard-response","140","124280","0.0-5.0-1.45","","null","","<div class='trialBorder'><div class='vertical-center'><img style='vertical-align:center; align:center' src=img/fixation3.jpg></div></div>","null","","","","","",""
"","","","offer","63d40583fbdb78bfb9b0d3a4","bdp_rd","Sun Mar 26 2023 19:02:08 GMT-0400 (Eastern Daylight Time)","174328","html-keyboard-response","141","125801","0.0-5.0-2.45","","1521","","<div class='trialBorder'><div class='vertical-center'><img style='vertical-align:center; align:center' src=img/fixation3.jpg></div><div class='cl'><div class='vertical-center'>$30<br>for<br>sure</div></div><div class='cr'><div class='vertical-center'>$68<br>with a<br>50% chance</div></div><div class='respDivL'><div class='vertical-center'>(E)</div></div><div class='respDivR'><div class='vertical-center'>(I)</div></div></div>","I","$30","$68","0","30","68","RISKY"
"","","","offerFB","63d40583fbdb78bfb9b0d3a4","bdp_rd","Sun Mar 26 2023 19:02:08 GMT-0400 (Eastern Daylight Time)","174328","html-keyboard-response","142","126054","0.0-5.0-3.45","","null","","<div class='trialBorder'><div class='vertical-center'><img style='vertical-align:center; align:center' src=img/fixation3.jpg></div><div class='cl'><div class='vertical-center'>$30<br>for<br>sure</div></div><div class='cr'><div class='vertical-center'><font style='color:orange'>$68<br>with a<br>50% chance</font></div></div><div class='respDivL'><div class='vertical-center'>(E)</div></div><div class='respDivR'><div class='vertical-center'><font style='color:orange'>(I)</font></div></div></div>","null","$30","$68","0","30","68",""
"","","","FIX","63d40583fbdb78bfb9b0d3a4","bdp_rd","Sun Mar 26 2023 19:02:08 GMT-0400 (Eastern Daylight Time)","174328","html-keyboard-response","143","126564","0.0-5.0-1.46","","null","","<div class='trialBorder'><div class='vertical-center'><img style='vertical-align:center; align:center' src=img/fixation3.jpg></div></div>","null","","","","","",""
"","","","offer","63d40583fbdb78bfb9b0d3a4","bdp_rd","Sun Mar 26 2023 19:02:08 GMT-0400 (Eastern Daylight Time)","174328","html-keyboard-response","144","127945","0.0-5.0-2.46","","1381","","<div class='trialBorder'><div class='vertical-center'><img style='vertical-align:center; align:center' src=img/fixation3.jpg></div><div class='cl'><div class='vertical-center'>$47<br>with a<br>50% chance</div></div><div class='cr'><div class='vertical-center'>$27<br>for<br>sure</div></div><div class='respDivL'><div class='vertical-center'>(E)</div></div><div class='respDivR'><div class='vertical-center'>(I)</div></div></div>","E","$27","$47","1","27","47","RISKY"
"","","","offerFB","63d40583fbdb78bfb9b0d3a4","bdp_rd","Sun Mar 26 2023 19:02:08 GMT-0400 (Eastern Daylight Time)","174328","html-keyboard-response","145","128201","0.0-5.0-3.46","","null","","<div class='trialBorder'><div class='vertical-center'><img style='vertical-align:center; align:center' src=img/fixation3.jpg></div><div class='cl'><div class='vertical-center'><font style='color:orange'>$47<br>with a<br>50% chance</font></div></div><div class='cr'><div class='vertical-center'>$27<br>for<br>sure</div></div><div class='respDivL'><div class='vertical-center'><font style='color:orange'>(E)</font></div></div><div class='respDivR'><div class='vertical-center'>(I)</div></div></div>","null","$27","$47","1","27","47",""
"","","","FIX","63d40583fbdb78bfb9b0d3a4","bdp_rd","Sun Mar 26 2023 19:02:08 GMT-0400 (Eastern Daylight Time)","174328","html-keyboard-response","146","128711","0.0-5.0-1.47","","null","","<div class='trialBorder'><div class='vertical-center'><img style='vertical-align:center; align:center' src=img/fixation3.jpg></div></div>","null","","","","","",""
"","","","offer","63d40583fbdb78bfb9b0d3a4","bdp_rd","Sun Mar 26 2023 19:02:08 GMT-0400 (Eastern Daylight Time)","174328","html-keyboard-response","147","129520","0.0-5.0-2.47","","809","","<div class='trialBorder'><div class='vertical-center'><img style='vertical-align:center; align:center' src=img/fixation3.jpg></div><div class='cl'><div class='vertical-center'>$40<br>for<br>sure</div></div><div class='cr'><div class='vertical-center'>$95<br>with a<br>50% chance</div></div><div class='respDivL'><div class='vertical-center'>(E)</div></div><div class='respDivR'><div class='vertical-center'>(I)</div></div></div>","I","$40","$95","0","40","95","RISKY"
"","","","offerFB","63d40583fbdb78bfb9b0d3a4","bdp_rd","Sun Mar 26 2023 19:02:08 GMT-0400 (Eastern Daylight Time)","174328","html-keyboard-response","148","129776","0.0-5.0-3.47","","null","","<div class='trialBorder'><div class='vertical-center'><img style='vertical-align:center; align:center' src=img/fixation3.jpg></div><div class='cl'><div class='vertical-center'>$40<br>for<br>sure</div></div><div class='cr'><div class='vertical-center'><font style='color:orange'>$95<br>with a<br>50% chance</font></div></div><div class='respDivL'><div class='vertical-center'>(E)</div></div><div class='respDivR'><div class='vertical-center'><font style='color:orange'>(I)</font></div></div></div>","null","$40","$95","0","40","95",""
"","","","FIX","63d40583fbdb78bfb9b0d3a4","bdp_rd","Sun Mar 26 2023 19:02:08 GMT-0400 (Eastern Daylight Time)","174328","html-keyboard-response","149","130285","0.0-5.0-1.48","","null","","<div class='trialBorder'><div class='vertical-center'><img style='vertical-align:center; align:center' src=img/fixation3.jpg></div></div>","null","","","","","",""
"","","","offer","63d40583fbdb78bfb9b0d3a4","bdp_rd","Sun Mar 26 2023 19:02:08 GMT-0400 (Eastern Daylight Time)","174328","html-keyboard-response","150","132331","0.0-5.0-2.48","","2045","","<div class='trialBorder'><div class='vertical-center'><img style='vertical-align:center; align:center' src=img/fixation3.jpg></div><div class='cl'><div class='vertical-center'>$15<br>for<br>sure</div></div><div class='cr'><div class='vertical-center'>$34<br>with a<br>50% chance</div></div><div class='respDivL'><div class='vertical-center'>(E)</div></div><div class='respDivR'><div class='vertical-center'>(I)</div></div></div>","I","$15","$34","0","15","34","RISKY"
"","","","offerFB","63d40583fbdb78bfb9b0d3a4","bdp_rd","Sun Mar 26 2023 19:02:08 GMT-0400 (Eastern Daylight Time)","174328","html-keyboard-response","151","132594","0.0-5.0-3.48","","null","","<div class='trialBorder'><div class='vertical-center'><img style='vertical-align:center; align:center' src=img/fixation3.jpg></div><div class='cl'><div class='vertical-center'>$15<br>for<br>sure</div></div><div class='cr'><div class='vertical-center'><font style='color:orange'>$34<br>with a<br>50% chance</font></div></div><div class='respDivL'><div class='vertical-center'>(E)</div></div><div class='respDivR'><div class='vertical-center'><font style='color:orange'>(I)</font></div></div></div>","null","$15","$34","0","15","34",""
"","","","FIX","63d40583fbdb78bfb9b0d3a4","bdp_rd","Sun Mar 26 2023 19:02:08 GMT-0400 (Eastern Daylight Time)","174328","html-keyboard-response","152","133103","0.0-5.0-1.49","","null","","<div class='trialBorder'><div class='vertical-center'><img style='vertical-align:center; align:center' src=img/fixation3.jpg></div></div>","null","","","","","",""
"","","","offer","63d40583fbdb78bfb9b0d3a4","bdp_rd","Sun Mar 26 2023 19:02:08 GMT-0400 (Eastern Daylight Time)","174328","html-keyboard-response","153","135543","0.0-5.0-2.49","","2440","","<div class='trialBorder'><div class='vertical-center'><img style='vertical-align:center; align:center' src=img/fixation3.jpg></div><div class='cl'><div class='vertical-center'>$29<br>with a<br>50% chance</div></div><div class='cr'><div class='vertical-center'>$14<br>for<br>sure</div></div><div class='respDivL'><div class='vertical-center'>(E)</div></div><div class='respDivR'><div class='vertical-center'>(I)</div></div></div>","E","$14","$29","1","14","29","RISKY"
"","","","offerFB","63d40583fbdb78bfb9b0d3a4","bdp_rd","Sun Mar 26 2023 19:02:08 GMT-0400 (Eastern Daylight Time)","174328","html-keyboard-response","154","135808","0.0-5.0-3.49","","null","","<div class='trialBorder'><div class='vertical-center'><img style='vertical-align:center; align:center' src=img/fixation3.jpg></div><div class='cl'><div class='vertical-center'><font style='color:orange'>$29<br>with a<br>50% chance</font></div></div><div class='cr'><div class='vertical-center'>$14<br>for<br>sure</div></div><div class='respDivL'><div class='vertical-center'><font style='color:orange'>(E)</font></div></div><div class='respDivR'><div class='vertical-center'>(I)</div></div></div>","null","$14","$29","1","14","29",""
"","","","FIX","63d40583fbdb78bfb9b0d3a4","bdp_rd","Sun Mar 26 2023 19:02:08 GMT-0400 (Eastern Daylight Time)","174328","html-keyboard-response","155","136319","0.0-5.0-1.50","","null","","<div class='trialBorder'><div class='vertical-center'><img style='vertical-align:center; align:center' src=img/fixation3.jpg></div></div>","null","","","","","",""
"","","","offer","63d40583fbdb78bfb9b0d3a4","bdp_rd","Sun Mar 26 2023 19:02:08 GMT-0400 (Eastern Daylight Time)","174328","html-keyboard-response","156","137352","0.0-5.0-2.50","","1033","","<div class='trialBorder'><div class='vertical-center'><img style='vertical-align:center; align:center' src=img/fixation3.jpg></div><div class='cl'><div class='vertical-center'>$92<br>with a<br>50% chance</div></div><div class='cr'><div class='vertical-center'>$26<br>for<br>sure</div></div><div class='respDivL'><div class='vertical-center'>(E)</div></div><div class='respDivR'><div class='vertical-center'>(I)</div></div></div>","E","$26","$92","1","26","92","RISKY"
"","","","offerFB","63d40583fbdb78bfb9b0d3a4","bdp_rd","Sun Mar 26 2023 19:02:08 GMT-0400 (Eastern Daylight Time)","174328","html-keyboard-response","157","137616","0.0-5.0-3.50","","null","","<div class='trialBorder'><div class='vertical-center'><img style='vertical-align:center; align:center' src=img/fixation3.jpg></div><div class='cl'><div class='vertical-center'><font style='color:orange'>$92<br>with a<br>50% chance</font></div></div><div class='cr'><div class='vertical-center'>$26<br>for<br>sure</div></div><div class='respDivL'><div class='vertical-center'><font style='color:orange'>(E)</font></div></div><div class='respDivR'><div class='vertical-center'>(I)</div></div></div>","null","$26","$92","1","26","92",""
"","","","FIX","63d40583fbdb78bfb9b0d3a4","bdp_rd","Sun Mar 26 2023 19:02:08 GMT-0400 (Eastern Daylight Time)","174328","html-keyboard-response","158","138125","0.0-5.0-1.51","","null","","<div class='trialBorder'><div class='vertical-center'><img style='vertical-align:center; align:center' src=img/fixation3.jpg></div></div>","null","","","","","",""
"","","","offer","63d40583fbdb78bfb9b0d3a4","bdp_rd","Sun Mar 26 2023 19:02:08 GMT-0400 (Eastern Daylight Time)","174328","html-keyboard-response","159","139049","0.0-5.0-2.51","","923","","<div class='trialBorder'><div class='vertical-center'><img style='vertical-align:center; align:center' src=img/fixation3.jpg></div><div class='cl'><div class='vertical-center'>$16<br>with a<br>50% chance</div></div><div class='cr'><div class='vertical-center'>$5<br>for<br>sure</div></div><div class='respDivL'><div class='vertical-center'>(E)</div></div><div class='respDivR'><div class='vertical-center'>(I)</div></div></div>","E","$5","$16","1","5","16","RISKY"
"","","","offerFB","63d40583fbdb78bfb9b0d3a4","bdp_rd","Sun Mar 26 2023 19:02:08 GMT-0400 (Eastern Daylight Time)","174328","html-keyboard-response","160","139300","0.0-5.0-3.51","","null","","<div class='trialBorder'><div class='vertical-center'><img style='vertical-align:center; align:center' src=img/fixation3.jpg></div><div class='cl'><div class='vertical-center'><font style='color:orange'>$16<br>with a<br>50% chance</font></div></div><div class='cr'><div class='vertical-center'>$5<br>for<br>sure</div></div><div class='respDivL'><div class='vertical-center'><font style='color:orange'>(E)</font></div></div><div class='respDivR'><div class='vertical-center'>(I)</div></div></div>","null","$5","$16","1","5","16",""
"","","","FIX","63d40583fbdb78bfb9b0d3a4","bdp_rd","Sun Mar 26 2023 19:02:08 GMT-0400 (Eastern Daylight Time)","174328","html-keyboard-response","161","139809","0.0-5.0-1.52","","null","","<div class='trialBorder'><div class='vertical-center'><img style='vertical-align:center; align:center' src=img/fixation3.jpg></div></div>","null","","","","","",""
"","","","offer","63d40583fbdb78bfb9b0d3a4","bdp_rd","Sun Mar 26 2023 19:02:08 GMT-0400 (Eastern Daylight Time)","174328","html-keyboard-response","162","140980","0.0-5.0-2.52","","1171","","<div class='trialBorder'><div class='vertical-center'><img style='vertical-align:center; align:center' src=img/fixation3.jpg></div><div class='cl'><div class='vertical-center'>$12<br>for<br>sure</div></div><div class='cr'><div class='vertical-center'>$27<br>with a<br>50% chance</div></div><div class='respDivL'><div class='vertical-center'>(E)</div></div><div class='respDivR'><div class='vertical-center'>(I)</div></div></div>","I","$12","$27","0","12","27","RISKY"
"","","","offerFB","63d40583fbdb78bfb9b0d3a4","bdp_rd","Sun Mar 26 2023 19:02:08 GMT-0400 (Eastern Daylight Time)","174328","html-keyboard-response","163","141230","0.0-5.0-3.52","","null","","<div class='trialBorder'><div class='vertical-center'><img style='vertical-align:center; align:center' src=img/fixation3.jpg></div><div class='cl'><div class='vertical-center'>$12<br>for<br>sure</div></div><div class='cr'><div class='vertical-center'><font style='color:orange'>$27<br>with a<br>50% chance</font></div></div><div class='respDivL'><div class='vertical-center'>(E)</div></div><div class='respDivR'><div class='vertical-center'><font style='color:orange'>(I)</font></div></div></div>","null","$12","$27","0","12","27",""
"","","","FIX","63d40583fbdb78bfb9b0d3a4","bdp_rd","Sun Mar 26 2023 19:02:08 GMT-0400 (Eastern Daylight Time)","174328","html-keyboard-response","164","141740","0.0-5.0-1.53","","null","","<div class='trialBorder'><div class='vertical-center'><img style='vertical-align:center; align:center' src=img/fixation3.jpg></div></div>","null","","","","","",""
"","","","offer","63d40583fbdb78bfb9b0d3a4","bdp_rd","Sun Mar 26 2023 19:02:08 GMT-0400 (Eastern Daylight Time)","174328","html-keyboard-response","165","143044","0.0-5.0-2.53","","1304","","<div class='trialBorder'><div class='vertical-center'><img style='vertical-align:center; align:center' src=img/fixation3.jpg></div><div class='cl'><div class='vertical-center'>$63<br>for<br>sure</div></div><div class='cr'><div class='vertical-center'>$100<br>with a<br>50% chance</div></div><div class='respDivL'><div class='vertical-center'>(E)</div></div><div class='respDivR'><div class='vertical-center'>(I)</div></div></div>","I","$63","$100","0","63","10","RISKY"
"","","","offerFB","63d40583fbdb78bfb9b0d3a4","bdp_rd","Sun Mar 26 2023 19:02:08 GMT-0400 (Eastern Daylight Time)","174328","html-keyboard-response","166","143295","0.0-5.0-3.53","","null","","<div class='trialBorder'><div class='vertical-center'><img style='vertical-align:center; align:center' src=img/fixation3.jpg></div><div class='cl'><div class='vertical-center'>$63<br>for<br>sure</div></div><div class='cr'><div class='vertical-center'><font style='color:orange'>$100<br>with a<br>50% chance</font></div></div><div class='respDivL'><div class='vertical-center'>(E)</div></div><div class='respDivR'><div class='vertical-center'><font style='color:orange'>(I)</font></div></div></div>","null","$63","$100","0","63","10",""
"","","","FIX","63d40583fbdb78bfb9b0d3a4","bdp_rd","Sun Mar 26 2023 19:02:08 GMT-0400 (Eastern Daylight Time)","174328","html-keyboard-response","167","143804","0.0-5.0-1.54","","null","","<div class='trialBorder'><div class='vertical-center'><img style='vertical-align:center; align:center' src=img/fixation3.jpg></div></div>","null","","","","","",""
"","","","offer","63d40583fbdb78bfb9b0d3a4","bdp_rd","Sun Mar 26 2023 19:02:08 GMT-0400 (Eastern Daylight Time)","174328","html-keyboard-response","168","163409","0.0-5.0-2.54","","19605","","<div class='trialBorder'><div class='vertical-center'><img style='vertical-align:center; align:center' src=img/fixation3.jpg></div><div class='cl'><div class='vertical-center'>$81<br>with a<br>50% chance</div></div><div class='cr'><div class='vertical-center'>$39<br>for<br>sure</div></div><div class='respDivL'><div class='vertical-center'>(E)</div></div><div class='respDivR'><div class='vertical-center'>(I)</div></div></div>","E","$39","$81","1","39","81","RISKY"
"","","","offerFB","63d40583fbdb78bfb9b0d3a4","bdp_rd","Sun Mar 26 2023 19:02:08 GMT-0400 (Eastern Daylight Time)","174328","html-keyboard-response","169","163662","0.0-5.0-3.54","","null","","<div class='trialBorder'><div class='vertical-center'><img style='vertical-align:center; align:center' src=img/fixation3.jpg></div><div class='cl'><div class='vertical-center'><font style='color:orange'>$81<br>with a<br>50% chance</font></div></div><div class='cr'><div class='vertical-center'>$39<br>for<br>sure</div></div><div class='respDivL'><div class='vertical-center'><font style='color:orange'>(E)</font></div></div><div class='respDivR'><div class='vertical-center'>(I)</div></div></div>","null","$39","$81","1","39","81",""
"","","","FIX","63d40583fbdb78bfb9b0d3a4","bdp_rd","Sun Mar 26 2023 19:02:08 GMT-0400 (Eastern Daylight Time)","174328","html-keyboard-response","170","164172","0.0-5.0-1.55","","null","","<div class='trialBorder'><div class='vertical-center'><img style='vertical-align:center; align:center' src=img/fixation3.jpg></div></div>","null","","","","","",""
"","","","offer","63d40583fbdb78bfb9b0d3a4","bdp_rd","Sun Mar 26 2023 19:02:08 GMT-0400 (Eastern Daylight Time)","174328","html-keyboard-response","171","165164","0.0-5.0-2.55","","992","","<div class='trialBorder'><div class='vertical-center'><img style='vertical-align:center; align:center' src=img/fixation3.jpg></div><div class='cl'><div class='vertical-center'>$20<br>for<br>sure</div></div><div class='cr'><div class='vertical-center'>$80<br>with a<br>50% chance</div></div><div class='respDivL'><div class='vertical-center'>(E)</div></div><div class='respDivR'><div class='vertical-center'>(I)</div></div></div>","I","$20","$80","0","20","80","RISKY"
"","","","offerFB","63d40583fbdb78bfb9b0d3a4","bdp_rd","Sun Mar 26 2023 19:02:08 GMT-0400 (Eastern Daylight Time)","174328","html-keyboard-response","172","165423","0.0-5.0-3.55","","null","","<div class='trialBorder'><div class='vertical-center'><img style='vertical-align:center; align:center' src=img/fixation3.jpg></div><div class='cl'><div class='vertical-center'>$20<br>for<br>sure</div></div><div class='cr'><div class='vertical-center'><font style='color:orange'>$80<br>with a<br>50% chance</font></div></div><div class='respDivL'><div class='vertical-center'>(E)</div></div><div class='respDivR'><div class='vertical-center'><font style='color:orange'>(I)</font></div></div></div>","null","$20","$80","0","20","80",""
"","","","FIX","63d40583fbdb78bfb9b0d3a4","bdp_rd","Sun Mar 26 2023 19:02:08 GMT-0400 (Eastern Daylight Time)","174328","html-keyboard-response","173","165933","0.0-5.0-1.56","","null","","<div class='trialBorder'><div class='vertical-center'><img style='vertical-align:center; align:center' src=img/fixation3.jpg></div></div>","null","","","","","",""
"","","","offer","63d40583fbdb78bfb9b0d3a4","bdp_rd","Sun Mar 26 2023 19:02:08 GMT-0400 (Eastern Daylight Time)","174328","html-keyboard-response","174","166768","0.0-5.0-2.56","","835","","<div class='trialBorder'><div class='vertical-center'><img style='vertical-align:center; align:center' src=img/fixation3.jpg></div><div class='cl'><div class='vertical-center'>$20<br>for<br>sure</div></div><div class='cr'><div class='vertical-center'>$37<br>with a<br>50% chance</div></div><div class='respDivL'><div class='vertical-center'>(E)</div></div><div class='respDivR'><div class='vertical-center'>(I)</div></div></div>","E","$20","$37","0","20","37","SURE"
