"trial_type","trial_index","time_elapsed","internal_node_id","subject_id","task","startTime","totalTime","view_history","rt","event","trial","time","trialtype","success","stimulus","key_press","sureOffer","riskyOffer","riskyLeft","sureAmt","riskyAmt","chosen"
"pavlovia","0","3","0.0-0.0","5df5b9f661721940c46c3cd3","bdp_rd","Sun Mar 26 2023 02:23:13 GMT-0400 (Eastern Daylight Time)","161743","","","","","","","","","","","","","","",""
"instructions","1","1664","0.0-1.0","5df5b9f661721940c46c3cd3","bdp_rd","Sun Mar 26 2023 02:23:13 GMT-0400 (Eastern Daylight Time)","161743","[{""page_index"":0,""viewing_time"":1660}]","1660","","","","","","","","","","","","",""
"","","","","5df5b9f661721940c46c3cd3","bdp_rd","Sun Mar 26 2023 02:23:13 GMT-0400 (Eastern Daylight Time)","161743","","","fullscreenenter","2","2770","fullscreenenter","","","","","","","","",""
"fullscreen","2","3747","0.0-2.0","5df5b9f661721940c46c3cd3","bdp_rd","Sun Mar 26 2023 02:23:13 GMT-0400 (Eastern Daylight Time)","161743","","","","","","","true","","","","","","","",""
"instructions","3","46423","0.0-4.0","5df5b9f661721940c46c3cd3","bdp_rd","Sun Mar 26 2023 02:23:13 GMT-0400 (Eastern Daylight Time)","161743","[{""page_index"":0,""viewing_time"":18596},{""page_index"":1,""viewing_time"":10808},{""page_index"":2,""viewing_time"":13271}]","42675","","","","","","","","","","","","",""
"html-keyboard-response","4","46930","0.0-5.0-1.0","5df5b9f661721940c46c3cd3","bdp_rd","Sun Mar 26 2023 02:23:13 GMT-0400 (Eastern Daylight Time)","161743","","null","","","","FIX","","<div class='trialBorder'><div class='vertical-center'><img style='vertical-align:center; align:center' src=img/fixation3.jpg></div></div>","null","","","","","",""
"html-keyboard-response","5","48829","0.0-5.0-2.0","5df5b9f661721940c46c3cd3","bdp_rd","Sun Mar 26 2023 02:23:13 GMT-0400 (Eastern Daylight Time)","161743","","1898","","","","offer","","<div class='trialBorder'><div class='vertical-center'><img style='vertical-align:center; align:center' src=img/fixation3.jpg></div><div class='cl'><div class='vertical-center'>$18<br>for<br>sure</div></div><div class='cr'><div class='vertical-center'>$39<br>with a<br>50% chance</div></div><div class='respDivL'><div class='vertical-center'>(E)</div></div><div class='respDivR'><div class='vertical-center'>(I)</div></div></div>","I","$18","$39","0","18","39","RISKY"
"html-keyboard-response","6","49088","0.0-5.0-3.0","5df5b9f661721940c46c3cd3","bdp_rd","Sun Mar 26 2023 02:23:13 GMT-0400 (Eastern Daylight Time)","161743","","null","","","","offerFB","","<div class='trialBorder'><div class='vertical-center'><img style='vertical-align:center; align:center' src=img/fixation3.jpg></div><div class='cl'><div class='vertical-center'>$18<br>for<br>sure</div></div><div class='cr'><div class='vertical-center'><font style='color:orange'>$39<br>with a<br>50% chance</font></div></div><div class='respDivL'><div class='vertical-center'>(E)</div></div><div class='respDivR'><div class='vertical-center'><font style='color:orange'>(I)</font></div></div></div>","null","$18","$39","0","18","39",""
"html-keyboard-response","7","49590","0.0-5.0-1.1","5df5b9f661721940c46c3cd3","bdp_rd","Sun Mar 26 2023 02:23:13 GMT-0400 (Eastern Daylight Time)","161743","","null","","","","FIX","","<div class='trialBorder'><div class='vertical-center'><img style='vertical-align:center; align:center' src=img/fixation3.jpg></div></div>","null","","","","","",""
"html-keyboard-response","8","51187","0.0-5.0-2.1","5df5b9f661721940c46c3cd3","bdp_rd","Sun Mar 26 2023 02:23:13 GMT-0400 (Eastern Daylight Time)","161743","","1596","","","","offer","","<div class='trialBorder'><div class='vertical-center'><img style='vertical-align:center; align:center' src=img/fixation3.jpg></div><div class='cl'><div class='vertical-center'>$28<br>with a<br>50% chance</div></div><div class='cr'><div class='vertical-center'>$16<br>for<br>sure</div></div><div class='respDivL'><div class='vertical-center'>(E)</div></div><div class='respDivR'><div class='vertical-center'>(I)</div></div></div>","I","$16","$28","1","16","28","SURE"
"html-keyboard-response","9","51447","0.0-5.0-3.1","5df5b9f661721940c46c3cd3","bdp_rd","Sun Mar 26 2023 02:23:13 GMT-0400 (Eastern Daylight Time)","161743","","null","","","","offerFB","","<div class='trialBorder'><div class='vertical-center'><img style='vertical-align:center; align:center' src=img/fixation3.jpg></div><div class='cl'><div class='vertical-center'>$28<br>with a<br>50% chance</div></div><div class='cr'><div class='vertical-center'><font style='color:orange'>$16<br>for<br>sure</font></div></div><div class='respDivL'><div class='vertical-center'>(E)</div></div><div class='respDivR'><div class='vertical-center'><font style='color:orange'>(I)</font></div></div></div>","null","$16","$28","1","16","28",""
"html-keyboard-response","10","51957","0.0-5.0-1.2","5df5b9f661721940c46c3cd3","bdp_rd","Sun Mar 26 2023 02:23:13 GMT-0400 (Eastern Daylight Time)","161743","","null","","","","FIX","","<div class='trialBorder'><div class='vertical-center'><img style='vertical-align:center; align:center' src=img/fixation3.jpg></div></div>","null","","","","","",""
"html-keyboard-response","11","53330","0.0-5.0-2.2","5df5b9f661721940c46c3cd3","bdp_rd","Sun Mar 26 2023 02:23:13 GMT-0400 (Eastern Daylight Time)","161743","","1371","","","","offer","","<div class='trialBorder'><div class='vertical-center'><img style='vertical-align:center; align:center' src=img/fixation3.jpg></div><div class='cl'><div class='vertical-center'>$32<br>with a<br>50% chance</div></div><div class='cr'><div class='vertical-center'>$9<br>for<br>sure</div></div><div class='respDivL'><div class='vertical-center'>(E)</div></div><div class='respDivR'><div class='vertical-center'>(I)</div></div></div>","E","$9","$32","1","9","32","RISKY"
"html-keyboard-response","12","53586","0.0-5.0-3.2","5df5b9f661721940c46c3cd3","bdp_rd","Sun Mar 26 2023 02:23:13 GMT-0400 (Eastern Daylight Time)","161743","","null","","","","offerFB","","<div class='trialBorder'><div class='vertical-center'><img style='vertical-align:center; align:center' src=img/fixation3.jpg></div><div class='cl'><div class='vertical-center'><font style='color:orange'>$32<br>with a<br>50% chance</font></div></div><div class='cr'><div class='vertical-center'>$9<br>for<br>sure</div></div><div class='respDivL'><div class='vertical-center'><font style='color:orange'>(E)</font></div></div><div class='respDivR'><div class='vertical-center'>(I)</div></div></div>","null","$9","$32","1","9","32",""
"html-keyboard-response","13","54088","0.0-5.0-1.3","5df5b9f661721940c46c3cd3","bdp_rd","Sun Mar 26 2023 02:23:13 GMT-0400 (Eastern Daylight Time)","161743","","null","","","","FIX","","<div class='trialBorder'><div class='vertical-center'><img style='vertical-align:center; align:center' src=img/fixation3.jpg></div></div>","null","","","","","",""
"html-keyboard-response","14","54970","0.0-5.0-2.3","5df5b9f661721940c46c3cd3","bdp_rd","Sun Mar 26 2023 02:23:13 GMT-0400 (Eastern Daylight Time)","161743","","880","","","","offer","","<div class='trialBorder'><div class='vertical-center'><img style='vertical-align:center; align:center' src=img/fixation3.jpg></div><div class='cl'><div class='vertical-center'>$43<br>with a<br>50% chance</div></div><div class='cr'><div class='vertical-center'>$17<br>for<br>sure</div></div><div class='respDivL'><div class='vertical-center'>(E)</div></div><div class='respDivR'><div class='vertical-center'>(I)</div></div></div>","E","$17","$43","1","17","43","RISKY"
"html-keyboard-response","15","55221","0.0-5.0-3.3","5df5b9f661721940c46c3cd3","bdp_rd","Sun Mar 26 2023 02:23:13 GMT-0400 (Eastern Daylight Time)","161743","","null","","","","offerFB","","<div class='trialBorder'><div class='vertical-center'><img style='vertical-align:center; align:center' src=img/fixation3.jpg></div><div class='cl'><div class='vertical-center'><font style='color:orange'>$43<br>with a<br>50% chance</font></div></div><div class='cr'><div class='vertical-center'>$17<br>for<br>sure</div></div><div class='respDivL'><div class='vertical-center'><font style='color:orange'>(E)</font></div></div><div class='respDivR'><div class='vertical-center'>(I)</div></div></div>","null","$17","$43","1","17","43",""
"html-keyboard-response","16","55723","0.0-5.0-1.4","5df5b9f661721940c46c3cd3","bdp_rd","Sun Mar 26 2023 02:23:13 GMT-0400 (Eastern Daylight Time)","161743","","null","","","","FIX","","<div class='trialBorder'><div class='vertical-center'><img style='vertical-align:center; align:center' src=img/fixation3.jpg></div></div>","null","","","","","",""
"html-keyboard-response","17","56832","0.0-5.0-2.4","5df5b9f661721940c46c3cd3","bdp_rd","Sun Mar 26 2023 02:23:13 GMT-0400 (Eastern Daylight Time)","161743","","1108","","","","offer","","<div class='trialBorder'><div class='vertical-center'><img style='vertical-align:center; align:center' src=img/fixation3.jpg></div><div class='cl'><div class='vertical-center'>$47<br>with a<br>50% chance</div></div><div class='cr'><div class='vertical-center'>$27<br>for<br>sure</div></div><div class='respDivL'><div class='vertical-center'>(E)</div></div><div class='respDivR'><div class='vertical-center'>(I)</div></div></div>","I","$27","$47","1","27","47","SURE"
"html-keyboard-response","18","57084","0.0-5.0-3.4","5df5b9f661721940c46c3cd3","bdp_rd","Sun Mar 26 2023 02:23:13 GMT-0400 (Eastern Daylight Time)","161743","","null","","","","offerFB","","<div class='trialBorder'><div class='vertical-center'><img style='vertical-align:center; align:center' src=img/fixation3.jpg></div><div class='cl'><div class='vertical-center'>$47<br>with a<br>50% chance</div></div><div class='cr'><div class='vertical-center'><font style='color:orange'>$27<br>for<br>sure</font></div></div><div class='respDivL'><div class='vertical-center'>(E)</div></div><div class='respDivR'><div class='vertical-center'><font style='color:orange'>(I)</font></div></div></div>","null","$27","$47","1","27","47",""
"html-keyboard-response","19","57585","0.0-5.0-1.5","5df5b9f661721940c46c3cd3","bdp_rd","Sun Mar 26 2023 02:23:13 GMT-0400 (Eastern Daylight Time)","161743","","null","","","","FIX","","<div class='trialBorder'><div class='vertical-center'><img style='vertical-align:center; align:center' src=img/fixation3.jpg></div></div>","null","","","","","",""
"html-keyboard-response","20","59226","0.0-5.0-2.5","5df5b9f661721940c46c3cd3","bdp_rd","Sun Mar 26 2023 02:23:13 GMT-0400 (Eastern Daylight Time)","161743","","1639","","","","offer","","<div class='trialBorder'><div class='vertical-center'><img style='vertical-align:center; align:center' src=img/fixation3.jpg></div><div class='cl'><div class='vertical-center'>$8<br>for<br>sure</div></div><div class='cr'><div class='vertical-center'>$23<br>with a<br>50% chance</div></div><div class='respDivL'><div class='vertical-center'>(E)</div></div><div class='respDivR'><div class='vertical-center'>(I)</div></div></div>","I","$8","$23","0","8","23","RISKY"
"html-keyboard-response","21","59484","0.0-5.0-3.5","5df5b9f661721940c46c3cd3","bdp_rd","Sun Mar 26 2023 02:23:13 GMT-0400 (Eastern Daylight Time)","161743","","null","","","","offerFB","","<div class='trialBorder'><div class='vertical-center'><img style='vertical-align:center; align:center' src=img/fixation3.jpg></div><div class='cl'><div class='vertical-center'>$8<br>for<br>sure</div></div><div class='cr'><div class='vertical-center'><font style='color:orange'>$23<br>with a<br>50% chance</font></div></div><div class='respDivL'><div class='vertical-center'>(E)</div></div><div class='respDivR'><div class='vertical-center'><font style='color:orange'>(I)</font></div></div></div>","null","$8","$23","0","8","23",""
"html-keyboard-response","22","59996","0.0-5.0-1.6","5df5b9f661721940c46c3cd3","bdp_rd","Sun Mar 26 2023 02:23:13 GMT-0400 (Eastern Daylight Time)","161743","","null","","","","FIX","","<div class='trialBorder'><div class='vertical-center'><img style='vertical-align:center; align:center' src=img/fixation3.jpg></div></div>","null","","","","","",""
"html-keyboard-response","23","61116","0.0-5.0-2.6","5df5b9f661721940c46c3cd3","bdp_rd","Sun Mar 26 2023 02:23:13 GMT-0400 (Eastern Daylight Time)","161743","","1118","","","","offer","","<div class='trialBorder'><div class='vertical-center'><img style='vertical-align:center; align:center' src=img/fixation3.jpg></div><div class='cl'><div class='vertical-center'>$25<br>with a<br>50% chance</div></div><div class='cr'><div class='vertical-center'>$21<br>for<br>sure</div></div><div class='respDivL'><div class='vertical-center'>(E)</div></div><div class='respDivR'><div class='vertical-center'>(I)</div></div></div>","I","$21","$25","1","21","25","SURE"
"html-keyboard-response","24","61368","0.0-5.0-3.6","5df5b9f661721940c46c3cd3","bdp_rd","Sun Mar 26 2023 02:23:13 GMT-0400 (Eastern Daylight Time)","161743","","null","","","","offerFB","","<div class='trialBorder'><div class='vertical-center'><img style='vertical-align:center; align:center' src=img/fixation3.jpg></div><div class='cl'><div class='vertical-center'>$25<br>with a<br>50% chance</div></div><div class='cr'><div class='vertical-center'><font style='color:orange'>$21<br>for<br>sure</font></div></div><div class='respDivL'><div class='vertical-center'>(E)</div></div><div class='respDivR'><div class='vertical-center'><font style='color:orange'>(I)</font></div></div></div>","null","$21","$25","1","21","25",""
"html-keyboard-response","25","61878","0.0-5.0-1.7","5df5b9f661721940c46c3cd3","bdp_rd","Sun Mar 26 2023 02:23:13 GMT-0400 (Eastern Daylight Time)","161743","","null","","","","FIX","","<div class='trialBorder'><div class='vertical-center'><img style='vertical-align:center; align:center' src=img/fixation3.jpg></div></div>","null","","","","","",""
"html-keyboard-response","26","62842","0.0-5.0-2.7","5df5b9f661721940c46c3cd3","bdp_rd","Sun Mar 26 2023 02:23:13 GMT-0400 (Eastern Daylight Time)","161743","","963","","","","offer","","<div class='trialBorder'><div class='vertical-center'><img style='vertical-align:center; align:center' src=img/fixation3.jpg></div><div class='cl'><div class='vertical-center'>$22<br>for<br>sure</div></div><div class='cr'><div class='vertical-center'>$42<br>with a<br>50% chance</div></div><div class='respDivL'><div class='vertical-center'>(E)</div></div><div class='respDivR'><div class='vertical-center'>(I)</div></div></div>","E","$22","$42","0","22","42","SURE"
"html-keyboard-response","27","63095","0.0-5.0-3.7","5df5b9f661721940c46c3cd3","bdp_rd","Sun Mar 26 2023 02:23:13 GMT-0400 (Eastern Daylight Time)","161743","","null","","","","offerFB","","<div class='trialBorder'><div class='vertical-center'><img style='vertical-align:center; align:center' src=img/fixation3.jpg></div><div class='cl'><div class='vertical-center'><font style='color:orange'>$22<br>for<br>sure</font></div></div><div class='cr'><div class='vertical-center'>$42<br>with a<br>50% chance</div></div><div class='respDivL'><div class='vertical-center'><font style='color:orange'>(E)</font></div></div><div class='respDivR'><div class='vertical-center'>(I)</div></div></div>","null","$22","$42","0","22","42",""
"html-keyboard-response","28","63597","0.0-5.0-1.8","5df5b9f661721940c46c3cd3","bdp_rd","Sun Mar 26 2023 02:23:13 GMT-0400 (Eastern Daylight Time)","161743","","null","","","","FIX","","<div class='trialBorder'><div class='vertical-center'><img style='vertical-align:center; align:center' src=img/fixation3.jpg></div></div>","null","","","","","",""
"html-keyboard-response","29","64604","0.0-5.0-2.8","5df5b9f661721940c46c3cd3","bdp_rd","Sun Mar 26 2023 02:23:13 GMT-0400 (Eastern Daylight Time)","161743","","1007","","","","offer","","<div class='trialBorder'><div class='vertical-center'><img style='vertical-align:center; align:center' src=img/fixation3.jpg></div><div class='cl'><div class='vertical-center'>$63<br>for<br>sure</div></div><div class='cr'><div class='vertical-center'>$100<br>with a<br>50% chance</div></div><div class='respDivL'><div class='vertical-center'>(E)</div></div><div class='respDivR'><div class='vertical-center'>(I)</div></div></div>","I","$63","$100","0","63","10","RISKY"
"html-keyboard-response","30","64857","0.0-5.0-3.8","5df5b9f661721940c46c3cd3","bdp_rd","Sun Mar 26 2023 02:23:13 GMT-0400 (Eastern Daylight Time)","161743","","null","","","","offerFB","","<div class='trialBorder'><div class='vertical-center'><img style='vertical-align:center; align:center' src=img/fixation3.jpg></div><div class='cl'><div class='vertical-center'>$63<br>for<br>sure</div></div><div class='cr'><div class='vertical-center'><font style='color:orange'>$100<br>with a<br>50% chance</font></div></div><div class='respDivL'><div class='vertical-center'>(E)</div></div><div class='respDivR'><div class='vertical-center'><font style='color:orange'>(I)</font></div></div></div>","null","$63","$100","0","63","10",""
"html-keyboard-response","31","65360","0.0-5.0-1.9","5df5b9f661721940c46c3cd3","bdp_rd","Sun Mar 26 2023 02:23:13 GMT-0400 (Eastern Daylight Time)","161743","","null","","","","FIX","","<div class='trialBorder'><div class='vertical-center'><img style='vertical-align:center; align:center' src=img/fixation3.jpg></div></div>","null","","","","","",""
"html-keyboard-response","32","66115","0.0-5.0-2.9","5df5b9f661721940c46c3cd3","bdp_rd","Sun Mar 26 2023 02:23:13 GMT-0400 (Eastern Daylight Time)","161743","","755","","","","offer","","<div class='trialBorder'><div class='vertical-center'><img style='vertical-align:center; align:center' src=img/fixation3.jpg></div><div class='cl'><div class='vertical-center'>$5<br>for<br>sure</div></div><div class='cr'><div class='vertical-center'>$50<br>with a<br>50% chance</div></div><div class='respDivL'><div class='vertical-center'>(E)</div></div><div class='respDivR'><div class='vertical-center'>(I)</div></div></div>","I","$5","$50","0","5","50","RISKY"
"html-keyboard-response","33","66371","0.0-5.0-3.9","5df5b9f661721940c46c3cd3","bdp_rd","Sun Mar 26 2023 02:23:13 GMT-0400 (Eastern Daylight Time)","161743","","null","","","","offerFB","","<div class='trialBorder'><div class='vertical-center'><img style='vertical-align:center; align:center' src=img/fixation3.jpg></div><div class='cl'><div class='vertical-center'>$5<br>for<br>sure</div></div><div class='cr'><div class='vertical-center'><font style='color:orange'>$50<br>with a<br>50% chance</font></div></div><div class='respDivL'><div class='vertical-center'>(E)</div></div><div class='respDivR'><div class='vertical-center'><font style='color:orange'>(I)</font></div></div></div>","null","$5","$50","0","5","50",""
"html-keyboard-response","34","66874","0.0-5.0-1.10","5df5b9f661721940c46c3cd3","bdp_rd","Sun Mar 26 2023 02:23:13 GMT-0400 (Eastern Daylight Time)","161743","","null","","","","FIX","","<div class='trialBorder'><div class='vertical-center'><img style='vertical-align:center; align:center' src=img/fixation3.jpg></div></div>","null","","","","","",""
"html-keyboard-response","35","67904","0.0-5.0-2.10","5df5b9f661721940c46c3cd3","bdp_rd","Sun Mar 26 2023 02:23:13 GMT-0400 (Eastern Daylight Time)","161743","","1029","","","","offer","","<div class='trialBorder'><div class='vertical-center'><img style='vertical-align:center; align:center' src=img/fixation3.jpg></div><div class='cl'><div class='vertical-center'>$20<br>for<br>sure</div></div><div class='cr'><div class='vertical-center'>$80<br>with a<br>50% chance</div></div><div class='respDivL'><div class='vertical-center'>(E)</div></div><div class='respDivR'><div class='vertical-center'>(I)</div></div></div>","I","$20","$80","0","20","80","RISKY"
"html-keyboard-response","36","68160","0.0-5.0-3.10","5df5b9f661721940c46c3cd3","bdp_rd","Sun Mar 26 2023 02:23:13 GMT-0400 (Eastern Daylight Time)","161743","","null","","","","offerFB","","<div class='trialBorder'><div class='vertical-center'><img style='vertical-align:center; align:center' src=img/fixation3.jpg></div><div class='cl'><div class='vertical-center'>$20<br>for<br>sure</div></div><div class='cr'><div class='vertical-center'><font style='color:orange'>$80<br>with a<br>50% chance</font></div></div><div class='respDivL'><div class='vertical-center'>(E)</div></div><div class='respDivR'><div class='vertical-center'><font style='color:orange'>(I)</font></div></div></div>","null","$20","$80","0","20","80",""
"html-keyboard-response","37","68671","0.0-5.0-1.11","5df5b9f661721940c46c3cd3","bdp_rd","Sun Mar 26 2023 02:23:13 GMT-0400 (Eastern Daylight Time)","161743","","null","","","","FIX","","<div class='trialBorder'><div class='vertical-center'><img style='vertical-align:center; align:center' src=img/fixation3.jpg></div></div>","null","","","","","",""
"html-keyboard-response","38","69521","0.0-5.0-2.11","5df5b9f661721940c46c3cd3","bdp_rd","Sun Mar 26 2023 02:23:13 GMT-0400 (Eastern Daylight Time)","161743","","849","","","","offer","","<div class='trialBorder'><div class='vertical-center'><img style='vertical-align:center; align:center' src=img/fixation3.jpg></div><div class='cl'><div class='vertical-center'>$7<br>for<br>sure</div></div><div class='cr'><div class='vertical-center'>$71<br>with a<br>50% chance</div></div><div class='respDivL'><div class='vertical-center'>(E)</div></div><div class='respDivR'><div class='vertical-center'>(I)</div></div></div>","I","$7","$71","0","7","71","RISKY"
"html-keyboard-response","39","69780","0.0-5.0-3.11","5df5b9f661721940c46c3cd3","bdp_rd","Sun Mar 26 2023 02:23:13 GMT-0400 (Eastern Daylight Time)","161743","","null","","","","offerFB","","<div class='trialBorder'><div class='vertical-center'><img style='vertical-align:center; align:center' src=img/fixation3.jpg></div><div class='cl'><div class='vertical-center'>$7<br>for<br>sure</div></div><div class='cr'><div class='vertical-center'><font style='color:orange'>$71<br>with a<br>50% chance</font></div></div><div class='respDivL'><div class='vertical-center'>(E)</div></div><div class='respDivR'><div class='vertical-center'><font style='color:orange'>(I)</font></div></div></div>","null","$7","$71","0","7","71",""
"html-keyboard-response","40","70284","0.0-5.0-1.12","5df5b9f661721940c46c3cd3","bdp_rd","Sun Mar 26 2023 02:23:13 GMT-0400 (Eastern Daylight Time)","161743","","null","","","","FIX","","<div class='trialBorder'><div class='vertical-center'><img style='vertical-align:center; align:center' src=img/fixation3.jpg></div></div>","null","","","","","",""
"html-keyboard-response","41","71042","0.0-5.0-2.12","5df5b9f661721940c46c3cd3","bdp_rd","Sun Mar 26 2023 02:23:13 GMT-0400 (Eastern Daylight Time)","161743","","756","","","","offer","","<div class='trialBorder'><div class='vertical-center'><img style='vertical-align:center; align:center' src=img/fixation3.jpg></div><div class='cl'><div class='vertical-center'>$40<br>with a<br>50% chance</div></div><div class='cr'><div class='vertical-center'>$10<br>for<br>sure</div></div><div class='respDivL'><div class='vertical-center'>(E)</div></div><div class='respDivR'><div class='vertical-center'>(I)</div></div></div>","E","$10","$40","1","10","40","RISKY"
"html-keyboard-response","42","71299","0.0-5.0-3.12","5df5b9f661721940c46c3cd3","bdp_rd","Sun Mar 26 2023 02:23:13 GMT-0400 (Eastern Daylight Time)","161743","","null","","","","offerFB","","<div class='trialBorder'><div class='vertical-center'><img style='vertical-align:center; align:center' src=img/fixation3.jpg></div><div class='cl'><div class='vertical-center'><font style='color:orange'>$40<br>with a<br>50% chance</font></div></div><div class='cr'><div class='vertical-center'>$10<br>for<br>sure</div></div><div class='respDivL'><div class='vertical-center'><font style='color:orange'>(E)</font></div></div><div class='respDivR'><div class='vertical-center'>(I)</div></div></div>","null","$10","$40","1","10","40",""
"html-keyboard-response","43","71801","0.0-5.0-1.13","5df5b9f661721940c46c3cd3","bdp_rd","Sun Mar 26 2023 02:23:13 GMT-0400 (Eastern Daylight Time)","161743","","null","","","","FIX","","<div class='trialBorder'><div class='vertical-center'><img style='vertical-align:center; align:center' src=img/fixation3.jpg></div></div>","null","","","","","",""
"html-keyboard-response","44","73117","0.0-5.0-2.13","5df5b9f661721940c46c3cd3","bdp_rd","Sun Mar 26 2023 02:23:13 GMT-0400 (Eastern Daylight Time)","161743","","1314","","","","offer","","<div class='trialBorder'><div class='vertical-center'><img style='vertical-align:center; align:center' src=img/fixation3.jpg></div><div class='cl'><div class='vertical-center'>$37<br>for<br>sure</div></div><div class='cr'><div class='vertical-center'>$44<br>with a<br>50% chance</div></div><div class='respDivL'><div class='vertical-center'>(E)</div></div><div class='respDivR'><div class='vertical-center'>(I)</div></div></div>","E","$37","$44","0","37","44","SURE"
"html-keyboard-response","45","73375","0.0-5.0-3.13","5df5b9f661721940c46c3cd3","bdp_rd","Sun Mar 26 2023 02:23:13 GMT-0400 (Eastern Daylight Time)","161743","","null","","","","offerFB","","<div class='trialBorder'><div class='vertical-center'><img style='vertical-align:center; align:center' src=img/fixation3.jpg></div><div class='cl'><div class='vertical-center'><font style='color:orange'>$37<br>for<br>sure</font></div></div><div class='cr'><div class='vertical-center'>$44<br>with a<br>50% chance</div></div><div class='respDivL'><div class='vertical-center'><font style='color:orange'>(E)</font></div></div><div class='respDivR'><div class='vertical-center'>(I)</div></div></div>","null","$37","$44","0","37","44",""
"html-keyboard-response","46","73885","0.0-5.0-1.14","5df5b9f661721940c46c3cd3","bdp_rd","Sun Mar 26 2023 02:23:13 GMT-0400 (Eastern Daylight Time)","161743","","null","","","","FIX","","<div class='trialBorder'><div class='vertical-center'><img style='vertical-align:center; align:center' src=img/fixation3.jpg></div></div>","null","","","","","",""
"html-keyboard-response","47","75088","0.0-5.0-2.14","5df5b9f661721940c46c3cd3","bdp_rd","Sun Mar 26 2023 02:23:13 GMT-0400 (Eastern Daylight Time)","161743","","1202","","","","offer","","<div class='trialBorder'><div class='vertical-center'><img style='vertical-align:center; align:center' src=img/fixation3.jpg></div><div class='cl'><div class='vertical-center'>$25<br>for<br>sure</div></div><div class='cr'><div class='vertical-center'>$54<br>with a<br>50% chance</div></div><div class='respDivL'><div class='vertical-center'>(E)</div></div><div class='respDivR'><div class='vertical-center'>(I)</div></div></div>","E","$25","$54","0","25","54","SURE"
"html-keyboard-response","48","75342","0.0-5.0-3.14","5df5b9f661721940c46c3cd3","bdp_rd","Sun Mar 26 2023 02:23:13 GMT-0400 (Eastern Daylight Time)","161743","","null","","","","offerFB","","<div class='trialBorder'><div class='vertical-center'><img style='vertical-align:center; align:center' src=img/fixation3.jpg></div><div class='cl'><div class='vertical-center'><font style='color:orange'>$25<br>for<br>sure</font></div></div><div class='cr'><div class='vertical-center'>$54<br>with a<br>50% chance</div></div><div class='respDivL'><div class='vertical-center'><font style='color:orange'>(E)</font></div></div><div class='respDivR'><div class='vertical-center'>(I)</div></div></div>","null","$25","$54","0","25","54",""
"html-keyboard-response","49","75853","0.0-5.0-1.15","5df5b9f661721940c46c3cd3","bdp_rd","Sun Mar 26 2023 02:23:13 GMT-0400 (Eastern Daylight Time)","161743","","null","","","","FIX","","<div class='trialBorder'><div class='vertical-center'><img style='vertical-align:center; align:center' src=img/fixation3.jpg></div></div>","null","","","","","",""
"html-keyboard-response","50","76951","0.0-5.0-2.15","5df5b9f661721940c46c3cd3","bdp_rd","Sun Mar 26 2023 02:23:13 GMT-0400 (Eastern Daylight Time)","161743","","1097","","","","offer","","<div class='trialBorder'><div class='vertical-center'><img style='vertical-align:center; align:center' src=img/fixation3.jpg></div><div class='cl'><div class='vertical-center'>$46<br>with a<br>50% chance</div></div><div class='cr'><div class='vertical-center'>$29<br>for<br>sure</div></div><div class='respDivL'><div class='vertical-center'>(E)</div></div><div class='respDivR'><div class='vertical-center'>(I)</div></div></div>","I","$29","$46","1","29","46","SURE"
"html-keyboard-response","51","77204","0.0-5.0-3.15","5df5b9f661721940c46c3cd3","bdp_rd","Sun Mar 26 2023 02:23:13 GMT-0400 (Eastern Daylight Time)","161743","","null","","","","offerFB","","<div class='trialBorder'><div class='vertical-center'><img style='vertical-align:center; align:center' src=img/fixation3.jpg></div><div class='cl'><div class='vertical-center'>$46<br>with a<br>50% chance</div></div><div class='cr'><div class='vertical-center'><font style='color:orange'>$29<br>for<br>sure</font></div></div><div class='respDivL'><div class='vertical-center'>(E)</div></div><div class='respDivR'><div class='vertical-center'><font style='color:orange'>(I)</font></div></div></div>","null","$29","$46","1","29","46",""
"html-keyboard-response","52","77706","0.0-5.0-1.16","5df5b9f661721940c46c3cd3","bdp_rd","Sun Mar 26 2023 02:23:13 GMT-0400 (Eastern Daylight Time)","161743","","null","","","","FIX","","<div class='trialBorder'><div class='vertical-center'><img style='vertical-align:center; align:center' src=img/fixation3.jpg></div></div>","null","","","","","",""
"html-keyboard-response","53","78590","0.0-5.0-2.16","5df5b9f661721940c46c3cd3","bdp_rd","Sun Mar 26 2023 02:23:13 GMT-0400 (Eastern Daylight Time)","161743","","883","","","","offer","","<div class='trialBorder'><div class='vertical-center'><img style='vertical-align:center; align:center' src=img/fixation3.jpg></div><div class='cl'><div class='vertical-center'>$31<br>for<br>sure</div></div><div class='cr'><div class='vertical-center'>$78<br>with a<br>50% chance</div></div><div class='respDivL'><div class='vertical-center'>(E)</div></div><div class='respDivR'><div class='vertical-center'>(I)</div></div></div>","E","$31","$78","0","31","78","SURE"
"html-keyboard-response","54","78843","0.0-5.0-3.16","5df5b9f661721940c46c3cd3","bdp_rd","Sun Mar 26 2023 02:23:13 GMT-0400 (Eastern Daylight Time)","161743","","null","","","","offerFB","","<div class='trialBorder'><div class='vertical-center'><img style='vertical-align:center; align:center' src=img/fixation3.jpg></div><div class='cl'><div class='vertical-center'><font style='color:orange'>$31<br>for<br>sure</font></div></div><div class='cr'><div class='vertical-center'>$78<br>with a<br>50% chance</div></div><div class='respDivL'><div class='vertical-center'><font style='color:orange'>(E)</font></div></div><div class='respDivR'><div class='vertical-center'>(I)</div></div></div>","null","$31","$78","0","31","78",""
"html-keyboard-response","55","79346","0.0-5.0-1.17","5df5b9f661721940c46c3cd3","bdp_rd","Sun Mar 26 2023 02:23:13 GMT-0400 (Eastern Daylight Time)","161743","","null","","","","FIX","","<div class='trialBorder'><div class='vertical-center'><img style='vertical-align:center; align:center' src=img/fixation3.jpg></div></div>","null","","","","","",""
"html-keyboard-response","56","80690","0.0-5.0-2.17","5df5b9f661721940c46c3cd3","bdp_rd","Sun Mar 26 2023 02:23:13 GMT-0400 (Eastern Daylight Time)","161743","","1343","","","","offer","","<div class='trialBorder'><div class='vertical-center'><img style='vertical-align:center; align:center' src=img/fixation3.jpg></div><div class='cl'><div class='vertical-center'>$1<br>for<br>sure</div></div><div class='cr'><div class='vertical-center'>$33<br>with a<br>50% chance</div></div><div class='respDivL'><div class='vertical-center'>(E)</div></div><div class='respDivR'><div class='vertical-center'>(I)</div></div></div>","I","$1","$33","0","1","33","RISKY"
"html-keyboard-response","57","80943","0.0-5.0-3.17","5df5b9f661721940c46c3cd3","bdp_rd","Sun Mar 26 2023 02:23:13 GMT-0400 (Eastern Daylight Time)","161743","","null","","","","offerFB","","<div class='trialBorder'><div class='vertical-center'><img style='vertical-align:center; align:center' src=img/fixation3.jpg></div><div class='cl'><div class='vertical-center'>$1<br>for<br>sure</div></div><div class='cr'><div class='vertical-center'><font style='color:orange'>$33<br>with a<br>50% chance</font></div></div><div class='respDivL'><div class='vertical-center'>(E)</div></div><div class='respDivR'><div class='vertical-center'><font style='color:orange'>(I)</font></div></div></div>","null","$1","$33","0","1","33",""
"html-keyboard-response","58","81448","0.0-5.0-1.18","5df5b9f661721940c46c3cd3","bdp_rd","Sun Mar 26 2023 02:23:13 GMT-0400 (Eastern Daylight Time)","161743","","null","","","","FIX","","<div class='trialBorder'><div class='vertical-center'><img style='vertical-align:center; align:center' src=img/fixation3.jpg></div></div>","null","","","","","",""
"html-keyboard-response","59","82233","0.0-5.0-2.18","5df5b9f661721940c46c3cd3","bdp_rd","Sun Mar 26 2023 02:23:13 GMT-0400 (Eastern Daylight Time)","161743","","784","","","","offer","","<div class='trialBorder'><div class='vertical-center'><img style='vertical-align:center; align:center' src=img/fixation3.jpg></div><div class='cl'><div class='vertical-center'>$6<br>for<br>sure</div></div><div class='cr'><div class='vertical-center'>$15<br>with a<br>50% chance</div></div><div class='respDivL'><div class='vertical-center'>(E)</div></div><div class='respDivR'><div class='vertical-center'>(I)</div></div></div>","I","$6","$15","0","6","15","RISKY"
"html-keyboard-response","60","82486","0.0-5.0-3.18","5df5b9f661721940c46c3cd3","bdp_rd","Sun Mar 26 2023 02:23:13 GMT-0400 (Eastern Daylight Time)","161743","","null","","","","offerFB","","<div class='trialBorder'><div class='vertical-center'><img style='vertical-align:center; align:center' src=img/fixation3.jpg></div><div class='cl'><div class='vertical-center'>$6<br>for<br>sure</div></div><div class='cr'><div class='vertical-center'><font style='color:orange'>$15<br>with a<br>50% chance</font></div></div><div class='respDivL'><div class='vertical-center'>(E)</div></div><div class='respDivR'><div class='vertical-center'><font style='color:orange'>(I)</font></div></div></div>","null","$6","$15","0","6","15",""
"html-keyboard-response","61","82989","0.0-5.0-1.19","5df5b9f661721940c46c3cd3","bdp_rd","Sun Mar 26 2023 02:23:13 GMT-0400 (Eastern Daylight Time)","161743","","null","","","","FIX","","<div class='trialBorder'><div class='vertical-center'><img style='vertical-align:center; align:center' src=img/fixation3.jpg></div></div>","null","","","","","",""
"html-keyboard-response","62","84105","0.0-5.0-2.19","5df5b9f661721940c46c3cd3","bdp_rd","Sun Mar 26 2023 02:23:13 GMT-0400 (Eastern Daylight Time)","161743","","1115","","","","offer","","<div class='trialBorder'><div class='vertical-center'><img style='vertical-align:center; align:center' src=img/fixation3.jpg></div><div class='cl'><div class='vertical-center'>$21<br>with a<br>50% chance</div></div><div class='cr'><div class='vertical-center'>$2<br>for<br>sure</div></div><div class='respDivL'><div class='vertical-center'>(E)</div></div><div class='respDivR'><div class='vertical-center'>(I)</div></div></div>","E","$2","$21","1","2","21","RISKY"
"html-keyboard-response","63","84362","0.0-5.0-3.19","5df5b9f661721940c46c3cd3","bdp_rd","Sun Mar 26 2023 02:23:13 GMT-0400 (Eastern Daylight Time)","161743","","null","","","","offerFB","","<div class='trialBorder'><div class='vertical-center'><img style='vertical-align:center; align:center' src=img/fixation3.jpg></div><div class='cl'><div class='vertical-center'><font style='color:orange'>$21<br>with a<br>50% chance</font></div></div><div class='cr'><div class='vertical-center'>$2<br>for<br>sure</div></div><div class='respDivL'><div class='vertical-center'><font style='color:orange'>(E)</font></div></div><div class='respDivR'><div class='vertical-center'>(I)</div></div></div>","null","$2","$21","1","2","21",""
"html-keyboard-response","64","84866","0.0-5.0-1.20","5df5b9f661721940c46c3cd3","bdp_rd","Sun Mar 26 2023 02:23:13 GMT-0400 (Eastern Daylight Time)","161743","","null","","","","FIX","","<div class='trialBorder'><div class='vertical-center'><img style='vertical-align:center; align:center' src=img/fixation3.jpg></div></div>","null","","","","","",""
"html-keyboard-response","65","85917","0.0-5.0-2.20","5df5b9f661721940c46c3cd3","bdp_rd","Sun Mar 26 2023 02:23:13 GMT-0400 (Eastern Daylight Time)","161743","","1051","","","","offer","","<div class='trialBorder'><div class='vertical-center'><img style='vertical-align:center; align:center' src=img/fixation3.jpg></div><div class='cl'><div class='vertical-center'>$37<br>with a<br>50% chance</div></div><div class='cr'><div class='vertical-center'>$20<br>for<br>sure</div></div><div class='respDivL'><div class='vertical-center'>(E)</div></div><div class='respDivR'><div class='vertical-center'>(I)</div></div></div>","E","$20","$37","1","20","37","RISKY"
"html-keyboard-response","66","86173","0.0-5.0-3.20","5df5b9f661721940c46c3cd3","bdp_rd","Sun Mar 26 2023 02:23:13 GMT-0400 (Eastern Daylight Time)","161743","","null","","","","offerFB","","<div class='trialBorder'><div class='vertical-center'><img style='vertical-align:center; align:center' src=img/fixation3.jpg></div><div class='cl'><div class='vertical-center'><font style='color:orange'>$37<br>with a<br>50% chance</font></div></div><div class='cr'><div class='vertical-center'>$20<br>for<br>sure</div></div><div class='respDivL'><div class='vertical-center'><font style='color:orange'>(E)</font></div></div><div class='respDivR'><div class='vertical-center'>(I)</div></div></div>","null","$20","$37","1","20","37",""
"html-keyboard-response","67","86684","0.0-5.0-1.21","5df5b9f661721940c46c3cd3","bdp_rd","Sun Mar 26 2023 02:23:13 GMT-0400 (Eastern Daylight Time)","161743","","null","","","","FIX","","<div class='trialBorder'><div class='vertical-center'><img style='vertical-align:center; align:center' src=img/fixation3.jpg></div></div>","null","","","","","",""
"html-keyboard-response","68","87714","0.0-5.0-2.21","5df5b9f661721940c46c3cd3","bdp_rd","Sun Mar 26 2023 02:23:13 GMT-0400 (Eastern Daylight Time)","161743","","1028","","","","offer","","<div class='trialBorder'><div class='vertical-center'><img style='vertical-align:center; align:center' src=img/fixation3.jpg></div><div class='cl'><div class='vertical-center'>$12<br>for<br>sure</div></div><div class='cr'><div class='vertical-center'>$27<br>with a<br>50% chance</div></div><div class='respDivL'><div class='vertical-center'>(E)</div></div><div class='respDivR'><div class='vertical-center'>(I)</div></div></div>","I","$12","$27","0","12","27","RISKY"
"html-keyboard-response","69","87970","0.0-5.0-3.21","5df5b9f661721940c46c3cd3","bdp_rd","Sun Mar 26 2023 02:23:13 GMT-0400 (Eastern Daylight Time)","161743","","null","","","","offerFB","","<div class='trialBorder'><div class='vertical-center'><img style='vertical-align:center; align:center' src=img/fixation3.jpg></div><div class='cl'><div class='vertical-center'>$12<br>for<br>sure</div></div><div class='cr'><div class='vertical-center'><font style='color:orange'>$27<br>with a<br>50% chance</font></div></div><div class='respDivL'><div class='vertical-center'>(E)</div></div><div class='respDivR'><div class='vertical-center'><font style='color:orange'>(I)</font></div></div></div>","null","$12","$27","0","12","27",""
"html-keyboard-response","70","88479","0.0-5.0-1.22","5df5b9f661721940c46c3cd3","bdp_rd","Sun Mar 26 2023 02:23:13 GMT-0400 (Eastern Daylight Time)","161743","","null","","","","FIX","","<div class='trialBorder'><div class='vertical-center'><img style='vertical-align:center; align:center' src=img/fixation3.jpg></div></div>","null","","","","","",""
"html-keyboard-response","71","89647","0.0-5.0-2.22","5df5b9f661721940c46c3cd3","bdp_rd","Sun Mar 26 2023 02:23:13 GMT-0400 (Eastern Daylight Time)","161743","","1167","","","","offer","","<div class='trialBorder'><div class='vertical-center'><img style='vertical-align:center; align:center' src=img/fixation3.jpg></div><div class='cl'><div class='vertical-center'>$68<br>with a<br>50% chance</div></div><div class='cr'><div class='vertical-center'>$30<br>for<br>sure</div></div><div class='respDivL'><div class='vertical-center'>(E)</div></div><div class='respDivR'><div class='vertical-center'>(I)</div></div></div>","E","$30","$68","1","30","68","RISKY"
"html-keyboard-response","72","89901","0.0-5.0-3.22","5df5b9f661721940c46c3cd3","bdp_rd","Sun Mar 26 2023 02:23:13 GMT-0400 (Eastern Daylight Time)","161743","","null","","","","offerFB","","<div class='trialBorder'><div class='vertical-center'><img style='vertical-align:center; align:center' src=img/fixation3.jpg></div><div class='cl'><div class='vertical-center'><font style='color:orange'>$68<br>with a<br>50% chance</font></div></div><div class='cr'><div class='vertical-center'>$30<br>for<br>sure</div></div><div class='respDivL'><div class='vertical-center'><font style='color:orange'>(E)</font></div></div><div class='respDivR'><div class='vertical-center'>(I)</div></div></div>","null","$30","$68","1","30","68",""
"html-keyboard-response","73","90403","0.0-5.0-1.23","5df5b9f661721940c46c3cd3","bdp_rd","Sun Mar 26 2023 02:23:13 GMT-0400 (Eastern Daylight Time)","161743","","null","","","","FIX","","<div class='trialBorder'><div class='vertical-center'><img style='vertical-align:center; align:center' src=img/fixation3.jpg></div></div>","null","","","","","",""
"html-keyboard-response","74","91100","0.0-5.0-2.23","5df5b9f661721940c46c3cd3","bdp_rd","Sun Mar 26 2023 02:23:13 GMT-0400 (Eastern Daylight Time)","161743","","696","","","","offer","","<div class='trialBorder'><div class='vertical-center'><img style='vertical-align:center; align:center' src=img/fixation3.jpg></div><div class='cl'><div class='vertical-center'>$6<br>for<br>sure</div></div><div class='cr'><div class='vertical-center'>$13<br>with a<br>50% chance</div></div><div class='respDivL'><div class='vertical-center'>(E)</div></div><div class='respDivR'><div class='vertical-center'>(I)</div></div></div>","I","$6","$13","0","6","13","RISKY"
"html-keyboard-response","75","91354","0.0-5.0-3.23","5df5b9f661721940c46c3cd3","bdp_rd","Sun Mar 26 2023 02:23:13 GMT-0400 (Eastern Daylight Time)","161743","","null","","","","offerFB","","<div class='trialBorder'><div class='vertical-center'><img style='vertical-align:center; align:center' src=img/fixation3.jpg></div><div class='cl'><div class='vertical-center'>$6<br>for<br>sure</div></div><div class='cr'><div class='vertical-center'><font style='color:orange'>$13<br>with a<br>50% chance</font></div></div><div class='respDivL'><div class='vertical-center'>(E)</div></div><div class='respDivR'><div class='vertical-center'><font style='color:orange'>(I)</font></div></div></div>","null","$6","$13","0","6","13",""
"html-keyboard-response","76","91858","0.0-5.0-1.24","5df5b9f661721940c46c3cd3","bdp_rd","Sun Mar 26 2023 02:23:13 GMT-0400 (Eastern Daylight Time)","161743","","null","","","","FIX","","<div class='trialBorder'><div class='vertical-center'><img style='vertical-align:center; align:center' src=img/fixation3.jpg></div></div>","null","","","","","",""
"html-keyboard-response","77","94012","0.0-5.0-2.24","5df5b9f661721940c46c3cd3","bdp_rd","Sun Mar 26 2023 02:23:13 GMT-0400 (Eastern Daylight Time)","161743","","2152","","","","offer","","<div class='trialBorder'><div class='vertical-center'><img style='vertical-align:center; align:center' src=img/fixation3.jpg></div><div class='cl'><div class='vertical-center'>$92<br>with a<br>50% chance</div></div><div class='cr'><div class='vertical-center'>$26<br>for<br>sure</div></div><div class='respDivL'><div class='vertical-center'>(E)</div></div><div class='respDivR'><div class='vertical-center'>(I)</div></div></div>","E","$26","$92","1","26","92","RISKY"
"html-keyboard-response","78","94268","0.0-5.0-3.24","5df5b9f661721940c46c3cd3","bdp_rd","Sun Mar 26 2023 02:23:13 GMT-0400 (Eastern Daylight Time)","161743","","null","","","","offerFB","","<div class='trialBorder'><div class='vertical-center'><img style='vertical-align:center; align:center' src=img/fixation3.jpg></div><div class='cl'><div class='vertical-center'><font style='color:orange'>$92<br>with a<br>50% chance</font></div></div><div class='cr'><div class='vertical-center'>$26<br>for<br>sure</div></div><div class='respDivL'><div class='vertical-center'><font style='color:orange'>(E)</font></div></div><div class='respDivR'><div class='vertical-center'>(I)</div></div></div>","null","$26","$92","1","26","92",""
"html-keyboard-response","79","94771","0.0-5.0-1.25","5df5b9f661721940c46c3cd3","bdp_rd","Sun Mar 26 2023 02:23:13 GMT-0400 (Eastern Daylight Time)","161743","","null","","","","FIX","","<div class='trialBorder'><div class='vertical-center'><img style='vertical-align:center; align:center' src=img/fixation3.jpg></div></div>","null","","","","","",""
"html-keyboard-response","80","95774","0.0-5.0-2.25","5df5b9f661721940c46c3cd3","bdp_rd","Sun Mar 26 2023 02:23:13 GMT-0400 (Eastern Daylight Time)","161743","","1001","","","","offer","","<div class='trialBorder'><div class='vertical-center'><img style='vertical-align:center; align:center' src=img/fixation3.jpg></div><div class='cl'><div class='vertical-center'>$48<br>with a<br>50% chance</div></div><div class='cr'><div class='vertical-center'>$34<br>for<br>sure</div></div><div class='respDivL'><div class='vertical-center'>(E)</div></div><div class='respDivR'><div class='vertical-center'>(I)</div></div></div>","I","$34","$48","1","34","48","SURE"
"html-keyboard-response","81","96029","0.0-5.0-3.25","5df5b9f661721940c46c3cd3","bdp_rd","Sun Mar 26 2023 02:23:13 GMT-0400 (Eastern Daylight Time)","161743","","null","","","","offerFB","","<div class='trialBorder'><div class='vertical-center'><img style='vertical-align:center; align:center' src=img/fixation3.jpg></div><div class='cl'><div class='vertical-center'>$48<br>with a<br>50% chance</div></div><div class='cr'><div class='vertical-center'><font style='color:orange'>$34<br>for<br>sure</font></div></div><div class='respDivL'><div class='vertical-center'>(E)</div></div><div class='respDivR'><div class='vertical-center'><font style='color:orange'>(I)</font></div></div></div>","null","$34","$48","1","34","48",""
"html-keyboard-response","82","96538","0.0-5.0-1.26","5df5b9f661721940c46c3cd3","bdp_rd","Sun Mar 26 2023 02:23:13 GMT-0400 (Eastern Daylight Time)","161743","","null","","","","FIX","","<div class='trialBorder'><div class='vertical-center'><img style='vertical-align:center; align:center' src=img/fixation3.jpg></div></div>","null","","","","","",""
"html-keyboard-response","83","97774","0.0-5.0-2.26","5df5b9f661721940c46c3cd3","bdp_rd","Sun Mar 26 2023 02:23:13 GMT-0400 (Eastern Daylight Time)","161743","","1235","","","","offer","","<div class='trialBorder'><div class='vertical-center'><img style='vertical-align:center; align:center' src=img/fixation3.jpg></div><div class='cl'><div class='vertical-center'>$19<br>with a<br>50% chance</div></div><div class='cr'><div class='vertical-center'>$10<br>for<br>sure</div></div><div class='respDivL'><div class='vertical-center'>(E)</div></div><div class='respDivR'><div class='vertical-center'>(I)</div></div></div>","I","$10","$19","1","10","19","SURE"
"html-keyboard-response","84","98030","0.0-5.0-3.26","5df5b9f661721940c46c3cd3","bdp_rd","Sun Mar 26 2023 02:23:13 GMT-0400 (Eastern Daylight Time)","161743","","null","","","","offerFB","","<div class='trialBorder'><div class='vertical-center'><img style='vertical-align:center; align:center' src=img/fixation3.jpg></div><div class='cl'><div class='vertical-center'>$19<br>with a<br>50% chance</div></div><div class='cr'><div class='vertical-center'><font style='color:orange'>$10<br>for<br>sure</font></div></div><div class='respDivL'><div class='vertical-center'>(E)</div></div><div class='respDivR'><div class='vertical-center'><font style='color:orange'>(I)</font></div></div></div>","null","$10","$19","1","10","19",""
"html-keyboard-response","85","98532","0.0-5.0-1.27","5df5b9f661721940c46c3cd3","bdp_rd","Sun Mar 26 2023 02:23:13 GMT-0400 (Eastern Daylight Time)","161743","","null","","","","FIX","","<div class='trialBorder'><div class='vertical-center'><img style='vertical-align:center; align:center' src=img/fixation3.jpg></div></div>","null","","","","","",""
"html-keyboard-response","86","99680","0.0-5.0-2.27","5df5b9f661721940c46c3cd3","bdp_rd","Sun Mar 26 2023 02:23:13 GMT-0400 (Eastern Daylight Time)","161743","","1147","","","","offer","","<div class='trialBorder'><div class='vertical-center'><img style='vertical-align:center; align:center' src=img/fixation3.jpg></div><div class='cl'><div class='vertical-center'>$12<br>with a<br>50% chance</div></div><div class='cr'><div class='vertical-center'>$3<br>for<br>sure</div></div><div class='respDivL'><div class='vertical-center'>(E)</div></div><div class='respDivR'><div class='vertical-center'>(I)</div></div></div>","I","$3","$12","1","3","12","SURE"
"html-keyboard-response","87","99938","0.0-5.0-3.27","5df5b9f661721940c46c3cd3","bdp_rd","Sun Mar 26 2023 02:23:13 GMT-0400 (Eastern Daylight Time)","161743","","null","","","","offerFB","","<div class='trialBorder'><div class='vertical-center'><img style='vertical-align:center; align:center' src=img/fixation3.jpg></div><div class='cl'><div class='vertical-center'>$12<br>with a<br>50% chance</div></div><div class='cr'><div class='vertical-center'><font style='color:orange'>$3<br>for<br>sure</font></div></div><div class='respDivL'><div class='vertical-center'>(E)</div></div><div class='respDivR'><div class='vertical-center'><font style='color:orange'>(I)</font></div></div></div>","null","$3","$12","1","3","12",""
"html-keyboard-response","88","100440","0.0-5.0-1.28","5df5b9f661721940c46c3cd3","bdp_rd","Sun Mar 26 2023 02:23:13 GMT-0400 (Eastern Daylight Time)","161743","","null","","","","FIX","","<div class='trialBorder'><div class='vertical-center'><img style='vertical-align:center; align:center' src=img/fixation3.jpg></div></div>","null","","","","","",""
"html-keyboard-response","89","102701","0.0-5.0-2.28","5df5b9f661721940c46c3cd3","bdp_rd","Sun Mar 26 2023 02:23:13 GMT-0400 (Eastern Daylight Time)","161743","","2260","","","","offer","","<div class='trialBorder'><div class='vertical-center'><img style='vertical-align:center; align:center' src=img/fixation3.jpg></div><div class='cl'><div class='vertical-center'>$22<br>with a<br>50% chance</div></div><div class='cr'><div class='vertical-center'>$14<br>for<br>sure</div></div><div class='respDivL'><div class='vertical-center'>(E)</div></div><div class='respDivR'><div class='vertical-center'>(I)</div></div></div>","I","$14","$22","1","14","22","SURE"
"html-keyboard-response","90","102956","0.0-5.0-3.28","5df5b9f661721940c46c3cd3","bdp_rd","Sun Mar 26 2023 02:23:13 GMT-0400 (Eastern Daylight Time)","161743","","null","","","","offerFB","","<div class='trialBorder'><div class='vertical-center'><img style='vertical-align:center; align:center' src=img/fixation3.jpg></div><div class='cl'><div class='vertical-center'>$22<br>with a<br>50% chance</div></div><div class='cr'><div class='vertical-center'><font style='color:orange'>$14<br>for<br>sure</font></div></div><div class='respDivL'><div class='vertical-center'>(E)</div></div><div class='respDivR'><div class='vertical-center'><font style='color:orange'>(I)</font></div></div></div>","null","$14","$22","1","14","22",""
"html-keyboard-response","91","103460","0.0-5.0-1.29","5df5b9f661721940c46c3cd3","bdp_rd","Sun Mar 26 2023 02:23:13 GMT-0400 (Eastern Daylight Time)","161743","","null","","","","FIX","","<div class='trialBorder'><div class='vertical-center'><img style='vertical-align:center; align:center' src=img/fixation3.jpg></div></div>","null","","","","","",""
"html-keyboard-response","92","104318","0.0-5.0-2.29","5df5b9f661721940c46c3cd3","bdp_rd","Sun Mar 26 2023 02:23:13 GMT-0400 (Eastern Daylight Time)","161743","","857","","","","offer","","<div class='trialBorder'><div class='vertical-center'><img style='vertical-align:center; align:center' src=img/fixation3.jpg></div><div class='cl'><div class='vertical-center'>$8<br>for<br>sure</div></div><div class='cr'><div class='vertical-center'>$45<br>with a<br>50% chance</div></div><div class='respDivL'><div class='vertical-center'>(E)</div></div><div class='respDivR'><div class='vertical-center'>(I)</div></div></div>","I","$8","$45","0","8","45","RISKY"
"html-keyboard-response","93","104570","0.0-5.0-3.29","5df5b9f661721940c46c3cd3","bdp_rd","Sun Mar 26 2023 02:23:13 GMT-0400 (Eastern Daylight Time)","161743","","null","","","","offerFB","","<div class='trialBorder'><div class='vertical-center'><img style='vertical-align:center; align:center' src=img/fixation3.jpg></div><div class='cl'><div class='vertical-center'>$8<br>for<br>sure</div></div><div class='cr'><div class='vertical-center'><font style='color:orange'>$45<br>with a<br>50% chance</font></div></div><div class='respDivL'><div class='vertical-center'>(E)</div></div><div class='respDivR'><div class='vertical-center'><font style='color:orange'>(I)</font></div></div></div>","null","$8","$45","0","8","45",""
"html-keyboard-response","94","105071","0.0-5.0-1.30","5df5b9f661721940c46c3cd3","bdp_rd","Sun Mar 26 2023 02:23:13 GMT-0400 (Eastern Daylight Time)","161743","","null","","","","FIX","","<div class='trialBorder'><div class='vertical-center'><img style='vertical-align:center; align:center' src=img/fixation3.jpg></div></div>","null","","","","","",""
"html-keyboard-response","95","106214","0.0-5.0-2.30","5df5b9f661721940c46c3cd3","bdp_rd","Sun Mar 26 2023 02:23:13 GMT-0400 (Eastern Daylight Time)","161743","","1142","","","","offer","","<div class='trialBorder'><div class='vertical-center'><img style='vertical-align:center; align:center' src=img/fixation3.jpg></div><div class='cl'><div class='vertical-center'>$14<br>for<br>sure</div></div><div class='cr'><div class='vertical-center'>$29<br>with a<br>50% chance</div></div><div class='respDivL'><div class='vertical-center'>(E)</div></div><div class='respDivR'><div class='vertical-center'>(I)</div></div></div>","I","$14","$29","0","14","29","RISKY"
"html-keyboard-response","96","106469","0.0-5.0-3.30","5df5b9f661721940c46c3cd3","bdp_rd","Sun Mar 26 2023 02:23:13 GMT-0400 (Eastern Daylight Time)","161743","","null","","","","offerFB","","<div class='trialBorder'><div class='vertical-center'><img style='vertical-align:center; align:center' src=img/fixation3.jpg></div><div class='cl'><div class='vertical-center'>$14<br>for<br>sure</div></div><div class='cr'><div class='vertical-center'><font style='color:orange'>$29<br>with a<br>50% chance</font></div></div><div class='respDivL'><div class='vertical-center'>(E)</div></div><div class='respDivR'><div class='vertical-center'><font style='color:orange'>(I)</font></div></div></div>","null","$14","$29","0","14","29",""
"html-keyboard-response","97","106980","0.0-5.0-1.31","5df5b9f661721940c46c3cd3","bdp_rd","Sun Mar 26 2023 02:23:13 GMT-0400 (Eastern Daylight Time)","161743","","null","","","","FIX","","<div class='trialBorder'><div class='vertical-center'><img style='vertical-align:center; align:center' src=img/fixation3.jpg></div></div>","null","","","","","",""
"html-keyboard-response","98","108046","0.0-5.0-2.31","5df5b9f661721940c46c3cd3","bdp_rd","Sun Mar 26 2023 02:23:13 GMT-0400 (Eastern Daylight Time)","161743","","1064","","","","offer","","<div class='trialBorder'><div class='vertical-center'><img style='vertical-align:center; align:center' src=img/fixation3.jpg></div><div class='cl'><div class='vertical-center'>$13<br>for<br>sure</div></div><div class='cr'><div class='vertical-center'>$24<br>with a<br>50% chance</div></div><div class='respDivL'><div class='vertical-center'>(E)</div></div><div class='respDivR'><div class='vertical-center'>(I)</div></div></div>","E","$13","$24","0","13","24","SURE"
"html-keyboard-response","99","108304","0.0-5.0-3.31","5df5b9f661721940c46c3cd3","bdp_rd","Sun Mar 26 2023 02:23:13 GMT-0400 (Eastern Daylight Time)","161743","","null","","","","offerFB","","<div class='trialBorder'><div class='vertical-center'><img style='vertical-align:center; align:center' src=img/fixation3.jpg></div><div class='cl'><div class='vertical-center'><font style='color:orange'>$13<br>for<br>sure</font></div></div><div class='cr'><div class='vertical-center'>$24<br>with a<br>50% chance</div></div><div class='respDivL'><div class='vertical-center'><font style='color:orange'>(E)</font></div></div><div class='respDivR'><div class='vertical-center'>(I)</div></div></div>","null","$13","$24","0","13","24",""
"html-keyboard-response","100","108814","0.0-5.0-1.32","5df5b9f661721940c46c3cd3","bdp_rd","Sun Mar 26 2023 02:23:13 GMT-0400 (Eastern Daylight Time)","161743","","null","","","","FIX","","<div class='trialBorder'><div class='vertical-center'><img style='vertical-align:center; align:center' src=img/fixation3.jpg></div></div>","null","","","","","",""
"html-keyboard-response","101","110088","0.0-5.0-2.32","5df5b9f661721940c46c3cd3","bdp_rd","Sun Mar 26 2023 02:23:13 GMT-0400 (Eastern Daylight Time)","161743","","1273","","","","offer","","<div class='trialBorder'><div class='vertical-center'><img style='vertical-align:center; align:center' src=img/fixation3.jpg></div><div class='cl'><div class='vertical-center'>$18<br>for<br>sure</div></div><div class='cr'><div class='vertical-center'>$36<br>with a<br>50% chance</div></div><div class='respDivL'><div class='vertical-center'>(E)</div></div><div class='respDivR'><div class='vertical-center'>(I)</div></div></div>","I","$18","$36","0","18","36","RISKY"
"html-keyboard-response","102","110345","0.0-5.0-3.32","5df5b9f661721940c46c3cd3","bdp_rd","Sun Mar 26 2023 02:23:13 GMT-0400 (Eastern Daylight Time)","161743","","null","","","","offerFB","","<div class='trialBorder'><div class='vertical-center'><img style='vertical-align:center; align:center' src=img/fixation3.jpg></div><div class='cl'><div class='vertical-center'>$18<br>for<br>sure</div></div><div class='cr'><div class='vertical-center'><font style='color:orange'>$36<br>with a<br>50% chance</font></div></div><div class='respDivL'><div class='vertical-center'>(E)</div></div><div class='respDivR'><div class='vertical-center'><font style='color:orange'>(I)</font></div></div></div>","null","$18","$36","0","18","36",""
"html-keyboard-response","103","110848","0.0-5.0-1.33","5df5b9f661721940c46c3cd3","bdp_rd","Sun Mar 26 2023 02:23:13 GMT-0400 (Eastern Daylight Time)","161743","","null","","","","FIX","","<div class='trialBorder'><div class='vertical-center'><img style='vertical-align:center; align:center' src=img/fixation3.jpg></div></div>","null","","","","","",""
"html-keyboard-response","104","111975","0.0-5.0-2.33","5df5b9f661721940c46c3cd3","bdp_rd","Sun Mar 26 2023 02:23:13 GMT-0400 (Eastern Daylight Time)","161743","","1126","","","","offer","","<div class='trialBorder'><div class='vertical-center'><img style='vertical-align:center; align:center' src=img/fixation3.jpg></div><div class='cl'><div class='vertical-center'>$86<br>with a<br>50% chance</div></div><div class='cr'><div class='vertical-center'>$45<br>for<br>sure</div></div><div class='respDivL'><div class='vertical-center'>(E)</div></div><div class='respDivR'><div class='vertical-center'>(I)</div></div></div>","E","$45","$86","1","45","86","RISKY"
"html-keyboard-response","105","112232","0.0-5.0-3.33","5df5b9f661721940c46c3cd3","bdp_rd","Sun Mar 26 2023 02:23:13 GMT-0400 (Eastern Daylight Time)","161743","","null","","","","offerFB","","<div class='trialBorder'><div class='vertical-center'><img style='vertical-align:center; align:center' src=img/fixation3.jpg></div><div class='cl'><div class='vertical-center'><font style='color:orange'>$86<br>with a<br>50% chance</font></div></div><div class='cr'><div class='vertical-center'>$45<br>for<br>sure</div></div><div class='respDivL'><div class='vertical-center'><font style='color:orange'>(E)</font></div></div><div class='respDivR'><div class='vertical-center'>(I)</div></div></div>","null","$45","$86","1","45","86",""
"html-keyboard-response","106","112735","0.0-5.0-1.34","5df5b9f661721940c46c3cd3","bdp_rd","Sun Mar 26 2023 02:23:13 GMT-0400 (Eastern Daylight Time)","161743","","null","","","","FIX","","<div class='trialBorder'><div class='vertical-center'><img style='vertical-align:center; align:center' src=img/fixation3.jpg></div></div>","null","","","","","",""
"html-keyboard-response","107","114081","0.0-5.0-2.34","5df5b9f661721940c46c3cd3","bdp_rd","Sun Mar 26 2023 02:23:13 GMT-0400 (Eastern Daylight Time)","161743","","1345","","","","offer","","<div class='trialBorder'><div class='vertical-center'><img style='vertical-align:center; align:center' src=img/fixation3.jpg></div><div class='cl'><div class='vertical-center'>$98<br>with a<br>50% chance</div></div><div class='cr'><div class='vertical-center'>$53<br>for<br>sure</div></div><div class='respDivL'><div class='vertical-center'>(E)</div></div><div class='respDivR'><div class='vertical-center'>(I)</div></div></div>","E","$53","$98","1","53","98","RISKY"
"html-keyboard-response","108","114341","0.0-5.0-3.34","5df5b9f661721940c46c3cd3","bdp_rd","Sun Mar 26 2023 02:23:13 GMT-0400 (Eastern Daylight Time)","161743","","null","","","","offerFB","","<div class='trialBorder'><div class='vertical-center'><img style='vertical-align:center; align:center' src=img/fixation3.jpg></div><div class='cl'><div class='vertical-center'><font style='color:orange'>$98<br>with a<br>50% chance</font></div></div><div class='cr'><div class='vertical-center'>$53<br>for<br>sure</div></div><div class='respDivL'><div class='vertical-center'><font style='color:orange'>(E)</font></div></div><div class='respDivR'><div class='vertical-center'>(I)</div></div></div>","null","$53","$98","1","53","98",""
"html-keyboard-response","109","114850","0.0-5.0-1.35","5df5b9f661721940c46c3cd3","bdp_rd","Sun Mar 26 2023 02:23:13 GMT-0400 (Eastern Daylight Time)","161743","","null","","","","FIX","","<div class='trialBorder'><div class='vertical-center'><img style='vertical-align:center; align:center' src=img/fixation3.jpg></div></div>","null","","","","","",""
"html-keyboard-response","110","115757","0.0-5.0-2.35","5df5b9f661721940c46c3cd3","bdp_rd","Sun Mar 26 2023 02:23:13 GMT-0400 (Eastern Daylight Time)","161743","","906","","","","offer","","<div class='trialBorder'><div class='vertical-center'><img style='vertical-align:center; align:center' src=img/fixation3.jpg></div><div class='cl'><div class='vertical-center'>$39<br>for<br>sure</div></div><div class='cr'><div class='vertical-center'>$81<br>with a<br>50% chance</div></div><div class='respDivL'><div class='vertical-center'>(E)</div></div><div class='respDivR'><div class='vertical-center'>(I)</div></div></div>","I","$39","$81","0","39","81","RISKY"
"html-keyboard-response","111","116010","0.0-5.0-3.35","5df5b9f661721940c46c3cd3","bdp_rd","Sun Mar 26 2023 02:23:13 GMT-0400 (Eastern Daylight Time)","161743","","null","","","","offerFB","","<div class='trialBorder'><div class='vertical-center'><img style='vertical-align:center; align:center' src=img/fixation3.jpg></div><div class='cl'><div class='vertical-center'>$39<br>for<br>sure</div></div><div class='cr'><div class='vertical-center'><font style='color:orange'>$81<br>with a<br>50% chance</font></div></div><div class='respDivL'><div class='vertical-center'>(E)</div></div><div class='respDivR'><div class='vertical-center'><font style='color:orange'>(I)</font></div></div></div>","null","$39","$81","0","39","81",""
"html-keyboard-response","112","116520","0.0-5.0-1.36","5df5b9f661721940c46c3cd3","bdp_rd","Sun Mar 26 2023 02:23:13 GMT-0400 (Eastern Daylight Time)","161743","","null","","","","FIX","","<div class='trialBorder'><div class='vertical-center'><img style='vertical-align:center; align:center' src=img/fixation3.jpg></div></div>","null","","","","","",""
"html-keyboard-response","113","117370","0.0-5.0-2.36","5df5b9f661721940c46c3cd3","bdp_rd","Sun Mar 26 2023 02:23:13 GMT-0400 (Eastern Daylight Time)","161743","","849","","","","offer","","<div class='trialBorder'><div class='vertical-center'><img style='vertical-align:center; align:center' src=img/fixation3.jpg></div><div class='cl'><div class='vertical-center'>$64<br>with a<br>50% chance</div></div><div class='cr'><div class='vertical-center'>$2<br>for<br>sure</div></div><div class='respDivL'><div class='vertical-center'>(E)</div></div><div class='respDivR'><div class='vertical-center'>(I)</div></div></div>","E","$2","$64","1","2","64","RISKY"
"html-keyboard-response","114","117638","0.0-5.0-3.36","5df5b9f661721940c46c3cd3","bdp_rd","Sun Mar 26 2023 02:23:13 GMT-0400 (Eastern Daylight Time)","161743","","null","","","","offerFB","","<div class='trialBorder'><div class='vertical-center'><img style='vertical-align:center; align:center' src=img/fixation3.jpg></div><div class='cl'><div class='vertical-center'><font style='color:orange'>$64<br>with a<br>50% chance</font></div></div><div class='cr'><div class='vertical-center'>$2<br>for<br>sure</div></div><div class='respDivL'><div class='vertical-center'><font style='color:orange'>(E)</font></div></div><div class='respDivR'><div class='vertical-center'>(I)</div></div></div>","null","$2","$64","1","2","64",""
"html-keyboard-response","115","118142","0.0-5.0-1.37","5df5b9f661721940c46c3cd3","bdp_rd","Sun Mar 26 2023 02:23:13 GMT-0400 (Eastern Daylight Time)","161743","","null","","","","FIX","","<div class='trialBorder'><div class='vertical-center'><img style='vertical-align:center; align:center' src=img/fixation3.jpg></div></div>","null","","","","","",""
"html-keyboard-response","116","119415","0.0-5.0-2.37","5df5b9f661721940c46c3cd3","bdp_rd","Sun Mar 26 2023 02:23:13 GMT-0400 (Eastern Daylight Time)","161743","","1272","","","","offer","","<div class='trialBorder'><div class='vertical-center'><img style='vertical-align:center; align:center' src=img/fixation3.jpg></div><div class='cl'><div class='vertical-center'>$26<br>with a<br>50% chance</div></div><div class='cr'><div class='vertical-center'>$11<br>for<br>sure</div></div><div class='respDivL'><div class='vertical-center'>(E)</div></div><div class='respDivR'><div class='vertical-center'>(I)</div></div></div>","I","$11","$26","1","11","26","SURE"
"html-keyboard-response","117","119667","0.0-5.0-3.37","5df5b9f661721940c46c3cd3","bdp_rd","Sun Mar 26 2023 02:23:13 GMT-0400 (Eastern Daylight Time)","161743","","null","","","","offerFB","","<div class='trialBorder'><div class='vertical-center'><img style='vertical-align:center; align:center' src=img/fixation3.jpg></div><div class='cl'><div class='vertical-center'>$26<br>with a<br>50% chance</div></div><div class='cr'><div class='vertical-center'><font style='color:orange'>$11<br>for<br>sure</font></div></div><div class='respDivL'><div class='vertical-center'>(E)</div></div><div class='respDivR'><div class='vertical-center'><font style='color:orange'>(I)</font></div></div></div>","null","$11","$26","1","11","26",""
"html-keyboard-response","118","120175","0.0-5.0-1.38","5df5b9f661721940c46c3cd3","bdp_rd","Sun Mar 26 2023 02:23:13 GMT-0400 (Eastern Daylight Time)","161743","","null","","","","FIX","","<div class='trialBorder'><div class='vertical-center'><img style='vertical-align:center; align:center' src=img/fixation3.jpg></div></div>","null","","","","","",""
"html-keyboard-response","119","121468","0.0-5.0-2.38","5df5b9f661721940c46c3cd3","bdp_rd","Sun Mar 26 2023 02:23:13 GMT-0400 (Eastern Daylight Time)","161743","","1292","","","","offer","","<div class='trialBorder'><div class='vertical-center'><img style='vertical-align:center; align:center' src=img/fixation3.jpg></div><div class='cl'><div class='vertical-center'>$15<br>for<br>sure</div></div><div class='cr'><div class='vertical-center'>$34<br>with a<br>50% chance</div></div><div class='respDivL'><div class='vertical-center'>(E)</div></div><div class='respDivR'><div class='vertical-center'>(I)</div></div></div>","I","$15","$34","0","15","34","RISKY"
"html-keyboard-response","120","121725","0.0-5.0-3.38","5df5b9f661721940c46c3cd3","bdp_rd","Sun Mar 26 2023 02:23:13 GMT-0400 (Eastern Daylight Time)","161743","","null","","","","offerFB","","<div class='trialBorder'><div class='vertical-center'><img style='vertical-align:center; align:center' src=img/fixation3.jpg></div><div class='cl'><div class='vertical-center'>$15<br>for<br>sure</div></div><div class='cr'><div class='vertical-center'><font style='color:orange'>$34<br>with a<br>50% chance</font></div></div><div class='respDivL'><div class='vertical-center'>(E)</div></div><div class='respDivR'><div class='vertical-center'><font style='color:orange'>(I)</font></div></div></div>","null","$15","$34","0","15","34",""
"html-keyboard-response","121","122238","0.0-5.0-1.39","5df5b9f661721940c46c3cd3","bdp_rd","Sun Mar 26 2023 02:23:13 GMT-0400 (Eastern Daylight Time)","161743","","null","","","","FIX","","<div class='trialBorder'><div class='vertical-center'><img style='vertical-align:center; align:center' src=img/fixation3.jpg></div></div>","null","","","","","",""
"html-keyboard-response","122","123127","0.0-5.0-2.39","5df5b9f661721940c46c3cd3","bdp_rd","Sun Mar 26 2023 02:23:13 GMT-0400 (Eastern Daylight Time)","161743","","888","","","","offer","","<div class='trialBorder'><div class='vertical-center'><img style='vertical-align:center; align:center' src=img/fixation3.jpg></div><div class='cl'><div class='vertical-center'>$24<br>for<br>sure</div></div><div class='cr'><div class='vertical-center'>$70<br>with a<br>50% chance</div></div><div class='respDivL'><div class='vertical-center'>(E)</div></div><div class='respDivR'><div class='vertical-center'>(I)</div></div></div>","I","$24","$70","0","24","70","RISKY"
"html-keyboard-response","123","123379","0.0-5.0-3.39","5df5b9f661721940c46c3cd3","bdp_rd","Sun Mar 26 2023 02:23:13 GMT-0400 (Eastern Daylight Time)","161743","","null","","","","offerFB","","<div class='trialBorder'><div class='vertical-center'><img style='vertical-align:center; align:center' src=img/fixation3.jpg></div><div class='cl'><div class='vertical-center'>$24<br>for<br>sure</div></div><div class='cr'><div class='vertical-center'><font style='color:orange'>$70<br>with a<br>50% chance</font></div></div><div class='respDivL'><div class='vertical-center'>(E)</div></div><div class='respDivR'><div class='vertical-center'><font style='color:orange'>(I)</font></div></div></div>","null","$24","$70","0","24","70",""
"html-keyboard-response","124","123886","0.0-5.0-1.40","5df5b9f661721940c46c3cd3","bdp_rd","Sun Mar 26 2023 02:23:13 GMT-0400 (Eastern Daylight Time)","161743","","null","","","","FIX","","<div class='trialBorder'><div class='vertical-center'><img style='vertical-align:center; align:center' src=img/fixation3.jpg></div></div>","null","","","","","",""
"html-keyboard-response","125","124726","0.0-5.0-2.40","5df5b9f661721940c46c3cd3","bdp_rd","Sun Mar 26 2023 02:23:13 GMT-0400 (Eastern Daylight Time)","161743","","839","","","","offer","","<div class='trialBorder'><div class='vertical-center'><img style='vertical-align:center; align:center' src=img/fixation3.jpg></div><div class='cl'><div class='vertical-center'>$22<br>for<br>sure</div></div><div class='cr'><div class='vertical-center'>$59<br>with a<br>50% chance</div></div><div class='respDivL'><div class='vertical-center'>(E)</div></div><div class='respDivR'><div class='vertical-center'>(I)</div></div></div>","I","$22","$59","0","22","59","RISKY"
"html-keyboard-response","126","124981","0.0-5.0-3.40","5df5b9f661721940c46c3cd3","bdp_rd","Sun Mar 26 2023 02:23:13 GMT-0400 (Eastern Daylight Time)","161743","","null","","","","offerFB","","<div class='trialBorder'><div class='vertical-center'><img style='vertical-align:center; align:center' src=img/fixation3.jpg></div><div class='cl'><div class='vertical-center'>$22<br>for<br>sure</div></div><div class='cr'><div class='vertical-center'><font style='color:orange'>$59<br>with a<br>50% chance</font></div></div><div class='respDivL'><div class='vertical-center'>(E)</div></div><div class='respDivR'><div class='vertical-center'><font style='color:orange'>(I)</font></div></div></div>","null","$22","$59","0","22","59",""
"html-keyboard-response","127","125485","0.0-5.0-1.41","5df5b9f661721940c46c3cd3","bdp_rd","Sun Mar 26 2023 02:23:13 GMT-0400 (Eastern Daylight Time)","161743","","null","","","","FIX","","<div class='trialBorder'><div class='vertical-center'><img style='vertical-align:center; align:center' src=img/fixation3.jpg></div></div>","null","","","","","",""
"html-keyboard-response","128","126929","0.0-5.0-2.41","5df5b9f661721940c46c3cd3","bdp_rd","Sun Mar 26 2023 02:23:13 GMT-0400 (Eastern Daylight Time)","161743","","1443","","","","offer","","<div class='trialBorder'><div class='vertical-center'><img style='vertical-align:center; align:center' src=img/fixation3.jpg></div><div class='cl'><div class='vertical-center'>$9<br>for<br>sure</div></div><div class='cr'><div class='vertical-center'>$18<br>with a<br>50% chance</div></div><div class='respDivL'><div class='vertical-center'>(E)</div></div><div class='respDivR'><div class='vertical-center'>(I)</div></div></div>","E","$9","$18","0","9","18","SURE"
"html-keyboard-response","129","127185","0.0-5.0-3.41","5df5b9f661721940c46c3cd3","bdp_rd","Sun Mar 26 2023 02:23:13 GMT-0400 (Eastern Daylight Time)","161743","","null","","","","offerFB","","<div class='trialBorder'><div class='vertical-center'><img style='vertical-align:center; align:center' src=img/fixation3.jpg></div><div class='cl'><div class='vertical-center'><font style='color:orange'>$9<br>for<br>sure</font></div></div><div class='cr'><div class='vertical-center'>$18<br>with a<br>50% chance</div></div><div class='respDivL'><div class='vertical-center'><font style='color:orange'>(E)</font></div></div><div class='respDivR'><div class='vertical-center'>(I)</div></div></div>","null","$9","$18","0","9","18",""
"html-keyboard-response","130","127690","0.0-5.0-1.42","5df5b9f661721940c46c3cd3","bdp_rd","Sun Mar 26 2023 02:23:13 GMT-0400 (Eastern Daylight Time)","161743","","null","","","","FIX","","<div class='trialBorder'><div class='vertical-center'><img style='vertical-align:center; align:center' src=img/fixation3.jpg></div></div>","null","","","","","",""
"html-keyboard-response","131","128675","0.0-5.0-2.42","5df5b9f661721940c46c3cd3","bdp_rd","Sun Mar 26 2023 02:23:13 GMT-0400 (Eastern Daylight Time)","161743","","984","","","","offer","","<div class='trialBorder'><div class='vertical-center'><img style='vertical-align:center; align:center' src=img/fixation3.jpg></div><div class='cl'><div class='vertical-center'>$5<br>for<br>sure</div></div><div class='cr'><div class='vertical-center'>$16<br>with a<br>50% chance</div></div><div class='respDivL'><div class='vertical-center'>(E)</div></div><div class='respDivR'><div class='vertical-center'>(I)</div></div></div>","I","$5","$16","0","5","16","RISKY"
"html-keyboard-response","132","128927","0.0-5.0-3.42","5df5b9f661721940c46c3cd3","bdp_rd","Sun Mar 26 2023 02:23:13 GMT-0400 (Eastern Daylight Time)","161743","","null","","","","offerFB","","<div class='trialBorder'><div class='vertical-center'><img style='vertical-align:center; align:center' src=img/fixation3.jpg></div><div class='cl'><div class='vertical-center'>$5<br>for<br>sure</div></div><div class='cr'><div class='vertical-center'><font style='color:orange'>$16<br>with a<br>50% chance</font></div></div><div class='respDivL'><div class='vertical-center'>(E)</div></div><div class='respDivR'><div class='vertical-center'><font style='color:orange'>(I)</font></div></div></div>","null","$5","$16","0","5","16",""
"html-keyboard-response","133","129436","0.0-5.0-1.43","5df5b9f661721940c46c3cd3","bdp_rd","Sun Mar 26 2023 02:23:13 GMT-0400 (Eastern Daylight Time)","161743","","null","","","","FIX","","<div class='trialBorder'><div class='vertical-center'><img style='vertical-align:center; align:center' src=img/fixation3.jpg></div></div>","null","","","","","",""
"html-keyboard-response","134","130253","0.0-5.0-2.43","5df5b9f661721940c46c3cd3","bdp_rd","Sun Mar 26 2023 02:23:13 GMT-0400 (Eastern Daylight Time)","161743","","816","","","","offer","","<div class='trialBorder'><div class='vertical-center'><img style='vertical-align:center; align:center' src=img/fixation3.jpg></div><div class='cl'><div class='vertical-center'>$33<br>for<br>sure</div></div><div class='cr'><div class='vertical-center'>$66<br>with a<br>50% chance</div></div><div class='respDivL'><div class='vertical-center'>(E)</div></div><div class='respDivR'><div class='vertical-center'>(I)</div></div></div>","I","$33","$66","0","33","66","RISKY"
"html-keyboard-response","135","130505","0.0-5.0-3.43","5df5b9f661721940c46c3cd3","bdp_rd","Sun Mar 26 2023 02:23:13 GMT-0400 (Eastern Daylight Time)","161743","","null","","","","offerFB","","<div class='trialBorder'><div class='vertical-center'><img style='vertical-align:center; align:center' src=img/fixation3.jpg></div><div class='cl'><div class='vertical-center'>$33<br>for<br>sure</div></div><div class='cr'><div class='vertical-center'><font style='color:orange'>$66<br>with a<br>50% chance</font></div></div><div class='respDivL'><div class='vertical-center'>(E)</div></div><div class='respDivR'><div class='vertical-center'><font style='color:orange'>(I)</font></div></div></div>","null","$33","$66","0","33","66",""
"html-keyboard-response","136","131009","0.0-5.0-1.44","5df5b9f661721940c46c3cd3","bdp_rd","Sun Mar 26 2023 02:23:13 GMT-0400 (Eastern Daylight Time)","161743","","null","","","","FIX","","<div class='trialBorder'><div class='vertical-center'><img style='vertical-align:center; align:center' src=img/fixation3.jpg></div></div>","null","","","","","",""
"html-keyboard-response","137","132122","0.0-5.0-2.44","5df5b9f661721940c46c3cd3","bdp_rd","Sun Mar 26 2023 02:23:13 GMT-0400 (Eastern Daylight Time)","161743","","1111","","","","offer","","<div class='trialBorder'><div class='vertical-center'><img style='vertical-align:center; align:center' src=img/fixation3.jpg></div><div class='cl'><div class='vertical-center'>$14<br>with a<br>50% chance</div></div><div class='cr'><div class='vertical-center'>$4<br>for<br>sure</div></div><div class='respDivL'><div class='vertical-center'>(E)</div></div><div class='respDivR'><div class='vertical-center'>(I)</div></div></div>","I","$4","$14","1","4","14","SURE"
"html-keyboard-response","138","132379","0.0-5.0-3.44","5df5b9f661721940c46c3cd3","bdp_rd","Sun Mar 26 2023 02:23:13 GMT-0400 (Eastern Daylight Time)","161743","","null","","","","offerFB","","<div class='trialBorder'><div class='vertical-center'><img style='vertical-align:center; align:center' src=img/fixation3.jpg></div><div class='cl'><div class='vertical-center'>$14<br>with a<br>50% chance</div></div><div class='cr'><div class='vertical-center'><font style='color:orange'>$4<br>for<br>sure</font></div></div><div class='respDivL'><div class='vertical-center'>(E)</div></div><div class='respDivR'><div class='vertical-center'><font style='color:orange'>(I)</font></div></div></div>","null","$4","$14","1","4","14",""
"html-keyboard-response","139","132890","0.0-5.0-1.45","5df5b9f661721940c46c3cd3","bdp_rd","Sun Mar 26 2023 02:23:13 GMT-0400 (Eastern Daylight Time)","161743","","null","","","","FIX","","<div class='trialBorder'><div class='vertical-center'><img style='vertical-align:center; align:center' src=img/fixation3.jpg></div></div>","null","","","","","",""
"html-keyboard-response","140","135073","0.0-5.0-2.45","5df5b9f661721940c46c3cd3","bdp_rd","Sun Mar 26 2023 02:23:13 GMT-0400 (Eastern Daylight Time)","161743","","2182","","","","offer","","<div class='trialBorder'><div class='vertical-center'><img style='vertical-align:center; align:center' src=img/fixation3.jpg></div><div class='cl'><div class='vertical-center'>$10<br>with a<br>50% chance</div></div><div class='cr'><div class='vertical-center'>$7<br>for<br>sure</div></div><div class='respDivL'><div class='vertical-center'>(E)</div></div><div class='respDivR'><div class='vertical-center'>(I)</div></div></div>","I","$7","$10","1","7","10","SURE"
"html-keyboard-response","141","135328","0.0-5.0-3.45","5df5b9f661721940c46c3cd3","bdp_rd","Sun Mar 26 2023 02:23:13 GMT-0400 (Eastern Daylight Time)","161743","","null","","","","offerFB","","<div class='trialBorder'><div class='vertical-center'><img style='vertical-align:center; align:center' src=img/fixation3.jpg></div><div class='cl'><div class='vertical-center'>$10<br>with a<br>50% chance</div></div><div class='cr'><div class='vertical-center'><font style='color:orange'>$7<br>for<br>sure</font></div></div><div class='respDivL'><div class='vertical-center'>(E)</div></div><div class='respDivR'><div class='vertical-center'><font style='color:orange'>(I)</font></div></div></div>","null","$7","$10","1","7","10",""
"html-keyboard-response","142","135834","0.0-5.0-1.46","5df5b9f661721940c46c3cd3","bdp_rd","Sun Mar 26 2023 02:23:13 GMT-0400 (Eastern Daylight Time)","161743","","null","","","","FIX","","<div class='trialBorder'><div class='vertical-center'><img style='vertical-align:center; align:center' src=img/fixation3.jpg></div></div>","null","","","","","",""
"html-keyboard-response","143","137394","0.0-5.0-2.46","5df5b9f661721940c46c3cd3","bdp_rd","Sun Mar 26 2023 02:23:13 GMT-0400 (Eastern Daylight Time)","161743","","1558","","","","offer","","<div class='trialBorder'><div class='vertical-center'><img style='vertical-align:center; align:center' src=img/fixation3.jpg></div><div class='cl'><div class='vertical-center'>$31<br>with a<br>50% chance</div></div><div class='cr'><div class='vertical-center'>$15<br>for<br>sure</div></div><div class='respDivL'><div class='vertical-center'>(E)</div></div><div class='respDivR'><div class='vertical-center'>(I)</div></div></div>","E","$15","$31","1","15","31","RISKY"
"html-keyboard-response","144","137651","0.0-5.0-3.46","5df5b9f661721940c46c3cd3","bdp_rd","Sun Mar 26 2023 02:23:13 GMT-0400 (Eastern Daylight Time)","161743","","null","","","","offerFB","","<div class='trialBorder'><div class='vertical-center'><img style='vertical-align:center; align:center' src=img/fixation3.jpg></div><div class='cl'><div class='vertical-center'><font style='color:orange'>$31<br>with a<br>50% chance</font></div></div><div class='cr'><div class='vertical-center'>$15<br>for<br>sure</div></div><div class='respDivL'><div class='vertical-center'><font style='color:orange'>(E)</font></div></div><div class='respDivR'><div class='vertical-center'>(I)</div></div></div>","null","$15","$31","1","15","31",""
"html-keyboard-response","145","138155","0.0-5.0-1.47","5df5b9f661721940c46c3cd3","bdp_rd","Sun Mar 26 2023 02:23:13 GMT-0400 (Eastern Daylight Time)","161743","","null","","","","FIX","","<div class='trialBorder'><div class='vertical-center'><img style='vertical-align:center; align:center' src=img/fixation3.jpg></div></div>","null","","","","","",""
"html-keyboard-response","146","138870","0.0-5.0-2.47","5df5b9f661721940c46c3cd3","bdp_rd","Sun Mar 26 2023 02:23:13 GMT-0400 (Eastern Daylight Time)","161743","","714","","","","offer","","<div class='trialBorder'><div class='vertical-center'><img style='vertical-align:center; align:center' src=img/fixation3.jpg></div><div class='cl'><div class='vertical-center'>$42<br>for<br>sure</div></div><div class='cr'><div class='vertical-center'>$73<br>with a<br>50% chance</div></div><div class='respDivL'><div class='vertical-center'>(E)</div></div><div class='respDivR'><div class='vertical-center'>(I)</div></div></div>","I","$42","$73","0","42","73","RISKY"
"html-keyboard-response","147","139123","0.0-5.0-3.47","5df5b9f661721940c46c3cd3","bdp_rd","Sun Mar 26 2023 02:23:13 GMT-0400 (Eastern Daylight Time)","161743","","null","","","","offerFB","","<div class='trialBorder'><div class='vertical-center'><img style='vertical-align:center; align:center' src=img/fixation3.jpg></div><div class='cl'><div class='vertical-center'>$42<br>for<br>sure</div></div><div class='cr'><div class='vertical-center'><font style='color:orange'>$73<br>with a<br>50% chance</font></div></div><div class='respDivL'><div class='vertical-center'>(E)</div></div><div class='respDivR'><div class='vertical-center'><font style='color:orange'>(I)</font></div></div></div>","null","$42","$73","0","42","73",""
"html-keyboard-response","148","139628","0.0-5.0-1.48","5df5b9f661721940c46c3cd3","bdp_rd","Sun Mar 26 2023 02:23:13 GMT-0400 (Eastern Daylight Time)","161743","","null","","","","FIX","","<div class='trialBorder'><div class='vertical-center'><img style='vertical-align:center; align:center' src=img/fixation3.jpg></div></div>","null","","","","","",""
"html-keyboard-response","149","140888","0.0-5.0-2.48","5df5b9f661721940c46c3cd3","bdp_rd","Sun Mar 26 2023 02:23:13 GMT-0400 (Eastern Daylight Time)","161743","","1259","","","","offer","","<div class='trialBorder'><div class='vertical-center'><img style='vertical-align:center; align:center' src=img/fixation3.jpg></div><div class='cl'><div class='vertical-center'>$95<br>with a<br>50% chance</div></div><div class='cr'><div class='vertical-center'>$40<br>for<br>sure</div></div><div class='respDivL'><div class='vertical-center'>(E)</div></div><div class='respDivR'><div class='vertical-center'>(I)</div></div></div>","I","$40","$95","1","40","95","SURE"
"html-keyboard-response","150","141143","0.0-5.0-3.48","5df5b9f661721940c46c3cd3","bdp_rd","Sun Mar 26 2023 02:23:13 GMT-0400 (Eastern Daylight Time)","161743","","null","","","","offerFB","","<div class='trialBorder'><div class='vertical-center'><img style='vertical-align:center; align:center' src=img/fixation3.jpg></div><div class='cl'><div class='vertical-center'>$95<br>with a<br>50% chance</div></div><div class='cr'><div class='vertical-center'><font style='color:orange'>$40<br>for<br>sure</font></div></div><div class='respDivL'><div class='vertical-center'>(E)</div></div><div class='respDivR'><div class='vertical-center'><font style='color:orange'>(I)</font></div></div></div>","null","$40","$95","1","40","95",""
"html-keyboard-response","151","141652","0.0-5.0-1.49","5df5b9f661721940c46c3cd3","bdp_rd","Sun Mar 26 2023 02:23:13 GMT-0400 (Eastern Daylight Time)","161743","","null","","","","FIX","","<div class='trialBorder'><div class='vertical-center'><img style='vertical-align:center; align:center' src=img/fixation3.jpg></div></div>","null","","","","","",""
"html-keyboard-response","152","142829","0.0-5.0-2.49","5df5b9f661721940c46c3cd3","bdp_rd","Sun Mar 26 2023 02:23:13 GMT-0400 (Eastern Daylight Time)","161743","","1176","","","","offer","","<div class='trialBorder'><div class='vertical-center'><img style='vertical-align:center; align:center' src=img/fixation3.jpg></div><div class='cl'><div class='vertical-center'>$3<br>for<br>sure</div></div><div class='cr'><div class='vertical-center'>$17<br>with a<br>50% chance</div></div><div class='respDivL'><div class='vertical-center'>(E)</div></div><div class='respDivR'><div class='vertical-center'>(I)</div></div></div>","I","$3","$17","0","3","17","RISKY"
"html-keyboard-response","153","143085","0.0-5.0-3.49","5df5b9f661721940c46c3cd3","bdp_rd","Sun Mar 26 2023 02:23:13 GMT-0400 (Eastern Daylight Time)","161743","","null","","","","offerFB","","<div class='trialBorder'><div class='vertical-center'><img style='vertical-align:center; align:center' src=img/fixation3.jpg></div><div class='cl'><div class='vertical-center'>$3<br>for<br>sure</div></div><div class='cr'><div class='vertical-center'><font style='color:orange'>$17<br>with a<br>50% chance</font></div></div><div class='respDivL'><div class='vertical-center'>(E)</div></div><div class='respDivR'><div class='vertical-center'><font style='color:orange'>(I)</font></div></div></div>","null","$3","$17","0","3","17",""
"html-keyboard-response","154","143591","0.0-5.0-1.50","5df5b9f661721940c46c3cd3","bdp_rd","Sun Mar 26 2023 02:23:13 GMT-0400 (Eastern Daylight Time)","161743","","null","","","","FIX","","<div class='trialBorder'><div class='vertical-center'><img style='vertical-align:center; align:center' src=img/fixation3.jpg></div></div>","null","","","","","",""
"html-keyboard-response","155","145011","0.0-5.0-2.50","5df5b9f661721940c46c3cd3","bdp_rd","Sun Mar 26 2023 02:23:13 GMT-0400 (Eastern Daylight Time)","161743","","1419","","","","offer","","<div class='trialBorder'><div class='vertical-center'><img style='vertical-align:center; align:center' src=img/fixation3.jpg></div><div class='cl'><div class='vertical-center'>$13<br>for<br>sure</div></div><div class='cr'><div class='vertical-center'>$41<br>with a<br>50% chance</div></div><div class='respDivL'><div class='vertical-center'>(E)</div></div><div class='respDivR'><div class='vertical-center'>(I)</div></div></div>","I","$13","$41","0","13","41","RISKY"
"html-keyboard-response","156","145269","0.0-5.0-3.50","5df5b9f661721940c46c3cd3","bdp_rd","Sun Mar 26 2023 02:23:13 GMT-0400 (Eastern Daylight Time)","161743","","null","","","","offerFB","","<div class='trialBorder'><div class='vertical-center'><img style='vertical-align:center; align:center' src=img/fixation3.jpg></div><div class='cl'><div class='vertical-center'>$13<br>for<br>sure</div></div><div class='cr'><div class='vertical-center'><font style='color:orange'>$41<br>with a<br>50% chance</font></div></div><div class='respDivL'><div class='vertical-center'>(E)</div></div><div class='respDivR'><div class='vertical-center'><font style='color:orange'>(I)</font></div></div></div>","null","$13","$41","0","13","41",""
"html-keyboard-response","157","145776","0.0-5.0-1.51","5df5b9f661721940c46c3cd3","bdp_rd","Sun Mar 26 2023 02:23:13 GMT-0400 (Eastern Daylight Time)","161743","","null","","","","FIX","","<div class='trialBorder'><div class='vertical-center'><img style='vertical-align:center; align:center' src=img/fixation3.jpg></div></div>","null","","","","","",""
"html-keyboard-response","158","146949","0.0-5.0-2.51","5df5b9f661721940c46c3cd3","bdp_rd","Sun Mar 26 2023 02:23:13 GMT-0400 (Eastern Daylight Time)","161743","","1172","","","","offer","","<div class='trialBorder'><div class='vertical-center'><img style='vertical-align:center; align:center' src=img/fixation3.jpg></div><div class='cl'><div class='vertical-center'>$38<br>with a<br>50% chance</div></div><div class='cr'><div class='vertical-center'>$16<br>for<br>sure</div></div><div class='respDivL'><div class='vertical-center'>(E)</div></div><div class='respDivR'><div class='vertical-center'>(I)</div></div></div>","E","$16","$38","1","16","38","RISKY"
"html-keyboard-response","159","147206","0.0-5.0-3.51","5df5b9f661721940c46c3cd3","bdp_rd","Sun Mar 26 2023 02:23:13 GMT-0400 (Eastern Daylight Time)","161743","","null","","","","offerFB","","<div class='trialBorder'><div class='vertical-center'><img style='vertical-align:center; align:center' src=img/fixation3.jpg></div><div class='cl'><div class='vertical-center'><font style='color:orange'>$38<br>with a<br>50% chance</font></div></div><div class='cr'><div class='vertical-center'>$16<br>for<br>sure</div></div><div class='respDivL'><div class='vertical-center'><font style='color:orange'>(E)</font></div></div><div class='respDivR'><div class='vertical-center'>(I)</div></div></div>","null","$16","$38","1","16","38",""
"html-keyboard-response","160","147715","0.0-5.0-1.52","5df5b9f661721940c46c3cd3","bdp_rd","Sun Mar 26 2023 02:23:13 GMT-0400 (Eastern Daylight Time)","161743","","null","","","","FIX","","<div class='trialBorder'><div class='vertical-center'><img style='vertical-align:center; align:center' src=img/fixation3.jpg></div></div>","null","","","","","",""
"html-keyboard-response","161","148508","0.0-5.0-2.52","5df5b9f661721940c46c3cd3","bdp_rd","Sun Mar 26 2023 02:23:13 GMT-0400 (Eastern Daylight Time)","161743","","792","","","","offer","","<div class='trialBorder'><div class='vertical-center'><img style='vertical-align:center; align:center' src=img/fixation3.jpg></div><div class='cl'><div class='vertical-center'>$30<br>with a<br>50% chance</div></div><div class='cr'><div class='vertical-center'>$1<br>for<br>sure</div></div><div class='respDivL'><div class='vertical-center'>(E)</div></div><div class='respDivR'><div class='vertical-center'>(I)</div></div></div>","E","$1","$30","1","1","30","RISKY"
"html-keyboard-response","162","148761","0.0-5.0-3.52","5df5b9f661721940c46c3cd3","bdp_rd","Sun Mar 26 2023 02:23:13 GMT-0400 (Eastern Daylight Time)","161743","","null","","","","offerFB","","<div class='trialBorder'><div class='vertical-center'><img style='vertical-align:center; align:center' src=img/fixation3.jpg></div><div class='cl'><div class='vertical-center'><font style='color:orange'>$30<br>with a<br>50% chance</font></div></div><div class='cr'><div class='vertical-center'>$1<br>for<br>sure</div></div><div class='respDivL'><div class='vertical-center'><font style='color:orange'>(E)</font></div></div><div class='respDivR'><div class='vertical-center'>(I)</div></div></div>","null","$1","$30","1","1","30",""
"html-keyboard-response","163","149269","0.0-5.0-1.53","5df5b9f661721940c46c3cd3","bdp_rd","Sun Mar 26 2023 02:23:13 GMT-0400 (Eastern Daylight Time)","161743","","null","","","","FIX","","<div class='trialBorder'><div class='vertical-center'><img style='vertical-align:center; align:center' src=img/fixation3.jpg></div></div>","null","","","","","",""
"html-keyboard-response","164","149538","0.0-5.0-2.53","5df5b9f661721940c46c3cd3","bdp_rd","Sun Mar 26 2023 02:23:13 GMT-0400 (Eastern Daylight Time)","161743","","268","","","","offer","","<div class='trialBorder'><div class='vertical-center'><img style='vertical-align:center; align:center' src=img/fixation3.jpg></div><div class='cl'><div class='vertical-center'>$35<br>with a<br>50% chance</div></div><div class='cr'><div class='vertical-center'>$12<br>for<br>sure</div></div><div class='respDivL'><div class='vertical-center'>(E)</div></div><div class='respDivR'><div class='vertical-center'>(I)</div></div></div>","I","$12","$35","1","12","35","SURE"
"html-keyboard-response","165","149793","0.0-5.0-3.53","5df5b9f661721940c46c3cd3","bdp_rd","Sun Mar 26 2023 02:23:13 GMT-0400 (Eastern Daylight Time)","161743","","null","","","","offerFB","","<div class='trialBorder'><div class='vertical-center'><img style='vertical-align:center; align:center' src=img/fixation3.jpg></div><div class='cl'><div class='vertical-center'>$35<br>with a<br>50% chance</div></div><div class='cr'><div class='vertical-center'><font style='color:orange'>$12<br>for<br>sure</font></div></div><div class='respDivL'><div class='vertical-center'>(E)</div></div><div class='respDivR'><div class='vertical-center'><font style='color:orange'>(I)</font></div></div></div>","null","$12","$35","1","12","35",""
"html-keyboard-response","166","150295","0.0-5.0-1.54","5df5b9f661721940c46c3cd3","bdp_rd","Sun Mar 26 2023 02:23:13 GMT-0400 (Eastern Daylight Time)","161743","","null","","","","FIX","","<div class='trialBorder'><div class='vertical-center'><img style='vertical-align:center; align:center' src=img/fixation3.jpg></div></div>","null","","","","","",""
"html-keyboard-response","167","151045","0.0-5.0-2.54","5df5b9f661721940c46c3cd3","bdp_rd","Sun Mar 26 2023 02:23:13 GMT-0400 (Eastern Daylight Time)","161743","","749","","","","offer","","<div class='trialBorder'><div class='vertical-center'><img style='vertical-align:center; align:center' src=img/fixation3.jpg></div><div class='cl'><div class='vertical-center'>$89<br>with a<br>50% chance</div></div><div class='cr'><div class='vertical-center'>$28<br>for<br>sure</div></div><div class='respDivL'><div class='vertical-center'>(E)</div></div><div class='respDivR'><div class='vertical-center'>(I)</div></div></div>","I","$28","$89","1","28","89","SURE"
"html-keyboard-response","168","151303","0.0-5.0-3.54","5df5b9f661721940c46c3cd3","bdp_rd","Sun Mar 26 2023 02:23:13 GMT-0400 (Eastern Daylight Time)","161743","","null","","","","offerFB","","<div class='trialBorder'><div class='vertical-center'><img style='vertical-align:center; align:center' src=img/fixation3.jpg></div><div class='cl'><div class='vertical-center'>$89<br>with a<br>50% chance</div></div><div class='cr'><div class='vertical-center'><font style='color:orange'>$28<br>for<br>sure</font></div></div><div class='respDivL'><div class='vertical-center'>(E)</div></div><div class='respDivR'><div class='vertical-center'><font style='color:orange'>(I)</font></div></div></div>","null","$28","$89","1","28","89",""
"html-keyboard-response","169","151805","0.0-5.0-1.55","5df5b9f661721940c46c3cd3","bdp_rd","Sun Mar 26 2023 02:23:13 GMT-0400 (Eastern Daylight Time)","161743","","null","","","","FIX","","<div class='trialBorder'><div class='vertical-center'><img style='vertical-align:center; align:center' src=img/fixation3.jpg></div></div>","null","","","","","",""
"html-keyboard-response","170","152984","0.0-5.0-2.55","5df5b9f661721940c46c3cd3","bdp_rd","Sun Mar 26 2023 02:23:13 GMT-0400 (Eastern Daylight Time)","161743","","1177","","","","offer","","<div class='trialBorder'><div class='vertical-center'><img style='vertical-align:center; align:center' src=img/fixation3.jpg></div><div class='cl'><div class='vertical-center'>$4<br>for<br>sure</div></div><div class='cr'><div class='vertical-center'>$11<br>with a<br>50% chance</div></div><div class='respDivL'><div class='vertical-center'>(E)</div></div><div class='respDivR'><div class='vertical-center'>(I)</div></div></div>","E","$4","$11","0","4","11","SURE"
"html-keyboard-response","171","153241","0.0-5.0-3.55","5df5b9f661721940c46c3cd3","bdp_rd","Sun Mar 26 2023 02:23:13 GMT-0400 (Eastern Daylight Time)","161743","","null","","","","offerFB","","<div class='trialBorder'><div class='vertical-center'><img style='vertical-align:center; align:center' src=img/fixation3.jpg></div><div class='cl'><div class='vertical-center'><font style='color:orange'>$4<br>for<br>sure</font></div></div><div class='cr'><div class='vertical-center'>$11<br>with a<br>50% chance</div></div><div class='respDivL'><div class='vertical-center'><font style='color:orange'>(E)</font></div></div><div class='respDivR'><div class='vertical-center'>(I)</div></div></div>","null","$4","$11","0","4","11",""
"html-keyboard-response","172","153743","0.0-5.0-1.56","5df5b9f661721940c46c3cd3","bdp_rd","Sun Mar 26 2023 02:23:13 GMT-0400 (Eastern Daylight Time)","161743","","null","","","","FIX","","<div class='trialBorder'><div class='vertical-center'><img style='vertical-align:center; align:center' src=img/fixation3.jpg></div></div>","null","","","","","",""
"html-keyboard-response","173","154993","0.0-5.0-2.56","5df5b9f661721940c46c3cd3","bdp_rd","Sun Mar 26 2023 02:23:13 GMT-0400 (Eastern Daylight Time)","161743","","1249","","","","offer","","<div class='trialBorder'><div class='vertical-center'><img style='vertical-align:center; align:center' src=img/fixation3.jpg></div><div class='cl'><div class='vertical-center'>$69<br>with a<br>50% chance</div></div><div class='cr'><div class='vertical-center'>$58<br>for<br>sure</div></div><div class='respDivL'><div class='vertical-center'>(E)</div></div><div class='respDivR'><div class='vertical-center'>(I)</div></div></div>","I","$58","$69","1","58","69","SURE"
