"trial_type","trial_index","time_elapsed","internal_node_id","subject_id","task","startTime","totalTime","view_history","rt","event","trial","time","trialtype","success","stimulus","key_press","sureOffer","riskyOffer","riskyLeft","sureAmt","riskyAmt","chosen"
"pavlovia","0","2","0.0-0.0","ds_test","bdp_rd","Sat Feb 18 2023 17:03:45 GMT-0500 (Eastern Standard Time)","63159","","","","","","","","","","","","","","",""
"instructions","1","3841","0.0-1.0","ds_test","bdp_rd","Sat Feb 18 2023 17:03:45 GMT-0500 (Eastern Standard Time)","63159","[{""page_index"":0,""viewing_time"":3839}]","3839","","","","","","","","","","","","",""
"","","","","ds_test","bdp_rd","Sat Feb 18 2023 17:03:45 GMT-0500 (Eastern Standard Time)","63159","","","fullscreenenter","2","5361","fullscreenenter","","","","","","","","",""
"fullscreen","2","6367","0.0-2.0","ds_test","bdp_rd","Sat Feb 18 2023 17:03:45 GMT-0500 (Eastern Standard Time)","63159","","","","","","","true","","","","","","","",""
"instructions","3","10028","0.0-4.0","ds_test","bdp_rd","Sat Feb 18 2023 17:03:45 GMT-0500 (Eastern Standard Time)","63159","[{""page_index"":0,""viewing_time"":840},{""page_index"":1,""viewing_time"":1318},{""page_index"":2,""viewing_time"":1502}]","3660","","","","","","","","","","","","",""
"html-keyboard-response","4","10532","0.0-5.0-1.0","ds_test","bdp_rd","Sat Feb 18 2023 17:03:45 GMT-0500 (Eastern Standard Time)","63159","","null","","","","FIX","","<div class='trialBorder'><div class='vertical-center'><img style='vertical-align:center; align:center' src=img/fixation3.jpg></div></div>","null","","","","","",""
"html-keyboard-response","5","10895","0.0-5.0-2.0","ds_test","bdp_rd","Sat Feb 18 2023 17:03:45 GMT-0500 (Eastern Standard Time)","63159","","361","","","","offer","","<div class='trialBorder'><div class='vertical-center'><img style='vertical-align:center; align:center' src=img/fixation3.jpg></div><div class='cl'><div class='vertical-center'>$59<br>with a<br>50% chance</div></div><div class='cr'><div class='vertical-center'>$22<br>for<br>sure</div></div><div class='respDivL'><div class='vertical-center'>(E)</div></div><div class='respDivR'><div class='vertical-center'>(I)</div></div></div>","E","$22","$59","1","22","59","RISKY"
"html-keyboard-response","6","11157","0.0-5.0-3.0","ds_test","bdp_rd","Sat Feb 18 2023 17:03:45 GMT-0500 (Eastern Standard Time)","63159","","null","","","","offer","","<div class='trialBorder'><div class='vertical-center'><img style='vertical-align:center; align:center' src=img/fixation3.jpg></div><div class='cl'><div class='vertical-center'><font style='color:orange'>$59<br>with a<br>50% chance</font></div></div><div class='cr'><div class='vertical-center'>$22<br>for<br>sure</div></div><div class='respDivL'><div class='vertical-center'><font style='color:orange'>(E)</font></div></div><div class='respDivR'><div class='vertical-center'>(I)</div></div></div>","null","$22","$59","1","22","59",""
"html-keyboard-response","7","11669","0.0-5.0-1.1","ds_test","bdp_rd","Sat Feb 18 2023 17:03:45 GMT-0500 (Eastern Standard Time)","63159","","null","","","","FIX","","<div class='trialBorder'><div class='vertical-center'><img style='vertical-align:center; align:center' src=img/fixation3.jpg></div></div>","null","","","","","",""
"html-keyboard-response","8","11689","0.0-5.0-2.1","ds_test","bdp_rd","Sat Feb 18 2023 17:03:45 GMT-0500 (Eastern Standard Time)","63159","","20","","","","offer","","<div class='trialBorder'><div class='vertical-center'><img style='vertical-align:center; align:center' src=img/fixation3.jpg></div><div class='cl'><div class='vertical-center'>$47<br>with a<br>50% chance</div></div><div class='cr'><div class='vertical-center'>$27<br>for<br>sure</div></div><div class='respDivL'><div class='vertical-center'>(E)</div></div><div class='respDivR'><div class='vertical-center'>(I)</div></div></div>","E","$27","$47","1","27","47","RISKY"
"html-keyboard-response","9","11944","0.0-5.0-3.1","ds_test","bdp_rd","Sat Feb 18 2023 17:03:45 GMT-0500 (Eastern Standard Time)","63159","","null","","","","offer","","<div class='trialBorder'><div class='vertical-center'><img style='vertical-align:center; align:center' src=img/fixation3.jpg></div><div class='cl'><div class='vertical-center'><font style='color:orange'>$47<br>with a<br>50% chance</font></div></div><div class='cr'><div class='vertical-center'>$27<br>for<br>sure</div></div><div class='respDivL'><div class='vertical-center'><font style='color:orange'>(E)</font></div></div><div class='respDivR'><div class='vertical-center'>(I)</div></div></div>","null","$27","$47","1","27","47",""
"html-keyboard-response","10","12453","0.0-5.0-1.2","ds_test","bdp_rd","Sat Feb 18 2023 17:03:45 GMT-0500 (Eastern Standard Time)","63159","","null","","","","FIX","","<div class='trialBorder'><div class='vertical-center'><img style='vertical-align:center; align:center' src=img/fixation3.jpg></div></div>","null","","","","","",""
"html-keyboard-response","11","12469","0.0-5.0-2.2","ds_test","bdp_rd","Sat Feb 18 2023 17:03:45 GMT-0500 (Eastern Standard Time)","63159","","14","","","","offer","","<div class='trialBorder'><div class='vertical-center'><img style='vertical-align:center; align:center' src=img/fixation3.jpg></div><div class='cl'><div class='vertical-center'>$40<br>for<br>sure</div></div><div class='cr'><div class='vertical-center'>$95<br>with a<br>50% chance</div></div><div class='respDivL'><div class='vertical-center'>(E)</div></div><div class='respDivR'><div class='vertical-center'>(I)</div></div></div>","E","$40","$95","0","40","95","SURE"
"html-keyboard-response","12","12725","0.0-5.0-3.2","ds_test","bdp_rd","Sat Feb 18 2023 17:03:45 GMT-0500 (Eastern Standard Time)","63159","","null","","","","offer","","<div class='trialBorder'><div class='vertical-center'><img style='vertical-align:center; align:center' src=img/fixation3.jpg></div><div class='cl'><div class='vertical-center'><font style='color:orange'>$40<br>for<br>sure</font></div></div><div class='cr'><div class='vertical-center'>$95<br>with a<br>50% chance</div></div><div class='respDivL'><div class='vertical-center'><font style='color:orange'>(E)</font></div></div><div class='respDivR'><div class='vertical-center'>(I)</div></div></div>","null","$40","$95","0","40","95",""
"html-keyboard-response","13","13237","0.0-5.0-1.3","ds_test","bdp_rd","Sat Feb 18 2023 17:03:45 GMT-0500 (Eastern Standard Time)","63159","","null","","","","FIX","","<div class='trialBorder'><div class='vertical-center'><img style='vertical-align:center; align:center' src=img/fixation3.jpg></div></div>","null","","","","","",""
"html-keyboard-response","14","13377","0.0-5.0-2.3","ds_test","bdp_rd","Sat Feb 18 2023 17:03:45 GMT-0500 (Eastern Standard Time)","63159","","138","","","","offer","","<div class='trialBorder'><div class='vertical-center'><img style='vertical-align:center; align:center' src=img/fixation3.jpg></div><div class='cl'><div class='vertical-center'>$17<br>with a<br>50% chance</div></div><div class='cr'><div class='vertical-center'>$3<br>for<br>sure</div></div><div class='respDivL'><div class='vertical-center'>(E)</div></div><div class='respDivR'><div class='vertical-center'>(I)</div></div></div>","E","$3","$17","1","3","17","RISKY"
"html-keyboard-response","15","13637","0.0-5.0-3.3","ds_test","bdp_rd","Sat Feb 18 2023 17:03:45 GMT-0500 (Eastern Standard Time)","63159","","null","","","","offer","","<div class='trialBorder'><div class='vertical-center'><img style='vertical-align:center; align:center' src=img/fixation3.jpg></div><div class='cl'><div class='vertical-center'><font style='color:orange'>$17<br>with a<br>50% chance</font></div></div><div class='cr'><div class='vertical-center'>$3<br>for<br>sure</div></div><div class='respDivL'><div class='vertical-center'><font style='color:orange'>(E)</font></div></div><div class='respDivR'><div class='vertical-center'>(I)</div></div></div>","null","$3","$17","1","3","17",""
"html-keyboard-response","16","14148","0.0-5.0-1.4","ds_test","bdp_rd","Sat Feb 18 2023 17:03:45 GMT-0500 (Eastern Standard Time)","63159","","null","","","","FIX","","<div class='trialBorder'><div class='vertical-center'><img style='vertical-align:center; align:center' src=img/fixation3.jpg></div></div>","null","","","","","",""
"html-keyboard-response","17","14191","0.0-5.0-2.4","ds_test","bdp_rd","Sat Feb 18 2023 17:03:45 GMT-0500 (Eastern Standard Time)","63159","","41","","","","offer","","<div class='trialBorder'><div class='vertical-center'><img style='vertical-align:center; align:center' src=img/fixation3.jpg></div><div class='cl'><div class='vertical-center'>$7<br>for<br>sure</div></div><div class='cr'><div class='vertical-center'>$71<br>with a<br>50% chance</div></div><div class='respDivL'><div class='vertical-center'>(E)</div></div><div class='respDivR'><div class='vertical-center'>(I)</div></div></div>","E","$7","$71","0","7","71","SURE"
"html-keyboard-response","18","14448","0.0-5.0-3.4","ds_test","bdp_rd","Sat Feb 18 2023 17:03:45 GMT-0500 (Eastern Standard Time)","63159","","null","","","","offer","","<div class='trialBorder'><div class='vertical-center'><img style='vertical-align:center; align:center' src=img/fixation3.jpg></div><div class='cl'><div class='vertical-center'><font style='color:orange'>$7<br>for<br>sure</font></div></div><div class='cr'><div class='vertical-center'>$71<br>with a<br>50% chance</div></div><div class='respDivL'><div class='vertical-center'><font style='color:orange'>(E)</font></div></div><div class='respDivR'><div class='vertical-center'>(I)</div></div></div>","null","$7","$71","0","7","71",""
"html-keyboard-response","19","14960","0.0-5.0-1.5","ds_test","bdp_rd","Sat Feb 18 2023 17:03:45 GMT-0500 (Eastern Standard Time)","63159","","null","","","","FIX","","<div class='trialBorder'><div class='vertical-center'><img style='vertical-align:center; align:center' src=img/fixation3.jpg></div></div>","null","","","","","",""
"html-keyboard-response","20","15030","0.0-5.0-2.5","ds_test","bdp_rd","Sat Feb 18 2023 17:03:45 GMT-0500 (Eastern Standard Time)","63159","","68","","","","offer","","<div class='trialBorder'><div class='vertical-center'><img style='vertical-align:center; align:center' src=img/fixation3.jpg></div><div class='cl'><div class='vertical-center'>$7<br>for<br>sure</div></div><div class='cr'><div class='vertical-center'>$10<br>with a<br>50% chance</div></div><div class='respDivL'><div class='vertical-center'>(E)</div></div><div class='respDivR'><div class='vertical-center'>(I)</div></div></div>","E","$7","$10","0","7","10","SURE"
"html-keyboard-response","21","15285","0.0-5.0-3.5","ds_test","bdp_rd","Sat Feb 18 2023 17:03:45 GMT-0500 (Eastern Standard Time)","63159","","null","","","","offer","","<div class='trialBorder'><div class='vertical-center'><img style='vertical-align:center; align:center' src=img/fixation3.jpg></div><div class='cl'><div class='vertical-center'><font style='color:orange'>$7<br>for<br>sure</font></div></div><div class='cr'><div class='vertical-center'>$10<br>with a<br>50% chance</div></div><div class='respDivL'><div class='vertical-center'><font style='color:orange'>(E)</font></div></div><div class='respDivR'><div class='vertical-center'>(I)</div></div></div>","null","$7","$10","0","7","10",""
"html-keyboard-response","22","15791","0.0-5.0-1.6","ds_test","bdp_rd","Sat Feb 18 2023 17:03:45 GMT-0500 (Eastern Standard Time)","63159","","null","","","","FIX","","<div class='trialBorder'><div class='vertical-center'><img style='vertical-align:center; align:center' src=img/fixation3.jpg></div></div>","null","","","","","",""
"html-keyboard-response","23","15886","0.0-5.0-2.6","ds_test","bdp_rd","Sat Feb 18 2023 17:03:45 GMT-0500 (Eastern Standard Time)","63159","","95","","","","offer","","<div class='trialBorder'><div class='vertical-center'><img style='vertical-align:center; align:center' src=img/fixation3.jpg></div><div class='cl'><div class='vertical-center'>$31<br>for<br>sure</div></div><div class='cr'><div class='vertical-center'>$78<br>with a<br>50% chance</div></div><div class='respDivL'><div class='vertical-center'>(E)</div></div><div class='respDivR'><div class='vertical-center'>(I)</div></div></div>","E","$31","$78","0","31","78","SURE"
"html-keyboard-response","24","16144","0.0-5.0-3.6","ds_test","bdp_rd","Sat Feb 18 2023 17:03:45 GMT-0500 (Eastern Standard Time)","63159","","null","","","","offer","","<div class='trialBorder'><div class='vertical-center'><img style='vertical-align:center; align:center' src=img/fixation3.jpg></div><div class='cl'><div class='vertical-center'><font style='color:orange'>$31<br>for<br>sure</font></div></div><div class='cr'><div class='vertical-center'>$78<br>with a<br>50% chance</div></div><div class='respDivL'><div class='vertical-center'><font style='color:orange'>(E)</font></div></div><div class='respDivR'><div class='vertical-center'>(I)</div></div></div>","null","$31","$78","0","31","78",""
"html-keyboard-response","25","16651","0.0-5.0-1.7","ds_test","bdp_rd","Sat Feb 18 2023 17:03:45 GMT-0500 (Eastern Standard Time)","63159","","null","","","","FIX","","<div class='trialBorder'><div class='vertical-center'><img style='vertical-align:center; align:center' src=img/fixation3.jpg></div></div>","null","","","","","",""
"html-keyboard-response","26","16746","0.0-5.0-2.7","ds_test","bdp_rd","Sat Feb 18 2023 17:03:45 GMT-0500 (Eastern Standard Time)","63159","","92","","","","offer","","<div class='trialBorder'><div class='vertical-center'><img style='vertical-align:center; align:center' src=img/fixation3.jpg></div><div class='cl'><div class='vertical-center'>$22<br>for<br>sure</div></div><div class='cr'><div class='vertical-center'>$42<br>with a<br>50% chance</div></div><div class='respDivL'><div class='vertical-center'>(E)</div></div><div class='respDivR'><div class='vertical-center'>(I)</div></div></div>","E","$22","$42","0","22","42","SURE"
"html-keyboard-response","27","17007","0.0-5.0-3.7","ds_test","bdp_rd","Sat Feb 18 2023 17:03:45 GMT-0500 (Eastern Standard Time)","63159","","null","","","","offer","","<div class='trialBorder'><div class='vertical-center'><img style='vertical-align:center; align:center' src=img/fixation3.jpg></div><div class='cl'><div class='vertical-center'><font style='color:orange'>$22<br>for<br>sure</font></div></div><div class='cr'><div class='vertical-center'>$42<br>with a<br>50% chance</div></div><div class='respDivL'><div class='vertical-center'><font style='color:orange'>(E)</font></div></div><div class='respDivR'><div class='vertical-center'>(I)</div></div></div>","null","$22","$42","0","22","42",""
"html-keyboard-response","28","17520","0.0-5.0-1.8","ds_test","bdp_rd","Sat Feb 18 2023 17:03:45 GMT-0500 (Eastern Standard Time)","63159","","null","","","","FIX","","<div class='trialBorder'><div class='vertical-center'><img style='vertical-align:center; align:center' src=img/fixation3.jpg></div></div>","null","","","","","",""
"html-keyboard-response","29","17650","0.0-5.0-2.8","ds_test","bdp_rd","Sat Feb 18 2023 17:03:45 GMT-0500 (Eastern Standard Time)","63159","","128","","","","offer","","<div class='trialBorder'><div class='vertical-center'><img style='vertical-align:center; align:center' src=img/fixation3.jpg></div><div class='cl'><div class='vertical-center'>$73<br>with a<br>50% chance</div></div><div class='cr'><div class='vertical-center'>$42<br>for<br>sure</div></div><div class='respDivL'><div class='vertical-center'>(E)</div></div><div class='respDivR'><div class='vertical-center'>(I)</div></div></div>","E","$42","$73","1","42","73","RISKY"
"html-keyboard-response","30","17909","0.0-5.0-3.8","ds_test","bdp_rd","Sat Feb 18 2023 17:03:45 GMT-0500 (Eastern Standard Time)","63159","","null","","","","offer","","<div class='trialBorder'><div class='vertical-center'><img style='vertical-align:center; align:center' src=img/fixation3.jpg></div><div class='cl'><div class='vertical-center'><font style='color:orange'>$73<br>with a<br>50% chance</font></div></div><div class='cr'><div class='vertical-center'>$42<br>for<br>sure</div></div><div class='respDivL'><div class='vertical-center'><font style='color:orange'>(E)</font></div></div><div class='respDivR'><div class='vertical-center'>(I)</div></div></div>","null","$42","$73","1","42","73",""
"html-keyboard-response","31","18415","0.0-5.0-1.9","ds_test","bdp_rd","Sat Feb 18 2023 17:03:45 GMT-0500 (Eastern Standard Time)","63159","","null","","","","FIX","","<div class='trialBorder'><div class='vertical-center'><img style='vertical-align:center; align:center' src=img/fixation3.jpg></div></div>","null","","","","","",""
"html-keyboard-response","32","18575","0.0-5.0-2.9","ds_test","bdp_rd","Sat Feb 18 2023 17:03:45 GMT-0500 (Eastern Standard Time)","63159","","159","","","","offer","","<div class='trialBorder'><div class='vertical-center'><img style='vertical-align:center; align:center' src=img/fixation3.jpg></div><div class='cl'><div class='vertical-center'>$13<br>for<br>sure</div></div><div class='cr'><div class='vertical-center'>$24<br>with a<br>50% chance</div></div><div class='respDivL'><div class='vertical-center'>(E)</div></div><div class='respDivR'><div class='vertical-center'>(I)</div></div></div>","E","$13","$24","0","13","24","SURE"
"html-keyboard-response","33","18831","0.0-5.0-3.9","ds_test","bdp_rd","Sat Feb 18 2023 17:03:45 GMT-0500 (Eastern Standard Time)","63159","","null","","","","offer","","<div class='trialBorder'><div class='vertical-center'><img style='vertical-align:center; align:center' src=img/fixation3.jpg></div><div class='cl'><div class='vertical-center'><font style='color:orange'>$13<br>for<br>sure</font></div></div><div class='cr'><div class='vertical-center'>$24<br>with a<br>50% chance</div></div><div class='respDivL'><div class='vertical-center'><font style='color:orange'>(E)</font></div></div><div class='respDivR'><div class='vertical-center'>(I)</div></div></div>","null","$13","$24","0","13","24",""
"html-keyboard-response","34","19336","0.0-5.0-1.10","ds_test","bdp_rd","Sat Feb 18 2023 17:03:45 GMT-0500 (Eastern Standard Time)","63159","","null","","","","FIX","","<div class='trialBorder'><div class='vertical-center'><img style='vertical-align:center; align:center' src=img/fixation3.jpg></div></div>","null","","","","","",""
"html-keyboard-response","35","19436","0.0-5.0-2.10","ds_test","bdp_rd","Sat Feb 18 2023 17:03:45 GMT-0500 (Eastern Standard Time)","63159","","100","","","","offer","","<div class='trialBorder'><div class='vertical-center'><img style='vertical-align:center; align:center' src=img/fixation3.jpg></div><div class='cl'><div class='vertical-center'>$18<br>with a<br>50% chance</div></div><div class='cr'><div class='vertical-center'>$9<br>for<br>sure</div></div><div class='respDivL'><div class='vertical-center'>(E)</div></div><div class='respDivR'><div class='vertical-center'>(I)</div></div></div>","E","$9","$18","1","9","18","RISKY"
"html-keyboard-response","36","19695","0.0-5.0-3.10","ds_test","bdp_rd","Sat Feb 18 2023 17:03:45 GMT-0500 (Eastern Standard Time)","63159","","null","","","","offer","","<div class='trialBorder'><div class='vertical-center'><img style='vertical-align:center; align:center' src=img/fixation3.jpg></div><div class='cl'><div class='vertical-center'><font style='color:orange'>$18<br>with a<br>50% chance</font></div></div><div class='cr'><div class='vertical-center'>$9<br>for<br>sure</div></div><div class='respDivL'><div class='vertical-center'><font style='color:orange'>(E)</font></div></div><div class='respDivR'><div class='vertical-center'>(I)</div></div></div>","null","$9","$18","1","9","18",""
"html-keyboard-response","37","20207","0.0-5.0-1.11","ds_test","bdp_rd","Sat Feb 18 2023 17:03:45 GMT-0500 (Eastern Standard Time)","63159","","null","","","","FIX","","<div class='trialBorder'><div class='vertical-center'><img style='vertical-align:center; align:center' src=img/fixation3.jpg></div></div>","null","","","","","",""
"html-keyboard-response","38","20311","0.0-5.0-2.11","ds_test","bdp_rd","Sat Feb 18 2023 17:03:45 GMT-0500 (Eastern Standard Time)","63159","","103","","","","offer","","<div class='trialBorder'><div class='vertical-center'><img style='vertical-align:center; align:center' src=img/fixation3.jpg></div><div class='cl'><div class='vertical-center'>$18<br>for<br>sure</div></div><div class='cr'><div class='vertical-center'>$39<br>with a<br>50% chance</div></div><div class='respDivL'><div class='vertical-center'>(E)</div></div><div class='respDivR'><div class='vertical-center'>(I)</div></div></div>","E","$18","$39","0","18","39","SURE"
"html-keyboard-response","39","20564","0.0-5.0-3.11","ds_test","bdp_rd","Sat Feb 18 2023 17:03:45 GMT-0500 (Eastern Standard Time)","63159","","null","","","","offer","","<div class='trialBorder'><div class='vertical-center'><img style='vertical-align:center; align:center' src=img/fixation3.jpg></div><div class='cl'><div class='vertical-center'><font style='color:orange'>$18<br>for<br>sure</font></div></div><div class='cr'><div class='vertical-center'>$39<br>with a<br>50% chance</div></div><div class='respDivL'><div class='vertical-center'><font style='color:orange'>(E)</font></div></div><div class='respDivR'><div class='vertical-center'>(I)</div></div></div>","null","$18","$39","0","18","39",""
"html-keyboard-response","40","21071","0.0-5.0-1.12","ds_test","bdp_rd","Sat Feb 18 2023 17:03:45 GMT-0500 (Eastern Standard Time)","63159","","null","","","","FIX","","<div class='trialBorder'><div class='vertical-center'><img style='vertical-align:center; align:center' src=img/fixation3.jpg></div></div>","null","","","","","",""
"html-keyboard-response","41","21214","0.0-5.0-2.12","ds_test","bdp_rd","Sat Feb 18 2023 17:03:45 GMT-0500 (Eastern Standard Time)","63159","","142","","","","offer","","<div class='trialBorder'><div class='vertical-center'><img style='vertical-align:center; align:center' src=img/fixation3.jpg></div><div class='cl'><div class='vertical-center'>$34<br>with a<br>50% chance</div></div><div class='cr'><div class='vertical-center'>$15<br>for<br>sure</div></div><div class='respDivL'><div class='vertical-center'>(E)</div></div><div class='respDivR'><div class='vertical-center'>(I)</div></div></div>","E","$15","$34","1","15","34","RISKY"
"html-keyboard-response","42","21472","0.0-5.0-3.12","ds_test","bdp_rd","Sat Feb 18 2023 17:03:45 GMT-0500 (Eastern Standard Time)","63159","","null","","","","offer","","<div class='trialBorder'><div class='vertical-center'><img style='vertical-align:center; align:center' src=img/fixation3.jpg></div><div class='cl'><div class='vertical-center'><font style='color:orange'>$34<br>with a<br>50% chance</font></div></div><div class='cr'><div class='vertical-center'>$15<br>for<br>sure</div></div><div class='respDivL'><div class='vertical-center'><font style='color:orange'>(E)</font></div></div><div class='respDivR'><div class='vertical-center'>(I)</div></div></div>","null","$15","$34","1","15","34",""
"html-keyboard-response","43","21983","0.0-5.0-1.13","ds_test","bdp_rd","Sat Feb 18 2023 17:03:45 GMT-0500 (Eastern Standard Time)","63159","","null","","","","FIX","","<div class='trialBorder'><div class='vertical-center'><img style='vertical-align:center; align:center' src=img/fixation3.jpg></div></div>","null","","","","","",""
"html-keyboard-response","44","22159","0.0-5.0-2.13","ds_test","bdp_rd","Sat Feb 18 2023 17:03:45 GMT-0500 (Eastern Standard Time)","63159","","175","","","","offer","","<div class='trialBorder'><div class='vertical-center'><img style='vertical-align:center; align:center' src=img/fixation3.jpg></div><div class='cl'><div class='vertical-center'>$10<br>for<br>sure</div></div><div class='cr'><div class='vertical-center'>$19<br>with a<br>50% chance</div></div><div class='respDivL'><div class='vertical-center'>(E)</div></div><div class='respDivR'><div class='vertical-center'>(I)</div></div></div>","I","$10","$19","0","10","19","RISKY"
"html-keyboard-response","45","22415","0.0-5.0-3.13","ds_test","bdp_rd","Sat Feb 18 2023 17:03:45 GMT-0500 (Eastern Standard Time)","63159","","null","","","","offer","","<div class='trialBorder'><div class='vertical-center'><img style='vertical-align:center; align:center' src=img/fixation3.jpg></div><div class='cl'><div class='vertical-center'>$10<br>for<br>sure</div></div><div class='cr'><div class='vertical-center'><font style='color:orange'>$19<br>with a<br>50% chance</font></div></div><div class='respDivL'><div class='vertical-center'>(E)</div></div><div class='respDivR'><div class='vertical-center'><font style='color:orange'>(I)</font></div></div></div>","null","$10","$19","0","10","19",""
"html-keyboard-response","46","22927","0.0-5.0-1.14","ds_test","bdp_rd","Sat Feb 18 2023 17:03:45 GMT-0500 (Eastern Standard Time)","63159","","null","","","","FIX","","<div class='trialBorder'><div class='vertical-center'><img style='vertical-align:center; align:center' src=img/fixation3.jpg></div></div>","null","","","","","",""
"html-keyboard-response","47","23111","0.0-5.0-2.14","ds_test","bdp_rd","Sat Feb 18 2023 17:03:45 GMT-0500 (Eastern Standard Time)","63159","","182","","","","offer","","<div class='trialBorder'><div class='vertical-center'><img style='vertical-align:center; align:center' src=img/fixation3.jpg></div><div class='cl'><div class='vertical-center'>$8<br>for<br>sure</div></div><div class='cr'><div class='vertical-center'>$23<br>with a<br>50% chance</div></div><div class='respDivL'><div class='vertical-center'>(E)</div></div><div class='respDivR'><div class='vertical-center'>(I)</div></div></div>","I","$8","$23","0","8","23","RISKY"
"html-keyboard-response","48","23365","0.0-5.0-3.14","ds_test","bdp_rd","Sat Feb 18 2023 17:03:45 GMT-0500 (Eastern Standard Time)","63159","","null","","","","offer","","<div class='trialBorder'><div class='vertical-center'><img style='vertical-align:center; align:center' src=img/fixation3.jpg></div><div class='cl'><div class='vertical-center'>$8<br>for<br>sure</div></div><div class='cr'><div class='vertical-center'><font style='color:orange'>$23<br>with a<br>50% chance</font></div></div><div class='respDivL'><div class='vertical-center'>(E)</div></div><div class='respDivR'><div class='vertical-center'><font style='color:orange'>(I)</font></div></div></div>","null","$8","$23","0","8","23",""
"html-keyboard-response","49","23877","0.0-5.0-1.15","ds_test","bdp_rd","Sat Feb 18 2023 17:03:45 GMT-0500 (Eastern Standard Time)","63159","","null","","","","FIX","","<div class='trialBorder'><div class='vertical-center'><img style='vertical-align:center; align:center' src=img/fixation3.jpg></div></div>","null","","","","","",""
"html-keyboard-response","50","23893","0.0-5.0-2.15","ds_test","bdp_rd","Sat Feb 18 2023 17:03:45 GMT-0500 (Eastern Standard Time)","63159","","16","","","","offer","","<div class='trialBorder'><div class='vertical-center'><img style='vertical-align:center; align:center' src=img/fixation3.jpg></div><div class='cl'><div class='vertical-center'>$37<br>with a<br>50% chance</div></div><div class='cr'><div class='vertical-center'>$20<br>for<br>sure</div></div><div class='respDivL'><div class='vertical-center'>(E)</div></div><div class='respDivR'><div class='vertical-center'>(I)</div></div></div>","I","$20","$37","1","20","37","SURE"
"html-keyboard-response","51","24149","0.0-5.0-3.15","ds_test","bdp_rd","Sat Feb 18 2023 17:03:45 GMT-0500 (Eastern Standard Time)","63159","","null","","","","offer","","<div class='trialBorder'><div class='vertical-center'><img style='vertical-align:center; align:center' src=img/fixation3.jpg></div><div class='cl'><div class='vertical-center'>$37<br>with a<br>50% chance</div></div><div class='cr'><div class='vertical-center'><font style='color:orange'>$20<br>for<br>sure</font></div></div><div class='respDivL'><div class='vertical-center'>(E)</div></div><div class='respDivR'><div class='vertical-center'><font style='color:orange'>(I)</font></div></div></div>","null","$20","$37","1","20","37",""
"html-keyboard-response","52","24655","0.0-5.0-1.16","ds_test","bdp_rd","Sat Feb 18 2023 17:03:45 GMT-0500 (Eastern Standard Time)","63159","","null","","","","FIX","","<div class='trialBorder'><div class='vertical-center'><img style='vertical-align:center; align:center' src=img/fixation3.jpg></div></div>","null","","","","","",""
"html-keyboard-response","53","24719","0.0-5.0-2.16","ds_test","bdp_rd","Sat Feb 18 2023 17:03:45 GMT-0500 (Eastern Standard Time)","63159","","63","","","","offer","","<div class='trialBorder'><div class='vertical-center'><img style='vertical-align:center; align:center' src=img/fixation3.jpg></div><div class='cl'><div class='vertical-center'>$65<br>with a<br>50% chance</div></div><div class='cr'><div class='vertical-center'>$46<br>for<br>sure</div></div><div class='respDivL'><div class='vertical-center'>(E)</div></div><div class='respDivR'><div class='vertical-center'>(I)</div></div></div>","I","$46","$65","1","46","65","SURE"
"html-keyboard-response","54","24975","0.0-5.0-3.16","ds_test","bdp_rd","Sat Feb 18 2023 17:03:45 GMT-0500 (Eastern Standard Time)","63159","","null","","","","offer","","<div class='trialBorder'><div class='vertical-center'><img style='vertical-align:center; align:center' src=img/fixation3.jpg></div><div class='cl'><div class='vertical-center'>$65<br>with a<br>50% chance</div></div><div class='cr'><div class='vertical-center'><font style='color:orange'>$46<br>for<br>sure</font></div></div><div class='respDivL'><div class='vertical-center'>(E)</div></div><div class='respDivR'><div class='vertical-center'><font style='color:orange'>(I)</font></div></div></div>","null","$46","$65","1","46","65",""
"html-keyboard-response","55","25487","0.0-5.0-1.17","ds_test","bdp_rd","Sat Feb 18 2023 17:03:45 GMT-0500 (Eastern Standard Time)","63159","","null","","","","FIX","","<div class='trialBorder'><div class='vertical-center'><img style='vertical-align:center; align:center' src=img/fixation3.jpg></div></div>","null","","","","","",""
"html-keyboard-response","56","25564","0.0-5.0-2.17","ds_test","bdp_rd","Sat Feb 18 2023 17:03:45 GMT-0500 (Eastern Standard Time)","63159","","74","","","","offer","","<div class='trialBorder'><div class='vertical-center'><img style='vertical-align:center; align:center' src=img/fixation3.jpg></div><div class='cl'><div class='vertical-center'>$54<br>with a<br>50% chance</div></div><div class='cr'><div class='vertical-center'>$25<br>for<br>sure</div></div><div class='respDivL'><div class='vertical-center'>(E)</div></div><div class='respDivR'><div class='vertical-center'>(I)</div></div></div>","I","$25","$54","1","25","54","SURE"
"html-keyboard-response","57","25824","0.0-5.0-3.17","ds_test","bdp_rd","Sat Feb 18 2023 17:03:45 GMT-0500 (Eastern Standard Time)","63159","","null","","","","offer","","<div class='trialBorder'><div class='vertical-center'><img style='vertical-align:center; align:center' src=img/fixation3.jpg></div><div class='cl'><div class='vertical-center'>$54<br>with a<br>50% chance</div></div><div class='cr'><div class='vertical-center'><font style='color:orange'>$25<br>for<br>sure</font></div></div><div class='respDivL'><div class='vertical-center'>(E)</div></div><div class='respDivR'><div class='vertical-center'><font style='color:orange'>(I)</font></div></div></div>","null","$25","$54","1","25","54",""
"html-keyboard-response","58","26336","0.0-5.0-1.18","ds_test","bdp_rd","Sat Feb 18 2023 17:03:45 GMT-0500 (Eastern Standard Time)","63159","","null","","","","FIX","","<div class='trialBorder'><div class='vertical-center'><img style='vertical-align:center; align:center' src=img/fixation3.jpg></div></div>","null","","","","","",""
"html-keyboard-response","59","26412","0.0-5.0-2.18","ds_test","bdp_rd","Sat Feb 18 2023 17:03:45 GMT-0500 (Eastern Standard Time)","63159","","74","","","","offer","","<div class='trialBorder'><div class='vertical-center'><img style='vertical-align:center; align:center' src=img/fixation3.jpg></div><div class='cl'><div class='vertical-center'>$48<br>with a<br>50% chance</div></div><div class='cr'><div class='vertical-center'>$34<br>for<br>sure</div></div><div class='respDivL'><div class='vertical-center'>(E)</div></div><div class='respDivR'><div class='vertical-center'>(I)</div></div></div>","I","$34","$48","1","34","48","SURE"
"html-keyboard-response","60","26672","0.0-5.0-3.18","ds_test","bdp_rd","Sat Feb 18 2023 17:03:45 GMT-0500 (Eastern Standard Time)","63159","","null","","","","offer","","<div class='trialBorder'><div class='vertical-center'><img style='vertical-align:center; align:center' src=img/fixation3.jpg></div><div class='cl'><div class='vertical-center'>$48<br>with a<br>50% chance</div></div><div class='cr'><div class='vertical-center'><font style='color:orange'>$34<br>for<br>sure</font></div></div><div class='respDivL'><div class='vertical-center'>(E)</div></div><div class='respDivR'><div class='vertical-center'><font style='color:orange'>(I)</font></div></div></div>","null","$34","$48","1","34","48",""
"html-keyboard-response","61","27184","0.0-5.0-1.19","ds_test","bdp_rd","Sat Feb 18 2023 17:03:45 GMT-0500 (Eastern Standard Time)","63159","","null","","","","FIX","","<div class='trialBorder'><div class='vertical-center'><img style='vertical-align:center; align:center' src=img/fixation3.jpg></div></div>","null","","","","","",""
"html-keyboard-response","62","27202","0.0-5.0-2.19","ds_test","bdp_rd","Sat Feb 18 2023 17:03:45 GMT-0500 (Eastern Standard Time)","63159","","17","","","","offer","","<div class='trialBorder'><div class='vertical-center'><img style='vertical-align:center; align:center' src=img/fixation3.jpg></div><div class='cl'><div class='vertical-center'>$11<br>for<br>sure</div></div><div class='cr'><div class='vertical-center'>$62<br>with a<br>50% chance</div></div><div class='respDivL'><div class='vertical-center'>(E)</div></div><div class='respDivR'><div class='vertical-center'>(I)</div></div></div>","I","$11","$62","0","11","62","RISKY"
"html-keyboard-response","63","27461","0.0-5.0-3.19","ds_test","bdp_rd","Sat Feb 18 2023 17:03:45 GMT-0500 (Eastern Standard Time)","63159","","null","","","","offer","","<div class='trialBorder'><div class='vertical-center'><img style='vertical-align:center; align:center' src=img/fixation3.jpg></div><div class='cl'><div class='vertical-center'>$11<br>for<br>sure</div></div><div class='cr'><div class='vertical-center'><font style='color:orange'>$62<br>with a<br>50% chance</font></div></div><div class='respDivL'><div class='vertical-center'>(E)</div></div><div class='respDivR'><div class='vertical-center'><font style='color:orange'>(I)</font></div></div></div>","null","$11","$62","0","11","62",""
"html-keyboard-response","64","27967","0.0-5.0-1.20","ds_test","bdp_rd","Sat Feb 18 2023 17:03:45 GMT-0500 (Eastern Standard Time)","63159","","null","","","","FIX","","<div class='trialBorder'><div class='vertical-center'><img style='vertical-align:center; align:center' src=img/fixation3.jpg></div></div>","null","","","","","",""
"html-keyboard-response","65","27997","0.0-5.0-2.20","ds_test","bdp_rd","Sat Feb 18 2023 17:03:45 GMT-0500 (Eastern Standard Time)","63159","","29","","","","offer","","<div class='trialBorder'><div class='vertical-center'><img style='vertical-align:center; align:center' src=img/fixation3.jpg></div><div class='cl'><div class='vertical-center'>$92<br>with a<br>50% chance</div></div><div class='cr'><div class='vertical-center'>$26<br>for<br>sure</div></div><div class='respDivL'><div class='vertical-center'>(E)</div></div><div class='respDivR'><div class='vertical-center'>(I)</div></div></div>","I","$26","$92","1","26","92","SURE"
"html-keyboard-response","66","28255","0.0-5.0-3.20","ds_test","bdp_rd","Sat Feb 18 2023 17:03:45 GMT-0500 (Eastern Standard Time)","63159","","null","","","","offer","","<div class='trialBorder'><div class='vertical-center'><img style='vertical-align:center; align:center' src=img/fixation3.jpg></div><div class='cl'><div class='vertical-center'>$92<br>with a<br>50% chance</div></div><div class='cr'><div class='vertical-center'><font style='color:orange'>$26<br>for<br>sure</font></div></div><div class='respDivL'><div class='vertical-center'>(E)</div></div><div class='respDivR'><div class='vertical-center'><font style='color:orange'>(I)</font></div></div></div>","null","$26","$92","1","26","92",""
"html-keyboard-response","67","28767","0.0-5.0-1.21","ds_test","bdp_rd","Sat Feb 18 2023 17:03:45 GMT-0500 (Eastern Standard Time)","63159","","null","","","","FIX","","<div class='trialBorder'><div class='vertical-center'><img style='vertical-align:center; align:center' src=img/fixation3.jpg></div></div>","null","","","","","",""
"html-keyboard-response","68","28778","0.0-5.0-2.21","ds_test","bdp_rd","Sat Feb 18 2023 17:03:45 GMT-0500 (Eastern Standard Time)","63159","","9","","","","offer","","<div class='trialBorder'><div class='vertical-center'><img style='vertical-align:center; align:center' src=img/fixation3.jpg></div><div class='cl'><div class='vertical-center'>$33<br>for<br>sure</div></div><div class='cr'><div class='vertical-center'>$66<br>with a<br>50% chance</div></div><div class='respDivL'><div class='vertical-center'>(E)</div></div><div class='respDivR'><div class='vertical-center'>(I)</div></div></div>","I","$33","$66","0","33","66","RISKY"
"html-keyboard-response","69","29040","0.0-5.0-3.21","ds_test","bdp_rd","Sat Feb 18 2023 17:03:45 GMT-0500 (Eastern Standard Time)","63159","","null","","","","offer","","<div class='trialBorder'><div class='vertical-center'><img style='vertical-align:center; align:center' src=img/fixation3.jpg></div><div class='cl'><div class='vertical-center'>$33<br>for<br>sure</div></div><div class='cr'><div class='vertical-center'><font style='color:orange'>$66<br>with a<br>50% chance</font></div></div><div class='respDivL'><div class='vertical-center'>(E)</div></div><div class='respDivR'><div class='vertical-center'><font style='color:orange'>(I)</font></div></div></div>","null","$33","$66","0","33","66",""
"html-keyboard-response","70","29552","0.0-5.0-1.22","ds_test","bdp_rd","Sat Feb 18 2023 17:03:45 GMT-0500 (Eastern Standard Time)","63159","","null","","","","FIX","","<div class='trialBorder'><div class='vertical-center'><img style='vertical-align:center; align:center' src=img/fixation3.jpg></div></div>","null","","","","","",""
"html-keyboard-response","71","29570","0.0-5.0-2.22","ds_test","bdp_rd","Sat Feb 18 2023 17:03:45 GMT-0500 (Eastern Standard Time)","63159","","13","","","","offer","","<div class='trialBorder'><div class='vertical-center'><img style='vertical-align:center; align:center' src=img/fixation3.jpg></div><div class='cl'><div class='vertical-center'>$44<br>with a<br>50% chance</div></div><div class='cr'><div class='vertical-center'>$37<br>for<br>sure</div></div><div class='respDivL'><div class='vertical-center'>(E)</div></div><div class='respDivR'><div class='vertical-center'>(I)</div></div></div>","I","$37","$44","1","37","44","SURE"
"html-keyboard-response","72","29830","0.0-5.0-3.22","ds_test","bdp_rd","Sat Feb 18 2023 17:03:45 GMT-0500 (Eastern Standard Time)","63159","","null","","","","offer","","<div class='trialBorder'><div class='vertical-center'><img style='vertical-align:center; align:center' src=img/fixation3.jpg></div><div class='cl'><div class='vertical-center'>$44<br>with a<br>50% chance</div></div><div class='cr'><div class='vertical-center'><font style='color:orange'>$37<br>for<br>sure</font></div></div><div class='respDivL'><div class='vertical-center'>(E)</div></div><div class='respDivR'><div class='vertical-center'><font style='color:orange'>(I)</font></div></div></div>","null","$37","$44","1","37","44",""
"html-keyboard-response","73","30340","0.0-5.0-1.23","ds_test","bdp_rd","Sat Feb 18 2023 17:03:45 GMT-0500 (Eastern Standard Time)","63159","","null","","","","FIX","","<div class='trialBorder'><div class='vertical-center'><img style='vertical-align:center; align:center' src=img/fixation3.jpg></div></div>","null","","","","","",""
"html-keyboard-response","74","30388","0.0-5.0-2.23","ds_test","bdp_rd","Sat Feb 18 2023 17:03:45 GMT-0500 (Eastern Standard Time)","63159","","47","","","","offer","","<div class='trialBorder'><div class='vertical-center'><img style='vertical-align:center; align:center' src=img/fixation3.jpg></div><div class='cl'><div class='vertical-center'>$12<br>for<br>sure</div></div><div class='cr'><div class='vertical-center'>$35<br>with a<br>50% chance</div></div><div class='respDivL'><div class='vertical-center'>(E)</div></div><div class='respDivR'><div class='vertical-center'>(I)</div></div></div>","I","$12","$35","0","12","35","RISKY"
"html-keyboard-response","75","30644","0.0-5.0-3.23","ds_test","bdp_rd","Sat Feb 18 2023 17:03:45 GMT-0500 (Eastern Standard Time)","63159","","null","","","","offer","","<div class='trialBorder'><div class='vertical-center'><img style='vertical-align:center; align:center' src=img/fixation3.jpg></div><div class='cl'><div class='vertical-center'>$12<br>for<br>sure</div></div><div class='cr'><div class='vertical-center'><font style='color:orange'>$35<br>with a<br>50% chance</font></div></div><div class='respDivL'><div class='vertical-center'>(E)</div></div><div class='respDivR'><div class='vertical-center'><font style='color:orange'>(I)</font></div></div></div>","null","$12","$35","0","12","35",""
"html-keyboard-response","76","31151","0.0-5.0-1.24","ds_test","bdp_rd","Sat Feb 18 2023 17:03:45 GMT-0500 (Eastern Standard Time)","63159","","null","","","","FIX","","<div class='trialBorder'><div class='vertical-center'><img style='vertical-align:center; align:center' src=img/fixation3.jpg></div></div>","null","","","","","",""
"html-keyboard-response","77","31195","0.0-5.0-2.24","ds_test","bdp_rd","Sat Feb 18 2023 17:03:45 GMT-0500 (Eastern Standard Time)","63159","","43","","","","offer","","<div class='trialBorder'><div class='vertical-center'><img style='vertical-align:center; align:center' src=img/fixation3.jpg></div><div class='cl'><div class='vertical-center'>$28<br>for<br>sure</div></div><div class='cr'><div class='vertical-center'>$89<br>with a<br>50% chance</div></div><div class='respDivL'><div class='vertical-center'>(E)</div></div><div class='respDivR'><div class='vertical-center'>(I)</div></div></div>","I","$28","$89","0","28","89","RISKY"
"html-keyboard-response","78","31456","0.0-5.0-3.24","ds_test","bdp_rd","Sat Feb 18 2023 17:03:45 GMT-0500 (Eastern Standard Time)","63159","","null","","","","offer","","<div class='trialBorder'><div class='vertical-center'><img style='vertical-align:center; align:center' src=img/fixation3.jpg></div><div class='cl'><div class='vertical-center'>$28<br>for<br>sure</div></div><div class='cr'><div class='vertical-center'><font style='color:orange'>$89<br>with a<br>50% chance</font></div></div><div class='respDivL'><div class='vertical-center'>(E)</div></div><div class='respDivR'><div class='vertical-center'><font style='color:orange'>(I)</font></div></div></div>","null","$28","$89","0","28","89",""
"html-keyboard-response","79","31967","0.0-5.0-1.25","ds_test","bdp_rd","Sat Feb 18 2023 17:03:45 GMT-0500 (Eastern Standard Time)","63159","","null","","","","FIX","","<div class='trialBorder'><div class='vertical-center'><img style='vertical-align:center; align:center' src=img/fixation3.jpg></div></div>","null","","","","","",""
"html-keyboard-response","80","31988","0.0-5.0-2.25","ds_test","bdp_rd","Sat Feb 18 2023 17:03:45 GMT-0500 (Eastern Standard Time)","63159","","20","","","","offer","","<div class='trialBorder'><div class='vertical-center'><img style='vertical-align:center; align:center' src=img/fixation3.jpg></div><div class='cl'><div class='vertical-center'>$81<br>with a<br>50% chance</div></div><div class='cr'><div class='vertical-center'>$39<br>for<br>sure</div></div><div class='respDivL'><div class='vertical-center'>(E)</div></div><div class='respDivR'><div class='vertical-center'>(I)</div></div></div>","I","$39","$81","1","39","81","SURE"
"html-keyboard-response","81","32247","0.0-5.0-3.25","ds_test","bdp_rd","Sat Feb 18 2023 17:03:45 GMT-0500 (Eastern Standard Time)","63159","","null","","","","offer","","<div class='trialBorder'><div class='vertical-center'><img style='vertical-align:center; align:center' src=img/fixation3.jpg></div><div class='cl'><div class='vertical-center'>$81<br>with a<br>50% chance</div></div><div class='cr'><div class='vertical-center'><font style='color:orange'>$39<br>for<br>sure</font></div></div><div class='respDivL'><div class='vertical-center'>(E)</div></div><div class='respDivR'><div class='vertical-center'><font style='color:orange'>(I)</font></div></div></div>","null","$39","$81","1","39","81",""
"html-keyboard-response","82","32760","0.0-5.0-1.26","ds_test","bdp_rd","Sat Feb 18 2023 17:03:45 GMT-0500 (Eastern Standard Time)","63159","","null","","","","FIX","","<div class='trialBorder'><div class='vertical-center'><img style='vertical-align:center; align:center' src=img/fixation3.jpg></div></div>","null","","","","","",""
"html-keyboard-response","83","32781","0.0-5.0-2.26","ds_test","bdp_rd","Sat Feb 18 2023 17:03:45 GMT-0500 (Eastern Standard Time)","63159","","20","","","","offer","","<div class='trialBorder'><div class='vertical-center'><img style='vertical-align:center; align:center' src=img/fixation3.jpg></div><div class='cl'><div class='vertical-center'>$45<br>with a<br>50% chance</div></div><div class='cr'><div class='vertical-center'>$8<br>for<br>sure</div></div><div class='respDivL'><div class='vertical-center'>(E)</div></div><div class='respDivR'><div class='vertical-center'>(I)</div></div></div>","I","$8","$45","1","8","45","SURE"
"html-keyboard-response","84","33039","0.0-5.0-3.26","ds_test","bdp_rd","Sat Feb 18 2023 17:03:45 GMT-0500 (Eastern Standard Time)","63159","","null","","","","offer","","<div class='trialBorder'><div class='vertical-center'><img style='vertical-align:center; align:center' src=img/fixation3.jpg></div><div class='cl'><div class='vertical-center'>$45<br>with a<br>50% chance</div></div><div class='cr'><div class='vertical-center'><font style='color:orange'>$8<br>for<br>sure</font></div></div><div class='respDivL'><div class='vertical-center'>(E)</div></div><div class='respDivR'><div class='vertical-center'><font style='color:orange'>(I)</font></div></div></div>","null","$8","$45","1","8","45",""
"html-keyboard-response","85","33552","0.0-5.0-1.27","ds_test","bdp_rd","Sat Feb 18 2023 17:03:45 GMT-0500 (Eastern Standard Time)","63159","","null","","","","FIX","","<div class='trialBorder'><div class='vertical-center'><img style='vertical-align:center; align:center' src=img/fixation3.jpg></div></div>","null","","","","","",""
"html-keyboard-response","86","33712","0.0-5.0-2.27","ds_test","bdp_rd","Sat Feb 18 2023 17:03:45 GMT-0500 (Eastern Standard Time)","63159","","158","","","","offer","","<div class='trialBorder'><div class='vertical-center'><img style='vertical-align:center; align:center' src=img/fixation3.jpg></div><div class='cl'><div class='vertical-center'>$5<br>for<br>sure</div></div><div class='cr'><div class='vertical-center'>$50<br>with a<br>50% chance</div></div><div class='respDivL'><div class='vertical-center'>(E)</div></div><div class='respDivR'><div class='vertical-center'>(I)</div></div></div>","E","$5","$50","0","5","50","SURE"
"html-keyboard-response","87","33967","0.0-5.0-3.27","ds_test","bdp_rd","Sat Feb 18 2023 17:03:45 GMT-0500 (Eastern Standard Time)","63159","","null","","","","offer","","<div class='trialBorder'><div class='vertical-center'><img style='vertical-align:center; align:center' src=img/fixation3.jpg></div><div class='cl'><div class='vertical-center'><font style='color:orange'>$5<br>for<br>sure</font></div></div><div class='cr'><div class='vertical-center'>$50<br>with a<br>50% chance</div></div><div class='respDivL'><div class='vertical-center'><font style='color:orange'>(E)</font></div></div><div class='respDivR'><div class='vertical-center'>(I)</div></div></div>","null","$5","$50","0","5","50",""
"html-keyboard-response","88","34479","0.0-5.0-1.28","ds_test","bdp_rd","Sat Feb 18 2023 17:03:45 GMT-0500 (Eastern Standard Time)","63159","","null","","","","FIX","","<div class='trialBorder'><div class='vertical-center'><img style='vertical-align:center; align:center' src=img/fixation3.jpg></div></div>","null","","","","","",""
"html-keyboard-response","89","34577","0.0-5.0-2.28","ds_test","bdp_rd","Sat Feb 18 2023 17:03:45 GMT-0500 (Eastern Standard Time)","63159","","97","","","","offer","","<div class='trialBorder'><div class='vertical-center'><img style='vertical-align:center; align:center' src=img/fixation3.jpg></div><div class='cl'><div class='vertical-center'>$5<br>for<br>sure</div></div><div class='cr'><div class='vertical-center'>$16<br>with a<br>50% chance</div></div><div class='respDivL'><div class='vertical-center'>(E)</div></div><div class='respDivR'><div class='vertical-center'>(I)</div></div></div>","E","$5","$16","0","5","16","SURE"
"html-keyboard-response","90","34835","0.0-5.0-3.28","ds_test","bdp_rd","Sat Feb 18 2023 17:03:45 GMT-0500 (Eastern Standard Time)","63159","","null","","","","offer","","<div class='trialBorder'><div class='vertical-center'><img style='vertical-align:center; align:center' src=img/fixation3.jpg></div><div class='cl'><div class='vertical-center'><font style='color:orange'>$5<br>for<br>sure</font></div></div><div class='cr'><div class='vertical-center'>$16<br>with a<br>50% chance</div></div><div class='respDivL'><div class='vertical-center'><font style='color:orange'>(E)</font></div></div><div class='respDivR'><div class='vertical-center'>(I)</div></div></div>","null","$5","$16","0","5","16",""
"html-keyboard-response","91","35336","0.0-5.0-1.29","ds_test","bdp_rd","Sat Feb 18 2023 17:03:45 GMT-0500 (Eastern Standard Time)","63159","","null","","","","FIX","","<div class='trialBorder'><div class='vertical-center'><img style='vertical-align:center; align:center' src=img/fixation3.jpg></div></div>","null","","","","","",""
"html-keyboard-response","92","35442","0.0-5.0-2.29","ds_test","bdp_rd","Sat Feb 18 2023 17:03:45 GMT-0500 (Eastern Standard Time)","63159","","104","","","","offer","","<div class='trialBorder'><div class='vertical-center'><img style='vertical-align:center; align:center' src=img/fixation3.jpg></div><div class='cl'><div class='vertical-center'>$2<br>for<br>sure</div></div><div class='cr'><div class='vertical-center'>$21<br>with a<br>50% chance</div></div><div class='respDivL'><div class='vertical-center'>(E)</div></div><div class='respDivR'><div class='vertical-center'>(I)</div></div></div>","E","$2","$21","0","2","21","SURE"
"html-keyboard-response","93","35697","0.0-5.0-3.29","ds_test","bdp_rd","Sat Feb 18 2023 17:03:45 GMT-0500 (Eastern Standard Time)","63159","","null","","","","offer","","<div class='trialBorder'><div class='vertical-center'><img style='vertical-align:center; align:center' src=img/fixation3.jpg></div><div class='cl'><div class='vertical-center'><font style='color:orange'>$2<br>for<br>sure</font></div></div><div class='cr'><div class='vertical-center'>$21<br>with a<br>50% chance</div></div><div class='respDivL'><div class='vertical-center'><font style='color:orange'>(E)</font></div></div><div class='respDivR'><div class='vertical-center'>(I)</div></div></div>","null","$2","$21","0","2","21",""
"html-keyboard-response","94","36208","0.0-5.0-1.30","ds_test","bdp_rd","Sat Feb 18 2023 17:03:45 GMT-0500 (Eastern Standard Time)","63159","","null","","","","FIX","","<div class='trialBorder'><div class='vertical-center'><img style='vertical-align:center; align:center' src=img/fixation3.jpg></div></div>","null","","","","","",""
"html-keyboard-response","95","36313","0.0-5.0-2.30","ds_test","bdp_rd","Sat Feb 18 2023 17:03:45 GMT-0500 (Eastern Standard Time)","63159","","102","","","","offer","","<div class='trialBorder'><div class='vertical-center'><img style='vertical-align:center; align:center' src=img/fixation3.jpg></div><div class='cl'><div class='vertical-center'>$20<br>for<br>sure</div></div><div class='cr'><div class='vertical-center'>$80<br>with a<br>50% chance</div></div><div class='respDivL'><div class='vertical-center'>(E)</div></div><div class='respDivR'><div class='vertical-center'>(I)</div></div></div>","E","$20","$80","0","20","80","SURE"
"html-keyboard-response","96","36575","0.0-5.0-3.30","ds_test","bdp_rd","Sat Feb 18 2023 17:03:45 GMT-0500 (Eastern Standard Time)","63159","","null","","","","offer","","<div class='trialBorder'><div class='vertical-center'><img style='vertical-align:center; align:center' src=img/fixation3.jpg></div><div class='cl'><div class='vertical-center'><font style='color:orange'>$20<br>for<br>sure</font></div></div><div class='cr'><div class='vertical-center'>$80<br>with a<br>50% chance</div></div><div class='respDivL'><div class='vertical-center'><font style='color:orange'>(E)</font></div></div><div class='respDivR'><div class='vertical-center'>(I)</div></div></div>","null","$20","$80","0","20","80",""
"html-keyboard-response","97","37087","0.0-5.0-1.31","ds_test","bdp_rd","Sat Feb 18 2023 17:03:45 GMT-0500 (Eastern Standard Time)","63159","","null","","","","FIX","","<div class='trialBorder'><div class='vertical-center'><img style='vertical-align:center; align:center' src=img/fixation3.jpg></div></div>","null","","","","","",""
"html-keyboard-response","98","37203","0.0-5.0-2.31","ds_test","bdp_rd","Sat Feb 18 2023 17:03:45 GMT-0500 (Eastern Standard Time)","63159","","115","","","","offer","","<div class='trialBorder'><div class='vertical-center'><img style='vertical-align:center; align:center' src=img/fixation3.jpg></div><div class='cl'><div class='vertical-center'>$46<br>with a<br>50% chance</div></div><div class='cr'><div class='vertical-center'>$29<br>for<br>sure</div></div><div class='respDivL'><div class='vertical-center'>(E)</div></div><div class='respDivR'><div class='vertical-center'>(I)</div></div></div>","E","$29","$46","1","29","46","RISKY"
"html-keyboard-response","99","37466","0.0-5.0-3.31","ds_test","bdp_rd","Sat Feb 18 2023 17:03:45 GMT-0500 (Eastern Standard Time)","63159","","null","","","","offer","","<div class='trialBorder'><div class='vertical-center'><img style='vertical-align:center; align:center' src=img/fixation3.jpg></div><div class='cl'><div class='vertical-center'><font style='color:orange'>$46<br>with a<br>50% chance</font></div></div><div class='cr'><div class='vertical-center'>$29<br>for<br>sure</div></div><div class='respDivL'><div class='vertical-center'><font style='color:orange'>(E)</font></div></div><div class='respDivR'><div class='vertical-center'>(I)</div></div></div>","null","$29","$46","1","29","46",""
"html-keyboard-response","100","37973","0.0-5.0-1.32","ds_test","bdp_rd","Sat Feb 18 2023 17:03:45 GMT-0500 (Eastern Standard Time)","63159","","null","","","","FIX","","<div class='trialBorder'><div class='vertical-center'><img style='vertical-align:center; align:center' src=img/fixation3.jpg></div></div>","null","","","","","",""
"html-keyboard-response","101","38105","0.0-5.0-2.32","ds_test","bdp_rd","Sat Feb 18 2023 17:03:45 GMT-0500 (Eastern Standard Time)","63159","","131","","","","offer","","<div class='trialBorder'><div class='vertical-center'><img style='vertical-align:center; align:center' src=img/fixation3.jpg></div><div class='cl'><div class='vertical-center'>$25<br>with a<br>50% chance</div></div><div class='cr'><div class='vertical-center'>$21<br>for<br>sure</div></div><div class='respDivL'><div class='vertical-center'>(E)</div></div><div class='respDivR'><div class='vertical-center'>(I)</div></div></div>","E","$21","$25","1","21","25","RISKY"
"html-keyboard-response","102","38360","0.0-5.0-3.32","ds_test","bdp_rd","Sat Feb 18 2023 17:03:45 GMT-0500 (Eastern Standard Time)","63159","","null","","","","offer","","<div class='trialBorder'><div class='vertical-center'><img style='vertical-align:center; align:center' src=img/fixation3.jpg></div><div class='cl'><div class='vertical-center'><font style='color:orange'>$25<br>with a<br>50% chance</font></div></div><div class='cr'><div class='vertical-center'>$21<br>for<br>sure</div></div><div class='respDivL'><div class='vertical-center'><font style='color:orange'>(E)</font></div></div><div class='respDivR'><div class='vertical-center'>(I)</div></div></div>","null","$21","$25","1","21","25",""
"html-keyboard-response","103","38872","0.0-5.0-1.33","ds_test","bdp_rd","Sat Feb 18 2023 17:03:45 GMT-0500 (Eastern Standard Time)","63159","","null","","","","FIX","","<div class='trialBorder'><div class='vertical-center'><img style='vertical-align:center; align:center' src=img/fixation3.jpg></div></div>","null","","","","","",""
"html-keyboard-response","104","38990","0.0-5.0-2.33","ds_test","bdp_rd","Sat Feb 18 2023 17:03:45 GMT-0500 (Eastern Standard Time)","63159","","118","","","","offer","","<div class='trialBorder'><div class='vertical-center'><img style='vertical-align:center; align:center' src=img/fixation3.jpg></div><div class='cl'><div class='vertical-center'>$14<br>with a<br>50% chance</div></div><div class='cr'><div class='vertical-center'>$4<br>for<br>sure</div></div><div class='respDivL'><div class='vertical-center'>(E)</div></div><div class='respDivR'><div class='vertical-center'>(I)</div></div></div>","E","$4","$14","1","4","14","RISKY"
"html-keyboard-response","105","39246","0.0-5.0-3.33","ds_test","bdp_rd","Sat Feb 18 2023 17:03:45 GMT-0500 (Eastern Standard Time)","63159","","null","","","","offer","","<div class='trialBorder'><div class='vertical-center'><img style='vertical-align:center; align:center' src=img/fixation3.jpg></div><div class='cl'><div class='vertical-center'><font style='color:orange'>$14<br>with a<br>50% chance</font></div></div><div class='cr'><div class='vertical-center'>$4<br>for<br>sure</div></div><div class='respDivL'><div class='vertical-center'><font style='color:orange'>(E)</font></div></div><div class='respDivR'><div class='vertical-center'>(I)</div></div></div>","null","$4","$14","1","4","14",""
"html-keyboard-response","106","39760","0.0-5.0-1.34","ds_test","bdp_rd","Sat Feb 18 2023 17:03:45 GMT-0500 (Eastern Standard Time)","63159","","null","","","","FIX","","<div class='trialBorder'><div class='vertical-center'><img style='vertical-align:center; align:center' src=img/fixation3.jpg></div></div>","null","","","","","",""
"html-keyboard-response","107","39911","0.0-5.0-2.34","ds_test","bdp_rd","Sat Feb 18 2023 17:03:45 GMT-0500 (Eastern Standard Time)","63159","","149","","","","offer","","<div class='trialBorder'><div class='vertical-center'><img style='vertical-align:center; align:center' src=img/fixation3.jpg></div><div class='cl'><div class='vertical-center'>$17<br>for<br>sure</div></div><div class='cr'><div class='vertical-center'>$43<br>with a<br>50% chance</div></div><div class='respDivL'><div class='vertical-center'>(E)</div></div><div class='respDivR'><div class='vertical-center'>(I)</div></div></div>","E","$17","$43","0","17","43","SURE"
"html-keyboard-response","108","40164","0.0-5.0-3.34","ds_test","bdp_rd","Sat Feb 18 2023 17:03:45 GMT-0500 (Eastern Standard Time)","63159","","null","","","","offer","","<div class='trialBorder'><div class='vertical-center'><img style='vertical-align:center; align:center' src=img/fixation3.jpg></div><div class='cl'><div class='vertical-center'><font style='color:orange'>$17<br>for<br>sure</font></div></div><div class='cr'><div class='vertical-center'>$43<br>with a<br>50% chance</div></div><div class='respDivL'><div class='vertical-center'><font style='color:orange'>(E)</font></div></div><div class='respDivR'><div class='vertical-center'>(I)</div></div></div>","null","$17","$43","0","17","43",""
"html-keyboard-response","109","40672","0.0-5.0-1.35","ds_test","bdp_rd","Sat Feb 18 2023 17:03:45 GMT-0500 (Eastern Standard Time)","63159","","null","","","","FIX","","<div class='trialBorder'><div class='vertical-center'><img style='vertical-align:center; align:center' src=img/fixation3.jpg></div></div>","null","","","","","",""
"html-keyboard-response","110","40819","0.0-5.0-2.35","ds_test","bdp_rd","Sat Feb 18 2023 17:03:45 GMT-0500 (Eastern Standard Time)","63159","","145","","","","offer","","<div class='trialBorder'><div class='vertical-center'><img style='vertical-align:center; align:center' src=img/fixation3.jpg></div><div class='cl'><div class='vertical-center'>$9<br>for<br>sure</div></div><div class='cr'><div class='vertical-center'>$32<br>with a<br>50% chance</div></div><div class='respDivL'><div class='vertical-center'>(E)</div></div><div class='respDivR'><div class='vertical-center'>(I)</div></div></div>","E","$9","$32","0","9","32","SURE"
"html-keyboard-response","111","41078","0.0-5.0-3.35","ds_test","bdp_rd","Sat Feb 18 2023 17:03:45 GMT-0500 (Eastern Standard Time)","63159","","null","","","","offer","","<div class='trialBorder'><div class='vertical-center'><img style='vertical-align:center; align:center' src=img/fixation3.jpg></div><div class='cl'><div class='vertical-center'><font style='color:orange'>$9<br>for<br>sure</font></div></div><div class='cr'><div class='vertical-center'>$32<br>with a<br>50% chance</div></div><div class='respDivL'><div class='vertical-center'><font style='color:orange'>(E)</font></div></div><div class='respDivR'><div class='vertical-center'>(I)</div></div></div>","null","$9","$32","0","9","32",""
"html-keyboard-response","112","41589","0.0-5.0-1.36","ds_test","bdp_rd","Sat Feb 18 2023 17:03:45 GMT-0500 (Eastern Standard Time)","63159","","null","","","","FIX","","<div class='trialBorder'><div class='vertical-center'><img style='vertical-align:center; align:center' src=img/fixation3.jpg></div></div>","null","","","","","",""
"html-keyboard-response","113","41763","0.0-5.0-2.36","ds_test","bdp_rd","Sat Feb 18 2023 17:03:45 GMT-0500 (Eastern Standard Time)","63159","","171","","","","offer","","<div class='trialBorder'><div class='vertical-center'><img style='vertical-align:center; align:center' src=img/fixation3.jpg></div><div class='cl'><div class='vertical-center'>$15<br>for<br>sure</div></div><div class='cr'><div class='vertical-center'>$31<br>with a<br>50% chance</div></div><div class='respDivL'><div class='vertical-center'>(E)</div></div><div class='respDivR'><div class='vertical-center'>(I)</div></div></div>","E","$15","$31","0","15","31","SURE"
"html-keyboard-response","114","42026","0.0-5.0-3.36","ds_test","bdp_rd","Sat Feb 18 2023 17:03:45 GMT-0500 (Eastern Standard Time)","63159","","null","","","","offer","","<div class='trialBorder'><div class='vertical-center'><img style='vertical-align:center; align:center' src=img/fixation3.jpg></div><div class='cl'><div class='vertical-center'><font style='color:orange'>$15<br>for<br>sure</font></div></div><div class='cr'><div class='vertical-center'>$31<br>with a<br>50% chance</div></div><div class='respDivL'><div class='vertical-center'><font style='color:orange'>(E)</font></div></div><div class='respDivR'><div class='vertical-center'>(I)</div></div></div>","null","$15","$31","0","15","31",""
"html-keyboard-response","115","42544","0.0-5.0-1.37","ds_test","bdp_rd","Sat Feb 18 2023 17:03:45 GMT-0500 (Eastern Standard Time)","63159","","null","","","","FIX","","<div class='trialBorder'><div class='vertical-center'><img style='vertical-align:center; align:center' src=img/fixation3.jpg></div></div>","null","","","","","",""
"html-keyboard-response","116","42659","0.0-5.0-2.37","ds_test","bdp_rd","Sat Feb 18 2023 17:03:45 GMT-0500 (Eastern Standard Time)","63159","","115","","","","offer","","<div class='trialBorder'><div class='vertical-center'><img style='vertical-align:center; align:center' src=img/fixation3.jpg></div><div class='cl'><div class='vertical-center'>$69<br>with a<br>50% chance</div></div><div class='cr'><div class='vertical-center'>$58<br>for<br>sure</div></div><div class='respDivL'><div class='vertical-center'>(E)</div></div><div class='respDivR'><div class='vertical-center'>(I)</div></div></div>","E","$58","$69","1","58","69","RISKY"
"html-keyboard-response","117","42919","0.0-5.0-3.37","ds_test","bdp_rd","Sat Feb 18 2023 17:03:45 GMT-0500 (Eastern Standard Time)","63159","","null","","","","offer","","<div class='trialBorder'><div class='vertical-center'><img style='vertical-align:center; align:center' src=img/fixation3.jpg></div><div class='cl'><div class='vertical-center'><font style='color:orange'>$69<br>with a<br>50% chance</font></div></div><div class='cr'><div class='vertical-center'>$58<br>for<br>sure</div></div><div class='respDivL'><div class='vertical-center'><font style='color:orange'>(E)</font></div></div><div class='respDivR'><div class='vertical-center'>(I)</div></div></div>","null","$58","$69","1","58","69",""
"html-keyboard-response","118","43429","0.0-5.0-1.38","ds_test","bdp_rd","Sat Feb 18 2023 17:03:45 GMT-0500 (Eastern Standard Time)","63159","","null","","","","FIX","","<div class='trialBorder'><div class='vertical-center'><img style='vertical-align:center; align:center' src=img/fixation3.jpg></div></div>","null","","","","","",""
"html-keyboard-response","119","43536","0.0-5.0-2.38","ds_test","bdp_rd","Sat Feb 18 2023 17:03:45 GMT-0500 (Eastern Standard Time)","63159","","105","","","","offer","","<div class='trialBorder'><div class='vertical-center'><img style='vertical-align:center; align:center' src=img/fixation3.jpg></div><div class='cl'><div class='vertical-center'>$12<br>for<br>sure</div></div><div class='cr'><div class='vertical-center'>$27<br>with a<br>50% chance</div></div><div class='respDivL'><div class='vertical-center'>(E)</div></div><div class='respDivR'><div class='vertical-center'>(I)</div></div></div>","I","$12","$27","0","12","27","RISKY"
"html-keyboard-response","120","43792","0.0-5.0-3.38","ds_test","bdp_rd","Sat Feb 18 2023 17:03:45 GMT-0500 (Eastern Standard Time)","63159","","null","","","","offer","","<div class='trialBorder'><div class='vertical-center'><img style='vertical-align:center; align:center' src=img/fixation3.jpg></div><div class='cl'><div class='vertical-center'>$12<br>for<br>sure</div></div><div class='cr'><div class='vertical-center'><font style='color:orange'>$27<br>with a<br>50% chance</font></div></div><div class='respDivL'><div class='vertical-center'>(E)</div></div><div class='respDivR'><div class='vertical-center'><font style='color:orange'>(I)</font></div></div></div>","null","$12","$27","0","12","27",""
"html-keyboard-response","121","44304","0.0-5.0-1.39","ds_test","bdp_rd","Sat Feb 18 2023 17:03:45 GMT-0500 (Eastern Standard Time)","63159","","null","","","","FIX","","<div class='trialBorder'><div class='vertical-center'><img style='vertical-align:center; align:center' src=img/fixation3.jpg></div></div>","null","","","","","",""
"html-keyboard-response","122","44330","0.0-5.0-2.39","ds_test","bdp_rd","Sat Feb 18 2023 17:03:45 GMT-0500 (Eastern Standard Time)","63159","","24","","","","offer","","<div class='trialBorder'><div class='vertical-center'><img style='vertical-align:center; align:center' src=img/fixation3.jpg></div><div class='cl'><div class='vertical-center'>$38<br>with a<br>50% chance</div></div><div class='cr'><div class='vertical-center'>$16<br>for<br>sure</div></div><div class='respDivL'><div class='vertical-center'>(E)</div></div><div class='respDivR'><div class='vertical-center'>(I)</div></div></div>","I","$16","$38","1","16","38","SURE"
"html-keyboard-response","123","44592","0.0-5.0-3.39","ds_test","bdp_rd","Sat Feb 18 2023 17:03:45 GMT-0500 (Eastern Standard Time)","63159","","null","","","","offer","","<div class='trialBorder'><div class='vertical-center'><img style='vertical-align:center; align:center' src=img/fixation3.jpg></div><div class='cl'><div class='vertical-center'>$38<br>with a<br>50% chance</div></div><div class='cr'><div class='vertical-center'><font style='color:orange'>$16<br>for<br>sure</font></div></div><div class='respDivL'><div class='vertical-center'>(E)</div></div><div class='respDivR'><div class='vertical-center'><font style='color:orange'>(I)</font></div></div></div>","null","$16","$38","1","16","38",""
"html-keyboard-response","124","45104","0.0-5.0-1.40","ds_test","bdp_rd","Sat Feb 18 2023 17:03:45 GMT-0500 (Eastern Standard Time)","63159","","null","","","","FIX","","<div class='trialBorder'><div class='vertical-center'><img style='vertical-align:center; align:center' src=img/fixation3.jpg></div></div>","null","","","","","",""
"html-keyboard-response","125","45135","0.0-5.0-2.40","ds_test","bdp_rd","Sat Feb 18 2023 17:03:45 GMT-0500 (Eastern Standard Time)","63159","","31","","","","offer","","<div class='trialBorder'><div class='vertical-center'><img style='vertical-align:center; align:center' src=img/fixation3.jpg></div><div class='cl'><div class='vertical-center'>$18<br>for<br>sure</div></div><div class='cr'><div class='vertical-center'>$36<br>with a<br>50% chance</div></div><div class='respDivL'><div class='vertical-center'>(E)</div></div><div class='respDivR'><div class='vertical-center'>(I)</div></div></div>","I","$18","$36","0","18","36","RISKY"
"html-keyboard-response","126","45391","0.0-5.0-3.40","ds_test","bdp_rd","Sat Feb 18 2023 17:03:45 GMT-0500 (Eastern Standard Time)","63159","","null","","","","offer","","<div class='trialBorder'><div class='vertical-center'><img style='vertical-align:center; align:center' src=img/fixation3.jpg></div><div class='cl'><div class='vertical-center'>$18<br>for<br>sure</div></div><div class='cr'><div class='vertical-center'><font style='color:orange'>$36<br>with a<br>50% chance</font></div></div><div class='respDivL'><div class='vertical-center'>(E)</div></div><div class='respDivR'><div class='vertical-center'><font style='color:orange'>(I)</font></div></div></div>","null","$18","$36","0","18","36",""
"html-keyboard-response","127","45904","0.0-5.0-1.41","ds_test","bdp_rd","Sat Feb 18 2023 17:03:45 GMT-0500 (Eastern Standard Time)","63159","","null","","","","FIX","","<div class='trialBorder'><div class='vertical-center'><img style='vertical-align:center; align:center' src=img/fixation3.jpg></div></div>","null","","","","","",""
"html-keyboard-response","128","45944","0.0-5.0-2.41","ds_test","bdp_rd","Sat Feb 18 2023 17:03:45 GMT-0500 (Eastern Standard Time)","63159","","39","","","","offer","","<div class='trialBorder'><div class='vertical-center'><img style='vertical-align:center; align:center' src=img/fixation3.jpg></div><div class='cl'><div class='vertical-center'>$100<br>with a<br>50% chance</div></div><div class='cr'><div class='vertical-center'>$63<br>for<br>sure</div></div><div class='respDivL'><div class='vertical-center'>(E)</div></div><div class='respDivR'><div class='vertical-center'>(I)</div></div></div>","I","$63","$100","1","63","10","SURE"
"html-keyboard-response","129","46197","0.0-5.0-3.41","ds_test","bdp_rd","Sat Feb 18 2023 17:03:45 GMT-0500 (Eastern Standard Time)","63159","","null","","","","offer","","<div class='trialBorder'><div class='vertical-center'><img style='vertical-align:center; align:center' src=img/fixation3.jpg></div><div class='cl'><div class='vertical-center'>$100<br>with a<br>50% chance</div></div><div class='cr'><div class='vertical-center'><font style='color:orange'>$63<br>for<br>sure</font></div></div><div class='respDivL'><div class='vertical-center'>(E)</div></div><div class='respDivR'><div class='vertical-center'><font style='color:orange'>(I)</font></div></div></div>","null","$63","$100","1","63","10",""
"html-keyboard-response","130","46704","0.0-5.0-1.42","ds_test","bdp_rd","Sat Feb 18 2023 17:03:45 GMT-0500 (Eastern Standard Time)","63159","","null","","","","FIX","","<div class='trialBorder'><div class='vertical-center'><img style='vertical-align:center; align:center' src=img/fixation3.jpg></div></div>","null","","","","","",""
"html-keyboard-response","131","46758","0.0-5.0-2.42","ds_test","bdp_rd","Sat Feb 18 2023 17:03:45 GMT-0500 (Eastern Standard Time)","63159","","53","","","","offer","","<div class='trialBorder'><div class='vertical-center'><img style='vertical-align:center; align:center' src=img/fixation3.jpg></div><div class='cl'><div class='vertical-center'>$33<br>with a<br>50% chance</div></div><div class='cr'><div class='vertical-center'>$1<br>for<br>sure</div></div><div class='respDivL'><div class='vertical-center'>(E)</div></div><div class='respDivR'><div class='vertical-center'>(I)</div></div></div>","I","$1","$33","1","1","33","SURE"
"html-keyboard-response","132","47013","0.0-5.0-3.42","ds_test","bdp_rd","Sat Feb 18 2023 17:03:45 GMT-0500 (Eastern Standard Time)","63159","","null","","","","offer","","<div class='trialBorder'><div class='vertical-center'><img style='vertical-align:center; align:center' src=img/fixation3.jpg></div><div class='cl'><div class='vertical-center'>$33<br>with a<br>50% chance</div></div><div class='cr'><div class='vertical-center'><font style='color:orange'>$1<br>for<br>sure</font></div></div><div class='respDivL'><div class='vertical-center'>(E)</div></div><div class='respDivR'><div class='vertical-center'><font style='color:orange'>(I)</font></div></div></div>","null","$1","$33","1","1","33",""
"html-keyboard-response","133","47520","0.0-5.0-1.43","ds_test","bdp_rd","Sat Feb 18 2023 17:03:45 GMT-0500 (Eastern Standard Time)","63159","","null","","","","FIX","","<div class='trialBorder'><div class='vertical-center'><img style='vertical-align:center; align:center' src=img/fixation3.jpg></div></div>","null","","","","","",""
"html-keyboard-response","134","47584","0.0-5.0-2.43","ds_test","bdp_rd","Sat Feb 18 2023 17:03:45 GMT-0500 (Eastern Standard Time)","63159","","63","","","","offer","","<div class='trialBorder'><div class='vertical-center'><img style='vertical-align:center; align:center' src=img/fixation3.jpg></div><div class='cl'><div class='vertical-center'>$13<br>for<br>sure</div></div><div class='cr'><div class='vertical-center'>$41<br>with a<br>50% chance</div></div><div class='respDivL'><div class='vertical-center'>(E)</div></div><div class='respDivR'><div class='vertical-center'>(I)</div></div></div>","I","$13","$41","0","13","41","RISKY"
"html-keyboard-response","135","47840","0.0-5.0-3.43","ds_test","bdp_rd","Sat Feb 18 2023 17:03:45 GMT-0500 (Eastern Standard Time)","63159","","null","","","","offer","","<div class='trialBorder'><div class='vertical-center'><img style='vertical-align:center; align:center' src=img/fixation3.jpg></div><div class='cl'><div class='vertical-center'>$13<br>for<br>sure</div></div><div class='cr'><div class='vertical-center'><font style='color:orange'>$41<br>with a<br>50% chance</font></div></div><div class='respDivL'><div class='vertical-center'>(E)</div></div><div class='respDivR'><div class='vertical-center'><font style='color:orange'>(I)</font></div></div></div>","null","$13","$41","0","13","41",""
"html-keyboard-response","136","48352","0.0-5.0-1.44","ds_test","bdp_rd","Sat Feb 18 2023 17:03:45 GMT-0500 (Eastern Standard Time)","63159","","null","","","","FIX","","<div class='trialBorder'><div class='vertical-center'><img style='vertical-align:center; align:center' src=img/fixation3.jpg></div></div>","null","","","","","",""
"html-keyboard-response","137","48403","0.0-5.0-2.44","ds_test","bdp_rd","Sat Feb 18 2023 17:03:45 GMT-0500 (Eastern Standard Time)","63159","","48","","","","offer","","<div class='trialBorder'><div class='vertical-center'><img style='vertical-align:center; align:center' src=img/fixation3.jpg></div><div class='cl'><div class='vertical-center'>$29<br>with a<br>50% chance</div></div><div class='cr'><div class='vertical-center'>$14<br>for<br>sure</div></div><div class='respDivL'><div class='vertical-center'>(E)</div></div><div class='respDivR'><div class='vertical-center'>(I)</div></div></div>","I","$14","$29","1","14","29","SURE"
"html-keyboard-response","138","48662","0.0-5.0-3.44","ds_test","bdp_rd","Sat Feb 18 2023 17:03:45 GMT-0500 (Eastern Standard Time)","63159","","null","","","","offer","","<div class='trialBorder'><div class='vertical-center'><img style='vertical-align:center; align:center' src=img/fixation3.jpg></div><div class='cl'><div class='vertical-center'>$29<br>with a<br>50% chance</div></div><div class='cr'><div class='vertical-center'><font style='color:orange'>$14<br>for<br>sure</font></div></div><div class='respDivL'><div class='vertical-center'>(E)</div></div><div class='respDivR'><div class='vertical-center'><font style='color:orange'>(I)</font></div></div></div>","null","$14","$29","1","14","29",""
"html-keyboard-response","139","49175","0.0-5.0-1.45","ds_test","bdp_rd","Sat Feb 18 2023 17:03:45 GMT-0500 (Eastern Standard Time)","63159","","null","","","","FIX","","<div class='trialBorder'><div class='vertical-center'><img style='vertical-align:center; align:center' src=img/fixation3.jpg></div></div>","null","","","","","",""
"html-keyboard-response","140","49242","0.0-5.0-2.45","ds_test","bdp_rd","Sat Feb 18 2023 17:03:45 GMT-0500 (Eastern Standard Time)","63159","","66","","","","offer","","<div class='trialBorder'><div class='vertical-center'><img style='vertical-align:center; align:center' src=img/fixation3.jpg></div><div class='cl'><div class='vertical-center'>$3<br>for<br>sure</div></div><div class='cr'><div class='vertical-center'>$12<br>with a<br>50% chance</div></div><div class='respDivL'><div class='vertical-center'>(E)</div></div><div class='respDivR'><div class='vertical-center'>(I)</div></div></div>","I","$3","$12","0","3","12","RISKY"
"html-keyboard-response","141","49504","0.0-5.0-3.45","ds_test","bdp_rd","Sat Feb 18 2023 17:03:45 GMT-0500 (Eastern Standard Time)","63159","","null","","","","offer","","<div class='trialBorder'><div class='vertical-center'><img style='vertical-align:center; align:center' src=img/fixation3.jpg></div><div class='cl'><div class='vertical-center'>$3<br>for<br>sure</div></div><div class='cr'><div class='vertical-center'><font style='color:orange'>$12<br>with a<br>50% chance</font></div></div><div class='respDivL'><div class='vertical-center'>(E)</div></div><div class='respDivR'><div class='vertical-center'><font style='color:orange'>(I)</font></div></div></div>","null","$3","$12","0","3","12",""
"html-keyboard-response","142","50016","0.0-5.0-1.46","ds_test","bdp_rd","Sat Feb 18 2023 17:03:45 GMT-0500 (Eastern Standard Time)","63159","","null","","","","FIX","","<div class='trialBorder'><div class='vertical-center'><img style='vertical-align:center; align:center' src=img/fixation3.jpg></div></div>","null","","","","","",""
"html-keyboard-response","143","50099","0.0-5.0-2.46","ds_test","bdp_rd","Sat Feb 18 2023 17:03:45 GMT-0500 (Eastern Standard Time)","63159","","82","","","","offer","","<div class='trialBorder'><div class='vertical-center'><img style='vertical-align:center; align:center' src=img/fixation3.jpg></div><div class='cl'><div class='vertical-center'>$15<br>with a<br>50% chance</div></div><div class='cr'><div class='vertical-center'>$6<br>for<br>sure</div></div><div class='respDivL'><div class='vertical-center'>(E)</div></div><div class='respDivR'><div class='vertical-center'>(I)</div></div></div>","I","$6","$15","1","6","15","SURE"
"html-keyboard-response","144","50357","0.0-5.0-3.46","ds_test","bdp_rd","Sat Feb 18 2023 17:03:45 GMT-0500 (Eastern Standard Time)","63159","","null","","","","offer","","<div class='trialBorder'><div class='vertical-center'><img style='vertical-align:center; align:center' src=img/fixation3.jpg></div><div class='cl'><div class='vertical-center'>$15<br>with a<br>50% chance</div></div><div class='cr'><div class='vertical-center'><font style='color:orange'>$6<br>for<br>sure</font></div></div><div class='respDivL'><div class='vertical-center'>(E)</div></div><div class='respDivR'><div class='vertical-center'><font style='color:orange'>(I)</font></div></div></div>","null","$6","$15","1","6","15",""
"html-keyboard-response","145","50870","0.0-5.0-1.47","ds_test","bdp_rd","Sat Feb 18 2023 17:03:45 GMT-0500 (Eastern Standard Time)","63159","","null","","","","FIX","","<div class='trialBorder'><div class='vertical-center'><img style='vertical-align:center; align:center' src=img/fixation3.jpg></div></div>","null","","","","","",""
"html-keyboard-response","146","50940","0.0-5.0-2.47","ds_test","bdp_rd","Sat Feb 18 2023 17:03:45 GMT-0500 (Eastern Standard Time)","63159","","69","","","","offer","","<div class='trialBorder'><div class='vertical-center'><img style='vertical-align:center; align:center' src=img/fixation3.jpg></div><div class='cl'><div class='vertical-center'>$51<br>with a<br>50% chance</div></div><div class='cr'><div class='vertical-center'>$19<br>for<br>sure</div></div><div class='respDivL'><div class='vertical-center'>(E)</div></div><div class='respDivR'><div class='vertical-center'>(I)</div></div></div>","I","$19","$51","1","19","51","SURE"
"html-keyboard-response","147","51203","0.0-5.0-3.47","ds_test","bdp_rd","Sat Feb 18 2023 17:03:45 GMT-0500 (Eastern Standard Time)","63159","","null","","","","offer","","<div class='trialBorder'><div class='vertical-center'><img style='vertical-align:center; align:center' src=img/fixation3.jpg></div><div class='cl'><div class='vertical-center'>$51<br>with a<br>50% chance</div></div><div class='cr'><div class='vertical-center'><font style='color:orange'>$19<br>for<br>sure</font></div></div><div class='respDivL'><div class='vertical-center'>(E)</div></div><div class='respDivR'><div class='vertical-center'><font style='color:orange'>(I)</font></div></div></div>","null","$19","$51","1","19","51",""
"html-keyboard-response","148","51712","0.0-5.0-1.48","ds_test","bdp_rd","Sat Feb 18 2023 17:03:45 GMT-0500 (Eastern Standard Time)","63159","","null","","","","FIX","","<div class='trialBorder'><div class='vertical-center'><img style='vertical-align:center; align:center' src=img/fixation3.jpg></div></div>","null","","","","","",""
"html-keyboard-response","149","51727","0.0-5.0-2.48","ds_test","bdp_rd","Sat Feb 18 2023 17:03:45 GMT-0500 (Eastern Standard Time)","63159","","14","","","","offer","","<div class='trialBorder'><div class='vertical-center'><img style='vertical-align:center; align:center' src=img/fixation3.jpg></div><div class='cl'><div class='vertical-center'>$53<br>for<br>sure</div></div><div class='cr'><div class='vertical-center'>$98<br>with a<br>50% chance</div></div><div class='respDivL'><div class='vertical-center'>(E)</div></div><div class='respDivR'><div class='vertical-center'>(I)</div></div></div>","I","$53","$98","0","53","98","RISKY"
"html-keyboard-response","150","51984","0.0-5.0-3.48","ds_test","bdp_rd","Sat Feb 18 2023 17:03:45 GMT-0500 (Eastern Standard Time)","63159","","null","","","","offer","","<div class='trialBorder'><div class='vertical-center'><img style='vertical-align:center; align:center' src=img/fixation3.jpg></div><div class='cl'><div class='vertical-center'>$53<br>for<br>sure</div></div><div class='cr'><div class='vertical-center'><font style='color:orange'>$98<br>with a<br>50% chance</font></div></div><div class='respDivL'><div class='vertical-center'>(E)</div></div><div class='respDivR'><div class='vertical-center'><font style='color:orange'>(I)</font></div></div></div>","null","$53","$98","0","53","98",""
"html-keyboard-response","151","52496","0.0-5.0-1.49","ds_test","bdp_rd","Sat Feb 18 2023 17:03:45 GMT-0500 (Eastern Standard Time)","63159","","null","","","","FIX","","<div class='trialBorder'><div class='vertical-center'><img style='vertical-align:center; align:center' src=img/fixation3.jpg></div></div>","null","","","","","",""
"html-keyboard-response","152","52773","0.0-5.0-2.49","ds_test","bdp_rd","Sat Feb 18 2023 17:03:45 GMT-0500 (Eastern Standard Time)","63159","","275","","","","offer","","<div class='trialBorder'><div class='vertical-center'><img style='vertical-align:center; align:center' src=img/fixation3.jpg></div><div class='cl'><div class='vertical-center'>$26<br>with a<br>50% chance</div></div><div class='cr'><div class='vertical-center'>$11<br>for<br>sure</div></div><div class='respDivL'><div class='vertical-center'>(E)</div></div><div class='respDivR'><div class='vertical-center'>(I)</div></div></div>","E","$11","$26","1","11","26","RISKY"
"html-keyboard-response","153","53029","0.0-5.0-3.49","ds_test","bdp_rd","Sat Feb 18 2023 17:03:45 GMT-0500 (Eastern Standard Time)","63159","","null","","","","offer","","<div class='trialBorder'><div class='vertical-center'><img style='vertical-align:center; align:center' src=img/fixation3.jpg></div><div class='cl'><div class='vertical-center'><font style='color:orange'>$26<br>with a<br>50% chance</font></div></div><div class='cr'><div class='vertical-center'>$11<br>for<br>sure</div></div><div class='respDivL'><div class='vertical-center'><font style='color:orange'>(E)</font></div></div><div class='respDivR'><div class='vertical-center'>(I)</div></div></div>","null","$11","$26","1","11","26",""
"html-keyboard-response","154","53536","0.0-5.0-1.50","ds_test","bdp_rd","Sat Feb 18 2023 17:03:45 GMT-0500 (Eastern Standard Time)","63159","","null","","","","FIX","","<div class='trialBorder'><div class='vertical-center'><img style='vertical-align:center; align:center' src=img/fixation3.jpg></div></div>","null","","","","","",""
"html-keyboard-response","155","53604","0.0-5.0-2.50","ds_test","bdp_rd","Sat Feb 18 2023 17:03:45 GMT-0500 (Eastern Standard Time)","63159","","66","","","","offer","","<div class='trialBorder'><div class='vertical-center'><img style='vertical-align:center; align:center' src=img/fixation3.jpg></div><div class='cl'><div class='vertical-center'>$2<br>for<br>sure</div></div><div class='cr'><div class='vertical-center'>$64<br>with a<br>50% chance</div></div><div class='respDivL'><div class='vertical-center'>(E)</div></div><div class='respDivR'><div class='vertical-center'>(I)</div></div></div>","E","$2","$64","0","2","64","SURE"
"html-keyboard-response","156","53861","0.0-5.0-3.50","ds_test","bdp_rd","Sat Feb 18 2023 17:03:45 GMT-0500 (Eastern Standard Time)","63159","","null","","","","offer","","<div class='trialBorder'><div class='vertical-center'><img style='vertical-align:center; align:center' src=img/fixation3.jpg></div><div class='cl'><div class='vertical-center'><font style='color:orange'>$2<br>for<br>sure</font></div></div><div class='cr'><div class='vertical-center'>$64<br>with a<br>50% chance</div></div><div class='respDivL'><div class='vertical-center'><font style='color:orange'>(E)</font></div></div><div class='respDivR'><div class='vertical-center'>(I)</div></div></div>","null","$2","$64","0","2","64",""
"html-keyboard-response","157","54363","0.0-5.0-1.51","ds_test","bdp_rd","Sat Feb 18 2023 17:03:45 GMT-0500 (Eastern Standard Time)","63159","","null","","","","FIX","","<div class='trialBorder'><div class='vertical-center'><img style='vertical-align:center; align:center' src=img/fixation3.jpg></div></div>","null","","","","","",""
"html-keyboard-response","158","54534","0.0-5.0-2.51","ds_test","bdp_rd","Sat Feb 18 2023 17:03:45 GMT-0500 (Eastern Standard Time)","63159","","170","","","","offer","","<div class='trialBorder'><div class='vertical-center'><img style='vertical-align:center; align:center' src=img/fixation3.jpg></div><div class='cl'><div class='vertical-center'>$10<br>for<br>sure</div></div><div class='cr'><div class='vertical-center'>$40<br>with a<br>50% chance</div></div><div class='respDivL'><div class='vertical-center'>(E)</div></div><div class='respDivR'><div class='vertical-center'>(I)</div></div></div>","E","$10","$40","0","10","40","SURE"
"html-keyboard-response","159","54793","0.0-5.0-3.51","ds_test","bdp_rd","Sat Feb 18 2023 17:03:45 GMT-0500 (Eastern Standard Time)","63159","","null","","","","offer","","<div class='trialBorder'><div class='vertical-center'><img style='vertical-align:center; align:center' src=img/fixation3.jpg></div><div class='cl'><div class='vertical-center'><font style='color:orange'>$10<br>for<br>sure</font></div></div><div class='cr'><div class='vertical-center'>$40<br>with a<br>50% chance</div></div><div class='respDivL'><div class='vertical-center'><font style='color:orange'>(E)</font></div></div><div class='respDivR'><div class='vertical-center'>(I)</div></div></div>","null","$10","$40","0","10","40",""
"html-keyboard-response","160","55301","0.0-5.0-1.52","ds_test","bdp_rd","Sat Feb 18 2023 17:03:45 GMT-0500 (Eastern Standard Time)","63159","","null","","","","FIX","","<div class='trialBorder'><div class='vertical-center'><img style='vertical-align:center; align:center' src=img/fixation3.jpg></div></div>","null","","","","","",""
"html-keyboard-response","161","55431","0.0-5.0-2.52","ds_test","bdp_rd","Sat Feb 18 2023 17:03:45 GMT-0500 (Eastern Standard Time)","63159","","128","","","","offer","","<div class='trialBorder'><div class='vertical-center'><img style='vertical-align:center; align:center' src=img/fixation3.jpg></div><div class='cl'><div class='vertical-center'>$13<br>with a<br>50% chance</div></div><div class='cr'><div class='vertical-center'>$6<br>for<br>sure</div></div><div class='respDivL'><div class='vertical-center'>(E)</div></div><div class='respDivR'><div class='vertical-center'>(I)</div></div></div>","E","$6","$13","1","6","13","RISKY"
"html-keyboard-response","162","55685","0.0-5.0-3.52","ds_test","bdp_rd","Sat Feb 18 2023 17:03:45 GMT-0500 (Eastern Standard Time)","63159","","null","","","","offer","","<div class='trialBorder'><div class='vertical-center'><img style='vertical-align:center; align:center' src=img/fixation3.jpg></div><div class='cl'><div class='vertical-center'><font style='color:orange'>$13<br>with a<br>50% chance</font></div></div><div class='cr'><div class='vertical-center'>$6<br>for<br>sure</div></div><div class='respDivL'><div class='vertical-center'><font style='color:orange'>(E)</font></div></div><div class='respDivR'><div class='vertical-center'>(I)</div></div></div>","null","$6","$13","1","6","13",""
"html-keyboard-response","163","56200","0.0-5.0-1.53","ds_test","bdp_rd","Sat Feb 18 2023 17:03:45 GMT-0500 (Eastern Standard Time)","63159","","null","","","","FIX","","<div class='trialBorder'><div class='vertical-center'><img style='vertical-align:center; align:center' src=img/fixation3.jpg></div></div>","null","","","","","",""
"html-keyboard-response","164","56352","0.0-5.0-2.53","ds_test","bdp_rd","Sat Feb 18 2023 17:03:45 GMT-0500 (Eastern Standard Time)","63159","","151","","","","offer","","<div class='trialBorder'><div class='vertical-center'><img style='vertical-align:center; align:center' src=img/fixation3.jpg></div><div class='cl'><div class='vertical-center'>$68<br>with a<br>50% chance</div></div><div class='cr'><div class='vertical-center'>$30<br>for<br>sure</div></div><div class='respDivL'><div class='vertical-center'>(E)</div></div><div class='respDivR'><div class='vertical-center'>(I)</div></div></div>","E","$30","$68","1","30","68","RISKY"
"html-keyboard-response","165","56608","0.0-5.0-3.53","ds_test","bdp_rd","Sat Feb 18 2023 17:03:45 GMT-0500 (Eastern Standard Time)","63159","","null","","","","offer","","<div class='trialBorder'><div class='vertical-center'><img style='vertical-align:center; align:center' src=img/fixation3.jpg></div><div class='cl'><div class='vertical-center'><font style='color:orange'>$68<br>with a<br>50% chance</font></div></div><div class='cr'><div class='vertical-center'>$30<br>for<br>sure</div></div><div class='respDivL'><div class='vertical-center'><font style='color:orange'>(E)</font></div></div><div class='respDivR'><div class='vertical-center'>(I)</div></div></div>","null","$30","$68","1","30","68",""
"html-keyboard-response","166","57120","0.0-5.0-1.54","ds_test","bdp_rd","Sat Feb 18 2023 17:03:45 GMT-0500 (Eastern Standard Time)","63159","","null","","","","FIX","","<div class='trialBorder'><div class='vertical-center'><img style='vertical-align:center; align:center' src=img/fixation3.jpg></div></div>","null","","","","","",""
"html-keyboard-response","167","57294","0.0-5.0-2.54","ds_test","bdp_rd","Sat Feb 18 2023 17:03:45 GMT-0500 (Eastern Standard Time)","63159","","174","","","","offer","","<div class='trialBorder'><div class='vertical-center'><img style='vertical-align:center; align:center' src=img/fixation3.jpg></div><div class='cl'><div class='vertical-center'>$16<br>for<br>sure</div></div><div class='cr'><div class='vertical-center'>$28<br>with a<br>50% chance</div></div><div class='respDivL'><div class='vertical-center'>(E)</div></div><div class='respDivR'><div class='vertical-center'>(I)</div></div></div>","E","$16","$28","0","16","28","SURE"
"html-keyboard-response","168","57552","0.0-5.0-3.54","ds_test","bdp_rd","Sat Feb 18 2023 17:03:45 GMT-0500 (Eastern Standard Time)","63159","","null","","","","offer","","<div class='trialBorder'><div class='vertical-center'><img style='vertical-align:center; align:center' src=img/fixation3.jpg></div><div class='cl'><div class='vertical-center'><font style='color:orange'>$16<br>for<br>sure</font></div></div><div class='cr'><div class='vertical-center'>$28<br>with a<br>50% chance</div></div><div class='respDivL'><div class='vertical-center'><font style='color:orange'>(E)</font></div></div><div class='respDivR'><div class='vertical-center'>(I)</div></div></div>","null","$16","$28","0","16","28",""
"html-keyboard-response","169","58062","0.0-5.0-1.55","ds_test","bdp_rd","Sat Feb 18 2023 17:03:45 GMT-0500 (Eastern Standard Time)","63159","","null","","","","FIX","","<div class='trialBorder'><div class='vertical-center'><img style='vertical-align:center; align:center' src=img/fixation3.jpg></div></div>","null","","","","","",""
"html-keyboard-response","170","58248","0.0-5.0-2.55","ds_test","bdp_rd","Sat Feb 18 2023 17:03:45 GMT-0500 (Eastern Standard Time)","63159","","185","","","","offer","","<div class='trialBorder'><div class='vertical-center'><img style='vertical-align:center; align:center' src=img/fixation3.jpg></div><div class='cl'><div class='vertical-center'>$1<br>for<br>sure</div></div><div class='cr'><div class='vertical-center'>$30<br>with a<br>50% chance</div></div><div class='respDivL'><div class='vertical-center'>(E)</div></div><div class='respDivR'><div class='vertical-center'>(I)</div></div></div>","E","$1","$30","0","1","30","SURE"
"html-keyboard-response","171","58504","0.0-5.0-3.55","ds_test","bdp_rd","Sat Feb 18 2023 17:03:45 GMT-0500 (Eastern Standard Time)","63159","","null","","","","offer","","<div class='trialBorder'><div class='vertical-center'><img style='vertical-align:center; align:center' src=img/fixation3.jpg></div><div class='cl'><div class='vertical-center'><font style='color:orange'>$1<br>for<br>sure</font></div></div><div class='cr'><div class='vertical-center'>$30<br>with a<br>50% chance</div></div><div class='respDivL'><div class='vertical-center'><font style='color:orange'>(E)</font></div></div><div class='respDivR'><div class='vertical-center'>(I)</div></div></div>","null","$1","$30","0","1","30",""
"html-keyboard-response","172","59013","0.0-5.0-1.56","ds_test","bdp_rd","Sat Feb 18 2023 17:03:45 GMT-0500 (Eastern Standard Time)","63159","","null","","","","FIX","","<div class='trialBorder'><div class='vertical-center'><img style='vertical-align:center; align:center' src=img/fixation3.jpg></div></div>","null","","","","","",""
"html-keyboard-response","173","59186","0.0-5.0-2.56","ds_test","bdp_rd","Sat Feb 18 2023 17:03:45 GMT-0500 (Eastern Standard Time)","63159","","172","","","","offer","","<div class='trialBorder'><div class='vertical-center'><img style='vertical-align:center; align:center' src=img/fixation3.jpg></div><div class='cl'><div class='vertical-center'>$70<br>with a<br>50% chance</div></div><div class='cr'><div class='vertical-center'>$24<br>for<br>sure</div></div><div class='respDivL'><div class='vertical-center'>(E)</div></div><div class='respDivR'><div class='vertical-center'>(I)</div></div></div>","E","$24","$70","1","24","70","RISKY"
"html-keyboard-response","174","59446","0.0-5.0-3.56","ds_test","bdp_rd","Sat Feb 18 2023 17:03:45 GMT-0500 (Eastern Standard Time)","63159","","null","","","","offer","","<div class='trialBorder'><div class='vertical-center'><img style='vertical-align:center; align:center' src=img/fixation3.jpg></div><div class='cl'><div class='vertical-center'><font style='color:orange'>$70<br>with a<br>50% chance</font></div></div><div class='cr'><div class='vertical-center'>$24<br>for<br>sure</div></div><div class='respDivL'><div class='vertical-center'><font style='color:orange'>(E)</font></div></div><div class='respDivR'><div class='vertical-center'>(I)</div></div></div>","null","$24","$70","1","24","70",""
"html-keyboard-response","175","59957","0.0-5.0-1.57","ds_test","bdp_rd","Sat Feb 18 2023 17:03:45 GMT-0500 (Eastern Standard Time)","63159","","null","","","","FIX","","<div class='trialBorder'><div class='vertical-center'><img style='vertical-align:center; align:center' src=img/fixation3.jpg></div></div>","null","","","","","",""
"html-keyboard-response","176","60143","0.0-5.0-2.57","ds_test","bdp_rd","Sat Feb 18 2023 17:03:45 GMT-0500 (Eastern Standard Time)","63159","","185","","","","offer","","<div class='trialBorder'><div class='vertical-center'><img style='vertical-align:center; align:center' src=img/fixation3.jpg></div><div class='cl'><div class='vertical-center'>$86<br>with a<br>50% chance</div></div><div class='cr'><div class='vertical-center'>$45<br>for<br>sure</div></div><div class='respDivL'><div class='vertical-center'>(E)</div></div><div class='respDivR'><div class='vertical-center'>(I)</div></div></div>","E","$45","$86","1","45","86","RISKY"
"html-keyboard-response","177","60396","0.0-5.0-3.57","ds_test","bdp_rd","Sat Feb 18 2023 17:03:45 GMT-0500 (Eastern Standard Time)","63159","","null","","","","offer","","<div class='trialBorder'><div class='vertical-center'><img style='vertical-align:center; align:center' src=img/fixation3.jpg></div><div class='cl'><div class='vertical-center'><font style='color:orange'>$86<br>with a<br>50% chance</font></div></div><div class='cr'><div class='vertical-center'>$45<br>for<br>sure</div></div><div class='respDivL'><div class='vertical-center'><font style='color:orange'>(E)</font></div></div><div class='respDivR'><div class='vertical-center'>(I)</div></div></div>","null","$45","$86","1","45","86",""
"html-keyboard-response","178","60901","0.0-5.0-1.58","ds_test","bdp_rd","Sat Feb 18 2023 17:03:45 GMT-0500 (Eastern Standard Time)","63159","","null","","","","FIX","","<div class='trialBorder'><div class='vertical-center'><img style='vertical-align:center; align:center' src=img/fixation3.jpg></div></div>","null","","","","","",""
"html-keyboard-response","179","60933","0.0-5.0-2.58","ds_test","bdp_rd","Sat Feb 18 2023 17:03:45 GMT-0500 (Eastern Standard Time)","63159","","30","","","","offer","","<div class='trialBorder'><div class='vertical-center'><img style='vertical-align:center; align:center' src=img/fixation3.jpg></div><div class='cl'><div class='vertical-center'>$4<br>for<br>sure</div></div><div class='cr'><div class='vertical-center'>$11<br>with a<br>50% chance</div></div><div class='respDivL'><div class='vertical-center'>(E)</div></div><div class='respDivR'><div class='vertical-center'>(I)</div></div></div>","E","$4","$11","0","4","11","SURE"
