"trial_type","trial_index","time_elapsed","internal_node_id","subject_id","task","startTime","totalTime","view_history","rt","event","trial","time","trialtype","success","stimulus","key_press","sureOffer","riskyOffer","riskyLeft","sureAmt","riskyAmt","chosen"
"pavlovia","0","2","0.0-0.0","6400dc45648545e7ca8f35a6","bdp_rd","Sun Apr 09 2023 18:32:25 GMT-0400 (Eastern Daylight Time)","292717","","","","","","","","","","","","","","",""
"instructions","1","1410","0.0-1.0","6400dc45648545e7ca8f35a6","bdp_rd","Sun Apr 09 2023 18:32:25 GMT-0400 (Eastern Daylight Time)","292717","[{""page_index"":0,""viewing_time"":1408}]","1408","","","","","","","","","","","","",""
"","","","","6400dc45648545e7ca8f35a6","bdp_rd","Sun Apr 09 2023 18:32:25 GMT-0400 (Eastern Daylight Time)","292717","","","fullscreenenter","2","2584","fullscreenenter","","","","","","","","",""
"fullscreen","2","3577","0.0-2.0","6400dc45648545e7ca8f35a6","bdp_rd","Sun Apr 09 2023 18:32:25 GMT-0400 (Eastern Daylight Time)","292717","","","","","","","true","","","","","","","",""
"instructions","3","21990","0.0-4.0","6400dc45648545e7ca8f35a6","bdp_rd","Sun Apr 09 2023 18:32:25 GMT-0400 (Eastern Daylight Time)","292717","[{""page_index"":0,""viewing_time"":10017},{""page_index"":1,""viewing_time"":5663},{""page_index"":2,""viewing_time"":2732}]","18412","","","","","","","","","","","","",""
"html-keyboard-response","4","22492","0.0-5.0-1.0","6400dc45648545e7ca8f35a6","bdp_rd","Sun Apr 09 2023 18:32:25 GMT-0400 (Eastern Daylight Time)","292717","","null","","","","FIX","","<div class='trialBorder'><div class='vertical-center'><img style='vertical-align:center; align:center' src=img/fixation3.jpg></div></div>","null","","","","","",""
"html-keyboard-response","5","29233","0.0-5.0-2.0","6400dc45648545e7ca8f35a6","bdp_rd","Sun Apr 09 2023 18:32:25 GMT-0400 (Eastern Daylight Time)","292717","","6741","","","","offer","","<div class='trialBorder'><div class='vertical-center'><img style='vertical-align:center; align:center' src=img/fixation3.jpg></div><div class='cl'><div class='vertical-center'>$9<br>for<br>sure</div></div><div class='cr'><div class='vertical-center'>$32<br>with a<br>50% chance</div></div><div class='respDivL'><div class='vertical-center'>(E)</div></div><div class='respDivR'><div class='vertical-center'>(I)</div></div></div>","I","$9","$32","0","9","32","RISKY"
"html-keyboard-response","6","29484","0.0-5.0-3.0","6400dc45648545e7ca8f35a6","bdp_rd","Sun Apr 09 2023 18:32:25 GMT-0400 (Eastern Daylight Time)","292717","","null","","","","offerFB","","<div class='trialBorder'><div class='vertical-center'><img style='vertical-align:center; align:center' src=img/fixation3.jpg></div><div class='cl'><div class='vertical-center'>$9<br>for<br>sure</div></div><div class='cr'><div class='vertical-center'><font style='color:orange'>$32<br>with a<br>50% chance</font></div></div><div class='respDivL'><div class='vertical-center'>(E)</div></div><div class='respDivR'><div class='vertical-center'><font style='color:orange'>(I)</font></div></div></div>","null","$9","$32","0","9","32",""
"html-keyboard-response","7","29986","0.0-5.0-1.1","6400dc45648545e7ca8f35a6","bdp_rd","Sun Apr 09 2023 18:32:25 GMT-0400 (Eastern Daylight Time)","292717","","null","","","","FIX","","<div class='trialBorder'><div class='vertical-center'><img style='vertical-align:center; align:center' src=img/fixation3.jpg></div></div>","null","","","","","",""
"html-keyboard-response","8","33686","0.0-5.0-2.1","6400dc45648545e7ca8f35a6","bdp_rd","Sun Apr 09 2023 18:32:25 GMT-0400 (Eastern Daylight Time)","292717","","3699","","","","offer","","<div class='trialBorder'><div class='vertical-center'><img style='vertical-align:center; align:center' src=img/fixation3.jpg></div><div class='cl'><div class='vertical-center'>$18<br>with a<br>50% chance</div></div><div class='cr'><div class='vertical-center'>$9<br>for<br>sure</div></div><div class='respDivL'><div class='vertical-center'>(E)</div></div><div class='respDivR'><div class='vertical-center'>(I)</div></div></div>","I","$9","$18","1","9","18","SURE"
"html-keyboard-response","9","33938","0.0-5.0-3.1","6400dc45648545e7ca8f35a6","bdp_rd","Sun Apr 09 2023 18:32:25 GMT-0400 (Eastern Daylight Time)","292717","","null","","","","offerFB","","<div class='trialBorder'><div class='vertical-center'><img style='vertical-align:center; align:center' src=img/fixation3.jpg></div><div class='cl'><div class='vertical-center'>$18<br>with a<br>50% chance</div></div><div class='cr'><div class='vertical-center'><font style='color:orange'>$9<br>for<br>sure</font></div></div><div class='respDivL'><div class='vertical-center'>(E)</div></div><div class='respDivR'><div class='vertical-center'><font style='color:orange'>(I)</font></div></div></div>","null","$9","$18","1","9","18",""
"html-keyboard-response","10","34440","0.0-5.0-1.2","6400dc45648545e7ca8f35a6","bdp_rd","Sun Apr 09 2023 18:32:25 GMT-0400 (Eastern Daylight Time)","292717","","null","","","","FIX","","<div class='trialBorder'><div class='vertical-center'><img style='vertical-align:center; align:center' src=img/fixation3.jpg></div></div>","null","","","","","",""
"html-keyboard-response","11","40349","0.0-5.0-2.2","6400dc45648545e7ca8f35a6","bdp_rd","Sun Apr 09 2023 18:32:25 GMT-0400 (Eastern Daylight Time)","292717","","5909","","","","offer","","<div class='trialBorder'><div class='vertical-center'><img style='vertical-align:center; align:center' src=img/fixation3.jpg></div><div class='cl'><div class='vertical-center'>$6<br>for<br>sure</div></div><div class='cr'><div class='vertical-center'>$15<br>with a<br>50% chance</div></div><div class='respDivL'><div class='vertical-center'>(E)</div></div><div class='respDivR'><div class='vertical-center'>(I)</div></div></div>","I","$6","$15","0","6","15","RISKY"
"html-keyboard-response","12","40601","0.0-5.0-3.2","6400dc45648545e7ca8f35a6","bdp_rd","Sun Apr 09 2023 18:32:25 GMT-0400 (Eastern Daylight Time)","292717","","null","","","","offerFB","","<div class='trialBorder'><div class='vertical-center'><img style='vertical-align:center; align:center' src=img/fixation3.jpg></div><div class='cl'><div class='vertical-center'>$6<br>for<br>sure</div></div><div class='cr'><div class='vertical-center'><font style='color:orange'>$15<br>with a<br>50% chance</font></div></div><div class='respDivL'><div class='vertical-center'>(E)</div></div><div class='respDivR'><div class='vertical-center'><font style='color:orange'>(I)</font></div></div></div>","null","$6","$15","0","6","15",""
"html-keyboard-response","13","41102","0.0-5.0-1.3","6400dc45648545e7ca8f35a6","bdp_rd","Sun Apr 09 2023 18:32:25 GMT-0400 (Eastern Daylight Time)","292717","","null","","","","FIX","","<div class='trialBorder'><div class='vertical-center'><img style='vertical-align:center; align:center' src=img/fixation3.jpg></div></div>","null","","","","","",""
"html-keyboard-response","14","44303","0.0-5.0-2.3","6400dc45648545e7ca8f35a6","bdp_rd","Sun Apr 09 2023 18:32:25 GMT-0400 (Eastern Daylight Time)","292717","","3200","","","","offer","","<div class='trialBorder'><div class='vertical-center'><img style='vertical-align:center; align:center' src=img/fixation3.jpg></div><div class='cl'><div class='vertical-center'>$19<br>for<br>sure</div></div><div class='cr'><div class='vertical-center'>$51<br>with a<br>50% chance</div></div><div class='respDivL'><div class='vertical-center'>(E)</div></div><div class='respDivR'><div class='vertical-center'>(I)</div></div></div>","I","$19","$51","0","19","51","RISKY"
"html-keyboard-response","15","44554","0.0-5.0-3.3","6400dc45648545e7ca8f35a6","bdp_rd","Sun Apr 09 2023 18:32:25 GMT-0400 (Eastern Daylight Time)","292717","","null","","","","offerFB","","<div class='trialBorder'><div class='vertical-center'><img style='vertical-align:center; align:center' src=img/fixation3.jpg></div><div class='cl'><div class='vertical-center'>$19<br>for<br>sure</div></div><div class='cr'><div class='vertical-center'><font style='color:orange'>$51<br>with a<br>50% chance</font></div></div><div class='respDivL'><div class='vertical-center'>(E)</div></div><div class='respDivR'><div class='vertical-center'><font style='color:orange'>(I)</font></div></div></div>","null","$19","$51","0","19","51",""
"html-keyboard-response","16","45055","0.0-5.0-1.4","6400dc45648545e7ca8f35a6","bdp_rd","Sun Apr 09 2023 18:32:25 GMT-0400 (Eastern Daylight Time)","292717","","null","","","","FIX","","<div class='trialBorder'><div class='vertical-center'><img style='vertical-align:center; align:center' src=img/fixation3.jpg></div></div>","null","","","","","",""
"html-keyboard-response","17","48920","0.0-5.0-2.4","6400dc45648545e7ca8f35a6","bdp_rd","Sun Apr 09 2023 18:32:25 GMT-0400 (Eastern Daylight Time)","292717","","3864","","","","offer","","<div class='trialBorder'><div class='vertical-center'><img style='vertical-align:center; align:center' src=img/fixation3.jpg></div><div class='cl'><div class='vertical-center'>$64<br>with a<br>50% chance</div></div><div class='cr'><div class='vertical-center'>$2<br>for<br>sure</div></div><div class='respDivL'><div class='vertical-center'>(E)</div></div><div class='respDivR'><div class='vertical-center'>(I)</div></div></div>","E","$2","$64","1","2","64","RISKY"
"html-keyboard-response","18","49173","0.0-5.0-3.4","6400dc45648545e7ca8f35a6","bdp_rd","Sun Apr 09 2023 18:32:25 GMT-0400 (Eastern Daylight Time)","292717","","null","","","","offerFB","","<div class='trialBorder'><div class='vertical-center'><img style='vertical-align:center; align:center' src=img/fixation3.jpg></div><div class='cl'><div class='vertical-center'><font style='color:orange'>$64<br>with a<br>50% chance</font></div></div><div class='cr'><div class='vertical-center'>$2<br>for<br>sure</div></div><div class='respDivL'><div class='vertical-center'><font style='color:orange'>(E)</font></div></div><div class='respDivR'><div class='vertical-center'>(I)</div></div></div>","null","$2","$64","1","2","64",""
"html-keyboard-response","19","49674","0.0-5.0-1.5","6400dc45648545e7ca8f35a6","bdp_rd","Sun Apr 09 2023 18:32:25 GMT-0400 (Eastern Daylight Time)","292717","","null","","","","FIX","","<div class='trialBorder'><div class='vertical-center'><img style='vertical-align:center; align:center' src=img/fixation3.jpg></div></div>","null","","","","","",""
"html-keyboard-response","20","52716","0.0-5.0-2.5","6400dc45648545e7ca8f35a6","bdp_rd","Sun Apr 09 2023 18:32:25 GMT-0400 (Eastern Daylight Time)","292717","","3041","","","","offer","","<div class='trialBorder'><div class='vertical-center'><img style='vertical-align:center; align:center' src=img/fixation3.jpg></div><div class='cl'><div class='vertical-center'>$28<br>for<br>sure</div></div><div class='cr'><div class='vertical-center'>$89<br>with a<br>50% chance</div></div><div class='respDivL'><div class='vertical-center'>(E)</div></div><div class='respDivR'><div class='vertical-center'>(I)</div></div></div>","I","$28","$89","0","28","89","RISKY"
"html-keyboard-response","21","52969","0.0-5.0-3.5","6400dc45648545e7ca8f35a6","bdp_rd","Sun Apr 09 2023 18:32:25 GMT-0400 (Eastern Daylight Time)","292717","","null","","","","offerFB","","<div class='trialBorder'><div class='vertical-center'><img style='vertical-align:center; align:center' src=img/fixation3.jpg></div><div class='cl'><div class='vertical-center'>$28<br>for<br>sure</div></div><div class='cr'><div class='vertical-center'><font style='color:orange'>$89<br>with a<br>50% chance</font></div></div><div class='respDivL'><div class='vertical-center'>(E)</div></div><div class='respDivR'><div class='vertical-center'><font style='color:orange'>(I)</font></div></div></div>","null","$28","$89","0","28","89",""
"html-keyboard-response","22","53470","0.0-5.0-1.6","6400dc45648545e7ca8f35a6","bdp_rd","Sun Apr 09 2023 18:32:25 GMT-0400 (Eastern Daylight Time)","292717","","null","","","","FIX","","<div class='trialBorder'><div class='vertical-center'><img style='vertical-align:center; align:center' src=img/fixation3.jpg></div></div>","null","","","","","",""
"html-keyboard-response","23","56856","0.0-5.0-2.6","6400dc45648545e7ca8f35a6","bdp_rd","Sun Apr 09 2023 18:32:25 GMT-0400 (Eastern Daylight Time)","292717","","3385","","","","offer","","<div class='trialBorder'><div class='vertical-center'><img style='vertical-align:center; align:center' src=img/fixation3.jpg></div><div class='cl'><div class='vertical-center'>$46<br>for<br>sure</div></div><div class='cr'><div class='vertical-center'>$65<br>with a<br>50% chance</div></div><div class='respDivL'><div class='vertical-center'>(E)</div></div><div class='respDivR'><div class='vertical-center'>(I)</div></div></div>","E","$46","$65","0","46","65","SURE"
"html-keyboard-response","24","57108","0.0-5.0-3.6","6400dc45648545e7ca8f35a6","bdp_rd","Sun Apr 09 2023 18:32:25 GMT-0400 (Eastern Daylight Time)","292717","","null","","","","offerFB","","<div class='trialBorder'><div class='vertical-center'><img style='vertical-align:center; align:center' src=img/fixation3.jpg></div><div class='cl'><div class='vertical-center'><font style='color:orange'>$46<br>for<br>sure</font></div></div><div class='cr'><div class='vertical-center'>$65<br>with a<br>50% chance</div></div><div class='respDivL'><div class='vertical-center'><font style='color:orange'>(E)</font></div></div><div class='respDivR'><div class='vertical-center'>(I)</div></div></div>","null","$46","$65","0","46","65",""
"html-keyboard-response","25","57610","0.0-5.0-1.7","6400dc45648545e7ca8f35a6","bdp_rd","Sun Apr 09 2023 18:32:25 GMT-0400 (Eastern Daylight Time)","292717","","null","","","","FIX","","<div class='trialBorder'><div class='vertical-center'><img style='vertical-align:center; align:center' src=img/fixation3.jpg></div></div>","null","","","","","",""
"html-keyboard-response","26","60558","0.0-5.0-2.7","6400dc45648545e7ca8f35a6","bdp_rd","Sun Apr 09 2023 18:32:25 GMT-0400 (Eastern Daylight Time)","292717","","2948","","","","offer","","<div class='trialBorder'><div class='vertical-center'><img style='vertical-align:center; align:center' src=img/fixation3.jpg></div><div class='cl'><div class='vertical-center'>$11<br>with a<br>50% chance</div></div><div class='cr'><div class='vertical-center'>$4<br>for<br>sure</div></div><div class='respDivL'><div class='vertical-center'>(E)</div></div><div class='respDivR'><div class='vertical-center'>(I)</div></div></div>","E","$4","$11","1","4","11","RISKY"
"html-keyboard-response","27","60810","0.0-5.0-3.7","6400dc45648545e7ca8f35a6","bdp_rd","Sun Apr 09 2023 18:32:25 GMT-0400 (Eastern Daylight Time)","292717","","null","","","","offerFB","","<div class='trialBorder'><div class='vertical-center'><img style='vertical-align:center; align:center' src=img/fixation3.jpg></div><div class='cl'><div class='vertical-center'><font style='color:orange'>$11<br>with a<br>50% chance</font></div></div><div class='cr'><div class='vertical-center'>$4<br>for<br>sure</div></div><div class='respDivL'><div class='vertical-center'><font style='color:orange'>(E)</font></div></div><div class='respDivR'><div class='vertical-center'>(I)</div></div></div>","null","$4","$11","1","4","11",""
"html-keyboard-response","28","61311","0.0-5.0-1.8","6400dc45648545e7ca8f35a6","bdp_rd","Sun Apr 09 2023 18:32:25 GMT-0400 (Eastern Daylight Time)","292717","","null","","","","FIX","","<div class='trialBorder'><div class='vertical-center'><img style='vertical-align:center; align:center' src=img/fixation3.jpg></div></div>","null","","","","","",""
"html-keyboard-response","29","67041","0.0-5.0-2.8","6400dc45648545e7ca8f35a6","bdp_rd","Sun Apr 09 2023 18:32:25 GMT-0400 (Eastern Daylight Time)","292717","","5729","","","","offer","","<div class='trialBorder'><div class='vertical-center'><img style='vertical-align:center; align:center' src=img/fixation3.jpg></div><div class='cl'><div class='vertical-center'>$31<br>with a<br>50% chance</div></div><div class='cr'><div class='vertical-center'>$15<br>for<br>sure</div></div><div class='respDivL'><div class='vertical-center'>(E)</div></div><div class='respDivR'><div class='vertical-center'>(I)</div></div></div>","E","$15","$31","1","15","31","RISKY"
"html-keyboard-response","30","67293","0.0-5.0-3.8","6400dc45648545e7ca8f35a6","bdp_rd","Sun Apr 09 2023 18:32:25 GMT-0400 (Eastern Daylight Time)","292717","","null","","","","offerFB","","<div class='trialBorder'><div class='vertical-center'><img style='vertical-align:center; align:center' src=img/fixation3.jpg></div><div class='cl'><div class='vertical-center'><font style='color:orange'>$31<br>with a<br>50% chance</font></div></div><div class='cr'><div class='vertical-center'>$15<br>for<br>sure</div></div><div class='respDivL'><div class='vertical-center'><font style='color:orange'>(E)</font></div></div><div class='respDivR'><div class='vertical-center'>(I)</div></div></div>","null","$15","$31","1","15","31",""
"html-keyboard-response","31","67794","0.0-5.0-1.9","6400dc45648545e7ca8f35a6","bdp_rd","Sun Apr 09 2023 18:32:25 GMT-0400 (Eastern Daylight Time)","292717","","null","","","","FIX","","<div class='trialBorder'><div class='vertical-center'><img style='vertical-align:center; align:center' src=img/fixation3.jpg></div></div>","null","","","","","",""
"html-keyboard-response","32","69896","0.0-5.0-2.9","6400dc45648545e7ca8f35a6","bdp_rd","Sun Apr 09 2023 18:32:25 GMT-0400 (Eastern Daylight Time)","292717","","2102","","","","offer","","<div class='trialBorder'><div class='vertical-center'><img style='vertical-align:center; align:center' src=img/fixation3.jpg></div><div class='cl'><div class='vertical-center'>$13<br>for<br>sure</div></div><div class='cr'><div class='vertical-center'>$24<br>with a<br>50% chance</div></div><div class='respDivL'><div class='vertical-center'>(E)</div></div><div class='respDivR'><div class='vertical-center'>(I)</div></div></div>","E","$13","$24","0","13","24","SURE"
"html-keyboard-response","33","70148","0.0-5.0-3.9","6400dc45648545e7ca8f35a6","bdp_rd","Sun Apr 09 2023 18:32:25 GMT-0400 (Eastern Daylight Time)","292717","","null","","","","offerFB","","<div class='trialBorder'><div class='vertical-center'><img style='vertical-align:center; align:center' src=img/fixation3.jpg></div><div class='cl'><div class='vertical-center'><font style='color:orange'>$13<br>for<br>sure</font></div></div><div class='cr'><div class='vertical-center'>$24<br>with a<br>50% chance</div></div><div class='respDivL'><div class='vertical-center'><font style='color:orange'>(E)</font></div></div><div class='respDivR'><div class='vertical-center'>(I)</div></div></div>","null","$13","$24","0","13","24",""
"html-keyboard-response","34","70649","0.0-5.0-1.10","6400dc45648545e7ca8f35a6","bdp_rd","Sun Apr 09 2023 18:32:25 GMT-0400 (Eastern Daylight Time)","292717","","null","","","","FIX","","<div class='trialBorder'><div class='vertical-center'><img style='vertical-align:center; align:center' src=img/fixation3.jpg></div></div>","null","","","","","",""
"html-keyboard-response","35","72876","0.0-5.0-2.10","6400dc45648545e7ca8f35a6","bdp_rd","Sun Apr 09 2023 18:32:25 GMT-0400 (Eastern Daylight Time)","292717","","2226","","","","offer","","<div class='trialBorder'><div class='vertical-center'><img style='vertical-align:center; align:center' src=img/fixation3.jpg></div><div class='cl'><div class='vertical-center'>$14<br>for<br>sure</div></div><div class='cr'><div class='vertical-center'>$22<br>with a<br>50% chance</div></div><div class='respDivL'><div class='vertical-center'>(E)</div></div><div class='respDivR'><div class='vertical-center'>(I)</div></div></div>","E","$14","$22","0","14","22","SURE"
"html-keyboard-response","36","73128","0.0-5.0-3.10","6400dc45648545e7ca8f35a6","bdp_rd","Sun Apr 09 2023 18:32:25 GMT-0400 (Eastern Daylight Time)","292717","","null","","","","offerFB","","<div class='trialBorder'><div class='vertical-center'><img style='vertical-align:center; align:center' src=img/fixation3.jpg></div><div class='cl'><div class='vertical-center'><font style='color:orange'>$14<br>for<br>sure</font></div></div><div class='cr'><div class='vertical-center'>$22<br>with a<br>50% chance</div></div><div class='respDivL'><div class='vertical-center'><font style='color:orange'>(E)</font></div></div><div class='respDivR'><div class='vertical-center'>(I)</div></div></div>","null","$14","$22","0","14","22",""
"html-keyboard-response","37","73630","0.0-5.0-1.11","6400dc45648545e7ca8f35a6","bdp_rd","Sun Apr 09 2023 18:32:25 GMT-0400 (Eastern Daylight Time)","292717","","null","","","","FIX","","<div class='trialBorder'><div class='vertical-center'><img style='vertical-align:center; align:center' src=img/fixation3.jpg></div></div>","null","","","","","",""
"html-keyboard-response","38","76578","0.0-5.0-2.11","6400dc45648545e7ca8f35a6","bdp_rd","Sun Apr 09 2023 18:32:25 GMT-0400 (Eastern Daylight Time)","292717","","2948","","","","offer","","<div class='trialBorder'><div class='vertical-center'><img style='vertical-align:center; align:center' src=img/fixation3.jpg></div><div class='cl'><div class='vertical-center'>$43<br>with a<br>50% chance</div></div><div class='cr'><div class='vertical-center'>$17<br>for<br>sure</div></div><div class='respDivL'><div class='vertical-center'>(E)</div></div><div class='respDivR'><div class='vertical-center'>(I)</div></div></div>","E","$17","$43","1","17","43","RISKY"
"html-keyboard-response","39","76830","0.0-5.0-3.11","6400dc45648545e7ca8f35a6","bdp_rd","Sun Apr 09 2023 18:32:25 GMT-0400 (Eastern Daylight Time)","292717","","null","","","","offerFB","","<div class='trialBorder'><div class='vertical-center'><img style='vertical-align:center; align:center' src=img/fixation3.jpg></div><div class='cl'><div class='vertical-center'><font style='color:orange'>$43<br>with a<br>50% chance</font></div></div><div class='cr'><div class='vertical-center'>$17<br>for<br>sure</div></div><div class='respDivL'><div class='vertical-center'><font style='color:orange'>(E)</font></div></div><div class='respDivR'><div class='vertical-center'>(I)</div></div></div>","null","$17","$43","1","17","43",""
"html-keyboard-response","40","77331","0.0-5.0-1.12","6400dc45648545e7ca8f35a6","bdp_rd","Sun Apr 09 2023 18:32:25 GMT-0400 (Eastern Daylight Time)","292717","","null","","","","FIX","","<div class='trialBorder'><div class='vertical-center'><img style='vertical-align:center; align:center' src=img/fixation3.jpg></div></div>","null","","","","","",""
"html-keyboard-response","41","79849","0.0-5.0-2.12","6400dc45648545e7ca8f35a6","bdp_rd","Sun Apr 09 2023 18:32:25 GMT-0400 (Eastern Daylight Time)","292717","","2516","","","","offer","","<div class='trialBorder'><div class='vertical-center'><img style='vertical-align:center; align:center' src=img/fixation3.jpg></div><div class='cl'><div class='vertical-center'>$92<br>with a<br>50% chance</div></div><div class='cr'><div class='vertical-center'>$26<br>for<br>sure</div></div><div class='respDivL'><div class='vertical-center'>(E)</div></div><div class='respDivR'><div class='vertical-center'>(I)</div></div></div>","E","$26","$92","1","26","92","RISKY"
"html-keyboard-response","42","80101","0.0-5.0-3.12","6400dc45648545e7ca8f35a6","bdp_rd","Sun Apr 09 2023 18:32:25 GMT-0400 (Eastern Daylight Time)","292717","","null","","","","offerFB","","<div class='trialBorder'><div class='vertical-center'><img style='vertical-align:center; align:center' src=img/fixation3.jpg></div><div class='cl'><div class='vertical-center'><font style='color:orange'>$92<br>with a<br>50% chance</font></div></div><div class='cr'><div class='vertical-center'>$26<br>for<br>sure</div></div><div class='respDivL'><div class='vertical-center'><font style='color:orange'>(E)</font></div></div><div class='respDivR'><div class='vertical-center'>(I)</div></div></div>","null","$26","$92","1","26","92",""
"html-keyboard-response","43","80602","0.0-5.0-1.13","6400dc45648545e7ca8f35a6","bdp_rd","Sun Apr 09 2023 18:32:25 GMT-0400 (Eastern Daylight Time)","292717","","null","","","","FIX","","<div class='trialBorder'><div class='vertical-center'><img style='vertical-align:center; align:center' src=img/fixation3.jpg></div></div>","null","","","","","",""
"html-keyboard-response","44","85642","0.0-5.0-2.13","6400dc45648545e7ca8f35a6","bdp_rd","Sun Apr 09 2023 18:32:25 GMT-0400 (Eastern Daylight Time)","292717","","5039","","","","offer","","<div class='trialBorder'><div class='vertical-center'><img style='vertical-align:center; align:center' src=img/fixation3.jpg></div><div class='cl'><div class='vertical-center'>$35<br>with a<br>50% chance</div></div><div class='cr'><div class='vertical-center'>$12<br>for<br>sure</div></div><div class='respDivL'><div class='vertical-center'>(E)</div></div><div class='respDivR'><div class='vertical-center'>(I)</div></div></div>","E","$12","$35","1","12","35","RISKY"
"html-keyboard-response","45","85893","0.0-5.0-3.13","6400dc45648545e7ca8f35a6","bdp_rd","Sun Apr 09 2023 18:32:25 GMT-0400 (Eastern Daylight Time)","292717","","null","","","","offerFB","","<div class='trialBorder'><div class='vertical-center'><img style='vertical-align:center; align:center' src=img/fixation3.jpg></div><div class='cl'><div class='vertical-center'><font style='color:orange'>$35<br>with a<br>50% chance</font></div></div><div class='cr'><div class='vertical-center'>$12<br>for<br>sure</div></div><div class='respDivL'><div class='vertical-center'><font style='color:orange'>(E)</font></div></div><div class='respDivR'><div class='vertical-center'>(I)</div></div></div>","null","$12","$35","1","12","35",""
"html-keyboard-response","46","86395","0.0-5.0-1.14","6400dc45648545e7ca8f35a6","bdp_rd","Sun Apr 09 2023 18:32:25 GMT-0400 (Eastern Daylight Time)","292717","","null","","","","FIX","","<div class='trialBorder'><div class='vertical-center'><img style='vertical-align:center; align:center' src=img/fixation3.jpg></div></div>","null","","","","","",""
"html-keyboard-response","47","91932","0.0-5.0-2.14","6400dc45648545e7ca8f35a6","bdp_rd","Sun Apr 09 2023 18:32:25 GMT-0400 (Eastern Daylight Time)","292717","","5537","","","","offer","","<div class='trialBorder'><div class='vertical-center'><img style='vertical-align:center; align:center' src=img/fixation3.jpg></div><div class='cl'><div class='vertical-center'>$5<br>for<br>sure</div></div><div class='cr'><div class='vertical-center'>$16<br>with a<br>50% chance</div></div><div class='respDivL'><div class='vertical-center'>(E)</div></div><div class='respDivR'><div class='vertical-center'>(I)</div></div></div>","I","$5","$16","0","5","16","RISKY"
"html-keyboard-response","48","92184","0.0-5.0-3.14","6400dc45648545e7ca8f35a6","bdp_rd","Sun Apr 09 2023 18:32:25 GMT-0400 (Eastern Daylight Time)","292717","","null","","","","offerFB","","<div class='trialBorder'><div class='vertical-center'><img style='vertical-align:center; align:center' src=img/fixation3.jpg></div><div class='cl'><div class='vertical-center'>$5<br>for<br>sure</div></div><div class='cr'><div class='vertical-center'><font style='color:orange'>$16<br>with a<br>50% chance</font></div></div><div class='respDivL'><div class='vertical-center'>(E)</div></div><div class='respDivR'><div class='vertical-center'><font style='color:orange'>(I)</font></div></div></div>","null","$5","$16","0","5","16",""
"html-keyboard-response","49","92686","0.0-5.0-1.15","6400dc45648545e7ca8f35a6","bdp_rd","Sun Apr 09 2023 18:32:25 GMT-0400 (Eastern Daylight Time)","292717","","null","","","","FIX","","<div class='trialBorder'><div class='vertical-center'><img style='vertical-align:center; align:center' src=img/fixation3.jpg></div></div>","null","","","","","",""
"html-keyboard-response","50","94702","0.0-5.0-2.15","6400dc45648545e7ca8f35a6","bdp_rd","Sun Apr 09 2023 18:32:25 GMT-0400 (Eastern Daylight Time)","292717","","2016","","","","offer","","<div class='trialBorder'><div class='vertical-center'><img style='vertical-align:center; align:center' src=img/fixation3.jpg></div><div class='cl'><div class='vertical-center'>$30<br>for<br>sure</div></div><div class='cr'><div class='vertical-center'>$68<br>with a<br>50% chance</div></div><div class='respDivL'><div class='vertical-center'>(E)</div></div><div class='respDivR'><div class='vertical-center'>(I)</div></div></div>","I","$30","$68","0","30","68","RISKY"
"html-keyboard-response","51","94954","0.0-5.0-3.15","6400dc45648545e7ca8f35a6","bdp_rd","Sun Apr 09 2023 18:32:25 GMT-0400 (Eastern Daylight Time)","292717","","null","","","","offerFB","","<div class='trialBorder'><div class='vertical-center'><img style='vertical-align:center; align:center' src=img/fixation3.jpg></div><div class='cl'><div class='vertical-center'>$30<br>for<br>sure</div></div><div class='cr'><div class='vertical-center'><font style='color:orange'>$68<br>with a<br>50% chance</font></div></div><div class='respDivL'><div class='vertical-center'>(E)</div></div><div class='respDivR'><div class='vertical-center'><font style='color:orange'>(I)</font></div></div></div>","null","$30","$68","0","30","68",""
"html-keyboard-response","52","95456","0.0-5.0-1.16","6400dc45648545e7ca8f35a6","bdp_rd","Sun Apr 09 2023 18:32:25 GMT-0400 (Eastern Daylight Time)","292717","","null","","","","FIX","","<div class='trialBorder'><div class='vertical-center'><img style='vertical-align:center; align:center' src=img/fixation3.jpg></div></div>","null","","","","","",""
"html-keyboard-response","53","105604","0.0-5.0-2.16","6400dc45648545e7ca8f35a6","bdp_rd","Sun Apr 09 2023 18:32:25 GMT-0400 (Eastern Daylight Time)","292717","","10147","","","","offer","","<div class='trialBorder'><div class='vertical-center'><img style='vertical-align:center; align:center' src=img/fixation3.jpg></div><div class='cl'><div class='vertical-center'>$66<br>with a<br>50% chance</div></div><div class='cr'><div class='vertical-center'>$33<br>for<br>sure</div></div><div class='respDivL'><div class='vertical-center'>(E)</div></div><div class='respDivR'><div class='vertical-center'>(I)</div></div></div>","I","$33","$66","1","33","66","SURE"
"html-keyboard-response","54","105857","0.0-5.0-3.16","6400dc45648545e7ca8f35a6","bdp_rd","Sun Apr 09 2023 18:32:25 GMT-0400 (Eastern Daylight Time)","292717","","null","","","","offerFB","","<div class='trialBorder'><div class='vertical-center'><img style='vertical-align:center; align:center' src=img/fixation3.jpg></div><div class='cl'><div class='vertical-center'>$66<br>with a<br>50% chance</div></div><div class='cr'><div class='vertical-center'><font style='color:orange'>$33<br>for<br>sure</font></div></div><div class='respDivL'><div class='vertical-center'>(E)</div></div><div class='respDivR'><div class='vertical-center'><font style='color:orange'>(I)</font></div></div></div>","null","$33","$66","1","33","66",""
"html-keyboard-response","55","106358","0.0-5.0-1.17","6400dc45648545e7ca8f35a6","bdp_rd","Sun Apr 09 2023 18:32:25 GMT-0400 (Eastern Daylight Time)","292717","","null","","","","FIX","","<div class='trialBorder'><div class='vertical-center'><img style='vertical-align:center; align:center' src=img/fixation3.jpg></div></div>","null","","","","","",""
"html-keyboard-response","56","108755","0.0-5.0-2.17","6400dc45648545e7ca8f35a6","bdp_rd","Sun Apr 09 2023 18:32:25 GMT-0400 (Eastern Daylight Time)","292717","","2396","","","","offer","","<div class='trialBorder'><div class='vertical-center'><img style='vertical-align:center; align:center' src=img/fixation3.jpg></div><div class='cl'><div class='vertical-center'>$11<br>for<br>sure</div></div><div class='cr'><div class='vertical-center'>$26<br>with a<br>50% chance</div></div><div class='respDivL'><div class='vertical-center'>(E)</div></div><div class='respDivR'><div class='vertical-center'>(I)</div></div></div>","I","$11","$26","0","11","26","RISKY"
"html-keyboard-response","57","109007","0.0-5.0-3.17","6400dc45648545e7ca8f35a6","bdp_rd","Sun Apr 09 2023 18:32:25 GMT-0400 (Eastern Daylight Time)","292717","","null","","","","offerFB","","<div class='trialBorder'><div class='vertical-center'><img style='vertical-align:center; align:center' src=img/fixation3.jpg></div><div class='cl'><div class='vertical-center'>$11<br>for<br>sure</div></div><div class='cr'><div class='vertical-center'><font style='color:orange'>$26<br>with a<br>50% chance</font></div></div><div class='respDivL'><div class='vertical-center'>(E)</div></div><div class='respDivR'><div class='vertical-center'><font style='color:orange'>(I)</font></div></div></div>","null","$11","$26","0","11","26",""
"html-keyboard-response","58","109508","0.0-5.0-1.18","6400dc45648545e7ca8f35a6","bdp_rd","Sun Apr 09 2023 18:32:25 GMT-0400 (Eastern Daylight Time)","292717","","null","","","","FIX","","<div class='trialBorder'><div class='vertical-center'><img style='vertical-align:center; align:center' src=img/fixation3.jpg></div></div>","null","","","","","",""
"html-keyboard-response","59","115403","0.0-5.0-2.18","6400dc45648545e7ca8f35a6","bdp_rd","Sun Apr 09 2023 18:32:25 GMT-0400 (Eastern Daylight Time)","292717","","5894","","","","offer","","<div class='trialBorder'><div class='vertical-center'><img style='vertical-align:center; align:center' src=img/fixation3.jpg></div><div class='cl'><div class='vertical-center'>$95<br>with a<br>50% chance</div></div><div class='cr'><div class='vertical-center'>$40<br>for<br>sure</div></div><div class='respDivL'><div class='vertical-center'>(E)</div></div><div class='respDivR'><div class='vertical-center'>(I)</div></div></div>","E","$40","$95","1","40","95","RISKY"
"html-keyboard-response","60","115654","0.0-5.0-3.18","6400dc45648545e7ca8f35a6","bdp_rd","Sun Apr 09 2023 18:32:25 GMT-0400 (Eastern Daylight Time)","292717","","null","","","","offerFB","","<div class='trialBorder'><div class='vertical-center'><img style='vertical-align:center; align:center' src=img/fixation3.jpg></div><div class='cl'><div class='vertical-center'><font style='color:orange'>$95<br>with a<br>50% chance</font></div></div><div class='cr'><div class='vertical-center'>$40<br>for<br>sure</div></div><div class='respDivL'><div class='vertical-center'><font style='color:orange'>(E)</font></div></div><div class='respDivR'><div class='vertical-center'>(I)</div></div></div>","null","$40","$95","1","40","95",""
"html-keyboard-response","61","116156","0.0-5.0-1.19","6400dc45648545e7ca8f35a6","bdp_rd","Sun Apr 09 2023 18:32:25 GMT-0400 (Eastern Daylight Time)","292717","","null","","","","FIX","","<div class='trialBorder'><div class='vertical-center'><img style='vertical-align:center; align:center' src=img/fixation3.jpg></div></div>","null","","","","","",""
"html-keyboard-response","62","118623","0.0-5.0-2.19","6400dc45648545e7ca8f35a6","bdp_rd","Sun Apr 09 2023 18:32:25 GMT-0400 (Eastern Daylight Time)","292717","","2467","","","","offer","","<div class='trialBorder'><div class='vertical-center'><img style='vertical-align:center; align:center' src=img/fixation3.jpg></div><div class='cl'><div class='vertical-center'>$16<br>for<br>sure</div></div><div class='cr'><div class='vertical-center'>$28<br>with a<br>50% chance</div></div><div class='respDivL'><div class='vertical-center'>(E)</div></div><div class='respDivR'><div class='vertical-center'>(I)</div></div></div>","E","$16","$28","0","16","28","SURE"
"html-keyboard-response","63","118874","0.0-5.0-3.19","6400dc45648545e7ca8f35a6","bdp_rd","Sun Apr 09 2023 18:32:25 GMT-0400 (Eastern Daylight Time)","292717","","null","","","","offerFB","","<div class='trialBorder'><div class='vertical-center'><img style='vertical-align:center; align:center' src=img/fixation3.jpg></div><div class='cl'><div class='vertical-center'><font style='color:orange'>$16<br>for<br>sure</font></div></div><div class='cr'><div class='vertical-center'>$28<br>with a<br>50% chance</div></div><div class='respDivL'><div class='vertical-center'><font style='color:orange'>(E)</font></div></div><div class='respDivR'><div class='vertical-center'>(I)</div></div></div>","null","$16","$28","0","16","28",""
"html-keyboard-response","64","119375","0.0-5.0-1.20","6400dc45648545e7ca8f35a6","bdp_rd","Sun Apr 09 2023 18:32:25 GMT-0400 (Eastern Daylight Time)","292717","","null","","","","FIX","","<div class='trialBorder'><div class='vertical-center'><img style='vertical-align:center; align:center' src=img/fixation3.jpg></div></div>","null","","","","","",""
"html-keyboard-response","65","121716","0.0-5.0-2.20","6400dc45648545e7ca8f35a6","bdp_rd","Sun Apr 09 2023 18:32:25 GMT-0400 (Eastern Daylight Time)","292717","","2341","","","","offer","","<div class='trialBorder'><div class='vertical-center'><img style='vertical-align:center; align:center' src=img/fixation3.jpg></div><div class='cl'><div class='vertical-center'>$15<br>for<br>sure</div></div><div class='cr'><div class='vertical-center'>$34<br>with a<br>50% chance</div></div><div class='respDivL'><div class='vertical-center'>(E)</div></div><div class='respDivR'><div class='vertical-center'>(I)</div></div></div>","I","$15","$34","0","15","34","RISKY"
"html-keyboard-response","66","121968","0.0-5.0-3.20","6400dc45648545e7ca8f35a6","bdp_rd","Sun Apr 09 2023 18:32:25 GMT-0400 (Eastern Daylight Time)","292717","","null","","","","offerFB","","<div class='trialBorder'><div class='vertical-center'><img style='vertical-align:center; align:center' src=img/fixation3.jpg></div><div class='cl'><div class='vertical-center'>$15<br>for<br>sure</div></div><div class='cr'><div class='vertical-center'><font style='color:orange'>$34<br>with a<br>50% chance</font></div></div><div class='respDivL'><div class='vertical-center'>(E)</div></div><div class='respDivR'><div class='vertical-center'><font style='color:orange'>(I)</font></div></div></div>","null","$15","$34","0","15","34",""
"html-keyboard-response","67","122470","0.0-5.0-1.21","6400dc45648545e7ca8f35a6","bdp_rd","Sun Apr 09 2023 18:32:25 GMT-0400 (Eastern Daylight Time)","292717","","null","","","","FIX","","<div class='trialBorder'><div class='vertical-center'><img style='vertical-align:center; align:center' src=img/fixation3.jpg></div></div>","null","","","","","",""
"html-keyboard-response","68","124631","0.0-5.0-2.21","6400dc45648545e7ca8f35a6","bdp_rd","Sun Apr 09 2023 18:32:25 GMT-0400 (Eastern Daylight Time)","292717","","2160","","","","offer","","<div class='trialBorder'><div class='vertical-center'><img style='vertical-align:center; align:center' src=img/fixation3.jpg></div><div class='cl'><div class='vertical-center'>$22<br>for<br>sure</div></div><div class='cr'><div class='vertical-center'>$42<br>with a<br>50% chance</div></div><div class='respDivL'><div class='vertical-center'>(E)</div></div><div class='respDivR'><div class='vertical-center'>(I)</div></div></div>","E","$22","$42","0","22","42","SURE"
"html-keyboard-response","69","124882","0.0-5.0-3.21","6400dc45648545e7ca8f35a6","bdp_rd","Sun Apr 09 2023 18:32:25 GMT-0400 (Eastern Daylight Time)","292717","","null","","","","offerFB","","<div class='trialBorder'><div class='vertical-center'><img style='vertical-align:center; align:center' src=img/fixation3.jpg></div><div class='cl'><div class='vertical-center'><font style='color:orange'>$22<br>for<br>sure</font></div></div><div class='cr'><div class='vertical-center'>$42<br>with a<br>50% chance</div></div><div class='respDivL'><div class='vertical-center'><font style='color:orange'>(E)</font></div></div><div class='respDivR'><div class='vertical-center'>(I)</div></div></div>","null","$22","$42","0","22","42",""
"html-keyboard-response","70","125384","0.0-5.0-1.22","6400dc45648545e7ca8f35a6","bdp_rd","Sun Apr 09 2023 18:32:25 GMT-0400 (Eastern Daylight Time)","292717","","null","","","","FIX","","<div class='trialBorder'><div class='vertical-center'><img style='vertical-align:center; align:center' src=img/fixation3.jpg></div></div>","null","","","","","",""
"html-keyboard-response","71","127049","0.0-5.0-2.22","6400dc45648545e7ca8f35a6","bdp_rd","Sun Apr 09 2023 18:32:25 GMT-0400 (Eastern Daylight Time)","292717","","1665","","","","offer","","<div class='trialBorder'><div class='vertical-center'><img style='vertical-align:center; align:center' src=img/fixation3.jpg></div><div class='cl'><div class='vertical-center'>$3<br>for<br>sure</div></div><div class='cr'><div class='vertical-center'>$12<br>with a<br>50% chance</div></div><div class='respDivL'><div class='vertical-center'>(E)</div></div><div class='respDivR'><div class='vertical-center'>(I)</div></div></div>","I","$3","$12","0","3","12","RISKY"
"html-keyboard-response","72","127300","0.0-5.0-3.22","6400dc45648545e7ca8f35a6","bdp_rd","Sun Apr 09 2023 18:32:25 GMT-0400 (Eastern Daylight Time)","292717","","null","","","","offerFB","","<div class='trialBorder'><div class='vertical-center'><img style='vertical-align:center; align:center' src=img/fixation3.jpg></div><div class='cl'><div class='vertical-center'>$3<br>for<br>sure</div></div><div class='cr'><div class='vertical-center'><font style='color:orange'>$12<br>with a<br>50% chance</font></div></div><div class='respDivL'><div class='vertical-center'>(E)</div></div><div class='respDivR'><div class='vertical-center'><font style='color:orange'>(I)</font></div></div></div>","null","$3","$12","0","3","12",""
"html-keyboard-response","73","127801","0.0-5.0-1.23","6400dc45648545e7ca8f35a6","bdp_rd","Sun Apr 09 2023 18:32:25 GMT-0400 (Eastern Daylight Time)","292717","","null","","","","FIX","","<div class='trialBorder'><div class='vertical-center'><img style='vertical-align:center; align:center' src=img/fixation3.jpg></div></div>","null","","","","","",""
"html-keyboard-response","74","131265","0.0-5.0-2.23","6400dc45648545e7ca8f35a6","bdp_rd","Sun Apr 09 2023 18:32:25 GMT-0400 (Eastern Daylight Time)","292717","","3463","","","","offer","","<div class='trialBorder'><div class='vertical-center'><img style='vertical-align:center; align:center' src=img/fixation3.jpg></div><div class='cl'><div class='vertical-center'>$1<br>for<br>sure</div></div><div class='cr'><div class='vertical-center'>$30<br>with a<br>50% chance</div></div><div class='respDivL'><div class='vertical-center'>(E)</div></div><div class='respDivR'><div class='vertical-center'>(I)</div></div></div>","I","$1","$30","0","1","30","RISKY"
"html-keyboard-response","75","131516","0.0-5.0-3.23","6400dc45648545e7ca8f35a6","bdp_rd","Sun Apr 09 2023 18:32:25 GMT-0400 (Eastern Daylight Time)","292717","","null","","","","offerFB","","<div class='trialBorder'><div class='vertical-center'><img style='vertical-align:center; align:center' src=img/fixation3.jpg></div><div class='cl'><div class='vertical-center'>$1<br>for<br>sure</div></div><div class='cr'><div class='vertical-center'><font style='color:orange'>$30<br>with a<br>50% chance</font></div></div><div class='respDivL'><div class='vertical-center'>(E)</div></div><div class='respDivR'><div class='vertical-center'><font style='color:orange'>(I)</font></div></div></div>","null","$1","$30","0","1","30",""
"html-keyboard-response","76","132018","0.0-5.0-1.24","6400dc45648545e7ca8f35a6","bdp_rd","Sun Apr 09 2023 18:32:25 GMT-0400 (Eastern Daylight Time)","292717","","null","","","","FIX","","<div class='trialBorder'><div class='vertical-center'><img style='vertical-align:center; align:center' src=img/fixation3.jpg></div></div>","null","","","","","",""
"html-keyboard-response","77","133353","0.0-5.0-2.24","6400dc45648545e7ca8f35a6","bdp_rd","Sun Apr 09 2023 18:32:25 GMT-0400 (Eastern Daylight Time)","292717","","1335","","","","offer","","<div class='trialBorder'><div class='vertical-center'><img style='vertical-align:center; align:center' src=img/fixation3.jpg></div><div class='cl'><div class='vertical-center'>$40<br>with a<br>50% chance</div></div><div class='cr'><div class='vertical-center'>$10<br>for<br>sure</div></div><div class='respDivL'><div class='vertical-center'>(E)</div></div><div class='respDivR'><div class='vertical-center'>(I)</div></div></div>","E","$10","$40","1","10","40","RISKY"
"html-keyboard-response","78","133604","0.0-5.0-3.24","6400dc45648545e7ca8f35a6","bdp_rd","Sun Apr 09 2023 18:32:25 GMT-0400 (Eastern Daylight Time)","292717","","null","","","","offerFB","","<div class='trialBorder'><div class='vertical-center'><img style='vertical-align:center; align:center' src=img/fixation3.jpg></div><div class='cl'><div class='vertical-center'><font style='color:orange'>$40<br>with a<br>50% chance</font></div></div><div class='cr'><div class='vertical-center'>$10<br>for<br>sure</div></div><div class='respDivL'><div class='vertical-center'><font style='color:orange'>(E)</font></div></div><div class='respDivR'><div class='vertical-center'>(I)</div></div></div>","null","$10","$40","1","10","40",""
"html-keyboard-response","79","134106","0.0-5.0-1.25","6400dc45648545e7ca8f35a6","bdp_rd","Sun Apr 09 2023 18:32:25 GMT-0400 (Eastern Daylight Time)","292717","","null","","","","FIX","","<div class='trialBorder'><div class='vertical-center'><img style='vertical-align:center; align:center' src=img/fixation3.jpg></div></div>","null","","","","","",""
"html-keyboard-response","80","135376","0.0-5.0-2.25","6400dc45648545e7ca8f35a6","bdp_rd","Sun Apr 09 2023 18:32:25 GMT-0400 (Eastern Daylight Time)","292717","","1270","","","","offer","","<div class='trialBorder'><div class='vertical-center'><img style='vertical-align:center; align:center' src=img/fixation3.jpg></div><div class='cl'><div class='vertical-center'>$71<br>with a<br>50% chance</div></div><div class='cr'><div class='vertical-center'>$7<br>for<br>sure</div></div><div class='respDivL'><div class='vertical-center'>(E)</div></div><div class='respDivR'><div class='vertical-center'>(I)</div></div></div>","E","$7","$71","1","7","71","RISKY"
"html-keyboard-response","81","135628","0.0-5.0-3.25","6400dc45648545e7ca8f35a6","bdp_rd","Sun Apr 09 2023 18:32:25 GMT-0400 (Eastern Daylight Time)","292717","","null","","","","offerFB","","<div class='trialBorder'><div class='vertical-center'><img style='vertical-align:center; align:center' src=img/fixation3.jpg></div><div class='cl'><div class='vertical-center'><font style='color:orange'>$71<br>with a<br>50% chance</font></div></div><div class='cr'><div class='vertical-center'>$7<br>for<br>sure</div></div><div class='respDivL'><div class='vertical-center'><font style='color:orange'>(E)</font></div></div><div class='respDivR'><div class='vertical-center'>(I)</div></div></div>","null","$7","$71","1","7","71",""
"html-keyboard-response","82","136129","0.0-5.0-1.26","6400dc45648545e7ca8f35a6","bdp_rd","Sun Apr 09 2023 18:32:25 GMT-0400 (Eastern Daylight Time)","292717","","null","","","","FIX","","<div class='trialBorder'><div class='vertical-center'><img style='vertical-align:center; align:center' src=img/fixation3.jpg></div></div>","null","","","","","",""
"html-keyboard-response","83","138271","0.0-5.0-2.26","6400dc45648545e7ca8f35a6","bdp_rd","Sun Apr 09 2023 18:32:25 GMT-0400 (Eastern Daylight Time)","292717","","2141","","","","offer","","<div class='trialBorder'><div class='vertical-center'><img style='vertical-align:center; align:center' src=img/fixation3.jpg></div><div class='cl'><div class='vertical-center'>$63<br>for<br>sure</div></div><div class='cr'><div class='vertical-center'>$100<br>with a<br>50% chance</div></div><div class='respDivL'><div class='vertical-center'>(E)</div></div><div class='respDivR'><div class='vertical-center'>(I)</div></div></div>","E","$63","$100","0","63","10","SURE"
"html-keyboard-response","84","138522","0.0-5.0-3.26","6400dc45648545e7ca8f35a6","bdp_rd","Sun Apr 09 2023 18:32:25 GMT-0400 (Eastern Daylight Time)","292717","","null","","","","offerFB","","<div class='trialBorder'><div class='vertical-center'><img style='vertical-align:center; align:center' src=img/fixation3.jpg></div><div class='cl'><div class='vertical-center'><font style='color:orange'>$63<br>for<br>sure</font></div></div><div class='cr'><div class='vertical-center'>$100<br>with a<br>50% chance</div></div><div class='respDivL'><div class='vertical-center'><font style='color:orange'>(E)</font></div></div><div class='respDivR'><div class='vertical-center'>(I)</div></div></div>","null","$63","$100","0","63","10",""
"html-keyboard-response","85","139023","0.0-5.0-1.27","6400dc45648545e7ca8f35a6","bdp_rd","Sun Apr 09 2023 18:32:25 GMT-0400 (Eastern Daylight Time)","292717","","null","","","","FIX","","<div class='trialBorder'><div class='vertical-center'><img style='vertical-align:center; align:center' src=img/fixation3.jpg></div></div>","null","","","","","",""
"html-keyboard-response","86","142049","0.0-5.0-2.27","6400dc45648545e7ca8f35a6","bdp_rd","Sun Apr 09 2023 18:32:25 GMT-0400 (Eastern Daylight Time)","292717","","3025","","","","offer","","<div class='trialBorder'><div class='vertical-center'><img style='vertical-align:center; align:center' src=img/fixation3.jpg></div><div class='cl'><div class='vertical-center'>$46<br>with a<br>50% chance</div></div><div class='cr'><div class='vertical-center'>$29<br>for<br>sure</div></div><div class='respDivL'><div class='vertical-center'>(E)</div></div><div class='respDivR'><div class='vertical-center'>(I)</div></div></div>","I","$29","$46","1","29","46","SURE"
"html-keyboard-response","87","142301","0.0-5.0-3.27","6400dc45648545e7ca8f35a6","bdp_rd","Sun Apr 09 2023 18:32:25 GMT-0400 (Eastern Daylight Time)","292717","","null","","","","offerFB","","<div class='trialBorder'><div class='vertical-center'><img style='vertical-align:center; align:center' src=img/fixation3.jpg></div><div class='cl'><div class='vertical-center'>$46<br>with a<br>50% chance</div></div><div class='cr'><div class='vertical-center'><font style='color:orange'>$29<br>for<br>sure</font></div></div><div class='respDivL'><div class='vertical-center'>(E)</div></div><div class='respDivR'><div class='vertical-center'><font style='color:orange'>(I)</font></div></div></div>","null","$29","$46","1","29","46",""
"html-keyboard-response","88","142802","0.0-5.0-1.28","6400dc45648545e7ca8f35a6","bdp_rd","Sun Apr 09 2023 18:32:25 GMT-0400 (Eastern Daylight Time)","292717","","null","","","","FIX","","<div class='trialBorder'><div class='vertical-center'><img style='vertical-align:center; align:center' src=img/fixation3.jpg></div></div>","null","","","","","",""
"html-keyboard-response","89","144911","0.0-5.0-2.28","6400dc45648545e7ca8f35a6","bdp_rd","Sun Apr 09 2023 18:32:25 GMT-0400 (Eastern Daylight Time)","292717","","2108","","","","offer","","<div class='trialBorder'><div class='vertical-center'><img style='vertical-align:center; align:center' src=img/fixation3.jpg></div><div class='cl'><div class='vertical-center'>$98<br>with a<br>50% chance</div></div><div class='cr'><div class='vertical-center'>$53<br>for<br>sure</div></div><div class='respDivL'><div class='vertical-center'>(E)</div></div><div class='respDivR'><div class='vertical-center'>(I)</div></div></div>","I","$53","$98","1","53","98","SURE"
"html-keyboard-response","90","145162","0.0-5.0-3.28","6400dc45648545e7ca8f35a6","bdp_rd","Sun Apr 09 2023 18:32:25 GMT-0400 (Eastern Daylight Time)","292717","","null","","","","offerFB","","<div class='trialBorder'><div class='vertical-center'><img style='vertical-align:center; align:center' src=img/fixation3.jpg></div><div class='cl'><div class='vertical-center'>$98<br>with a<br>50% chance</div></div><div class='cr'><div class='vertical-center'><font style='color:orange'>$53<br>for<br>sure</font></div></div><div class='respDivL'><div class='vertical-center'>(E)</div></div><div class='respDivR'><div class='vertical-center'><font style='color:orange'>(I)</font></div></div></div>","null","$53","$98","1","53","98",""
"html-keyboard-response","91","145663","0.0-5.0-1.29","6400dc45648545e7ca8f35a6","bdp_rd","Sun Apr 09 2023 18:32:25 GMT-0400 (Eastern Daylight Time)","292717","","null","","","","FIX","","<div class='trialBorder'><div class='vertical-center'><img style='vertical-align:center; align:center' src=img/fixation3.jpg></div></div>","null","","","","","",""
"html-keyboard-response","92","149705","0.0-5.0-2.29","6400dc45648545e7ca8f35a6","bdp_rd","Sun Apr 09 2023 18:32:25 GMT-0400 (Eastern Daylight Time)","292717","","4041","","","","offer","","<div class='trialBorder'><div class='vertical-center'><img style='vertical-align:center; align:center' src=img/fixation3.jpg></div><div class='cl'><div class='vertical-center'>$59<br>with a<br>50% chance</div></div><div class='cr'><div class='vertical-center'>$22<br>for<br>sure</div></div><div class='respDivL'><div class='vertical-center'>(E)</div></div><div class='respDivR'><div class='vertical-center'>(I)</div></div></div>","E","$22","$59","1","22","59","RISKY"
"html-keyboard-response","93","149957","0.0-5.0-3.29","6400dc45648545e7ca8f35a6","bdp_rd","Sun Apr 09 2023 18:32:25 GMT-0400 (Eastern Daylight Time)","292717","","null","","","","offerFB","","<div class='trialBorder'><div class='vertical-center'><img style='vertical-align:center; align:center' src=img/fixation3.jpg></div><div class='cl'><div class='vertical-center'><font style='color:orange'>$59<br>with a<br>50% chance</font></div></div><div class='cr'><div class='vertical-center'>$22<br>for<br>sure</div></div><div class='respDivL'><div class='vertical-center'><font style='color:orange'>(E)</font></div></div><div class='respDivR'><div class='vertical-center'>(I)</div></div></div>","null","$22","$59","1","22","59",""
"html-keyboard-response","94","150457","0.0-5.0-1.30","6400dc45648545e7ca8f35a6","bdp_rd","Sun Apr 09 2023 18:32:25 GMT-0400 (Eastern Daylight Time)","292717","","null","","","","FIX","","<div class='trialBorder'><div class='vertical-center'><img style='vertical-align:center; align:center' src=img/fixation3.jpg></div></div>","null","","","","","",""
"html-keyboard-response","95","151909","0.0-5.0-2.30","6400dc45648545e7ca8f35a6","bdp_rd","Sun Apr 09 2023 18:32:25 GMT-0400 (Eastern Daylight Time)","292717","","1451","","","","offer","","<div class='trialBorder'><div class='vertical-center'><img style='vertical-align:center; align:center' src=img/fixation3.jpg></div><div class='cl'><div class='vertical-center'>$24<br>for<br>sure</div></div><div class='cr'><div class='vertical-center'>$70<br>with a<br>50% chance</div></div><div class='respDivL'><div class='vertical-center'>(E)</div></div><div class='respDivR'><div class='vertical-center'>(I)</div></div></div>","I","$24","$70","0","24","70","RISKY"
"html-keyboard-response","96","152160","0.0-5.0-3.30","6400dc45648545e7ca8f35a6","bdp_rd","Sun Apr 09 2023 18:32:25 GMT-0400 (Eastern Daylight Time)","292717","","null","","","","offerFB","","<div class='trialBorder'><div class='vertical-center'><img style='vertical-align:center; align:center' src=img/fixation3.jpg></div><div class='cl'><div class='vertical-center'>$24<br>for<br>sure</div></div><div class='cr'><div class='vertical-center'><font style='color:orange'>$70<br>with a<br>50% chance</font></div></div><div class='respDivL'><div class='vertical-center'>(E)</div></div><div class='respDivR'><div class='vertical-center'><font style='color:orange'>(I)</font></div></div></div>","null","$24","$70","0","24","70",""
"html-keyboard-response","97","152662","0.0-5.0-1.31","6400dc45648545e7ca8f35a6","bdp_rd","Sun Apr 09 2023 18:32:25 GMT-0400 (Eastern Daylight Time)","292717","","null","","","","FIX","","<div class='trialBorder'><div class='vertical-center'><img style='vertical-align:center; align:center' src=img/fixation3.jpg></div></div>","null","","","","","",""
"html-keyboard-response","98","155295","0.0-5.0-2.31","6400dc45648545e7ca8f35a6","bdp_rd","Sun Apr 09 2023 18:32:25 GMT-0400 (Eastern Daylight Time)","292717","","2633","","","","offer","","<div class='trialBorder'><div class='vertical-center'><img style='vertical-align:center; align:center' src=img/fixation3.jpg></div><div class='cl'><div class='vertical-center'>$6<br>for<br>sure</div></div><div class='cr'><div class='vertical-center'>$13<br>with a<br>50% chance</div></div><div class='respDivL'><div class='vertical-center'>(E)</div></div><div class='respDivR'><div class='vertical-center'>(I)</div></div></div>","I","$6","$13","0","6","13","RISKY"
"html-keyboard-response","99","155547","0.0-5.0-3.31","6400dc45648545e7ca8f35a6","bdp_rd","Sun Apr 09 2023 18:32:25 GMT-0400 (Eastern Daylight Time)","292717","","null","","","","offerFB","","<div class='trialBorder'><div class='vertical-center'><img style='vertical-align:center; align:center' src=img/fixation3.jpg></div><div class='cl'><div class='vertical-center'>$6<br>for<br>sure</div></div><div class='cr'><div class='vertical-center'><font style='color:orange'>$13<br>with a<br>50% chance</font></div></div><div class='respDivL'><div class='vertical-center'>(E)</div></div><div class='respDivR'><div class='vertical-center'><font style='color:orange'>(I)</font></div></div></div>","null","$6","$13","0","6","13",""
"html-keyboard-response","100","156048","0.0-5.0-1.32","6400dc45648545e7ca8f35a6","bdp_rd","Sun Apr 09 2023 18:32:25 GMT-0400 (Eastern Daylight Time)","292717","","null","","","","FIX","","<div class='trialBorder'><div class='vertical-center'><img style='vertical-align:center; align:center' src=img/fixation3.jpg></div></div>","null","","","","","",""
"html-keyboard-response","101","158753","0.0-5.0-2.32","6400dc45648545e7ca8f35a6","bdp_rd","Sun Apr 09 2023 18:32:25 GMT-0400 (Eastern Daylight Time)","292717","","2704","","","","offer","","<div class='trialBorder'><div class='vertical-center'><img style='vertical-align:center; align:center' src=img/fixation3.jpg></div><div class='cl'><div class='vertical-center'>$1<br>for<br>sure</div></div><div class='cr'><div class='vertical-center'>$33<br>with a<br>50% chance</div></div><div class='respDivL'><div class='vertical-center'>(E)</div></div><div class='respDivR'><div class='vertical-center'>(I)</div></div></div>","I","$1","$33","0","1","33","RISKY"
"html-keyboard-response","102","159004","0.0-5.0-3.32","6400dc45648545e7ca8f35a6","bdp_rd","Sun Apr 09 2023 18:32:25 GMT-0400 (Eastern Daylight Time)","292717","","null","","","","offerFB","","<div class='trialBorder'><div class='vertical-center'><img style='vertical-align:center; align:center' src=img/fixation3.jpg></div><div class='cl'><div class='vertical-center'>$1<br>for<br>sure</div></div><div class='cr'><div class='vertical-center'><font style='color:orange'>$33<br>with a<br>50% chance</font></div></div><div class='respDivL'><div class='vertical-center'>(E)</div></div><div class='respDivR'><div class='vertical-center'><font style='color:orange'>(I)</font></div></div></div>","null","$1","$33","0","1","33",""
"html-keyboard-response","103","159505","0.0-5.0-1.33","6400dc45648545e7ca8f35a6","bdp_rd","Sun Apr 09 2023 18:32:25 GMT-0400 (Eastern Daylight Time)","292717","","null","","","","FIX","","<div class='trialBorder'><div class='vertical-center'><img style='vertical-align:center; align:center' src=img/fixation3.jpg></div></div>","null","","","","","",""
"html-keyboard-response","104","161326","0.0-5.0-2.33","6400dc45648545e7ca8f35a6","bdp_rd","Sun Apr 09 2023 18:32:25 GMT-0400 (Eastern Daylight Time)","292717","","1820","","","","offer","","<div class='trialBorder'><div class='vertical-center'><img style='vertical-align:center; align:center' src=img/fixation3.jpg></div><div class='cl'><div class='vertical-center'>$10<br>for<br>sure</div></div><div class='cr'><div class='vertical-center'>$19<br>with a<br>50% chance</div></div><div class='respDivL'><div class='vertical-center'>(E)</div></div><div class='respDivR'><div class='vertical-center'>(I)</div></div></div>","E","$10","$19","0","10","19","SURE"
"html-keyboard-response","105","161578","0.0-5.0-3.33","6400dc45648545e7ca8f35a6","bdp_rd","Sun Apr 09 2023 18:32:25 GMT-0400 (Eastern Daylight Time)","292717","","null","","","","offerFB","","<div class='trialBorder'><div class='vertical-center'><img style='vertical-align:center; align:center' src=img/fixation3.jpg></div><div class='cl'><div class='vertical-center'><font style='color:orange'>$10<br>for<br>sure</font></div></div><div class='cr'><div class='vertical-center'>$19<br>with a<br>50% chance</div></div><div class='respDivL'><div class='vertical-center'><font style='color:orange'>(E)</font></div></div><div class='respDivR'><div class='vertical-center'>(I)</div></div></div>","null","$10","$19","0","10","19",""
"html-keyboard-response","106","162079","0.0-5.0-1.34","6400dc45648545e7ca8f35a6","bdp_rd","Sun Apr 09 2023 18:32:25 GMT-0400 (Eastern Daylight Time)","292717","","null","","","","FIX","","<div class='trialBorder'><div class='vertical-center'><img style='vertical-align:center; align:center' src=img/fixation3.jpg></div></div>","null","","","","","",""
"html-keyboard-response","107","165311","0.0-5.0-2.34","6400dc45648545e7ca8f35a6","bdp_rd","Sun Apr 09 2023 18:32:25 GMT-0400 (Eastern Daylight Time)","292717","","3230","","","","offer","","<div class='trialBorder'><div class='vertical-center'><img style='vertical-align:center; align:center' src=img/fixation3.jpg></div><div class='cl'><div class='vertical-center'>$21<br>for<br>sure</div></div><div class='cr'><div class='vertical-center'>$25<br>with a<br>50% chance</div></div><div class='respDivL'><div class='vertical-center'>(E)</div></div><div class='respDivR'><div class='vertical-center'>(I)</div></div></div>","E","$21","$25","0","21","25","SURE"
"html-keyboard-response","108","165562","0.0-5.0-3.34","6400dc45648545e7ca8f35a6","bdp_rd","Sun Apr 09 2023 18:32:25 GMT-0400 (Eastern Daylight Time)","292717","","null","","","","offerFB","","<div class='trialBorder'><div class='vertical-center'><img style='vertical-align:center; align:center' src=img/fixation3.jpg></div><div class='cl'><div class='vertical-center'><font style='color:orange'>$21<br>for<br>sure</font></div></div><div class='cr'><div class='vertical-center'>$25<br>with a<br>50% chance</div></div><div class='respDivL'><div class='vertical-center'><font style='color:orange'>(E)</font></div></div><div class='respDivR'><div class='vertical-center'>(I)</div></div></div>","null","$21","$25","0","21","25",""
"html-keyboard-response","109","166063","0.0-5.0-1.35","6400dc45648545e7ca8f35a6","bdp_rd","Sun Apr 09 2023 18:32:25 GMT-0400 (Eastern Daylight Time)","292717","","null","","","","FIX","","<div class='trialBorder'><div class='vertical-center'><img style='vertical-align:center; align:center' src=img/fixation3.jpg></div></div>","null","","","","","",""
"html-keyboard-response","110","169547","0.0-5.0-2.35","6400dc45648545e7ca8f35a6","bdp_rd","Sun Apr 09 2023 18:32:25 GMT-0400 (Eastern Daylight Time)","292717","","3483","","","","offer","","<div class='trialBorder'><div class='vertical-center'><img style='vertical-align:center; align:center' src=img/fixation3.jpg></div><div class='cl'><div class='vertical-center'>$36<br>with a<br>50% chance</div></div><div class='cr'><div class='vertical-center'>$18<br>for<br>sure</div></div><div class='respDivL'><div class='vertical-center'>(E)</div></div><div class='respDivR'><div class='vertical-center'>(I)</div></div></div>","I","$18","$36","1","18","36","SURE"
"html-keyboard-response","111","169798","0.0-5.0-3.35","6400dc45648545e7ca8f35a6","bdp_rd","Sun Apr 09 2023 18:32:25 GMT-0400 (Eastern Daylight Time)","292717","","null","","","","offerFB","","<div class='trialBorder'><div class='vertical-center'><img style='vertical-align:center; align:center' src=img/fixation3.jpg></div><div class='cl'><div class='vertical-center'>$36<br>with a<br>50% chance</div></div><div class='cr'><div class='vertical-center'><font style='color:orange'>$18<br>for<br>sure</font></div></div><div class='respDivL'><div class='vertical-center'>(E)</div></div><div class='respDivR'><div class='vertical-center'><font style='color:orange'>(I)</font></div></div></div>","null","$18","$36","1","18","36",""
"html-keyboard-response","112","170300","0.0-5.0-1.36","6400dc45648545e7ca8f35a6","bdp_rd","Sun Apr 09 2023 18:32:25 GMT-0400 (Eastern Daylight Time)","292717","","null","","","","FIX","","<div class='trialBorder'><div class='vertical-center'><img style='vertical-align:center; align:center' src=img/fixation3.jpg></div></div>","null","","","","","",""
"html-keyboard-response","113","173029","0.0-5.0-2.36","6400dc45648545e7ca8f35a6","bdp_rd","Sun Apr 09 2023 18:32:25 GMT-0400 (Eastern Daylight Time)","292717","","2729","","","","offer","","<div class='trialBorder'><div class='vertical-center'><img style='vertical-align:center; align:center' src=img/fixation3.jpg></div><div class='cl'><div class='vertical-center'>$41<br>with a<br>50% chance</div></div><div class='cr'><div class='vertical-center'>$13<br>for<br>sure</div></div><div class='respDivL'><div class='vertical-center'>(E)</div></div><div class='respDivR'><div class='vertical-center'>(I)</div></div></div>","E","$13","$41","1","13","41","RISKY"
"html-keyboard-response","114","173281","0.0-5.0-3.36","6400dc45648545e7ca8f35a6","bdp_rd","Sun Apr 09 2023 18:32:25 GMT-0400 (Eastern Daylight Time)","292717","","null","","","","offerFB","","<div class='trialBorder'><div class='vertical-center'><img style='vertical-align:center; align:center' src=img/fixation3.jpg></div><div class='cl'><div class='vertical-center'><font style='color:orange'>$41<br>with a<br>50% chance</font></div></div><div class='cr'><div class='vertical-center'>$13<br>for<br>sure</div></div><div class='respDivL'><div class='vertical-center'><font style='color:orange'>(E)</font></div></div><div class='respDivR'><div class='vertical-center'>(I)</div></div></div>","null","$13","$41","1","13","41",""
"html-keyboard-response","115","173783","0.0-5.0-1.37","6400dc45648545e7ca8f35a6","bdp_rd","Sun Apr 09 2023 18:32:25 GMT-0400 (Eastern Daylight Time)","292717","","null","","","","FIX","","<div class='trialBorder'><div class='vertical-center'><img style='vertical-align:center; align:center' src=img/fixation3.jpg></div></div>","null","","","","","",""
"html-keyboard-response","116","175943","0.0-5.0-2.37","6400dc45648545e7ca8f35a6","bdp_rd","Sun Apr 09 2023 18:32:25 GMT-0400 (Eastern Daylight Time)","292717","","2160","","","","offer","","<div class='trialBorder'><div class='vertical-center'><img style='vertical-align:center; align:center' src=img/fixation3.jpg></div><div class='cl'><div class='vertical-center'>$34<br>for<br>sure</div></div><div class='cr'><div class='vertical-center'>$48<br>with a<br>50% chance</div></div><div class='respDivL'><div class='vertical-center'>(E)</div></div><div class='respDivR'><div class='vertical-center'>(I)</div></div></div>","E","$34","$48","0","34","48","SURE"
"html-keyboard-response","117","176195","0.0-5.0-3.37","6400dc45648545e7ca8f35a6","bdp_rd","Sun Apr 09 2023 18:32:25 GMT-0400 (Eastern Daylight Time)","292717","","null","","","","offerFB","","<div class='trialBorder'><div class='vertical-center'><img style='vertical-align:center; align:center' src=img/fixation3.jpg></div><div class='cl'><div class='vertical-center'><font style='color:orange'>$34<br>for<br>sure</font></div></div><div class='cr'><div class='vertical-center'>$48<br>with a<br>50% chance</div></div><div class='respDivL'><div class='vertical-center'><font style='color:orange'>(E)</font></div></div><div class='respDivR'><div class='vertical-center'>(I)</div></div></div>","null","$34","$48","0","34","48",""
"html-keyboard-response","118","176698","0.0-5.0-1.38","6400dc45648545e7ca8f35a6","bdp_rd","Sun Apr 09 2023 18:32:25 GMT-0400 (Eastern Daylight Time)","292717","","null","","","","FIX","","<div class='trialBorder'><div class='vertical-center'><img style='vertical-align:center; align:center' src=img/fixation3.jpg></div></div>","null","","","","","",""
"html-keyboard-response","119","178725","0.0-5.0-2.38","6400dc45648545e7ca8f35a6","bdp_rd","Sun Apr 09 2023 18:32:25 GMT-0400 (Eastern Daylight Time)","292717","","2027","","","","offer","","<div class='trialBorder'><div class='vertical-center'><img style='vertical-align:center; align:center' src=img/fixation3.jpg></div><div class='cl'><div class='vertical-center'>$10<br>with a<br>50% chance</div></div><div class='cr'><div class='vertical-center'>$7<br>for<br>sure</div></div><div class='respDivL'><div class='vertical-center'>(E)</div></div><div class='respDivR'><div class='vertical-center'>(I)</div></div></div>","I","$7","$10","1","7","10","SURE"
"html-keyboard-response","120","178977","0.0-5.0-3.38","6400dc45648545e7ca8f35a6","bdp_rd","Sun Apr 09 2023 18:32:25 GMT-0400 (Eastern Daylight Time)","292717","","null","","","","offerFB","","<div class='trialBorder'><div class='vertical-center'><img style='vertical-align:center; align:center' src=img/fixation3.jpg></div><div class='cl'><div class='vertical-center'>$10<br>with a<br>50% chance</div></div><div class='cr'><div class='vertical-center'><font style='color:orange'>$7<br>for<br>sure</font></div></div><div class='respDivL'><div class='vertical-center'>(E)</div></div><div class='respDivR'><div class='vertical-center'><font style='color:orange'>(I)</font></div></div></div>","null","$7","$10","1","7","10",""
"html-keyboard-response","121","179478","0.0-5.0-1.39","6400dc45648545e7ca8f35a6","bdp_rd","Sun Apr 09 2023 18:32:25 GMT-0400 (Eastern Daylight Time)","292717","","null","","","","FIX","","<div class='trialBorder'><div class='vertical-center'><img style='vertical-align:center; align:center' src=img/fixation3.jpg></div></div>","null","","","","","",""
"html-keyboard-response","122","181228","0.0-5.0-2.39","6400dc45648545e7ca8f35a6","bdp_rd","Sun Apr 09 2023 18:32:25 GMT-0400 (Eastern Daylight Time)","292717","","1750","","","","offer","","<div class='trialBorder'><div class='vertical-center'><img style='vertical-align:center; align:center' src=img/fixation3.jpg></div><div class='cl'><div class='vertical-center'>$5<br>for<br>sure</div></div><div class='cr'><div class='vertical-center'>$50<br>with a<br>50% chance</div></div><div class='respDivL'><div class='vertical-center'>(E)</div></div><div class='respDivR'><div class='vertical-center'>(I)</div></div></div>","I","$5","$50","0","5","50","RISKY"
"html-keyboard-response","123","181480","0.0-5.0-3.39","6400dc45648545e7ca8f35a6","bdp_rd","Sun Apr 09 2023 18:32:25 GMT-0400 (Eastern Daylight Time)","292717","","null","","","","offerFB","","<div class='trialBorder'><div class='vertical-center'><img style='vertical-align:center; align:center' src=img/fixation3.jpg></div><div class='cl'><div class='vertical-center'>$5<br>for<br>sure</div></div><div class='cr'><div class='vertical-center'><font style='color:orange'>$50<br>with a<br>50% chance</font></div></div><div class='respDivL'><div class='vertical-center'>(E)</div></div><div class='respDivR'><div class='vertical-center'><font style='color:orange'>(I)</font></div></div></div>","null","$5","$50","0","5","50",""
"html-keyboard-response","124","181982","0.0-5.0-1.40","6400dc45648545e7ca8f35a6","bdp_rd","Sun Apr 09 2023 18:32:25 GMT-0400 (Eastern Daylight Time)","292717","","null","","","","FIX","","<div class='trialBorder'><div class='vertical-center'><img style='vertical-align:center; align:center' src=img/fixation3.jpg></div></div>","null","","","","","",""
"html-keyboard-response","125","186751","0.0-5.0-2.40","6400dc45648545e7ca8f35a6","bdp_rd","Sun Apr 09 2023 18:32:25 GMT-0400 (Eastern Daylight Time)","292717","","4769","","","","offer","","<div class='trialBorder'><div class='vertical-center'><img style='vertical-align:center; align:center' src=img/fixation3.jpg></div><div class='cl'><div class='vertical-center'>$86<br>with a<br>50% chance</div></div><div class='cr'><div class='vertical-center'>$45<br>for<br>sure</div></div><div class='respDivL'><div class='vertical-center'>(E)</div></div><div class='respDivR'><div class='vertical-center'>(I)</div></div></div>","I","$45","$86","1","45","86","SURE"
"html-keyboard-response","126","187002","0.0-5.0-3.40","6400dc45648545e7ca8f35a6","bdp_rd","Sun Apr 09 2023 18:32:25 GMT-0400 (Eastern Daylight Time)","292717","","null","","","","offerFB","","<div class='trialBorder'><div class='vertical-center'><img style='vertical-align:center; align:center' src=img/fixation3.jpg></div><div class='cl'><div class='vertical-center'>$86<br>with a<br>50% chance</div></div><div class='cr'><div class='vertical-center'><font style='color:orange'>$45<br>for<br>sure</font></div></div><div class='respDivL'><div class='vertical-center'>(E)</div></div><div class='respDivR'><div class='vertical-center'><font style='color:orange'>(I)</font></div></div></div>","null","$45","$86","1","45","86",""
"html-keyboard-response","127","187505","0.0-5.0-1.41","6400dc45648545e7ca8f35a6","bdp_rd","Sun Apr 09 2023 18:32:25 GMT-0400 (Eastern Daylight Time)","292717","","null","","","","FIX","","<div class='trialBorder'><div class='vertical-center'><img style='vertical-align:center; align:center' src=img/fixation3.jpg></div></div>","null","","","","","",""
"html-keyboard-response","128","192849","0.0-5.0-2.41","6400dc45648545e7ca8f35a6","bdp_rd","Sun Apr 09 2023 18:32:25 GMT-0400 (Eastern Daylight Time)","292717","","5344","","","","offer","","<div class='trialBorder'><div class='vertical-center'><img style='vertical-align:center; align:center' src=img/fixation3.jpg></div><div class='cl'><div class='vertical-center'>$54<br>with a<br>50% chance</div></div><div class='cr'><div class='vertical-center'>$25<br>for<br>sure</div></div><div class='respDivL'><div class='vertical-center'>(E)</div></div><div class='respDivR'><div class='vertical-center'>(I)</div></div></div>","E","$25","$54","1","25","54","RISKY"
"html-keyboard-response","129","193101","0.0-5.0-3.41","6400dc45648545e7ca8f35a6","bdp_rd","Sun Apr 09 2023 18:32:25 GMT-0400 (Eastern Daylight Time)","292717","","null","","","","offerFB","","<div class='trialBorder'><div class='vertical-center'><img style='vertical-align:center; align:center' src=img/fixation3.jpg></div><div class='cl'><div class='vertical-center'><font style='color:orange'>$54<br>with a<br>50% chance</font></div></div><div class='cr'><div class='vertical-center'>$25<br>for<br>sure</div></div><div class='respDivL'><div class='vertical-center'><font style='color:orange'>(E)</font></div></div><div class='respDivR'><div class='vertical-center'>(I)</div></div></div>","null","$25","$54","1","25","54",""
"html-keyboard-response","130","193602","0.0-5.0-1.42","6400dc45648545e7ca8f35a6","bdp_rd","Sun Apr 09 2023 18:32:25 GMT-0400 (Eastern Daylight Time)","292717","","null","","","","FIX","","<div class='trialBorder'><div class='vertical-center'><img style='vertical-align:center; align:center' src=img/fixation3.jpg></div></div>","null","","","","","",""
"html-keyboard-response","131","195669","0.0-5.0-2.42","6400dc45648545e7ca8f35a6","bdp_rd","Sun Apr 09 2023 18:32:25 GMT-0400 (Eastern Daylight Time)","292717","","2066","","","","offer","","<div class='trialBorder'><div class='vertical-center'><img style='vertical-align:center; align:center' src=img/fixation3.jpg></div><div class='cl'><div class='vertical-center'>$39<br>with a<br>50% chance</div></div><div class='cr'><div class='vertical-center'>$18<br>for<br>sure</div></div><div class='respDivL'><div class='vertical-center'>(E)</div></div><div class='respDivR'><div class='vertical-center'>(I)</div></div></div>","E","$18","$39","1","18","39","RISKY"
"html-keyboard-response","132","195921","0.0-5.0-3.42","6400dc45648545e7ca8f35a6","bdp_rd","Sun Apr 09 2023 18:32:25 GMT-0400 (Eastern Daylight Time)","292717","","null","","","","offerFB","","<div class='trialBorder'><div class='vertical-center'><img style='vertical-align:center; align:center' src=img/fixation3.jpg></div><div class='cl'><div class='vertical-center'><font style='color:orange'>$39<br>with a<br>50% chance</font></div></div><div class='cr'><div class='vertical-center'>$18<br>for<br>sure</div></div><div class='respDivL'><div class='vertical-center'><font style='color:orange'>(E)</font></div></div><div class='respDivR'><div class='vertical-center'>(I)</div></div></div>","null","$18","$39","1","18","39",""
"html-keyboard-response","133","196423","0.0-5.0-1.43","6400dc45648545e7ca8f35a6","bdp_rd","Sun Apr 09 2023 18:32:25 GMT-0400 (Eastern Daylight Time)","292717","","null","","","","FIX","","<div class='trialBorder'><div class='vertical-center'><img style='vertical-align:center; align:center' src=img/fixation3.jpg></div></div>","null","","","","","",""
"html-keyboard-response","134","198682","0.0-5.0-2.43","6400dc45648545e7ca8f35a6","bdp_rd","Sun Apr 09 2023 18:32:25 GMT-0400 (Eastern Daylight Time)","292717","","2258","","","","offer","","<div class='trialBorder'><div class='vertical-center'><img style='vertical-align:center; align:center' src=img/fixation3.jpg></div><div class='cl'><div class='vertical-center'>$39<br>for<br>sure</div></div><div class='cr'><div class='vertical-center'>$81<br>with a<br>50% chance</div></div><div class='respDivL'><div class='vertical-center'>(E)</div></div><div class='respDivR'><div class='vertical-center'>(I)</div></div></div>","I","$39","$81","0","39","81","RISKY"
"html-keyboard-response","135","198933","0.0-5.0-3.43","6400dc45648545e7ca8f35a6","bdp_rd","Sun Apr 09 2023 18:32:25 GMT-0400 (Eastern Daylight Time)","292717","","null","","","","offerFB","","<div class='trialBorder'><div class='vertical-center'><img style='vertical-align:center; align:center' src=img/fixation3.jpg></div><div class='cl'><div class='vertical-center'>$39<br>for<br>sure</div></div><div class='cr'><div class='vertical-center'><font style='color:orange'>$81<br>with a<br>50% chance</font></div></div><div class='respDivL'><div class='vertical-center'>(E)</div></div><div class='respDivR'><div class='vertical-center'><font style='color:orange'>(I)</font></div></div></div>","null","$39","$81","0","39","81",""
"html-keyboard-response","136","199434","0.0-5.0-1.44","6400dc45648545e7ca8f35a6","bdp_rd","Sun Apr 09 2023 18:32:25 GMT-0400 (Eastern Daylight Time)","292717","","null","","","","FIX","","<div class='trialBorder'><div class='vertical-center'><img style='vertical-align:center; align:center' src=img/fixation3.jpg></div></div>","null","","","","","",""
"html-keyboard-response","137","209853","0.0-5.0-2.44","6400dc45648545e7ca8f35a6","bdp_rd","Sun Apr 09 2023 18:32:25 GMT-0400 (Eastern Daylight Time)","292717","","10418","","","","offer","","<div class='trialBorder'><div class='vertical-center'><img style='vertical-align:center; align:center' src=img/fixation3.jpg></div><div class='cl'><div class='vertical-center'>$47<br>with a<br>50% chance</div></div><div class='cr'><div class='vertical-center'>$27<br>for<br>sure</div></div><div class='respDivL'><div class='vertical-center'>(E)</div></div><div class='respDivR'><div class='vertical-center'>(I)</div></div></div>","I","$27","$47","1","27","47","SURE"
"html-keyboard-response","138","210105","0.0-5.0-3.44","6400dc45648545e7ca8f35a6","bdp_rd","Sun Apr 09 2023 18:32:25 GMT-0400 (Eastern Daylight Time)","292717","","null","","","","offerFB","","<div class='trialBorder'><div class='vertical-center'><img style='vertical-align:center; align:center' src=img/fixation3.jpg></div><div class='cl'><div class='vertical-center'>$47<br>with a<br>50% chance</div></div><div class='cr'><div class='vertical-center'><font style='color:orange'>$27<br>for<br>sure</font></div></div><div class='respDivL'><div class='vertical-center'>(E)</div></div><div class='respDivR'><div class='vertical-center'><font style='color:orange'>(I)</font></div></div></div>","null","$27","$47","1","27","47",""
"html-keyboard-response","139","210605","0.0-5.0-1.45","6400dc45648545e7ca8f35a6","bdp_rd","Sun Apr 09 2023 18:32:25 GMT-0400 (Eastern Daylight Time)","292717","","null","","","","FIX","","<div class='trialBorder'><div class='vertical-center'><img style='vertical-align:center; align:center' src=img/fixation3.jpg></div></div>","null","","","","","",""
"html-keyboard-response","140","213149","0.0-5.0-2.45","6400dc45648545e7ca8f35a6","bdp_rd","Sun Apr 09 2023 18:32:25 GMT-0400 (Eastern Daylight Time)","292717","","2543","","","","offer","","<div class='trialBorder'><div class='vertical-center'><img style='vertical-align:center; align:center' src=img/fixation3.jpg></div><div class='cl'><div class='vertical-center'>$69<br>with a<br>50% chance</div></div><div class='cr'><div class='vertical-center'>$58<br>for<br>sure</div></div><div class='respDivL'><div class='vertical-center'>(E)</div></div><div class='respDivR'><div class='vertical-center'>(I)</div></div></div>","I","$58","$69","1","58","69","SURE"
"html-keyboard-response","141","213401","0.0-5.0-3.45","6400dc45648545e7ca8f35a6","bdp_rd","Sun Apr 09 2023 18:32:25 GMT-0400 (Eastern Daylight Time)","292717","","null","","","","offerFB","","<div class='trialBorder'><div class='vertical-center'><img style='vertical-align:center; align:center' src=img/fixation3.jpg></div><div class='cl'><div class='vertical-center'>$69<br>with a<br>50% chance</div></div><div class='cr'><div class='vertical-center'><font style='color:orange'>$58<br>for<br>sure</font></div></div><div class='respDivL'><div class='vertical-center'>(E)</div></div><div class='respDivR'><div class='vertical-center'><font style='color:orange'>(I)</font></div></div></div>","null","$58","$69","1","58","69",""
"html-keyboard-response","142","213902","0.0-5.0-1.46","6400dc45648545e7ca8f35a6","bdp_rd","Sun Apr 09 2023 18:32:25 GMT-0400 (Eastern Daylight Time)","292717","","null","","","","FIX","","<div class='trialBorder'><div class='vertical-center'><img style='vertical-align:center; align:center' src=img/fixation3.jpg></div></div>","null","","","","","",""
"html-keyboard-response","143","216613","0.0-5.0-2.46","6400dc45648545e7ca8f35a6","bdp_rd","Sun Apr 09 2023 18:32:25 GMT-0400 (Eastern Daylight Time)","292717","","2709","","","","offer","","<div class='trialBorder'><div class='vertical-center'><img style='vertical-align:center; align:center' src=img/fixation3.jpg></div><div class='cl'><div class='vertical-center'>$42<br>for<br>sure</div></div><div class='cr'><div class='vertical-center'>$73<br>with a<br>50% chance</div></div><div class='respDivL'><div class='vertical-center'>(E)</div></div><div class='respDivR'><div class='vertical-center'>(I)</div></div></div>","E","$42","$73","0","42","73","SURE"
"html-keyboard-response","144","216865","0.0-5.0-3.46","6400dc45648545e7ca8f35a6","bdp_rd","Sun Apr 09 2023 18:32:25 GMT-0400 (Eastern Daylight Time)","292717","","null","","","","offerFB","","<div class='trialBorder'><div class='vertical-center'><img style='vertical-align:center; align:center' src=img/fixation3.jpg></div><div class='cl'><div class='vertical-center'><font style='color:orange'>$42<br>for<br>sure</font></div></div><div class='cr'><div class='vertical-center'>$73<br>with a<br>50% chance</div></div><div class='respDivL'><div class='vertical-center'><font style='color:orange'>(E)</font></div></div><div class='respDivR'><div class='vertical-center'>(I)</div></div></div>","null","$42","$73","0","42","73",""
"html-keyboard-response","145","217366","0.0-5.0-1.47","6400dc45648545e7ca8f35a6","bdp_rd","Sun Apr 09 2023 18:32:25 GMT-0400 (Eastern Daylight Time)","292717","","null","","","","FIX","","<div class='trialBorder'><div class='vertical-center'><img style='vertical-align:center; align:center' src=img/fixation3.jpg></div></div>","null","","","","","",""
"html-keyboard-response","146","220203","0.0-5.0-2.47","6400dc45648545e7ca8f35a6","bdp_rd","Sun Apr 09 2023 18:32:25 GMT-0400 (Eastern Daylight Time)","292717","","2837","","","","offer","","<div class='trialBorder'><div class='vertical-center'><img style='vertical-align:center; align:center' src=img/fixation3.jpg></div><div class='cl'><div class='vertical-center'>$21<br>with a<br>50% chance</div></div><div class='cr'><div class='vertical-center'>$2<br>for<br>sure</div></div><div class='respDivL'><div class='vertical-center'>(E)</div></div><div class='respDivR'><div class='vertical-center'>(I)</div></div></div>","E","$2","$21","1","2","21","RISKY"
"html-keyboard-response","147","220455","0.0-5.0-3.47","6400dc45648545e7ca8f35a6","bdp_rd","Sun Apr 09 2023 18:32:25 GMT-0400 (Eastern Daylight Time)","292717","","null","","","","offerFB","","<div class='trialBorder'><div class='vertical-center'><img style='vertical-align:center; align:center' src=img/fixation3.jpg></div><div class='cl'><div class='vertical-center'><font style='color:orange'>$21<br>with a<br>50% chance</font></div></div><div class='cr'><div class='vertical-center'>$2<br>for<br>sure</div></div><div class='respDivL'><div class='vertical-center'><font style='color:orange'>(E)</font></div></div><div class='respDivR'><div class='vertical-center'>(I)</div></div></div>","null","$2","$21","1","2","21",""
"html-keyboard-response","148","220957","0.0-5.0-1.48","6400dc45648545e7ca8f35a6","bdp_rd","Sun Apr 09 2023 18:32:25 GMT-0400 (Eastern Daylight Time)","292717","","null","","","","FIX","","<div class='trialBorder'><div class='vertical-center'><img style='vertical-align:center; align:center' src=img/fixation3.jpg></div></div>","null","","","","","",""
"html-keyboard-response","149","231903","0.0-5.0-2.48","6400dc45648545e7ca8f35a6","bdp_rd","Sun Apr 09 2023 18:32:25 GMT-0400 (Eastern Daylight Time)","292717","","10944","","","","offer","","<div class='trialBorder'><div class='vertical-center'><img style='vertical-align:center; align:center' src=img/fixation3.jpg></div><div class='cl'><div class='vertical-center'>$45<br>with a<br>50% chance</div></div><div class='cr'><div class='vertical-center'>$8<br>for<br>sure</div></div><div class='respDivL'><div class='vertical-center'>(E)</div></div><div class='respDivR'><div class='vertical-center'>(I)</div></div></div>","E","$8","$45","1","8","45","RISKY"
"html-keyboard-response","150","232155","0.0-5.0-3.48","6400dc45648545e7ca8f35a6","bdp_rd","Sun Apr 09 2023 18:32:25 GMT-0400 (Eastern Daylight Time)","292717","","null","","","","offerFB","","<div class='trialBorder'><div class='vertical-center'><img style='vertical-align:center; align:center' src=img/fixation3.jpg></div><div class='cl'><div class='vertical-center'><font style='color:orange'>$45<br>with a<br>50% chance</font></div></div><div class='cr'><div class='vertical-center'>$8<br>for<br>sure</div></div><div class='respDivL'><div class='vertical-center'><font style='color:orange'>(E)</font></div></div><div class='respDivR'><div class='vertical-center'>(I)</div></div></div>","null","$8","$45","1","8","45",""
"html-keyboard-response","151","232657","0.0-5.0-1.49","6400dc45648545e7ca8f35a6","bdp_rd","Sun Apr 09 2023 18:32:25 GMT-0400 (Eastern Daylight Time)","292717","","null","","","","FIX","","<div class='trialBorder'><div class='vertical-center'><img style='vertical-align:center; align:center' src=img/fixation3.jpg></div></div>","null","","","","","",""
"html-keyboard-response","152","242669","0.0-5.0-2.49","6400dc45648545e7ca8f35a6","bdp_rd","Sun Apr 09 2023 18:32:25 GMT-0400 (Eastern Daylight Time)","292717","","10012","","","","offer","","<div class='trialBorder'><div class='vertical-center'><img style='vertical-align:center; align:center' src=img/fixation3.jpg></div><div class='cl'><div class='vertical-center'>$20<br>for<br>sure</div></div><div class='cr'><div class='vertical-center'>$80<br>with a<br>50% chance</div></div><div class='respDivL'><div class='vertical-center'>(E)</div></div><div class='respDivR'><div class='vertical-center'>(I)</div></div></div>","I","$20","$80","0","20","80","RISKY"
"html-keyboard-response","153","242920","0.0-5.0-3.49","6400dc45648545e7ca8f35a6","bdp_rd","Sun Apr 09 2023 18:32:25 GMT-0400 (Eastern Daylight Time)","292717","","null","","","","offerFB","","<div class='trialBorder'><div class='vertical-center'><img style='vertical-align:center; align:center' src=img/fixation3.jpg></div><div class='cl'><div class='vertical-center'>$20<br>for<br>sure</div></div><div class='cr'><div class='vertical-center'><font style='color:orange'>$80<br>with a<br>50% chance</font></div></div><div class='respDivL'><div class='vertical-center'>(E)</div></div><div class='respDivR'><div class='vertical-center'><font style='color:orange'>(I)</font></div></div></div>","null","$20","$80","0","20","80",""
"html-keyboard-response","154","243422","0.0-5.0-1.50","6400dc45648545e7ca8f35a6","bdp_rd","Sun Apr 09 2023 18:32:25 GMT-0400 (Eastern Daylight Time)","292717","","null","","","","FIX","","<div class='trialBorder'><div class='vertical-center'><img style='vertical-align:center; align:center' src=img/fixation3.jpg></div></div>","null","","","","","",""
"html-keyboard-response","155","249662","0.0-5.0-2.50","6400dc45648545e7ca8f35a6","bdp_rd","Sun Apr 09 2023 18:32:25 GMT-0400 (Eastern Daylight Time)","292717","","6239","","","","offer","","<div class='trialBorder'><div class='vertical-center'><img style='vertical-align:center; align:center' src=img/fixation3.jpg></div><div class='cl'><div class='vertical-center'>$12<br>for<br>sure</div></div><div class='cr'><div class='vertical-center'>$27<br>with a<br>50% chance</div></div><div class='respDivL'><div class='vertical-center'>(E)</div></div><div class='respDivR'><div class='vertical-center'>(I)</div></div></div>","I","$12","$27","0","12","27","RISKY"
"html-keyboard-response","156","249915","0.0-5.0-3.50","6400dc45648545e7ca8f35a6","bdp_rd","Sun Apr 09 2023 18:32:25 GMT-0400 (Eastern Daylight Time)","292717","","null","","","","offerFB","","<div class='trialBorder'><div class='vertical-center'><img style='vertical-align:center; align:center' src=img/fixation3.jpg></div><div class='cl'><div class='vertical-center'>$12<br>for<br>sure</div></div><div class='cr'><div class='vertical-center'><font style='color:orange'>$27<br>with a<br>50% chance</font></div></div><div class='respDivL'><div class='vertical-center'>(E)</div></div><div class='respDivR'><div class='vertical-center'><font style='color:orange'>(I)</font></div></div></div>","null","$12","$27","0","12","27",""
"html-keyboard-response","157","250416","0.0-5.0-1.51","6400dc45648545e7ca8f35a6","bdp_rd","Sun Apr 09 2023 18:32:25 GMT-0400 (Eastern Daylight Time)","292717","","null","","","","FIX","","<div class='trialBorder'><div class='vertical-center'><img style='vertical-align:center; align:center' src=img/fixation3.jpg></div></div>","null","","","","","",""
"html-keyboard-response","158","253561","0.0-5.0-2.51","6400dc45648545e7ca8f35a6","bdp_rd","Sun Apr 09 2023 18:32:25 GMT-0400 (Eastern Daylight Time)","292717","","3145","","","","offer","","<div class='trialBorder'><div class='vertical-center'><img style='vertical-align:center; align:center' src=img/fixation3.jpg></div><div class='cl'><div class='vertical-center'>$29<br>with a<br>50% chance</div></div><div class='cr'><div class='vertical-center'>$14<br>for<br>sure</div></div><div class='respDivL'><div class='vertical-center'>(E)</div></div><div class='respDivR'><div class='vertical-center'>(I)</div></div></div>","E","$14","$29","1","14","29","RISKY"
"html-keyboard-response","159","253812","0.0-5.0-3.51","6400dc45648545e7ca8f35a6","bdp_rd","Sun Apr 09 2023 18:32:25 GMT-0400 (Eastern Daylight Time)","292717","","null","","","","offerFB","","<div class='trialBorder'><div class='vertical-center'><img style='vertical-align:center; align:center' src=img/fixation3.jpg></div><div class='cl'><div class='vertical-center'><font style='color:orange'>$29<br>with a<br>50% chance</font></div></div><div class='cr'><div class='vertical-center'>$14<br>for<br>sure</div></div><div class='respDivL'><div class='vertical-center'><font style='color:orange'>(E)</font></div></div><div class='respDivR'><div class='vertical-center'>(I)</div></div></div>","null","$14","$29","1","14","29",""
"html-keyboard-response","160","254313","0.0-5.0-1.52","6400dc45648545e7ca8f35a6","bdp_rd","Sun Apr 09 2023 18:32:25 GMT-0400 (Eastern Daylight Time)","292717","","null","","","","FIX","","<div class='trialBorder'><div class='vertical-center'><img style='vertical-align:center; align:center' src=img/fixation3.jpg></div></div>","null","","","","","",""
"html-keyboard-response","161","262295","0.0-5.0-2.52","6400dc45648545e7ca8f35a6","bdp_rd","Sun Apr 09 2023 18:32:25 GMT-0400 (Eastern Daylight Time)","292717","","7981","","","","offer","","<div class='trialBorder'><div class='vertical-center'><img style='vertical-align:center; align:center' src=img/fixation3.jpg></div><div class='cl'><div class='vertical-center'>$78<br>with a<br>50% chance</div></div><div class='cr'><div class='vertical-center'>$31<br>for<br>sure</div></div><div class='respDivL'><div class='vertical-center'>(E)</div></div><div class='respDivR'><div class='vertical-center'>(I)</div></div></div>","E","$31","$78","1","31","78","RISKY"
"html-keyboard-response","162","262547","0.0-5.0-3.52","6400dc45648545e7ca8f35a6","bdp_rd","Sun Apr 09 2023 18:32:25 GMT-0400 (Eastern Daylight Time)","292717","","null","","","","offerFB","","<div class='trialBorder'><div class='vertical-center'><img style='vertical-align:center; align:center' src=img/fixation3.jpg></div><div class='cl'><div class='vertical-center'><font style='color:orange'>$78<br>with a<br>50% chance</font></div></div><div class='cr'><div class='vertical-center'>$31<br>for<br>sure</div></div><div class='respDivL'><div class='vertical-center'><font style='color:orange'>(E)</font></div></div><div class='respDivR'><div class='vertical-center'>(I)</div></div></div>","null","$31","$78","1","31","78",""
"html-keyboard-response","163","263049","0.0-5.0-1.53","6400dc45648545e7ca8f35a6","bdp_rd","Sun Apr 09 2023 18:32:25 GMT-0400 (Eastern Daylight Time)","292717","","null","","","","FIX","","<div class='trialBorder'><div class='vertical-center'><img style='vertical-align:center; align:center' src=img/fixation3.jpg></div></div>","null","","","","","",""
"html-keyboard-response","164","264539","0.0-5.0-2.53","6400dc45648545e7ca8f35a6","bdp_rd","Sun Apr 09 2023 18:32:25 GMT-0400 (Eastern Daylight Time)","292717","","1490","","","","offer","","<div class='trialBorder'><div class='vertical-center'><img style='vertical-align:center; align:center' src=img/fixation3.jpg></div><div class='cl'><div class='vertical-center'>$17<br>with a<br>50% chance</div></div><div class='cr'><div class='vertical-center'>$3<br>for<br>sure</div></div><div class='respDivL'><div class='vertical-center'>(E)</div></div><div class='respDivR'><div class='vertical-center'>(I)</div></div></div>","E","$3","$17","1","3","17","RISKY"
"html-keyboard-response","165","264790","0.0-5.0-3.53","6400dc45648545e7ca8f35a6","bdp_rd","Sun Apr 09 2023 18:32:25 GMT-0400 (Eastern Daylight Time)","292717","","null","","","","offerFB","","<div class='trialBorder'><div class='vertical-center'><img style='vertical-align:center; align:center' src=img/fixation3.jpg></div><div class='cl'><div class='vertical-center'><font style='color:orange'>$17<br>with a<br>50% chance</font></div></div><div class='cr'><div class='vertical-center'>$3<br>for<br>sure</div></div><div class='respDivL'><div class='vertical-center'><font style='color:orange'>(E)</font></div></div><div class='respDivR'><div class='vertical-center'>(I)</div></div></div>","null","$3","$17","1","3","17",""
"html-keyboard-response","166","265292","0.0-5.0-1.54","6400dc45648545e7ca8f35a6","bdp_rd","Sun Apr 09 2023 18:32:25 GMT-0400 (Eastern Daylight Time)","292717","","null","","","","FIX","","<div class='trialBorder'><div class='vertical-center'><img style='vertical-align:center; align:center' src=img/fixation3.jpg></div></div>","null","","","","","",""
"html-keyboard-response","167","267126","0.0-5.0-2.54","6400dc45648545e7ca8f35a6","bdp_rd","Sun Apr 09 2023 18:32:25 GMT-0400 (Eastern Daylight Time)","292717","","1834","","","","offer","","<div class='trialBorder'><div class='vertical-center'><img style='vertical-align:center; align:center' src=img/fixation3.jpg></div><div class='cl'><div class='vertical-center'>$37<br>for<br>sure</div></div><div class='cr'><div class='vertical-center'>$44<br>with a<br>50% chance</div></div><div class='respDivL'><div class='vertical-center'>(E)</div></div><div class='respDivR'><div class='vertical-center'>(I)</div></div></div>","E","$37","$44","0","37","44","SURE"
"html-keyboard-response","168","267377","0.0-5.0-3.54","6400dc45648545e7ca8f35a6","bdp_rd","Sun Apr 09 2023 18:32:25 GMT-0400 (Eastern Daylight Time)","292717","","null","","","","offerFB","","<div class='trialBorder'><div class='vertical-center'><img style='vertical-align:center; align:center' src=img/fixation3.jpg></div><div class='cl'><div class='vertical-center'><font style='color:orange'>$37<br>for<br>sure</font></div></div><div class='cr'><div class='vertical-center'>$44<br>with a<br>50% chance</div></div><div class='respDivL'><div class='vertical-center'><font style='color:orange'>(E)</font></div></div><div class='respDivR'><div class='vertical-center'>(I)</div></div></div>","null","$37","$44","0","37","44",""
"html-keyboard-response","169","267879","0.0-5.0-1.55","6400dc45648545e7ca8f35a6","bdp_rd","Sun Apr 09 2023 18:32:25 GMT-0400 (Eastern Daylight Time)","292717","","null","","","","FIX","","<div class='trialBorder'><div class='vertical-center'><img style='vertical-align:center; align:center' src=img/fixation3.jpg></div></div>","null","","","","","",""
"html-keyboard-response","170","269776","0.0-5.0-2.55","6400dc45648545e7ca8f35a6","bdp_rd","Sun Apr 09 2023 18:32:25 GMT-0400 (Eastern Daylight Time)","292717","","1896","","","","offer","","<div class='trialBorder'><div class='vertical-center'><img style='vertical-align:center; align:center' src=img/fixation3.jpg></div><div class='cl'><div class='vertical-center'>$8<br>for<br>sure</div></div><div class='cr'><div class='vertical-center'>$23<br>with a<br>50% chance</div></div><div class='respDivL'><div class='vertical-center'>(E)</div></div><div class='respDivR'><div class='vertical-center'>(I)</div></div></div>","I","$8","$23","0","8","23","RISKY"
"html-keyboard-response","171","270029","0.0-5.0-3.55","6400dc45648545e7ca8f35a6","bdp_rd","Sun Apr 09 2023 18:32:25 GMT-0400 (Eastern Daylight Time)","292717","","null","","","","offerFB","","<div class='trialBorder'><div class='vertical-center'><img style='vertical-align:center; align:center' src=img/fixation3.jpg></div><div class='cl'><div class='vertical-center'>$8<br>for<br>sure</div></div><div class='cr'><div class='vertical-center'><font style='color:orange'>$23<br>with a<br>50% chance</font></div></div><div class='respDivL'><div class='vertical-center'>(E)</div></div><div class='respDivR'><div class='vertical-center'><font style='color:orange'>(I)</font></div></div></div>","null","$8","$23","0","8","23",""
"html-keyboard-response","172","270530","0.0-5.0-1.56","6400dc45648545e7ca8f35a6","bdp_rd","Sun Apr 09 2023 18:32:25 GMT-0400 (Eastern Daylight Time)","292717","","null","","","","FIX","","<div class='trialBorder'><div class='vertical-center'><img style='vertical-align:center; align:center' src=img/fixation3.jpg></div></div>","null","","","","","",""
"html-keyboard-response","173","272848","0.0-5.0-2.56","6400dc45648545e7ca8f35a6","bdp_rd","Sun Apr 09 2023 18:32:25 GMT-0400 (Eastern Daylight Time)","292717","","2318","","","","offer","","<div class='trialBorder'><div class='vertical-center'><img style='vertical-align:center; align:center' src=img/fixation3.jpg></div><div class='cl'><div class='vertical-center'>$37<br>with a<br>50% chance</div></div><div class='cr'><div class='vertical-center'>$20<br>for<br>sure</div></div><div class='respDivL'><div class='vertical-center'>(E)</div></div><div class='respDivR'><div class='vertical-center'>(I)</div></div></div>","I","$20","$37","1","20","37","SURE"
