"trial_type","trial_index","time_elapsed","internal_node_id","subject_id","task","startTime","totalTime","view_history","rt","event","trial","time","trialtype","success","stimulus","key_press","sureOffer","riskyOffer","riskyLeft","sureAmt","riskyAmt","chosen"
"pavlovia","0","1","0.0-0.0","63e7ac6bcbc2e035cbeadf8a","bdp_rd","Tue Mar 28 2023 11:49:51 GMT-0400 (Eastern Daylight Time)","207568","","","","","","","","","","","","","","",""
"instructions","1","2369","0.0-1.0","63e7ac6bcbc2e035cbeadf8a","bdp_rd","Tue Mar 28 2023 11:49:51 GMT-0400 (Eastern Daylight Time)","207568","[{""page_index"":0,""viewing_time"":2367}]","2368","","","","","","","","","","","","",""
"","","","","63e7ac6bcbc2e035cbeadf8a","bdp_rd","Tue Mar 28 2023 11:49:51 GMT-0400 (Eastern Daylight Time)","207568","","","fullscreenenter","2","3874","fullscreenenter","","","","","","","","",""
"fullscreen","2","4869","0.0-2.0","63e7ac6bcbc2e035cbeadf8a","bdp_rd","Tue Mar 28 2023 11:49:51 GMT-0400 (Eastern Daylight Time)","207568","","","","","","","true","","","","","","","",""
"instructions","3","40053","0.0-4.0","63e7ac6bcbc2e035cbeadf8a","bdp_rd","Tue Mar 28 2023 11:49:51 GMT-0400 (Eastern Daylight Time)","207568","[{""page_index"":0,""viewing_time"":26115},{""page_index"":1,""viewing_time"":4279},{""page_index"":2,""viewing_time"":4790}]","35184","","","","","","","","","","","","",""
"html-keyboard-response","4","40554","0.0-5.0-1.0","63e7ac6bcbc2e035cbeadf8a","bdp_rd","Tue Mar 28 2023 11:49:51 GMT-0400 (Eastern Daylight Time)","207568","","null","","","","FIX","","<div class='trialBorder'><div class='vertical-center'><img style='vertical-align:center; align:center' src=img/fixation3.jpg></div></div>","null","","","","","",""
"html-keyboard-response","5","47382","0.0-5.0-2.0","63e7ac6bcbc2e035cbeadf8a","bdp_rd","Tue Mar 28 2023 11:49:51 GMT-0400 (Eastern Daylight Time)","207568","","6828","","","","offer","","<div class='trialBorder'><div class='vertical-center'><img style='vertical-align:center; align:center' src=img/fixation3.jpg></div><div class='cl'><div class='vertical-center'>$18<br>with a<br>50% chance</div></div><div class='cr'><div class='vertical-center'>$9<br>for<br>sure</div></div><div class='respDivL'><div class='vertical-center'>(E)</div></div><div class='respDivR'><div class='vertical-center'>(I)</div></div></div>","E","$9","$18","1","9","18","RISKY"
"html-keyboard-response","6","47634","0.0-5.0-3.0","63e7ac6bcbc2e035cbeadf8a","bdp_rd","Tue Mar 28 2023 11:49:51 GMT-0400 (Eastern Daylight Time)","207568","","null","","","","offerFB","","<div class='trialBorder'><div class='vertical-center'><img style='vertical-align:center; align:center' src=img/fixation3.jpg></div><div class='cl'><div class='vertical-center'><font style='color:orange'>$18<br>with a<br>50% chance</font></div></div><div class='cr'><div class='vertical-center'>$9<br>for<br>sure</div></div><div class='respDivL'><div class='vertical-center'><font style='color:orange'>(E)</font></div></div><div class='respDivR'><div class='vertical-center'>(I)</div></div></div>","null","$9","$18","1","9","18",""
"html-keyboard-response","7","48135","0.0-5.0-1.1","63e7ac6bcbc2e035cbeadf8a","bdp_rd","Tue Mar 28 2023 11:49:51 GMT-0400 (Eastern Daylight Time)","207568","","null","","","","FIX","","<div class='trialBorder'><div class='vertical-center'><img style='vertical-align:center; align:center' src=img/fixation3.jpg></div></div>","null","","","","","",""
"html-keyboard-response","8","51573","0.0-5.0-2.1","63e7ac6bcbc2e035cbeadf8a","bdp_rd","Tue Mar 28 2023 11:49:51 GMT-0400 (Eastern Daylight Time)","207568","","3438","","","","offer","","<div class='trialBorder'><div class='vertical-center'><img style='vertical-align:center; align:center' src=img/fixation3.jpg></div><div class='cl'><div class='vertical-center'>$42<br>for<br>sure</div></div><div class='cr'><div class='vertical-center'>$73<br>with a<br>50% chance</div></div><div class='respDivL'><div class='vertical-center'>(E)</div></div><div class='respDivR'><div class='vertical-center'>(I)</div></div></div>","E","$42","$73","0","42","73","SURE"
"html-keyboard-response","9","51824","0.0-5.0-3.1","63e7ac6bcbc2e035cbeadf8a","bdp_rd","Tue Mar 28 2023 11:49:51 GMT-0400 (Eastern Daylight Time)","207568","","null","","","","offerFB","","<div class='trialBorder'><div class='vertical-center'><img style='vertical-align:center; align:center' src=img/fixation3.jpg></div><div class='cl'><div class='vertical-center'><font style='color:orange'>$42<br>for<br>sure</font></div></div><div class='cr'><div class='vertical-center'>$73<br>with a<br>50% chance</div></div><div class='respDivL'><div class='vertical-center'><font style='color:orange'>(E)</font></div></div><div class='respDivR'><div class='vertical-center'>(I)</div></div></div>","null","$42","$73","0","42","73",""
"html-keyboard-response","10","52325","0.0-5.0-1.2","63e7ac6bcbc2e035cbeadf8a","bdp_rd","Tue Mar 28 2023 11:49:51 GMT-0400 (Eastern Daylight Time)","207568","","null","","","","FIX","","<div class='trialBorder'><div class='vertical-center'><img style='vertical-align:center; align:center' src=img/fixation3.jpg></div></div>","null","","","","","",""
"html-keyboard-response","11","55661","0.0-5.0-2.2","63e7ac6bcbc2e035cbeadf8a","bdp_rd","Tue Mar 28 2023 11:49:51 GMT-0400 (Eastern Daylight Time)","207568","","3336","","","","offer","","<div class='trialBorder'><div class='vertical-center'><img style='vertical-align:center; align:center' src=img/fixation3.jpg></div><div class='cl'><div class='vertical-center'>$59<br>with a<br>50% chance</div></div><div class='cr'><div class='vertical-center'>$22<br>for<br>sure</div></div><div class='respDivL'><div class='vertical-center'>(E)</div></div><div class='respDivR'><div class='vertical-center'>(I)</div></div></div>","E","$22","$59","1","22","59","RISKY"
"html-keyboard-response","12","55912","0.0-5.0-3.2","63e7ac6bcbc2e035cbeadf8a","bdp_rd","Tue Mar 28 2023 11:49:51 GMT-0400 (Eastern Daylight Time)","207568","","null","","","","offerFB","","<div class='trialBorder'><div class='vertical-center'><img style='vertical-align:center; align:center' src=img/fixation3.jpg></div><div class='cl'><div class='vertical-center'><font style='color:orange'>$59<br>with a<br>50% chance</font></div></div><div class='cr'><div class='vertical-center'>$22<br>for<br>sure</div></div><div class='respDivL'><div class='vertical-center'><font style='color:orange'>(E)</font></div></div><div class='respDivR'><div class='vertical-center'>(I)</div></div></div>","null","$22","$59","1","22","59",""
"html-keyboard-response","13","56413","0.0-5.0-1.3","63e7ac6bcbc2e035cbeadf8a","bdp_rd","Tue Mar 28 2023 11:49:51 GMT-0400 (Eastern Daylight Time)","207568","","null","","","","FIX","","<div class='trialBorder'><div class='vertical-center'><img style='vertical-align:center; align:center' src=img/fixation3.jpg></div></div>","null","","","","","",""
"html-keyboard-response","14","58757","0.0-5.0-2.3","63e7ac6bcbc2e035cbeadf8a","bdp_rd","Tue Mar 28 2023 11:49:51 GMT-0400 (Eastern Daylight Time)","207568","","2344","","","","offer","","<div class='trialBorder'><div class='vertical-center'><img style='vertical-align:center; align:center' src=img/fixation3.jpg></div><div class='cl'><div class='vertical-center'>$28<br>for<br>sure</div></div><div class='cr'><div class='vertical-center'>$89<br>with a<br>50% chance</div></div><div class='respDivL'><div class='vertical-center'>(E)</div></div><div class='respDivR'><div class='vertical-center'>(I)</div></div></div>","I","$28","$89","0","28","89","RISKY"
"html-keyboard-response","15","59008","0.0-5.0-3.3","63e7ac6bcbc2e035cbeadf8a","bdp_rd","Tue Mar 28 2023 11:49:51 GMT-0400 (Eastern Daylight Time)","207568","","null","","","","offerFB","","<div class='trialBorder'><div class='vertical-center'><img style='vertical-align:center; align:center' src=img/fixation3.jpg></div><div class='cl'><div class='vertical-center'>$28<br>for<br>sure</div></div><div class='cr'><div class='vertical-center'><font style='color:orange'>$89<br>with a<br>50% chance</font></div></div><div class='respDivL'><div class='vertical-center'>(E)</div></div><div class='respDivR'><div class='vertical-center'><font style='color:orange'>(I)</font></div></div></div>","null","$28","$89","0","28","89",""
"html-keyboard-response","16","59509","0.0-5.0-1.4","63e7ac6bcbc2e035cbeadf8a","bdp_rd","Tue Mar 28 2023 11:49:51 GMT-0400 (Eastern Daylight Time)","207568","","null","","","","FIX","","<div class='trialBorder'><div class='vertical-center'><img style='vertical-align:center; align:center' src=img/fixation3.jpg></div></div>","null","","","","","",""
"html-keyboard-response","17","63680","0.0-5.0-2.4","63e7ac6bcbc2e035cbeadf8a","bdp_rd","Tue Mar 28 2023 11:49:51 GMT-0400 (Eastern Daylight Time)","207568","","4171","","","","offer","","<div class='trialBorder'><div class='vertical-center'><img style='vertical-align:center; align:center' src=img/fixation3.jpg></div><div class='cl'><div class='vertical-center'>$13<br>for<br>sure</div></div><div class='cr'><div class='vertical-center'>$24<br>with a<br>50% chance</div></div><div class='respDivL'><div class='vertical-center'>(E)</div></div><div class='respDivR'><div class='vertical-center'>(I)</div></div></div>","E","$13","$24","0","13","24","SURE"
"html-keyboard-response","18","63931","0.0-5.0-3.4","63e7ac6bcbc2e035cbeadf8a","bdp_rd","Tue Mar 28 2023 11:49:51 GMT-0400 (Eastern Daylight Time)","207568","","null","","","","offerFB","","<div class='trialBorder'><div class='vertical-center'><img style='vertical-align:center; align:center' src=img/fixation3.jpg></div><div class='cl'><div class='vertical-center'><font style='color:orange'>$13<br>for<br>sure</font></div></div><div class='cr'><div class='vertical-center'>$24<br>with a<br>50% chance</div></div><div class='respDivL'><div class='vertical-center'><font style='color:orange'>(E)</font></div></div><div class='respDivR'><div class='vertical-center'>(I)</div></div></div>","null","$13","$24","0","13","24",""
"html-keyboard-response","19","64432","0.0-5.0-1.5","63e7ac6bcbc2e035cbeadf8a","bdp_rd","Tue Mar 28 2023 11:49:51 GMT-0400 (Eastern Daylight Time)","207568","","null","","","","FIX","","<div class='trialBorder'><div class='vertical-center'><img style='vertical-align:center; align:center' src=img/fixation3.jpg></div></div>","null","","","","","",""
"html-keyboard-response","20","68350","0.0-5.0-2.5","63e7ac6bcbc2e035cbeadf8a","bdp_rd","Tue Mar 28 2023 11:49:51 GMT-0400 (Eastern Daylight Time)","207568","","3918","","","","offer","","<div class='trialBorder'><div class='vertical-center'><img style='vertical-align:center; align:center' src=img/fixation3.jpg></div><div class='cl'><div class='vertical-center'>$41<br>with a<br>50% chance</div></div><div class='cr'><div class='vertical-center'>$13<br>for<br>sure</div></div><div class='respDivL'><div class='vertical-center'>(E)</div></div><div class='respDivR'><div class='vertical-center'>(I)</div></div></div>","E","$13","$41","1","13","41","RISKY"
"html-keyboard-response","21","68601","0.0-5.0-3.5","63e7ac6bcbc2e035cbeadf8a","bdp_rd","Tue Mar 28 2023 11:49:51 GMT-0400 (Eastern Daylight Time)","207568","","null","","","","offerFB","","<div class='trialBorder'><div class='vertical-center'><img style='vertical-align:center; align:center' src=img/fixation3.jpg></div><div class='cl'><div class='vertical-center'><font style='color:orange'>$41<br>with a<br>50% chance</font></div></div><div class='cr'><div class='vertical-center'>$13<br>for<br>sure</div></div><div class='respDivL'><div class='vertical-center'><font style='color:orange'>(E)</font></div></div><div class='respDivR'><div class='vertical-center'>(I)</div></div></div>","null","$13","$41","1","13","41",""
"html-keyboard-response","22","69102","0.0-5.0-1.6","63e7ac6bcbc2e035cbeadf8a","bdp_rd","Tue Mar 28 2023 11:49:51 GMT-0400 (Eastern Daylight Time)","207568","","null","","","","FIX","","<div class='trialBorder'><div class='vertical-center'><img style='vertical-align:center; align:center' src=img/fixation3.jpg></div></div>","null","","","","","",""
"html-keyboard-response","23","71673","0.0-5.0-2.6","63e7ac6bcbc2e035cbeadf8a","bdp_rd","Tue Mar 28 2023 11:49:51 GMT-0400 (Eastern Daylight Time)","207568","","2571","","","","offer","","<div class='trialBorder'><div class='vertical-center'><img style='vertical-align:center; align:center' src=img/fixation3.jpg></div><div class='cl'><div class='vertical-center'>$12<br>for<br>sure</div></div><div class='cr'><div class='vertical-center'>$35<br>with a<br>50% chance</div></div><div class='respDivL'><div class='vertical-center'>(E)</div></div><div class='respDivR'><div class='vertical-center'>(I)</div></div></div>","I","$12","$35","0","12","35","RISKY"
"html-keyboard-response","24","71924","0.0-5.0-3.6","63e7ac6bcbc2e035cbeadf8a","bdp_rd","Tue Mar 28 2023 11:49:51 GMT-0400 (Eastern Daylight Time)","207568","","null","","","","offerFB","","<div class='trialBorder'><div class='vertical-center'><img style='vertical-align:center; align:center' src=img/fixation3.jpg></div><div class='cl'><div class='vertical-center'>$12<br>for<br>sure</div></div><div class='cr'><div class='vertical-center'><font style='color:orange'>$35<br>with a<br>50% chance</font></div></div><div class='respDivL'><div class='vertical-center'>(E)</div></div><div class='respDivR'><div class='vertical-center'><font style='color:orange'>(I)</font></div></div></div>","null","$12","$35","0","12","35",""
"html-keyboard-response","25","72425","0.0-5.0-1.7","63e7ac6bcbc2e035cbeadf8a","bdp_rd","Tue Mar 28 2023 11:49:51 GMT-0400 (Eastern Daylight Time)","207568","","null","","","","FIX","","<div class='trialBorder'><div class='vertical-center'><img style='vertical-align:center; align:center' src=img/fixation3.jpg></div></div>","null","","","","","",""
"html-keyboard-response","26","73592","0.0-5.0-2.7","63e7ac6bcbc2e035cbeadf8a","bdp_rd","Tue Mar 28 2023 11:49:51 GMT-0400 (Eastern Daylight Time)","207568","","1166","","","","offer","","<div class='trialBorder'><div class='vertical-center'><img style='vertical-align:center; align:center' src=img/fixation3.jpg></div><div class='cl'><div class='vertical-center'>$15<br>for<br>sure</div></div><div class='cr'><div class='vertical-center'>$34<br>with a<br>50% chance</div></div><div class='respDivL'><div class='vertical-center'>(E)</div></div><div class='respDivR'><div class='vertical-center'>(I)</div></div></div>","I","$15","$34","0","15","34","RISKY"
"html-keyboard-response","27","73842","0.0-5.0-3.7","63e7ac6bcbc2e035cbeadf8a","bdp_rd","Tue Mar 28 2023 11:49:51 GMT-0400 (Eastern Daylight Time)","207568","","null","","","","offerFB","","<div class='trialBorder'><div class='vertical-center'><img style='vertical-align:center; align:center' src=img/fixation3.jpg></div><div class='cl'><div class='vertical-center'>$15<br>for<br>sure</div></div><div class='cr'><div class='vertical-center'><font style='color:orange'>$34<br>with a<br>50% chance</font></div></div><div class='respDivL'><div class='vertical-center'>(E)</div></div><div class='respDivR'><div class='vertical-center'><font style='color:orange'>(I)</font></div></div></div>","null","$15","$34","0","15","34",""
"html-keyboard-response","28","74343","0.0-5.0-1.8","63e7ac6bcbc2e035cbeadf8a","bdp_rd","Tue Mar 28 2023 11:49:51 GMT-0400 (Eastern Daylight Time)","207568","","null","","","","FIX","","<div class='trialBorder'><div class='vertical-center'><img style='vertical-align:center; align:center' src=img/fixation3.jpg></div></div>","null","","","","","",""
"html-keyboard-response","29","76126","0.0-5.0-2.8","63e7ac6bcbc2e035cbeadf8a","bdp_rd","Tue Mar 28 2023 11:49:51 GMT-0400 (Eastern Daylight Time)","207568","","1781","","","","offer","","<div class='trialBorder'><div class='vertical-center'><img style='vertical-align:center; align:center' src=img/fixation3.jpg></div><div class='cl'><div class='vertical-center'>$17<br>with a<br>50% chance</div></div><div class='cr'><div class='vertical-center'>$3<br>for<br>sure</div></div><div class='respDivL'><div class='vertical-center'>(E)</div></div><div class='respDivR'><div class='vertical-center'>(I)</div></div></div>","E","$3","$17","1","3","17","RISKY"
"html-keyboard-response","30","76376","0.0-5.0-3.8","63e7ac6bcbc2e035cbeadf8a","bdp_rd","Tue Mar 28 2023 11:49:51 GMT-0400 (Eastern Daylight Time)","207568","","null","","","","offerFB","","<div class='trialBorder'><div class='vertical-center'><img style='vertical-align:center; align:center' src=img/fixation3.jpg></div><div class='cl'><div class='vertical-center'><font style='color:orange'>$17<br>with a<br>50% chance</font></div></div><div class='cr'><div class='vertical-center'>$3<br>for<br>sure</div></div><div class='respDivL'><div class='vertical-center'><font style='color:orange'>(E)</font></div></div><div class='respDivR'><div class='vertical-center'>(I)</div></div></div>","null","$3","$17","1","3","17",""
"html-keyboard-response","31","76878","0.0-5.0-1.9","63e7ac6bcbc2e035cbeadf8a","bdp_rd","Tue Mar 28 2023 11:49:51 GMT-0400 (Eastern Daylight Time)","207568","","null","","","","FIX","","<div class='trialBorder'><div class='vertical-center'><img style='vertical-align:center; align:center' src=img/fixation3.jpg></div></div>","null","","","","","",""
"html-keyboard-response","32","80569","0.0-5.0-2.9","63e7ac6bcbc2e035cbeadf8a","bdp_rd","Tue Mar 28 2023 11:49:51 GMT-0400 (Eastern Daylight Time)","207568","","3690","","","","offer","","<div class='trialBorder'><div class='vertical-center'><img style='vertical-align:center; align:center' src=img/fixation3.jpg></div><div class='cl'><div class='vertical-center'>$22<br>for<br>sure</div></div><div class='cr'><div class='vertical-center'>$42<br>with a<br>50% chance</div></div><div class='respDivL'><div class='vertical-center'>(E)</div></div><div class='respDivR'><div class='vertical-center'>(I)</div></div></div>","E","$22","$42","0","22","42","SURE"
"html-keyboard-response","33","80820","0.0-5.0-3.9","63e7ac6bcbc2e035cbeadf8a","bdp_rd","Tue Mar 28 2023 11:49:51 GMT-0400 (Eastern Daylight Time)","207568","","null","","","","offerFB","","<div class='trialBorder'><div class='vertical-center'><img style='vertical-align:center; align:center' src=img/fixation3.jpg></div><div class='cl'><div class='vertical-center'><font style='color:orange'>$22<br>for<br>sure</font></div></div><div class='cr'><div class='vertical-center'>$42<br>with a<br>50% chance</div></div><div class='respDivL'><div class='vertical-center'><font style='color:orange'>(E)</font></div></div><div class='respDivR'><div class='vertical-center'>(I)</div></div></div>","null","$22","$42","0","22","42",""
"html-keyboard-response","34","81321","0.0-5.0-1.10","63e7ac6bcbc2e035cbeadf8a","bdp_rd","Tue Mar 28 2023 11:49:51 GMT-0400 (Eastern Daylight Time)","207568","","null","","","","FIX","","<div class='trialBorder'><div class='vertical-center'><img style='vertical-align:center; align:center' src=img/fixation3.jpg></div></div>","null","","","","","",""
"html-keyboard-response","35","83976","0.0-5.0-2.10","63e7ac6bcbc2e035cbeadf8a","bdp_rd","Tue Mar 28 2023 11:49:51 GMT-0400 (Eastern Daylight Time)","207568","","2655","","","","offer","","<div class='trialBorder'><div class='vertical-center'><img style='vertical-align:center; align:center' src=img/fixation3.jpg></div><div class='cl'><div class='vertical-center'>$17<br>for<br>sure</div></div><div class='cr'><div class='vertical-center'>$43<br>with a<br>50% chance</div></div><div class='respDivL'><div class='vertical-center'>(E)</div></div><div class='respDivR'><div class='vertical-center'>(I)</div></div></div>","I","$17","$43","0","17","43","RISKY"
"html-keyboard-response","36","84226","0.0-5.0-3.10","63e7ac6bcbc2e035cbeadf8a","bdp_rd","Tue Mar 28 2023 11:49:51 GMT-0400 (Eastern Daylight Time)","207568","","null","","","","offerFB","","<div class='trialBorder'><div class='vertical-center'><img style='vertical-align:center; align:center' src=img/fixation3.jpg></div><div class='cl'><div class='vertical-center'>$17<br>for<br>sure</div></div><div class='cr'><div class='vertical-center'><font style='color:orange'>$43<br>with a<br>50% chance</font></div></div><div class='respDivL'><div class='vertical-center'>(E)</div></div><div class='respDivR'><div class='vertical-center'><font style='color:orange'>(I)</font></div></div></div>","null","$17","$43","0","17","43",""
"html-keyboard-response","37","84727","0.0-5.0-1.11","63e7ac6bcbc2e035cbeadf8a","bdp_rd","Tue Mar 28 2023 11:49:51 GMT-0400 (Eastern Daylight Time)","207568","","null","","","","FIX","","<div class='trialBorder'><div class='vertical-center'><img style='vertical-align:center; align:center' src=img/fixation3.jpg></div></div>","null","","","","","",""
"html-keyboard-response","38","86950","0.0-5.0-2.11","63e7ac6bcbc2e035cbeadf8a","bdp_rd","Tue Mar 28 2023 11:49:51 GMT-0400 (Eastern Daylight Time)","207568","","2222","","","","offer","","<div class='trialBorder'><div class='vertical-center'><img style='vertical-align:center; align:center' src=img/fixation3.jpg></div><div class='cl'><div class='vertical-center'>$13<br>with a<br>50% chance</div></div><div class='cr'><div class='vertical-center'>$6<br>for<br>sure</div></div><div class='respDivL'><div class='vertical-center'>(E)</div></div><div class='respDivR'><div class='vertical-center'>(I)</div></div></div>","I","$6","$13","1","6","13","SURE"
"html-keyboard-response","39","87201","0.0-5.0-3.11","63e7ac6bcbc2e035cbeadf8a","bdp_rd","Tue Mar 28 2023 11:49:51 GMT-0400 (Eastern Daylight Time)","207568","","null","","","","offerFB","","<div class='trialBorder'><div class='vertical-center'><img style='vertical-align:center; align:center' src=img/fixation3.jpg></div><div class='cl'><div class='vertical-center'>$13<br>with a<br>50% chance</div></div><div class='cr'><div class='vertical-center'><font style='color:orange'>$6<br>for<br>sure</font></div></div><div class='respDivL'><div class='vertical-center'>(E)</div></div><div class='respDivR'><div class='vertical-center'><font style='color:orange'>(I)</font></div></div></div>","null","$6","$13","1","6","13",""
"html-keyboard-response","40","87702","0.0-5.0-1.12","63e7ac6bcbc2e035cbeadf8a","bdp_rd","Tue Mar 28 2023 11:49:51 GMT-0400 (Eastern Daylight Time)","207568","","null","","","","FIX","","<div class='trialBorder'><div class='vertical-center'><img style='vertical-align:center; align:center' src=img/fixation3.jpg></div></div>","null","","","","","",""
"html-keyboard-response","41","93393","0.0-5.0-2.12","63e7ac6bcbc2e035cbeadf8a","bdp_rd","Tue Mar 28 2023 11:49:51 GMT-0400 (Eastern Daylight Time)","207568","","5690","","","","offer","","<div class='trialBorder'><div class='vertical-center'><img style='vertical-align:center; align:center' src=img/fixation3.jpg></div><div class='cl'><div class='vertical-center'>$26<br>with a<br>50% chance</div></div><div class='cr'><div class='vertical-center'>$11<br>for<br>sure</div></div><div class='respDivL'><div class='vertical-center'>(E)</div></div><div class='respDivR'><div class='vertical-center'>(I)</div></div></div>","E","$11","$26","1","11","26","RISKY"
"html-keyboard-response","42","93643","0.0-5.0-3.12","63e7ac6bcbc2e035cbeadf8a","bdp_rd","Tue Mar 28 2023 11:49:51 GMT-0400 (Eastern Daylight Time)","207568","","null","","","","offerFB","","<div class='trialBorder'><div class='vertical-center'><img style='vertical-align:center; align:center' src=img/fixation3.jpg></div><div class='cl'><div class='vertical-center'><font style='color:orange'>$26<br>with a<br>50% chance</font></div></div><div class='cr'><div class='vertical-center'>$11<br>for<br>sure</div></div><div class='respDivL'><div class='vertical-center'><font style='color:orange'>(E)</font></div></div><div class='respDivR'><div class='vertical-center'>(I)</div></div></div>","null","$11","$26","1","11","26",""
"html-keyboard-response","43","94144","0.0-5.0-1.13","63e7ac6bcbc2e035cbeadf8a","bdp_rd","Tue Mar 28 2023 11:49:51 GMT-0400 (Eastern Daylight Time)","207568","","null","","","","FIX","","<div class='trialBorder'><div class='vertical-center'><img style='vertical-align:center; align:center' src=img/fixation3.jpg></div></div>","null","","","","","",""
"html-keyboard-response","44","95855","0.0-5.0-2.13","63e7ac6bcbc2e035cbeadf8a","bdp_rd","Tue Mar 28 2023 11:49:51 GMT-0400 (Eastern Daylight Time)","207568","","1710","","","","offer","","<div class='trialBorder'><div class='vertical-center'><img style='vertical-align:center; align:center' src=img/fixation3.jpg></div><div class='cl'><div class='vertical-center'>$7<br>for<br>sure</div></div><div class='cr'><div class='vertical-center'>$71<br>with a<br>50% chance</div></div><div class='respDivL'><div class='vertical-center'>(E)</div></div><div class='respDivR'><div class='vertical-center'>(I)</div></div></div>","I","$7","$71","0","7","71","RISKY"
"html-keyboard-response","45","96107","0.0-5.0-3.13","63e7ac6bcbc2e035cbeadf8a","bdp_rd","Tue Mar 28 2023 11:49:51 GMT-0400 (Eastern Daylight Time)","207568","","null","","","","offerFB","","<div class='trialBorder'><div class='vertical-center'><img style='vertical-align:center; align:center' src=img/fixation3.jpg></div><div class='cl'><div class='vertical-center'>$7<br>for<br>sure</div></div><div class='cr'><div class='vertical-center'><font style='color:orange'>$71<br>with a<br>50% chance</font></div></div><div class='respDivL'><div class='vertical-center'>(E)</div></div><div class='respDivR'><div class='vertical-center'><font style='color:orange'>(I)</font></div></div></div>","null","$7","$71","0","7","71",""
"html-keyboard-response","46","96608","0.0-5.0-1.14","63e7ac6bcbc2e035cbeadf8a","bdp_rd","Tue Mar 28 2023 11:49:51 GMT-0400 (Eastern Daylight Time)","207568","","null","","","","FIX","","<div class='trialBorder'><div class='vertical-center'><img style='vertical-align:center; align:center' src=img/fixation3.jpg></div></div>","null","","","","","",""
"html-keyboard-response","47","99347","0.0-5.0-2.14","63e7ac6bcbc2e035cbeadf8a","bdp_rd","Tue Mar 28 2023 11:49:51 GMT-0400 (Eastern Daylight Time)","207568","","2738","","","","offer","","<div class='trialBorder'><div class='vertical-center'><img style='vertical-align:center; align:center' src=img/fixation3.jpg></div><div class='cl'><div class='vertical-center'>$15<br>for<br>sure</div></div><div class='cr'><div class='vertical-center'>$31<br>with a<br>50% chance</div></div><div class='respDivL'><div class='vertical-center'>(E)</div></div><div class='respDivR'><div class='vertical-center'>(I)</div></div></div>","E","$15","$31","0","15","31","SURE"
"html-keyboard-response","48","99598","0.0-5.0-3.14","63e7ac6bcbc2e035cbeadf8a","bdp_rd","Tue Mar 28 2023 11:49:51 GMT-0400 (Eastern Daylight Time)","207568","","null","","","","offerFB","","<div class='trialBorder'><div class='vertical-center'><img style='vertical-align:center; align:center' src=img/fixation3.jpg></div><div class='cl'><div class='vertical-center'><font style='color:orange'>$15<br>for<br>sure</font></div></div><div class='cr'><div class='vertical-center'>$31<br>with a<br>50% chance</div></div><div class='respDivL'><div class='vertical-center'><font style='color:orange'>(E)</font></div></div><div class='respDivR'><div class='vertical-center'>(I)</div></div></div>","null","$15","$31","0","15","31",""
"html-keyboard-response","49","100099","0.0-5.0-1.15","63e7ac6bcbc2e035cbeadf8a","bdp_rd","Tue Mar 28 2023 11:49:51 GMT-0400 (Eastern Daylight Time)","207568","","null","","","","FIX","","<div class='trialBorder'><div class='vertical-center'><img style='vertical-align:center; align:center' src=img/fixation3.jpg></div></div>","null","","","","","",""
"html-keyboard-response","50","104843","0.0-5.0-2.15","63e7ac6bcbc2e035cbeadf8a","bdp_rd","Tue Mar 28 2023 11:49:51 GMT-0400 (Eastern Daylight Time)","207568","","4744","","","","offer","","<div class='trialBorder'><div class='vertical-center'><img style='vertical-align:center; align:center' src=img/fixation3.jpg></div><div class='cl'><div class='vertical-center'>$4<br>for<br>sure</div></div><div class='cr'><div class='vertical-center'>$11<br>with a<br>50% chance</div></div><div class='respDivL'><div class='vertical-center'>(E)</div></div><div class='respDivR'><div class='vertical-center'>(I)</div></div></div>","I","$4","$11","0","4","11","RISKY"
"html-keyboard-response","51","105095","0.0-5.0-3.15","63e7ac6bcbc2e035cbeadf8a","bdp_rd","Tue Mar 28 2023 11:49:51 GMT-0400 (Eastern Daylight Time)","207568","","null","","","","offerFB","","<div class='trialBorder'><div class='vertical-center'><img style='vertical-align:center; align:center' src=img/fixation3.jpg></div><div class='cl'><div class='vertical-center'>$4<br>for<br>sure</div></div><div class='cr'><div class='vertical-center'><font style='color:orange'>$11<br>with a<br>50% chance</font></div></div><div class='respDivL'><div class='vertical-center'>(E)</div></div><div class='respDivR'><div class='vertical-center'><font style='color:orange'>(I)</font></div></div></div>","null","$4","$11","0","4","11",""
"html-keyboard-response","52","105596","0.0-5.0-1.16","63e7ac6bcbc2e035cbeadf8a","bdp_rd","Tue Mar 28 2023 11:49:51 GMT-0400 (Eastern Daylight Time)","207568","","null","","","","FIX","","<div class='trialBorder'><div class='vertical-center'><img style='vertical-align:center; align:center' src=img/fixation3.jpg></div></div>","null","","","","","",""
"html-keyboard-response","53","106821","0.0-5.0-2.16","63e7ac6bcbc2e035cbeadf8a","bdp_rd","Tue Mar 28 2023 11:49:51 GMT-0400 (Eastern Daylight Time)","207568","","1225","","","","offer","","<div class='trialBorder'><div class='vertical-center'><img style='vertical-align:center; align:center' src=img/fixation3.jpg></div><div class='cl'><div class='vertical-center'>$45<br>for<br>sure</div></div><div class='cr'><div class='vertical-center'>$86<br>with a<br>50% chance</div></div><div class='respDivL'><div class='vertical-center'>(E)</div></div><div class='respDivR'><div class='vertical-center'>(I)</div></div></div>","I","$45","$86","0","45","86","RISKY"
"html-keyboard-response","54","107072","0.0-5.0-3.16","63e7ac6bcbc2e035cbeadf8a","bdp_rd","Tue Mar 28 2023 11:49:51 GMT-0400 (Eastern Daylight Time)","207568","","null","","","","offerFB","","<div class='trialBorder'><div class='vertical-center'><img style='vertical-align:center; align:center' src=img/fixation3.jpg></div><div class='cl'><div class='vertical-center'>$45<br>for<br>sure</div></div><div class='cr'><div class='vertical-center'><font style='color:orange'>$86<br>with a<br>50% chance</font></div></div><div class='respDivL'><div class='vertical-center'>(E)</div></div><div class='respDivR'><div class='vertical-center'><font style='color:orange'>(I)</font></div></div></div>","null","$45","$86","0","45","86",""
"html-keyboard-response","55","107573","0.0-5.0-1.17","63e7ac6bcbc2e035cbeadf8a","bdp_rd","Tue Mar 28 2023 11:49:51 GMT-0400 (Eastern Daylight Time)","207568","","null","","","","FIX","","<div class='trialBorder'><div class='vertical-center'><img style='vertical-align:center; align:center' src=img/fixation3.jpg></div></div>","null","","","","","",""
"html-keyboard-response","56","108666","0.0-5.0-2.17","63e7ac6bcbc2e035cbeadf8a","bdp_rd","Tue Mar 28 2023 11:49:51 GMT-0400 (Eastern Daylight Time)","207568","","1092","","","","offer","","<div class='trialBorder'><div class='vertical-center'><img style='vertical-align:center; align:center' src=img/fixation3.jpg></div><div class='cl'><div class='vertical-center'>$50<br>with a<br>50% chance</div></div><div class='cr'><div class='vertical-center'>$5<br>for<br>sure</div></div><div class='respDivL'><div class='vertical-center'>(E)</div></div><div class='respDivR'><div class='vertical-center'>(I)</div></div></div>","E","$5","$50","1","5","50","RISKY"
"html-keyboard-response","57","108917","0.0-5.0-3.17","63e7ac6bcbc2e035cbeadf8a","bdp_rd","Tue Mar 28 2023 11:49:51 GMT-0400 (Eastern Daylight Time)","207568","","null","","","","offerFB","","<div class='trialBorder'><div class='vertical-center'><img style='vertical-align:center; align:center' src=img/fixation3.jpg></div><div class='cl'><div class='vertical-center'><font style='color:orange'>$50<br>with a<br>50% chance</font></div></div><div class='cr'><div class='vertical-center'>$5<br>for<br>sure</div></div><div class='respDivL'><div class='vertical-center'><font style='color:orange'>(E)</font></div></div><div class='respDivR'><div class='vertical-center'>(I)</div></div></div>","null","$5","$50","1","5","50",""
"html-keyboard-response","58","109418","0.0-5.0-1.18","63e7ac6bcbc2e035cbeadf8a","bdp_rd","Tue Mar 28 2023 11:49:51 GMT-0400 (Eastern Daylight Time)","207568","","null","","","","FIX","","<div class='trialBorder'><div class='vertical-center'><img style='vertical-align:center; align:center' src=img/fixation3.jpg></div></div>","null","","","","","",""
"html-keyboard-response","59","110494","0.0-5.0-2.18","63e7ac6bcbc2e035cbeadf8a","bdp_rd","Tue Mar 28 2023 11:49:51 GMT-0400 (Eastern Daylight Time)","207568","","1076","","","","offer","","<div class='trialBorder'><div class='vertical-center'><img style='vertical-align:center; align:center' src=img/fixation3.jpg></div><div class='cl'><div class='vertical-center'>$24<br>for<br>sure</div></div><div class='cr'><div class='vertical-center'>$70<br>with a<br>50% chance</div></div><div class='respDivL'><div class='vertical-center'>(E)</div></div><div class='respDivR'><div class='vertical-center'>(I)</div></div></div>","I","$24","$70","0","24","70","RISKY"
"html-keyboard-response","60","110745","0.0-5.0-3.18","63e7ac6bcbc2e035cbeadf8a","bdp_rd","Tue Mar 28 2023 11:49:51 GMT-0400 (Eastern Daylight Time)","207568","","null","","","","offerFB","","<div class='trialBorder'><div class='vertical-center'><img style='vertical-align:center; align:center' src=img/fixation3.jpg></div><div class='cl'><div class='vertical-center'>$24<br>for<br>sure</div></div><div class='cr'><div class='vertical-center'><font style='color:orange'>$70<br>with a<br>50% chance</font></div></div><div class='respDivL'><div class='vertical-center'>(E)</div></div><div class='respDivR'><div class='vertical-center'><font style='color:orange'>(I)</font></div></div></div>","null","$24","$70","0","24","70",""
"html-keyboard-response","61","111246","0.0-5.0-1.19","63e7ac6bcbc2e035cbeadf8a","bdp_rd","Tue Mar 28 2023 11:49:51 GMT-0400 (Eastern Daylight Time)","207568","","null","","","","FIX","","<div class='trialBorder'><div class='vertical-center'><img style='vertical-align:center; align:center' src=img/fixation3.jpg></div></div>","null","","","","","",""
"html-keyboard-response","62","112989","0.0-5.0-2.19","63e7ac6bcbc2e035cbeadf8a","bdp_rd","Tue Mar 28 2023 11:49:51 GMT-0400 (Eastern Daylight Time)","207568","","1742","","","","offer","","<div class='trialBorder'><div class='vertical-center'><img style='vertical-align:center; align:center' src=img/fixation3.jpg></div><div class='cl'><div class='vertical-center'>$64<br>with a<br>50% chance</div></div><div class='cr'><div class='vertical-center'>$2<br>for<br>sure</div></div><div class='respDivL'><div class='vertical-center'>(E)</div></div><div class='respDivR'><div class='vertical-center'>(I)</div></div></div>","E","$2","$64","1","2","64","RISKY"
"html-keyboard-response","63","113240","0.0-5.0-3.19","63e7ac6bcbc2e035cbeadf8a","bdp_rd","Tue Mar 28 2023 11:49:51 GMT-0400 (Eastern Daylight Time)","207568","","null","","","","offerFB","","<div class='trialBorder'><div class='vertical-center'><img style='vertical-align:center; align:center' src=img/fixation3.jpg></div><div class='cl'><div class='vertical-center'><font style='color:orange'>$64<br>with a<br>50% chance</font></div></div><div class='cr'><div class='vertical-center'>$2<br>for<br>sure</div></div><div class='respDivL'><div class='vertical-center'><font style='color:orange'>(E)</font></div></div><div class='respDivR'><div class='vertical-center'>(I)</div></div></div>","null","$2","$64","1","2","64",""
"html-keyboard-response","64","113741","0.0-5.0-1.20","63e7ac6bcbc2e035cbeadf8a","bdp_rd","Tue Mar 28 2023 11:49:51 GMT-0400 (Eastern Daylight Time)","207568","","null","","","","FIX","","<div class='trialBorder'><div class='vertical-center'><img style='vertical-align:center; align:center' src=img/fixation3.jpg></div></div>","null","","","","","",""
"html-keyboard-response","65","115673","0.0-5.0-2.20","63e7ac6bcbc2e035cbeadf8a","bdp_rd","Tue Mar 28 2023 11:49:51 GMT-0400 (Eastern Daylight Time)","207568","","1931","","","","offer","","<div class='trialBorder'><div class='vertical-center'><img style='vertical-align:center; align:center' src=img/fixation3.jpg></div><div class='cl'><div class='vertical-center'>$37<br>with a<br>50% chance</div></div><div class='cr'><div class='vertical-center'>$20<br>for<br>sure</div></div><div class='respDivL'><div class='vertical-center'>(E)</div></div><div class='respDivR'><div class='vertical-center'>(I)</div></div></div>","E","$20","$37","1","20","37","RISKY"
"html-keyboard-response","66","115924","0.0-5.0-3.20","63e7ac6bcbc2e035cbeadf8a","bdp_rd","Tue Mar 28 2023 11:49:51 GMT-0400 (Eastern Daylight Time)","207568","","null","","","","offerFB","","<div class='trialBorder'><div class='vertical-center'><img style='vertical-align:center; align:center' src=img/fixation3.jpg></div><div class='cl'><div class='vertical-center'><font style='color:orange'>$37<br>with a<br>50% chance</font></div></div><div class='cr'><div class='vertical-center'>$20<br>for<br>sure</div></div><div class='respDivL'><div class='vertical-center'><font style='color:orange'>(E)</font></div></div><div class='respDivR'><div class='vertical-center'>(I)</div></div></div>","null","$20","$37","1","20","37",""
"html-keyboard-response","67","116425","0.0-5.0-1.21","63e7ac6bcbc2e035cbeadf8a","bdp_rd","Tue Mar 28 2023 11:49:51 GMT-0400 (Eastern Daylight Time)","207568","","null","","","","FIX","","<div class='trialBorder'><div class='vertical-center'><img style='vertical-align:center; align:center' src=img/fixation3.jpg></div></div>","null","","","","","",""
"html-keyboard-response","68","118035","0.0-5.0-2.21","63e7ac6bcbc2e035cbeadf8a","bdp_rd","Tue Mar 28 2023 11:49:51 GMT-0400 (Eastern Daylight Time)","207568","","1610","","","","offer","","<div class='trialBorder'><div class='vertical-center'><img style='vertical-align:center; align:center' src=img/fixation3.jpg></div><div class='cl'><div class='vertical-center'>$22<br>with a<br>50% chance</div></div><div class='cr'><div class='vertical-center'>$14<br>for<br>sure</div></div><div class='respDivL'><div class='vertical-center'>(E)</div></div><div class='respDivR'><div class='vertical-center'>(I)</div></div></div>","I","$14","$22","1","14","22","SURE"
"html-keyboard-response","69","118286","0.0-5.0-3.21","63e7ac6bcbc2e035cbeadf8a","bdp_rd","Tue Mar 28 2023 11:49:51 GMT-0400 (Eastern Daylight Time)","207568","","null","","","","offerFB","","<div class='trialBorder'><div class='vertical-center'><img style='vertical-align:center; align:center' src=img/fixation3.jpg></div><div class='cl'><div class='vertical-center'>$22<br>with a<br>50% chance</div></div><div class='cr'><div class='vertical-center'><font style='color:orange'>$14<br>for<br>sure</font></div></div><div class='respDivL'><div class='vertical-center'>(E)</div></div><div class='respDivR'><div class='vertical-center'><font style='color:orange'>(I)</font></div></div></div>","null","$14","$22","1","14","22",""
"html-keyboard-response","70","118788","0.0-5.0-1.22","63e7ac6bcbc2e035cbeadf8a","bdp_rd","Tue Mar 28 2023 11:49:51 GMT-0400 (Eastern Daylight Time)","207568","","null","","","","FIX","","<div class='trialBorder'><div class='vertical-center'><img style='vertical-align:center; align:center' src=img/fixation3.jpg></div></div>","null","","","","","",""
"html-keyboard-response","71","120270","0.0-5.0-2.22","63e7ac6bcbc2e035cbeadf8a","bdp_rd","Tue Mar 28 2023 11:49:51 GMT-0400 (Eastern Daylight Time)","207568","","1482","","","","offer","","<div class='trialBorder'><div class='vertical-center'><img style='vertical-align:center; align:center' src=img/fixation3.jpg></div><div class='cl'><div class='vertical-center'>$12<br>with a<br>50% chance</div></div><div class='cr'><div class='vertical-center'>$3<br>for<br>sure</div></div><div class='respDivL'><div class='vertical-center'>(E)</div></div><div class='respDivR'><div class='vertical-center'>(I)</div></div></div>","E","$3","$12","1","3","12","RISKY"
"html-keyboard-response","72","120521","0.0-5.0-3.22","63e7ac6bcbc2e035cbeadf8a","bdp_rd","Tue Mar 28 2023 11:49:51 GMT-0400 (Eastern Daylight Time)","207568","","null","","","","offerFB","","<div class='trialBorder'><div class='vertical-center'><img style='vertical-align:center; align:center' src=img/fixation3.jpg></div><div class='cl'><div class='vertical-center'><font style='color:orange'>$12<br>with a<br>50% chance</font></div></div><div class='cr'><div class='vertical-center'>$3<br>for<br>sure</div></div><div class='respDivL'><div class='vertical-center'><font style='color:orange'>(E)</font></div></div><div class='respDivR'><div class='vertical-center'>(I)</div></div></div>","null","$3","$12","1","3","12",""
"html-keyboard-response","73","121021","0.0-5.0-1.23","63e7ac6bcbc2e035cbeadf8a","bdp_rd","Tue Mar 28 2023 11:49:51 GMT-0400 (Eastern Daylight Time)","207568","","null","","","","FIX","","<div class='trialBorder'><div class='vertical-center'><img style='vertical-align:center; align:center' src=img/fixation3.jpg></div></div>","null","","","","","",""
"html-keyboard-response","74","122601","0.0-5.0-2.23","63e7ac6bcbc2e035cbeadf8a","bdp_rd","Tue Mar 28 2023 11:49:51 GMT-0400 (Eastern Daylight Time)","207568","","1579","","","","offer","","<div class='trialBorder'><div class='vertical-center'><img style='vertical-align:center; align:center' src=img/fixation3.jpg></div><div class='cl'><div class='vertical-center'>$11<br>for<br>sure</div></div><div class='cr'><div class='vertical-center'>$62<br>with a<br>50% chance</div></div><div class='respDivL'><div class='vertical-center'>(E)</div></div><div class='respDivR'><div class='vertical-center'>(I)</div></div></div>","I","$11","$62","0","11","62","RISKY"
"html-keyboard-response","75","122852","0.0-5.0-3.23","63e7ac6bcbc2e035cbeadf8a","bdp_rd","Tue Mar 28 2023 11:49:51 GMT-0400 (Eastern Daylight Time)","207568","","null","","","","offerFB","","<div class='trialBorder'><div class='vertical-center'><img style='vertical-align:center; align:center' src=img/fixation3.jpg></div><div class='cl'><div class='vertical-center'>$11<br>for<br>sure</div></div><div class='cr'><div class='vertical-center'><font style='color:orange'>$62<br>with a<br>50% chance</font></div></div><div class='respDivL'><div class='vertical-center'>(E)</div></div><div class='respDivR'><div class='vertical-center'><font style='color:orange'>(I)</font></div></div></div>","null","$11","$62","0","11","62",""
"html-keyboard-response","76","123353","0.0-5.0-1.24","63e7ac6bcbc2e035cbeadf8a","bdp_rd","Tue Mar 28 2023 11:49:51 GMT-0400 (Eastern Daylight Time)","207568","","null","","","","FIX","","<div class='trialBorder'><div class='vertical-center'><img style='vertical-align:center; align:center' src=img/fixation3.jpg></div></div>","null","","","","","",""
"html-keyboard-response","77","124290","0.0-5.0-2.24","63e7ac6bcbc2e035cbeadf8a","bdp_rd","Tue Mar 28 2023 11:49:51 GMT-0400 (Eastern Daylight Time)","207568","","937","","","","offer","","<div class='trialBorder'><div class='vertical-center'><img style='vertical-align:center; align:center' src=img/fixation3.jpg></div><div class='cl'><div class='vertical-center'>$54<br>with a<br>50% chance</div></div><div class='cr'><div class='vertical-center'>$25<br>for<br>sure</div></div><div class='respDivL'><div class='vertical-center'>(E)</div></div><div class='respDivR'><div class='vertical-center'>(I)</div></div></div>","E","$25","$54","1","25","54","RISKY"
"html-keyboard-response","78","124541","0.0-5.0-3.24","63e7ac6bcbc2e035cbeadf8a","bdp_rd","Tue Mar 28 2023 11:49:51 GMT-0400 (Eastern Daylight Time)","207568","","null","","","","offerFB","","<div class='trialBorder'><div class='vertical-center'><img style='vertical-align:center; align:center' src=img/fixation3.jpg></div><div class='cl'><div class='vertical-center'><font style='color:orange'>$54<br>with a<br>50% chance</font></div></div><div class='cr'><div class='vertical-center'>$25<br>for<br>sure</div></div><div class='respDivL'><div class='vertical-center'><font style='color:orange'>(E)</font></div></div><div class='respDivR'><div class='vertical-center'>(I)</div></div></div>","null","$25","$54","1","25","54",""
"html-keyboard-response","79","125042","0.0-5.0-1.25","63e7ac6bcbc2e035cbeadf8a","bdp_rd","Tue Mar 28 2023 11:49:51 GMT-0400 (Eastern Daylight Time)","207568","","null","","","","FIX","","<div class='trialBorder'><div class='vertical-center'><img style='vertical-align:center; align:center' src=img/fixation3.jpg></div></div>","null","","","","","",""
"html-keyboard-response","80","125887","0.0-5.0-2.25","63e7ac6bcbc2e035cbeadf8a","bdp_rd","Tue Mar 28 2023 11:49:51 GMT-0400 (Eastern Daylight Time)","207568","","845","","","","offer","","<div class='trialBorder'><div class='vertical-center'><img style='vertical-align:center; align:center' src=img/fixation3.jpg></div><div class='cl'><div class='vertical-center'>$30<br>for<br>sure</div></div><div class='cr'><div class='vertical-center'>$68<br>with a<br>50% chance</div></div><div class='respDivL'><div class='vertical-center'>(E)</div></div><div class='respDivR'><div class='vertical-center'>(I)</div></div></div>","I","$30","$68","0","30","68","RISKY"
"html-keyboard-response","81","126139","0.0-5.0-3.25","63e7ac6bcbc2e035cbeadf8a","bdp_rd","Tue Mar 28 2023 11:49:51 GMT-0400 (Eastern Daylight Time)","207568","","null","","","","offerFB","","<div class='trialBorder'><div class='vertical-center'><img style='vertical-align:center; align:center' src=img/fixation3.jpg></div><div class='cl'><div class='vertical-center'>$30<br>for<br>sure</div></div><div class='cr'><div class='vertical-center'><font style='color:orange'>$68<br>with a<br>50% chance</font></div></div><div class='respDivL'><div class='vertical-center'>(E)</div></div><div class='respDivR'><div class='vertical-center'><font style='color:orange'>(I)</font></div></div></div>","null","$30","$68","0","30","68",""
"html-keyboard-response","82","126640","0.0-5.0-1.26","63e7ac6bcbc2e035cbeadf8a","bdp_rd","Tue Mar 28 2023 11:49:51 GMT-0400 (Eastern Daylight Time)","207568","","null","","","","FIX","","<div class='trialBorder'><div class='vertical-center'><img style='vertical-align:center; align:center' src=img/fixation3.jpg></div></div>","null","","","","","",""
"html-keyboard-response","83","127684","0.0-5.0-2.26","63e7ac6bcbc2e035cbeadf8a","bdp_rd","Tue Mar 28 2023 11:49:51 GMT-0400 (Eastern Daylight Time)","207568","","1044","","","","offer","","<div class='trialBorder'><div class='vertical-center'><img style='vertical-align:center; align:center' src=img/fixation3.jpg></div><div class='cl'><div class='vertical-center'>$33<br>with a<br>50% chance</div></div><div class='cr'><div class='vertical-center'>$1<br>for<br>sure</div></div><div class='respDivL'><div class='vertical-center'>(E)</div></div><div class='respDivR'><div class='vertical-center'>(I)</div></div></div>","E","$1","$33","1","1","33","RISKY"
"html-keyboard-response","84","127936","0.0-5.0-3.26","63e7ac6bcbc2e035cbeadf8a","bdp_rd","Tue Mar 28 2023 11:49:51 GMT-0400 (Eastern Daylight Time)","207568","","null","","","","offerFB","","<div class='trialBorder'><div class='vertical-center'><img style='vertical-align:center; align:center' src=img/fixation3.jpg></div><div class='cl'><div class='vertical-center'><font style='color:orange'>$33<br>with a<br>50% chance</font></div></div><div class='cr'><div class='vertical-center'>$1<br>for<br>sure</div></div><div class='respDivL'><div class='vertical-center'><font style='color:orange'>(E)</font></div></div><div class='respDivR'><div class='vertical-center'>(I)</div></div></div>","null","$1","$33","1","1","33",""
"html-keyboard-response","85","128436","0.0-5.0-1.27","63e7ac6bcbc2e035cbeadf8a","bdp_rd","Tue Mar 28 2023 11:49:51 GMT-0400 (Eastern Daylight Time)","207568","","null","","","","FIX","","<div class='trialBorder'><div class='vertical-center'><img style='vertical-align:center; align:center' src=img/fixation3.jpg></div></div>","null","","","","","",""
"html-keyboard-response","86","129465","0.0-5.0-2.27","63e7ac6bcbc2e035cbeadf8a","bdp_rd","Tue Mar 28 2023 11:49:51 GMT-0400 (Eastern Daylight Time)","207568","","1029","","","","offer","","<div class='trialBorder'><div class='vertical-center'><img style='vertical-align:center; align:center' src=img/fixation3.jpg></div><div class='cl'><div class='vertical-center'>$8<br>for<br>sure</div></div><div class='cr'><div class='vertical-center'>$23<br>with a<br>50% chance</div></div><div class='respDivL'><div class='vertical-center'>(E)</div></div><div class='respDivR'><div class='vertical-center'>(I)</div></div></div>","I","$8","$23","0","8","23","RISKY"
"html-keyboard-response","87","129716","0.0-5.0-3.27","63e7ac6bcbc2e035cbeadf8a","bdp_rd","Tue Mar 28 2023 11:49:51 GMT-0400 (Eastern Daylight Time)","207568","","null","","","","offerFB","","<div class='trialBorder'><div class='vertical-center'><img style='vertical-align:center; align:center' src=img/fixation3.jpg></div><div class='cl'><div class='vertical-center'>$8<br>for<br>sure</div></div><div class='cr'><div class='vertical-center'><font style='color:orange'>$23<br>with a<br>50% chance</font></div></div><div class='respDivL'><div class='vertical-center'>(E)</div></div><div class='respDivR'><div class='vertical-center'><font style='color:orange'>(I)</font></div></div></div>","null","$8","$23","0","8","23",""
"html-keyboard-response","88","130217","0.0-5.0-1.28","63e7ac6bcbc2e035cbeadf8a","bdp_rd","Tue Mar 28 2023 11:49:51 GMT-0400 (Eastern Daylight Time)","207568","","null","","","","FIX","","<div class='trialBorder'><div class='vertical-center'><img style='vertical-align:center; align:center' src=img/fixation3.jpg></div></div>","null","","","","","",""
"html-keyboard-response","89","131325","0.0-5.0-2.28","63e7ac6bcbc2e035cbeadf8a","bdp_rd","Tue Mar 28 2023 11:49:51 GMT-0400 (Eastern Daylight Time)","207568","","1108","","","","offer","","<div class='trialBorder'><div class='vertical-center'><img style='vertical-align:center; align:center' src=img/fixation3.jpg></div><div class='cl'><div class='vertical-center'>$15<br>with a<br>50% chance</div></div><div class='cr'><div class='vertical-center'>$6<br>for<br>sure</div></div><div class='respDivL'><div class='vertical-center'>(E)</div></div><div class='respDivR'><div class='vertical-center'>(I)</div></div></div>","E","$6","$15","1","6","15","RISKY"
"html-keyboard-response","90","131576","0.0-5.0-3.28","63e7ac6bcbc2e035cbeadf8a","bdp_rd","Tue Mar 28 2023 11:49:51 GMT-0400 (Eastern Daylight Time)","207568","","null","","","","offerFB","","<div class='trialBorder'><div class='vertical-center'><img style='vertical-align:center; align:center' src=img/fixation3.jpg></div><div class='cl'><div class='vertical-center'><font style='color:orange'>$15<br>with a<br>50% chance</font></div></div><div class='cr'><div class='vertical-center'>$6<br>for<br>sure</div></div><div class='respDivL'><div class='vertical-center'><font style='color:orange'>(E)</font></div></div><div class='respDivR'><div class='vertical-center'>(I)</div></div></div>","null","$6","$15","1","6","15",""
"html-keyboard-response","91","132077","0.0-5.0-1.29","63e7ac6bcbc2e035cbeadf8a","bdp_rd","Tue Mar 28 2023 11:49:51 GMT-0400 (Eastern Daylight Time)","207568","","null","","","","FIX","","<div class='trialBorder'><div class='vertical-center'><img style='vertical-align:center; align:center' src=img/fixation3.jpg></div></div>","null","","","","","",""
"html-keyboard-response","92","134150","0.0-5.0-2.29","63e7ac6bcbc2e035cbeadf8a","bdp_rd","Tue Mar 28 2023 11:49:51 GMT-0400 (Eastern Daylight Time)","207568","","2072","","","","offer","","<div class='trialBorder'><div class='vertical-center'><img style='vertical-align:center; align:center' src=img/fixation3.jpg></div><div class='cl'><div class='vertical-center'>$65<br>with a<br>50% chance</div></div><div class='cr'><div class='vertical-center'>$46<br>for<br>sure</div></div><div class='respDivL'><div class='vertical-center'>(E)</div></div><div class='respDivR'><div class='vertical-center'>(I)</div></div></div>","I","$46","$65","1","46","65","SURE"
"html-keyboard-response","93","134401","0.0-5.0-3.29","63e7ac6bcbc2e035cbeadf8a","bdp_rd","Tue Mar 28 2023 11:49:51 GMT-0400 (Eastern Daylight Time)","207568","","null","","","","offerFB","","<div class='trialBorder'><div class='vertical-center'><img style='vertical-align:center; align:center' src=img/fixation3.jpg></div><div class='cl'><div class='vertical-center'>$65<br>with a<br>50% chance</div></div><div class='cr'><div class='vertical-center'><font style='color:orange'>$46<br>for<br>sure</font></div></div><div class='respDivL'><div class='vertical-center'>(E)</div></div><div class='respDivR'><div class='vertical-center'><font style='color:orange'>(I)</font></div></div></div>","null","$46","$65","1","46","65",""
"html-keyboard-response","94","134902","0.0-5.0-1.30","63e7ac6bcbc2e035cbeadf8a","bdp_rd","Tue Mar 28 2023 11:49:51 GMT-0400 (Eastern Daylight Time)","207568","","null","","","","FIX","","<div class='trialBorder'><div class='vertical-center'><img style='vertical-align:center; align:center' src=img/fixation3.jpg></div></div>","null","","","","","",""
"html-keyboard-response","95","136704","0.0-5.0-2.30","63e7ac6bcbc2e035cbeadf8a","bdp_rd","Tue Mar 28 2023 11:49:51 GMT-0400 (Eastern Daylight Time)","207568","","1802","","","","offer","","<div class='trialBorder'><div class='vertical-center'><img style='vertical-align:center; align:center' src=img/fixation3.jpg></div><div class='cl'><div class='vertical-center'>$21<br>for<br>sure</div></div><div class='cr'><div class='vertical-center'>$25<br>with a<br>50% chance</div></div><div class='respDivL'><div class='vertical-center'>(E)</div></div><div class='respDivR'><div class='vertical-center'>(I)</div></div></div>","E","$21","$25","0","21","25","SURE"
"html-keyboard-response","96","136955","0.0-5.0-3.30","63e7ac6bcbc2e035cbeadf8a","bdp_rd","Tue Mar 28 2023 11:49:51 GMT-0400 (Eastern Daylight Time)","207568","","null","","","","offerFB","","<div class='trialBorder'><div class='vertical-center'><img style='vertical-align:center; align:center' src=img/fixation3.jpg></div><div class='cl'><div class='vertical-center'><font style='color:orange'>$21<br>for<br>sure</font></div></div><div class='cr'><div class='vertical-center'>$25<br>with a<br>50% chance</div></div><div class='respDivL'><div class='vertical-center'><font style='color:orange'>(E)</font></div></div><div class='respDivR'><div class='vertical-center'>(I)</div></div></div>","null","$21","$25","0","21","25",""
"html-keyboard-response","97","137455","0.0-5.0-1.31","63e7ac6bcbc2e035cbeadf8a","bdp_rd","Tue Mar 28 2023 11:49:51 GMT-0400 (Eastern Daylight Time)","207568","","null","","","","FIX","","<div class='trialBorder'><div class='vertical-center'><img style='vertical-align:center; align:center' src=img/fixation3.jpg></div></div>","null","","","","","",""
"html-keyboard-response","98","139178","0.0-5.0-2.31","63e7ac6bcbc2e035cbeadf8a","bdp_rd","Tue Mar 28 2023 11:49:51 GMT-0400 (Eastern Daylight Time)","207568","","1722","","","","offer","","<div class='trialBorder'><div class='vertical-center'><img style='vertical-align:center; align:center' src=img/fixation3.jpg></div><div class='cl'><div class='vertical-center'>$18<br>for<br>sure</div></div><div class='cr'><div class='vertical-center'>$36<br>with a<br>50% chance</div></div><div class='respDivL'><div class='vertical-center'>(E)</div></div><div class='respDivR'><div class='vertical-center'>(I)</div></div></div>","I","$18","$36","0","18","36","RISKY"
"html-keyboard-response","99","139429","0.0-5.0-3.31","63e7ac6bcbc2e035cbeadf8a","bdp_rd","Tue Mar 28 2023 11:49:51 GMT-0400 (Eastern Daylight Time)","207568","","null","","","","offerFB","","<div class='trialBorder'><div class='vertical-center'><img style='vertical-align:center; align:center' src=img/fixation3.jpg></div><div class='cl'><div class='vertical-center'>$18<br>for<br>sure</div></div><div class='cr'><div class='vertical-center'><font style='color:orange'>$36<br>with a<br>50% chance</font></div></div><div class='respDivL'><div class='vertical-center'>(E)</div></div><div class='respDivR'><div class='vertical-center'><font style='color:orange'>(I)</font></div></div></div>","null","$18","$36","0","18","36",""
"html-keyboard-response","100","139931","0.0-5.0-1.32","63e7ac6bcbc2e035cbeadf8a","bdp_rd","Tue Mar 28 2023 11:49:51 GMT-0400 (Eastern Daylight Time)","207568","","null","","","","FIX","","<div class='trialBorder'><div class='vertical-center'><img style='vertical-align:center; align:center' src=img/fixation3.jpg></div></div>","null","","","","","",""
"html-keyboard-response","101","142104","0.0-5.0-2.32","63e7ac6bcbc2e035cbeadf8a","bdp_rd","Tue Mar 28 2023 11:49:51 GMT-0400 (Eastern Daylight Time)","207568","","2173","","","","offer","","<div class='trialBorder'><div class='vertical-center'><img style='vertical-align:center; align:center' src=img/fixation3.jpg></div><div class='cl'><div class='vertical-center'>$16<br>for<br>sure</div></div><div class='cr'><div class='vertical-center'>$28<br>with a<br>50% chance</div></div><div class='respDivL'><div class='vertical-center'>(E)</div></div><div class='respDivR'><div class='vertical-center'>(I)</div></div></div>","E","$16","$28","0","16","28","SURE"
"html-keyboard-response","102","142355","0.0-5.0-3.32","63e7ac6bcbc2e035cbeadf8a","bdp_rd","Tue Mar 28 2023 11:49:51 GMT-0400 (Eastern Daylight Time)","207568","","null","","","","offerFB","","<div class='trialBorder'><div class='vertical-center'><img style='vertical-align:center; align:center' src=img/fixation3.jpg></div><div class='cl'><div class='vertical-center'><font style='color:orange'>$16<br>for<br>sure</font></div></div><div class='cr'><div class='vertical-center'>$28<br>with a<br>50% chance</div></div><div class='respDivL'><div class='vertical-center'><font style='color:orange'>(E)</font></div></div><div class='respDivR'><div class='vertical-center'>(I)</div></div></div>","null","$16","$28","0","16","28",""
"html-keyboard-response","103","142856","0.0-5.0-1.33","63e7ac6bcbc2e035cbeadf8a","bdp_rd","Tue Mar 28 2023 11:49:51 GMT-0400 (Eastern Daylight Time)","207568","","null","","","","FIX","","<div class='trialBorder'><div class='vertical-center'><img style='vertical-align:center; align:center' src=img/fixation3.jpg></div></div>","null","","","","","",""
"html-keyboard-response","104","145567","0.0-5.0-2.33","63e7ac6bcbc2e035cbeadf8a","bdp_rd","Tue Mar 28 2023 11:49:51 GMT-0400 (Eastern Daylight Time)","207568","","2711","","","","offer","","<div class='trialBorder'><div class='vertical-center'><img style='vertical-align:center; align:center' src=img/fixation3.jpg></div><div class='cl'><div class='vertical-center'>$8<br>for<br>sure</div></div><div class='cr'><div class='vertical-center'>$45<br>with a<br>50% chance</div></div><div class='respDivL'><div class='vertical-center'>(E)</div></div><div class='respDivR'><div class='vertical-center'>(I)</div></div></div>","I","$8","$45","0","8","45","RISKY"
"html-keyboard-response","105","145818","0.0-5.0-3.33","63e7ac6bcbc2e035cbeadf8a","bdp_rd","Tue Mar 28 2023 11:49:51 GMT-0400 (Eastern Daylight Time)","207568","","null","","","","offerFB","","<div class='trialBorder'><div class='vertical-center'><img style='vertical-align:center; align:center' src=img/fixation3.jpg></div><div class='cl'><div class='vertical-center'>$8<br>for<br>sure</div></div><div class='cr'><div class='vertical-center'><font style='color:orange'>$45<br>with a<br>50% chance</font></div></div><div class='respDivL'><div class='vertical-center'>(E)</div></div><div class='respDivR'><div class='vertical-center'><font style='color:orange'>(I)</font></div></div></div>","null","$8","$45","0","8","45",""
"html-keyboard-response","106","146318","0.0-5.0-1.34","63e7ac6bcbc2e035cbeadf8a","bdp_rd","Tue Mar 28 2023 11:49:51 GMT-0400 (Eastern Daylight Time)","207568","","null","","","","FIX","","<div class='trialBorder'><div class='vertical-center'><img style='vertical-align:center; align:center' src=img/fixation3.jpg></div></div>","null","","","","","",""
"html-keyboard-response","107","147824","0.0-5.0-2.34","63e7ac6bcbc2e035cbeadf8a","bdp_rd","Tue Mar 28 2023 11:49:51 GMT-0400 (Eastern Daylight Time)","207568","","1505","","","","offer","","<div class='trialBorder'><div class='vertical-center'><img style='vertical-align:center; align:center' src=img/fixation3.jpg></div><div class='cl'><div class='vertical-center'>$69<br>with a<br>50% chance</div></div><div class='cr'><div class='vertical-center'>$58<br>for<br>sure</div></div><div class='respDivL'><div class='vertical-center'>(E)</div></div><div class='respDivR'><div class='vertical-center'>(I)</div></div></div>","I","$58","$69","1","58","69","SURE"
"html-keyboard-response","108","148075","0.0-5.0-3.34","63e7ac6bcbc2e035cbeadf8a","bdp_rd","Tue Mar 28 2023 11:49:51 GMT-0400 (Eastern Daylight Time)","207568","","null","","","","offerFB","","<div class='trialBorder'><div class='vertical-center'><img style='vertical-align:center; align:center' src=img/fixation3.jpg></div><div class='cl'><div class='vertical-center'>$69<br>with a<br>50% chance</div></div><div class='cr'><div class='vertical-center'><font style='color:orange'>$58<br>for<br>sure</font></div></div><div class='respDivL'><div class='vertical-center'>(E)</div></div><div class='respDivR'><div class='vertical-center'><font style='color:orange'>(I)</font></div></div></div>","null","$58","$69","1","58","69",""
"html-keyboard-response","109","148576","0.0-5.0-1.35","63e7ac6bcbc2e035cbeadf8a","bdp_rd","Tue Mar 28 2023 11:49:51 GMT-0400 (Eastern Daylight Time)","207568","","null","","","","FIX","","<div class='trialBorder'><div class='vertical-center'><img style='vertical-align:center; align:center' src=img/fixation3.jpg></div></div>","null","","","","","",""
"html-keyboard-response","110","151437","0.0-5.0-2.35","63e7ac6bcbc2e035cbeadf8a","bdp_rd","Tue Mar 28 2023 11:49:51 GMT-0400 (Eastern Daylight Time)","207568","","2860","","","","offer","","<div class='trialBorder'><div class='vertical-center'><img style='vertical-align:center; align:center' src=img/fixation3.jpg></div><div class='cl'><div class='vertical-center'>$18<br>for<br>sure</div></div><div class='cr'><div class='vertical-center'>$39<br>with a<br>50% chance</div></div><div class='respDivL'><div class='vertical-center'>(E)</div></div><div class='respDivR'><div class='vertical-center'>(I)</div></div></div>","I","$18","$39","0","18","39","RISKY"
"html-keyboard-response","111","151688","0.0-5.0-3.35","63e7ac6bcbc2e035cbeadf8a","bdp_rd","Tue Mar 28 2023 11:49:51 GMT-0400 (Eastern Daylight Time)","207568","","null","","","","offerFB","","<div class='trialBorder'><div class='vertical-center'><img style='vertical-align:center; align:center' src=img/fixation3.jpg></div><div class='cl'><div class='vertical-center'>$18<br>for<br>sure</div></div><div class='cr'><div class='vertical-center'><font style='color:orange'>$39<br>with a<br>50% chance</font></div></div><div class='respDivL'><div class='vertical-center'>(E)</div></div><div class='respDivR'><div class='vertical-center'><font style='color:orange'>(I)</font></div></div></div>","null","$18","$39","0","18","39",""
"html-keyboard-response","112","152189","0.0-5.0-1.36","63e7ac6bcbc2e035cbeadf8a","bdp_rd","Tue Mar 28 2023 11:49:51 GMT-0400 (Eastern Daylight Time)","207568","","null","","","","FIX","","<div class='trialBorder'><div class='vertical-center'><img style='vertical-align:center; align:center' src=img/fixation3.jpg></div></div>","null","","","","","",""
"html-keyboard-response","113","154422","0.0-5.0-2.36","63e7ac6bcbc2e035cbeadf8a","bdp_rd","Tue Mar 28 2023 11:49:51 GMT-0400 (Eastern Daylight Time)","207568","","2233","","","","offer","","<div class='trialBorder'><div class='vertical-center'><img style='vertical-align:center; align:center' src=img/fixation3.jpg></div><div class='cl'><div class='vertical-center'>$10<br>for<br>sure</div></div><div class='cr'><div class='vertical-center'>$19<br>with a<br>50% chance</div></div><div class='respDivL'><div class='vertical-center'>(E)</div></div><div class='respDivR'><div class='vertical-center'>(I)</div></div></div>","E","$10","$19","0","10","19","SURE"
"html-keyboard-response","114","154673","0.0-5.0-3.36","63e7ac6bcbc2e035cbeadf8a","bdp_rd","Tue Mar 28 2023 11:49:51 GMT-0400 (Eastern Daylight Time)","207568","","null","","","","offerFB","","<div class='trialBorder'><div class='vertical-center'><img style='vertical-align:center; align:center' src=img/fixation3.jpg></div><div class='cl'><div class='vertical-center'><font style='color:orange'>$10<br>for<br>sure</font></div></div><div class='cr'><div class='vertical-center'>$19<br>with a<br>50% chance</div></div><div class='respDivL'><div class='vertical-center'><font style='color:orange'>(E)</font></div></div><div class='respDivR'><div class='vertical-center'>(I)</div></div></div>","null","$10","$19","0","10","19",""
"html-keyboard-response","115","155173","0.0-5.0-1.37","63e7ac6bcbc2e035cbeadf8a","bdp_rd","Tue Mar 28 2023 11:49:51 GMT-0400 (Eastern Daylight Time)","207568","","null","","","","FIX","","<div class='trialBorder'><div class='vertical-center'><img style='vertical-align:center; align:center' src=img/fixation3.jpg></div></div>","null","","","","","",""
"html-keyboard-response","116","158250","0.0-5.0-2.37","63e7ac6bcbc2e035cbeadf8a","bdp_rd","Tue Mar 28 2023 11:49:51 GMT-0400 (Eastern Daylight Time)","207568","","3076","","","","offer","","<div class='trialBorder'><div class='vertical-center'><img style='vertical-align:center; align:center' src=img/fixation3.jpg></div><div class='cl'><div class='vertical-center'>$38<br>with a<br>50% chance</div></div><div class='cr'><div class='vertical-center'>$16<br>for<br>sure</div></div><div class='respDivL'><div class='vertical-center'>(E)</div></div><div class='respDivR'><div class='vertical-center'>(I)</div></div></div>","E","$16","$38","1","16","38","RISKY"
"html-keyboard-response","117","158501","0.0-5.0-3.37","63e7ac6bcbc2e035cbeadf8a","bdp_rd","Tue Mar 28 2023 11:49:51 GMT-0400 (Eastern Daylight Time)","207568","","null","","","","offerFB","","<div class='trialBorder'><div class='vertical-center'><img style='vertical-align:center; align:center' src=img/fixation3.jpg></div><div class='cl'><div class='vertical-center'><font style='color:orange'>$38<br>with a<br>50% chance</font></div></div><div class='cr'><div class='vertical-center'>$16<br>for<br>sure</div></div><div class='respDivL'><div class='vertical-center'><font style='color:orange'>(E)</font></div></div><div class='respDivR'><div class='vertical-center'>(I)</div></div></div>","null","$16","$38","1","16","38",""
"html-keyboard-response","118","159002","0.0-5.0-1.38","63e7ac6bcbc2e035cbeadf8a","bdp_rd","Tue Mar 28 2023 11:49:51 GMT-0400 (Eastern Daylight Time)","207568","","null","","","","FIX","","<div class='trialBorder'><div class='vertical-center'><img style='vertical-align:center; align:center' src=img/fixation3.jpg></div></div>","null","","","","","",""
"html-keyboard-response","119","160404","0.0-5.0-2.38","63e7ac6bcbc2e035cbeadf8a","bdp_rd","Tue Mar 28 2023 11:49:51 GMT-0400 (Eastern Daylight Time)","207568","","1402","","","","offer","","<div class='trialBorder'><div class='vertical-center'><img style='vertical-align:center; align:center' src=img/fixation3.jpg></div><div class='cl'><div class='vertical-center'>$98<br>with a<br>50% chance</div></div><div class='cr'><div class='vertical-center'>$53<br>for<br>sure</div></div><div class='respDivL'><div class='vertical-center'>(E)</div></div><div class='respDivR'><div class='vertical-center'>(I)</div></div></div>","E","$53","$98","1","53","98","RISKY"
"html-keyboard-response","120","160655","0.0-5.0-3.38","63e7ac6bcbc2e035cbeadf8a","bdp_rd","Tue Mar 28 2023 11:49:51 GMT-0400 (Eastern Daylight Time)","207568","","null","","","","offerFB","","<div class='trialBorder'><div class='vertical-center'><img style='vertical-align:center; align:center' src=img/fixation3.jpg></div><div class='cl'><div class='vertical-center'><font style='color:orange'>$98<br>with a<br>50% chance</font></div></div><div class='cr'><div class='vertical-center'>$53<br>for<br>sure</div></div><div class='respDivL'><div class='vertical-center'><font style='color:orange'>(E)</font></div></div><div class='respDivR'><div class='vertical-center'>(I)</div></div></div>","null","$53","$98","1","53","98",""
"html-keyboard-response","121","161155","0.0-5.0-1.39","63e7ac6bcbc2e035cbeadf8a","bdp_rd","Tue Mar 28 2023 11:49:51 GMT-0400 (Eastern Daylight Time)","207568","","null","","","","FIX","","<div class='trialBorder'><div class='vertical-center'><img style='vertical-align:center; align:center' src=img/fixation3.jpg></div></div>","null","","","","","",""
"html-keyboard-response","122","164358","0.0-5.0-2.39","63e7ac6bcbc2e035cbeadf8a","bdp_rd","Tue Mar 28 2023 11:49:51 GMT-0400 (Eastern Daylight Time)","207568","","3202","","","","offer","","<div class='trialBorder'><div class='vertical-center'><img style='vertical-align:center; align:center' src=img/fixation3.jpg></div><div class='cl'><div class='vertical-center'>$63<br>for<br>sure</div></div><div class='cr'><div class='vertical-center'>$100<br>with a<br>50% chance</div></div><div class='respDivL'><div class='vertical-center'>(E)</div></div><div class='respDivR'><div class='vertical-center'>(I)</div></div></div>","I","$63","$100","0","63","10","RISKY"
"html-keyboard-response","123","164609","0.0-5.0-3.39","63e7ac6bcbc2e035cbeadf8a","bdp_rd","Tue Mar 28 2023 11:49:51 GMT-0400 (Eastern Daylight Time)","207568","","null","","","","offerFB","","<div class='trialBorder'><div class='vertical-center'><img style='vertical-align:center; align:center' src=img/fixation3.jpg></div><div class='cl'><div class='vertical-center'>$63<br>for<br>sure</div></div><div class='cr'><div class='vertical-center'><font style='color:orange'>$100<br>with a<br>50% chance</font></div></div><div class='respDivL'><div class='vertical-center'>(E)</div></div><div class='respDivR'><div class='vertical-center'><font style='color:orange'>(I)</font></div></div></div>","null","$63","$100","0","63","10",""
"html-keyboard-response","124","165110","0.0-5.0-1.40","63e7ac6bcbc2e035cbeadf8a","bdp_rd","Tue Mar 28 2023 11:49:51 GMT-0400 (Eastern Daylight Time)","207568","","null","","","","FIX","","<div class='trialBorder'><div class='vertical-center'><img style='vertical-align:center; align:center' src=img/fixation3.jpg></div></div>","null","","","","","",""
"html-keyboard-response","125","167604","0.0-5.0-2.40","63e7ac6bcbc2e035cbeadf8a","bdp_rd","Tue Mar 28 2023 11:49:51 GMT-0400 (Eastern Daylight Time)","207568","","2493","","","","offer","","<div class='trialBorder'><div class='vertical-center'><img style='vertical-align:center; align:center' src=img/fixation3.jpg></div><div class='cl'><div class='vertical-center'>$14<br>for<br>sure</div></div><div class='cr'><div class='vertical-center'>$29<br>with a<br>50% chance</div></div><div class='respDivL'><div class='vertical-center'>(E)</div></div><div class='respDivR'><div class='vertical-center'>(I)</div></div></div>","I","$14","$29","0","14","29","RISKY"
"html-keyboard-response","126","167855","0.0-5.0-3.40","63e7ac6bcbc2e035cbeadf8a","bdp_rd","Tue Mar 28 2023 11:49:51 GMT-0400 (Eastern Daylight Time)","207568","","null","","","","offerFB","","<div class='trialBorder'><div class='vertical-center'><img style='vertical-align:center; align:center' src=img/fixation3.jpg></div><div class='cl'><div class='vertical-center'>$14<br>for<br>sure</div></div><div class='cr'><div class='vertical-center'><font style='color:orange'>$29<br>with a<br>50% chance</font></div></div><div class='respDivL'><div class='vertical-center'>(E)</div></div><div class='respDivR'><div class='vertical-center'><font style='color:orange'>(I)</font></div></div></div>","null","$14","$29","0","14","29",""
"html-keyboard-response","127","168355","0.0-5.0-1.41","63e7ac6bcbc2e035cbeadf8a","bdp_rd","Tue Mar 28 2023 11:49:51 GMT-0400 (Eastern Daylight Time)","207568","","null","","","","FIX","","<div class='trialBorder'><div class='vertical-center'><img style='vertical-align:center; align:center' src=img/fixation3.jpg></div></div>","null","","","","","",""
"html-keyboard-response","128","169257","0.0-5.0-2.41","63e7ac6bcbc2e035cbeadf8a","bdp_rd","Tue Mar 28 2023 11:49:51 GMT-0400 (Eastern Daylight Time)","207568","","901","","","","offer","","<div class='trialBorder'><div class='vertical-center'><img style='vertical-align:center; align:center' src=img/fixation3.jpg></div><div class='cl'><div class='vertical-center'>$66<br>with a<br>50% chance</div></div><div class='cr'><div class='vertical-center'>$33<br>for<br>sure</div></div><div class='respDivL'><div class='vertical-center'>(E)</div></div><div class='respDivR'><div class='vertical-center'>(I)</div></div></div>","E","$33","$66","1","33","66","RISKY"
"html-keyboard-response","129","169507","0.0-5.0-3.41","63e7ac6bcbc2e035cbeadf8a","bdp_rd","Tue Mar 28 2023 11:49:51 GMT-0400 (Eastern Daylight Time)","207568","","null","","","","offerFB","","<div class='trialBorder'><div class='vertical-center'><img style='vertical-align:center; align:center' src=img/fixation3.jpg></div><div class='cl'><div class='vertical-center'><font style='color:orange'>$66<br>with a<br>50% chance</font></div></div><div class='cr'><div class='vertical-center'>$33<br>for<br>sure</div></div><div class='respDivL'><div class='vertical-center'><font style='color:orange'>(E)</font></div></div><div class='respDivR'><div class='vertical-center'>(I)</div></div></div>","null","$33","$66","1","33","66",""
"html-keyboard-response","130","170008","0.0-5.0-1.42","63e7ac6bcbc2e035cbeadf8a","bdp_rd","Tue Mar 28 2023 11:49:51 GMT-0400 (Eastern Daylight Time)","207568","","null","","","","FIX","","<div class='trialBorder'><div class='vertical-center'><img style='vertical-align:center; align:center' src=img/fixation3.jpg></div></div>","null","","","","","",""
"html-keyboard-response","131","170786","0.0-5.0-2.42","63e7ac6bcbc2e035cbeadf8a","bdp_rd","Tue Mar 28 2023 11:49:51 GMT-0400 (Eastern Daylight Time)","207568","","777","","","","offer","","<div class='trialBorder'><div class='vertical-center'><img style='vertical-align:center; align:center' src=img/fixation3.jpg></div><div class='cl'><div class='vertical-center'>$12<br>for<br>sure</div></div><div class='cr'><div class='vertical-center'>$27<br>with a<br>50% chance</div></div><div class='respDivL'><div class='vertical-center'>(E)</div></div><div class='respDivR'><div class='vertical-center'>(I)</div></div></div>","I","$12","$27","0","12","27","RISKY"
"html-keyboard-response","132","171037","0.0-5.0-3.42","63e7ac6bcbc2e035cbeadf8a","bdp_rd","Tue Mar 28 2023 11:49:51 GMT-0400 (Eastern Daylight Time)","207568","","null","","","","offerFB","","<div class='trialBorder'><div class='vertical-center'><img style='vertical-align:center; align:center' src=img/fixation3.jpg></div><div class='cl'><div class='vertical-center'>$12<br>for<br>sure</div></div><div class='cr'><div class='vertical-center'><font style='color:orange'>$27<br>with a<br>50% chance</font></div></div><div class='respDivL'><div class='vertical-center'>(E)</div></div><div class='respDivR'><div class='vertical-center'><font style='color:orange'>(I)</font></div></div></div>","null","$12","$27","0","12","27",""
"html-keyboard-response","133","171538","0.0-5.0-1.43","63e7ac6bcbc2e035cbeadf8a","bdp_rd","Tue Mar 28 2023 11:49:51 GMT-0400 (Eastern Daylight Time)","207568","","null","","","","FIX","","<div class='trialBorder'><div class='vertical-center'><img style='vertical-align:center; align:center' src=img/fixation3.jpg></div></div>","null","","","","","",""
"html-keyboard-response","134","173234","0.0-5.0-2.43","63e7ac6bcbc2e035cbeadf8a","bdp_rd","Tue Mar 28 2023 11:49:51 GMT-0400 (Eastern Daylight Time)","207568","","1696","","","","offer","","<div class='trialBorder'><div class='vertical-center'><img style='vertical-align:center; align:center' src=img/fixation3.jpg></div><div class='cl'><div class='vertical-center'>$10<br>with a<br>50% chance</div></div><div class='cr'><div class='vertical-center'>$7<br>for<br>sure</div></div><div class='respDivL'><div class='vertical-center'>(E)</div></div><div class='respDivR'><div class='vertical-center'>(I)</div></div></div>","I","$7","$10","1","7","10","SURE"
"html-keyboard-response","135","173484","0.0-5.0-3.43","63e7ac6bcbc2e035cbeadf8a","bdp_rd","Tue Mar 28 2023 11:49:51 GMT-0400 (Eastern Daylight Time)","207568","","null","","","","offerFB","","<div class='trialBorder'><div class='vertical-center'><img style='vertical-align:center; align:center' src=img/fixation3.jpg></div><div class='cl'><div class='vertical-center'>$10<br>with a<br>50% chance</div></div><div class='cr'><div class='vertical-center'><font style='color:orange'>$7<br>for<br>sure</font></div></div><div class='respDivL'><div class='vertical-center'>(E)</div></div><div class='respDivR'><div class='vertical-center'><font style='color:orange'>(I)</font></div></div></div>","null","$7","$10","1","7","10",""
"html-keyboard-response","136","173985","0.0-5.0-1.44","63e7ac6bcbc2e035cbeadf8a","bdp_rd","Tue Mar 28 2023 11:49:51 GMT-0400 (Eastern Daylight Time)","207568","","null","","","","FIX","","<div class='trialBorder'><div class='vertical-center'><img style='vertical-align:center; align:center' src=img/fixation3.jpg></div></div>","null","","","","","",""
"html-keyboard-response","137","175511","0.0-5.0-2.44","63e7ac6bcbc2e035cbeadf8a","bdp_rd","Tue Mar 28 2023 11:49:51 GMT-0400 (Eastern Daylight Time)","207568","","1526","","","","offer","","<div class='trialBorder'><div class='vertical-center'><img style='vertical-align:center; align:center' src=img/fixation3.jpg></div><div class='cl'><div class='vertical-center'>$2<br>for<br>sure</div></div><div class='cr'><div class='vertical-center'>$21<br>with a<br>50% chance</div></div><div class='respDivL'><div class='vertical-center'>(E)</div></div><div class='respDivR'><div class='vertical-center'>(I)</div></div></div>","I","$2","$21","0","2","21","RISKY"
"html-keyboard-response","138","175762","0.0-5.0-3.44","63e7ac6bcbc2e035cbeadf8a","bdp_rd","Tue Mar 28 2023 11:49:51 GMT-0400 (Eastern Daylight Time)","207568","","null","","","","offerFB","","<div class='trialBorder'><div class='vertical-center'><img style='vertical-align:center; align:center' src=img/fixation3.jpg></div><div class='cl'><div class='vertical-center'>$2<br>for<br>sure</div></div><div class='cr'><div class='vertical-center'><font style='color:orange'>$21<br>with a<br>50% chance</font></div></div><div class='respDivL'><div class='vertical-center'>(E)</div></div><div class='respDivR'><div class='vertical-center'><font style='color:orange'>(I)</font></div></div></div>","null","$2","$21","0","2","21",""
"html-keyboard-response","139","176263","0.0-5.0-1.45","63e7ac6bcbc2e035cbeadf8a","bdp_rd","Tue Mar 28 2023 11:49:51 GMT-0400 (Eastern Daylight Time)","207568","","null","","","","FIX","","<div class='trialBorder'><div class='vertical-center'><img style='vertical-align:center; align:center' src=img/fixation3.jpg></div></div>","null","","","","","",""
"html-keyboard-response","140","178331","0.0-5.0-2.45","63e7ac6bcbc2e035cbeadf8a","bdp_rd","Tue Mar 28 2023 11:49:51 GMT-0400 (Eastern Daylight Time)","207568","","2067","","","","offer","","<div class='trialBorder'><div class='vertical-center'><img style='vertical-align:center; align:center' src=img/fixation3.jpg></div><div class='cl'><div class='vertical-center'>$19<br>for<br>sure</div></div><div class='cr'><div class='vertical-center'>$51<br>with a<br>50% chance</div></div><div class='respDivL'><div class='vertical-center'>(E)</div></div><div class='respDivR'><div class='vertical-center'>(I)</div></div></div>","I","$19","$51","0","19","51","RISKY"
"html-keyboard-response","141","178583","0.0-5.0-3.45","63e7ac6bcbc2e035cbeadf8a","bdp_rd","Tue Mar 28 2023 11:49:51 GMT-0400 (Eastern Daylight Time)","207568","","null","","","","offerFB","","<div class='trialBorder'><div class='vertical-center'><img style='vertical-align:center; align:center' src=img/fixation3.jpg></div><div class='cl'><div class='vertical-center'>$19<br>for<br>sure</div></div><div class='cr'><div class='vertical-center'><font style='color:orange'>$51<br>with a<br>50% chance</font></div></div><div class='respDivL'><div class='vertical-center'>(E)</div></div><div class='respDivR'><div class='vertical-center'><font style='color:orange'>(I)</font></div></div></div>","null","$19","$51","0","19","51",""
"html-keyboard-response","142","179083","0.0-5.0-1.46","63e7ac6bcbc2e035cbeadf8a","bdp_rd","Tue Mar 28 2023 11:49:51 GMT-0400 (Eastern Daylight Time)","207568","","null","","","","FIX","","<div class='trialBorder'><div class='vertical-center'><img style='vertical-align:center; align:center' src=img/fixation3.jpg></div></div>","null","","","","","",""
"html-keyboard-response","143","180121","0.0-5.0-2.46","63e7ac6bcbc2e035cbeadf8a","bdp_rd","Tue Mar 28 2023 11:49:51 GMT-0400 (Eastern Daylight Time)","207568","","1038","","","","offer","","<div class='trialBorder'><div class='vertical-center'><img style='vertical-align:center; align:center' src=img/fixation3.jpg></div><div class='cl'><div class='vertical-center'>$39<br>for<br>sure</div></div><div class='cr'><div class='vertical-center'>$81<br>with a<br>50% chance</div></div><div class='respDivL'><div class='vertical-center'>(E)</div></div><div class='respDivR'><div class='vertical-center'>(I)</div></div></div>","I","$39","$81","0","39","81","RISKY"
"html-keyboard-response","144","180371","0.0-5.0-3.46","63e7ac6bcbc2e035cbeadf8a","bdp_rd","Tue Mar 28 2023 11:49:51 GMT-0400 (Eastern Daylight Time)","207568","","null","","","","offerFB","","<div class='trialBorder'><div class='vertical-center'><img style='vertical-align:center; align:center' src=img/fixation3.jpg></div><div class='cl'><div class='vertical-center'>$39<br>for<br>sure</div></div><div class='cr'><div class='vertical-center'><font style='color:orange'>$81<br>with a<br>50% chance</font></div></div><div class='respDivL'><div class='vertical-center'>(E)</div></div><div class='respDivR'><div class='vertical-center'><font style='color:orange'>(I)</font></div></div></div>","null","$39","$81","0","39","81",""
"html-keyboard-response","145","180873","0.0-5.0-1.47","63e7ac6bcbc2e035cbeadf8a","bdp_rd","Tue Mar 28 2023 11:49:51 GMT-0400 (Eastern Daylight Time)","207568","","null","","","","FIX","","<div class='trialBorder'><div class='vertical-center'><img style='vertical-align:center; align:center' src=img/fixation3.jpg></div></div>","null","","","","","",""
"html-keyboard-response","146","182102","0.0-5.0-2.47","63e7ac6bcbc2e035cbeadf8a","bdp_rd","Tue Mar 28 2023 11:49:51 GMT-0400 (Eastern Daylight Time)","207568","","1229","","","","offer","","<div class='trialBorder'><div class='vertical-center'><img style='vertical-align:center; align:center' src=img/fixation3.jpg></div><div class='cl'><div class='vertical-center'>$92<br>with a<br>50% chance</div></div><div class='cr'><div class='vertical-center'>$26<br>for<br>sure</div></div><div class='respDivL'><div class='vertical-center'>(E)</div></div><div class='respDivR'><div class='vertical-center'>(I)</div></div></div>","E","$26","$92","1","26","92","RISKY"
"html-keyboard-response","147","182353","0.0-5.0-3.47","63e7ac6bcbc2e035cbeadf8a","bdp_rd","Tue Mar 28 2023 11:49:51 GMT-0400 (Eastern Daylight Time)","207568","","null","","","","offerFB","","<div class='trialBorder'><div class='vertical-center'><img style='vertical-align:center; align:center' src=img/fixation3.jpg></div><div class='cl'><div class='vertical-center'><font style='color:orange'>$92<br>with a<br>50% chance</font></div></div><div class='cr'><div class='vertical-center'>$26<br>for<br>sure</div></div><div class='respDivL'><div class='vertical-center'><font style='color:orange'>(E)</font></div></div><div class='respDivR'><div class='vertical-center'>(I)</div></div></div>","null","$26","$92","1","26","92",""
"html-keyboard-response","148","182854","0.0-5.0-1.48","63e7ac6bcbc2e035cbeadf8a","bdp_rd","Tue Mar 28 2023 11:49:51 GMT-0400 (Eastern Daylight Time)","207568","","null","","","","FIX","","<div class='trialBorder'><div class='vertical-center'><img style='vertical-align:center; align:center' src=img/fixation3.jpg></div></div>","null","","","","","",""
"html-keyboard-response","149","184128","0.0-5.0-2.48","63e7ac6bcbc2e035cbeadf8a","bdp_rd","Tue Mar 28 2023 11:49:51 GMT-0400 (Eastern Daylight Time)","207568","","1272","","","","offer","","<div class='trialBorder'><div class='vertical-center'><img style='vertical-align:center; align:center' src=img/fixation3.jpg></div><div class='cl'><div class='vertical-center'>$78<br>with a<br>50% chance</div></div><div class='cr'><div class='vertical-center'>$31<br>for<br>sure</div></div><div class='respDivL'><div class='vertical-center'>(E)</div></div><div class='respDivR'><div class='vertical-center'>(I)</div></div></div>","E","$31","$78","1","31","78","RISKY"
"html-keyboard-response","150","184378","0.0-5.0-3.48","63e7ac6bcbc2e035cbeadf8a","bdp_rd","Tue Mar 28 2023 11:49:51 GMT-0400 (Eastern Daylight Time)","207568","","null","","","","offerFB","","<div class='trialBorder'><div class='vertical-center'><img style='vertical-align:center; align:center' src=img/fixation3.jpg></div><div class='cl'><div class='vertical-center'><font style='color:orange'>$78<br>with a<br>50% chance</font></div></div><div class='cr'><div class='vertical-center'>$31<br>for<br>sure</div></div><div class='respDivL'><div class='vertical-center'><font style='color:orange'>(E)</font></div></div><div class='respDivR'><div class='vertical-center'>(I)</div></div></div>","null","$31","$78","1","31","78",""
"html-keyboard-response","151","184879","0.0-5.0-1.49","63e7ac6bcbc2e035cbeadf8a","bdp_rd","Tue Mar 28 2023 11:49:51 GMT-0400 (Eastern Daylight Time)","207568","","null","","","","FIX","","<div class='trialBorder'><div class='vertical-center'><img style='vertical-align:center; align:center' src=img/fixation3.jpg></div></div>","null","","","","","",""
"html-keyboard-response","152","185902","0.0-5.0-2.49","63e7ac6bcbc2e035cbeadf8a","bdp_rd","Tue Mar 28 2023 11:49:51 GMT-0400 (Eastern Daylight Time)","207568","","1023","","","","offer","","<div class='trialBorder'><div class='vertical-center'><img style='vertical-align:center; align:center' src=img/fixation3.jpg></div><div class='cl'><div class='vertical-center'>$44<br>with a<br>50% chance</div></div><div class='cr'><div class='vertical-center'>$37<br>for<br>sure</div></div><div class='respDivL'><div class='vertical-center'>(E)</div></div><div class='respDivR'><div class='vertical-center'>(I)</div></div></div>","E","$37","$44","1","37","44","RISKY"
"html-keyboard-response","153","186152","0.0-5.0-3.49","63e7ac6bcbc2e035cbeadf8a","bdp_rd","Tue Mar 28 2023 11:49:51 GMT-0400 (Eastern Daylight Time)","207568","","null","","","","offerFB","","<div class='trialBorder'><div class='vertical-center'><img style='vertical-align:center; align:center' src=img/fixation3.jpg></div><div class='cl'><div class='vertical-center'><font style='color:orange'>$44<br>with a<br>50% chance</font></div></div><div class='cr'><div class='vertical-center'>$37<br>for<br>sure</div></div><div class='respDivL'><div class='vertical-center'><font style='color:orange'>(E)</font></div></div><div class='respDivR'><div class='vertical-center'>(I)</div></div></div>","null","$37","$44","1","37","44",""
"html-keyboard-response","154","186653","0.0-5.0-1.50","63e7ac6bcbc2e035cbeadf8a","bdp_rd","Tue Mar 28 2023 11:49:51 GMT-0400 (Eastern Daylight Time)","207568","","null","","","","FIX","","<div class='trialBorder'><div class='vertical-center'><img style='vertical-align:center; align:center' src=img/fixation3.jpg></div></div>","null","","","","","",""
"html-keyboard-response","155","187792","0.0-5.0-2.50","63e7ac6bcbc2e035cbeadf8a","bdp_rd","Tue Mar 28 2023 11:49:51 GMT-0400 (Eastern Daylight Time)","207568","","1139","","","","offer","","<div class='trialBorder'><div class='vertical-center'><img style='vertical-align:center; align:center' src=img/fixation3.jpg></div><div class='cl'><div class='vertical-center'>$14<br>with a<br>50% chance</div></div><div class='cr'><div class='vertical-center'>$4<br>for<br>sure</div></div><div class='respDivL'><div class='vertical-center'>(E)</div></div><div class='respDivR'><div class='vertical-center'>(I)</div></div></div>","E","$4","$14","1","4","14","RISKY"
"html-keyboard-response","156","188043","0.0-5.0-3.50","63e7ac6bcbc2e035cbeadf8a","bdp_rd","Tue Mar 28 2023 11:49:51 GMT-0400 (Eastern Daylight Time)","207568","","null","","","","offerFB","","<div class='trialBorder'><div class='vertical-center'><img style='vertical-align:center; align:center' src=img/fixation3.jpg></div><div class='cl'><div class='vertical-center'><font style='color:orange'>$14<br>with a<br>50% chance</font></div></div><div class='cr'><div class='vertical-center'>$4<br>for<br>sure</div></div><div class='respDivL'><div class='vertical-center'><font style='color:orange'>(E)</font></div></div><div class='respDivR'><div class='vertical-center'>(I)</div></div></div>","null","$4","$14","1","4","14",""
"html-keyboard-response","157","188543","0.0-5.0-1.51","63e7ac6bcbc2e035cbeadf8a","bdp_rd","Tue Mar 28 2023 11:49:51 GMT-0400 (Eastern Daylight Time)","207568","","null","","","","FIX","","<div class='trialBorder'><div class='vertical-center'><img style='vertical-align:center; align:center' src=img/fixation3.jpg></div></div>","null","","","","","",""
"html-keyboard-response","158","189443","0.0-5.0-2.51","63e7ac6bcbc2e035cbeadf8a","bdp_rd","Tue Mar 28 2023 11:49:51 GMT-0400 (Eastern Daylight Time)","207568","","899","","","","offer","","<div class='trialBorder'><div class='vertical-center'><img style='vertical-align:center; align:center' src=img/fixation3.jpg></div><div class='cl'><div class='vertical-center'>$30<br>with a<br>50% chance</div></div><div class='cr'><div class='vertical-center'>$1<br>for<br>sure</div></div><div class='respDivL'><div class='vertical-center'>(E)</div></div><div class='respDivR'><div class='vertical-center'>(I)</div></div></div>","E","$1","$30","1","1","30","RISKY"
"html-keyboard-response","159","189694","0.0-5.0-3.51","63e7ac6bcbc2e035cbeadf8a","bdp_rd","Tue Mar 28 2023 11:49:51 GMT-0400 (Eastern Daylight Time)","207568","","null","","","","offerFB","","<div class='trialBorder'><div class='vertical-center'><img style='vertical-align:center; align:center' src=img/fixation3.jpg></div><div class='cl'><div class='vertical-center'><font style='color:orange'>$30<br>with a<br>50% chance</font></div></div><div class='cr'><div class='vertical-center'>$1<br>for<br>sure</div></div><div class='respDivL'><div class='vertical-center'><font style='color:orange'>(E)</font></div></div><div class='respDivR'><div class='vertical-center'>(I)</div></div></div>","null","$1","$30","1","1","30",""
"html-keyboard-response","160","190195","0.0-5.0-1.52","63e7ac6bcbc2e035cbeadf8a","bdp_rd","Tue Mar 28 2023 11:49:51 GMT-0400 (Eastern Daylight Time)","207568","","null","","","","FIX","","<div class='trialBorder'><div class='vertical-center'><img style='vertical-align:center; align:center' src=img/fixation3.jpg></div></div>","null","","","","","",""
"html-keyboard-response","161","191373","0.0-5.0-2.52","63e7ac6bcbc2e035cbeadf8a","bdp_rd","Tue Mar 28 2023 11:49:51 GMT-0400 (Eastern Daylight Time)","207568","","1177","","","","offer","","<div class='trialBorder'><div class='vertical-center'><img style='vertical-align:center; align:center' src=img/fixation3.jpg></div><div class='cl'><div class='vertical-center'>$95<br>with a<br>50% chance</div></div><div class='cr'><div class='vertical-center'>$40<br>for<br>sure</div></div><div class='respDivL'><div class='vertical-center'>(E)</div></div><div class='respDivR'><div class='vertical-center'>(I)</div></div></div>","E","$40","$95","1","40","95","RISKY"
"html-keyboard-response","162","191623","0.0-5.0-3.52","63e7ac6bcbc2e035cbeadf8a","bdp_rd","Tue Mar 28 2023 11:49:51 GMT-0400 (Eastern Daylight Time)","207568","","null","","","","offerFB","","<div class='trialBorder'><div class='vertical-center'><img style='vertical-align:center; align:center' src=img/fixation3.jpg></div><div class='cl'><div class='vertical-center'><font style='color:orange'>$95<br>with a<br>50% chance</font></div></div><div class='cr'><div class='vertical-center'>$40<br>for<br>sure</div></div><div class='respDivL'><div class='vertical-center'><font style='color:orange'>(E)</font></div></div><div class='respDivR'><div class='vertical-center'>(I)</div></div></div>","null","$40","$95","1","40","95",""
"html-keyboard-response","163","192125","0.0-5.0-1.53","63e7ac6bcbc2e035cbeadf8a","bdp_rd","Tue Mar 28 2023 11:49:51 GMT-0400 (Eastern Daylight Time)","207568","","null","","","","FIX","","<div class='trialBorder'><div class='vertical-center'><img style='vertical-align:center; align:center' src=img/fixation3.jpg></div></div>","null","","","","","",""
"html-keyboard-response","164","192978","0.0-5.0-2.53","63e7ac6bcbc2e035cbeadf8a","bdp_rd","Tue Mar 28 2023 11:49:51 GMT-0400 (Eastern Daylight Time)","207568","","853","","","","offer","","<div class='trialBorder'><div class='vertical-center'><img style='vertical-align:center; align:center' src=img/fixation3.jpg></div><div class='cl'><div class='vertical-center'>$9<br>for<br>sure</div></div><div class='cr'><div class='vertical-center'>$32<br>with a<br>50% chance</div></div><div class='respDivL'><div class='vertical-center'>(E)</div></div><div class='respDivR'><div class='vertical-center'>(I)</div></div></div>","I","$9","$32","0","9","32","RISKY"
"html-keyboard-response","165","193229","0.0-5.0-3.53","63e7ac6bcbc2e035cbeadf8a","bdp_rd","Tue Mar 28 2023 11:49:51 GMT-0400 (Eastern Daylight Time)","207568","","null","","","","offerFB","","<div class='trialBorder'><div class='vertical-center'><img style='vertical-align:center; align:center' src=img/fixation3.jpg></div><div class='cl'><div class='vertical-center'>$9<br>for<br>sure</div></div><div class='cr'><div class='vertical-center'><font style='color:orange'>$32<br>with a<br>50% chance</font></div></div><div class='respDivL'><div class='vertical-center'>(E)</div></div><div class='respDivR'><div class='vertical-center'><font style='color:orange'>(I)</font></div></div></div>","null","$9","$32","0","9","32",""
"html-keyboard-response","166","193730","0.0-5.0-1.54","63e7ac6bcbc2e035cbeadf8a","bdp_rd","Tue Mar 28 2023 11:49:51 GMT-0400 (Eastern Daylight Time)","207568","","null","","","","FIX","","<div class='trialBorder'><div class='vertical-center'><img style='vertical-align:center; align:center' src=img/fixation3.jpg></div></div>","null","","","","","",""
"html-keyboard-response","167","194577","0.0-5.0-2.54","63e7ac6bcbc2e035cbeadf8a","bdp_rd","Tue Mar 28 2023 11:49:51 GMT-0400 (Eastern Daylight Time)","207568","","846","","","","offer","","<div class='trialBorder'><div class='vertical-center'><img style='vertical-align:center; align:center' src=img/fixation3.jpg></div><div class='cl'><div class='vertical-center'>$5<br>for<br>sure</div></div><div class='cr'><div class='vertical-center'>$16<br>with a<br>50% chance</div></div><div class='respDivL'><div class='vertical-center'>(E)</div></div><div class='respDivR'><div class='vertical-center'>(I)</div></div></div>","I","$5","$16","0","5","16","RISKY"
"html-keyboard-response","168","194828","0.0-5.0-3.54","63e7ac6bcbc2e035cbeadf8a","bdp_rd","Tue Mar 28 2023 11:49:51 GMT-0400 (Eastern Daylight Time)","207568","","null","","","","offerFB","","<div class='trialBorder'><div class='vertical-center'><img style='vertical-align:center; align:center' src=img/fixation3.jpg></div><div class='cl'><div class='vertical-center'>$5<br>for<br>sure</div></div><div class='cr'><div class='vertical-center'><font style='color:orange'>$16<br>with a<br>50% chance</font></div></div><div class='respDivL'><div class='vertical-center'>(E)</div></div><div class='respDivR'><div class='vertical-center'><font style='color:orange'>(I)</font></div></div></div>","null","$5","$16","0","5","16",""
"html-keyboard-response","169","195328","0.0-5.0-1.55","63e7ac6bcbc2e035cbeadf8a","bdp_rd","Tue Mar 28 2023 11:49:51 GMT-0400 (Eastern Daylight Time)","207568","","null","","","","FIX","","<div class='trialBorder'><div class='vertical-center'><img style='vertical-align:center; align:center' src=img/fixation3.jpg></div></div>","null","","","","","",""
"html-keyboard-response","170","196318","0.0-5.0-2.55","63e7ac6bcbc2e035cbeadf8a","bdp_rd","Tue Mar 28 2023 11:49:51 GMT-0400 (Eastern Daylight Time)","207568","","989","","","","offer","","<div class='trialBorder'><div class='vertical-center'><img style='vertical-align:center; align:center' src=img/fixation3.jpg></div><div class='cl'><div class='vertical-center'>$40<br>with a<br>50% chance</div></div><div class='cr'><div class='vertical-center'>$10<br>for<br>sure</div></div><div class='respDivL'><div class='vertical-center'>(E)</div></div><div class='respDivR'><div class='vertical-center'>(I)</div></div></div>","E","$10","$40","1","10","40","RISKY"
"html-keyboard-response","171","196568","0.0-5.0-3.55","63e7ac6bcbc2e035cbeadf8a","bdp_rd","Tue Mar 28 2023 11:49:51 GMT-0400 (Eastern Daylight Time)","207568","","null","","","","offerFB","","<div class='trialBorder'><div class='vertical-center'><img style='vertical-align:center; align:center' src=img/fixation3.jpg></div><div class='cl'><div class='vertical-center'><font style='color:orange'>$40<br>with a<br>50% chance</font></div></div><div class='cr'><div class='vertical-center'>$10<br>for<br>sure</div></div><div class='respDivL'><div class='vertical-center'><font style='color:orange'>(E)</font></div></div><div class='respDivR'><div class='vertical-center'>(I)</div></div></div>","null","$10","$40","1","10","40",""
"html-keyboard-response","172","197069","0.0-5.0-1.56","63e7ac6bcbc2e035cbeadf8a","bdp_rd","Tue Mar 28 2023 11:49:51 GMT-0400 (Eastern Daylight Time)","207568","","null","","","","FIX","","<div class='trialBorder'><div class='vertical-center'><img style='vertical-align:center; align:center' src=img/fixation3.jpg></div></div>","null","","","","","",""
"html-keyboard-response","173","198621","0.0-5.0-2.56","63e7ac6bcbc2e035cbeadf8a","bdp_rd","Tue Mar 28 2023 11:49:51 GMT-0400 (Eastern Daylight Time)","207568","","1550","","","","offer","","<div class='trialBorder'><div class='vertical-center'><img style='vertical-align:center; align:center' src=img/fixation3.jpg></div><div class='cl'><div class='vertical-center'>$34<br>for<br>sure</div></div><div class='cr'><div class='vertical-center'>$48<br>with a<br>50% chance</div></div><div class='respDivL'><div class='vertical-center'>(E)</div></div><div class='respDivR'><div class='vertical-center'>(I)</div></div></div>","I","$34","$48","0","34","48","RISKY"
