"trial_type","trial_index","time_elapsed","internal_node_id","subject_id","task","startTime","totalTime","view_history","rt","event","trial","time","trialtype","success","stimulus","key_press","sureOffer","riskyOffer","riskyLeft","sureAmt","riskyAmt","chosen"
"pavlovia","0","1","0.0-0.0","63d85999228b7d6b636dd96c","bdp_rd","Mon Mar 27 2023 12:02:04 GMT-0500 (Central Daylight Time)","188226","","","","","","","","","","","","","","",""
"instructions","1","885","0.0-1.0","63d85999228b7d6b636dd96c","bdp_rd","Mon Mar 27 2023 12:02:04 GMT-0500 (Central Daylight Time)","188226","[{""page_index"":0,""viewing_time"":883}]","883","","","","","","","","","","","","",""
"","","","","63d85999228b7d6b636dd96c","bdp_rd","Mon Mar 27 2023 12:02:04 GMT-0500 (Central Daylight Time)","188226","","","fullscreenenter","2","2765","fullscreenenter","","","","","","","","",""
"fullscreen","2","3757","0.0-2.0","63d85999228b7d6b636dd96c","bdp_rd","Mon Mar 27 2023 12:02:04 GMT-0500 (Central Daylight Time)","188226","","","","","","","true","","","","","","","",""
"instructions","3","113324","0.0-4.0","63d85999228b7d6b636dd96c","bdp_rd","Mon Mar 27 2023 12:02:04 GMT-0500 (Central Daylight Time)","188226","[{""page_index"":0,""viewing_time"":4023},{""page_index"":1,""viewing_time"":104328},{""page_index"":2,""viewing_time"":1216}]","109567","","","","","","","","","","","","",""
"html-keyboard-response","4","113825","0.0-5.0-1.0","63d85999228b7d6b636dd96c","bdp_rd","Mon Mar 27 2023 12:02:04 GMT-0500 (Central Daylight Time)","188226","","null","","","","FIX","","<div class='trialBorder'><div class='vertical-center'><img style='vertical-align:center; align:center' src=img/fixation3.jpg></div></div>","null","","","","","",""
"html-keyboard-response","5","115620","0.0-5.0-2.0","63d85999228b7d6b636dd96c","bdp_rd","Mon Mar 27 2023 12:02:04 GMT-0500 (Central Daylight Time)","188226","","1794","","","","offer","","<div class='trialBorder'><div class='vertical-center'><img style='vertical-align:center; align:center' src=img/fixation3.jpg></div><div class='cl'><div class='vertical-center'>$47<br>with a<br>50% chance</div></div><div class='cr'><div class='vertical-center'>$27<br>for<br>sure</div></div><div class='respDivL'><div class='vertical-center'>(E)</div></div><div class='respDivR'><div class='vertical-center'>(I)</div></div></div>","E","$27","$47","1","27","47","RISKY"
"html-keyboard-response","6","115872","0.0-5.0-3.0","63d85999228b7d6b636dd96c","bdp_rd","Mon Mar 27 2023 12:02:04 GMT-0500 (Central Daylight Time)","188226","","null","","","","offerFB","","<div class='trialBorder'><div class='vertical-center'><img style='vertical-align:center; align:center' src=img/fixation3.jpg></div><div class='cl'><div class='vertical-center'><font style='color:orange'>$47<br>with a<br>50% chance</font></div></div><div class='cr'><div class='vertical-center'>$27<br>for<br>sure</div></div><div class='respDivL'><div class='vertical-center'><font style='color:orange'>(E)</font></div></div><div class='respDivR'><div class='vertical-center'>(I)</div></div></div>","null","$27","$47","1","27","47",""
"html-keyboard-response","7","116373","0.0-5.0-1.1","63d85999228b7d6b636dd96c","bdp_rd","Mon Mar 27 2023 12:02:04 GMT-0500 (Central Daylight Time)","188226","","null","","","","FIX","","<div class='trialBorder'><div class='vertical-center'><img style='vertical-align:center; align:center' src=img/fixation3.jpg></div></div>","null","","","","","",""
"html-keyboard-response","8","116812","0.0-5.0-2.1","63d85999228b7d6b636dd96c","bdp_rd","Mon Mar 27 2023 12:02:04 GMT-0500 (Central Daylight Time)","188226","","438","","","","offer","","<div class='trialBorder'><div class='vertical-center'><img style='vertical-align:center; align:center' src=img/fixation3.jpg></div><div class='cl'><div class='vertical-center'>$54<br>with a<br>50% chance</div></div><div class='cr'><div class='vertical-center'>$25<br>for<br>sure</div></div><div class='respDivL'><div class='vertical-center'>(E)</div></div><div class='respDivR'><div class='vertical-center'>(I)</div></div></div>","E","$25","$54","1","25","54","RISKY"
"html-keyboard-response","9","117064","0.0-5.0-3.1","63d85999228b7d6b636dd96c","bdp_rd","Mon Mar 27 2023 12:02:04 GMT-0500 (Central Daylight Time)","188226","","null","","","","offerFB","","<div class='trialBorder'><div class='vertical-center'><img style='vertical-align:center; align:center' src=img/fixation3.jpg></div><div class='cl'><div class='vertical-center'><font style='color:orange'>$54<br>with a<br>50% chance</font></div></div><div class='cr'><div class='vertical-center'>$25<br>for<br>sure</div></div><div class='respDivL'><div class='vertical-center'><font style='color:orange'>(E)</font></div></div><div class='respDivR'><div class='vertical-center'>(I)</div></div></div>","null","$25","$54","1","25","54",""
"html-keyboard-response","10","117566","0.0-5.0-1.2","63d85999228b7d6b636dd96c","bdp_rd","Mon Mar 27 2023 12:02:04 GMT-0500 (Central Daylight Time)","188226","","null","","","","FIX","","<div class='trialBorder'><div class='vertical-center'><img style='vertical-align:center; align:center' src=img/fixation3.jpg></div></div>","null","","","","","",""
"html-keyboard-response","11","118044","0.0-5.0-2.2","63d85999228b7d6b636dd96c","bdp_rd","Mon Mar 27 2023 12:02:04 GMT-0500 (Central Daylight Time)","188226","","478","","","","offer","","<div class='trialBorder'><div class='vertical-center'><img style='vertical-align:center; align:center' src=img/fixation3.jpg></div><div class='cl'><div class='vertical-center'>$15<br>for<br>sure</div></div><div class='cr'><div class='vertical-center'>$34<br>with a<br>50% chance</div></div><div class='respDivL'><div class='vertical-center'>(E)</div></div><div class='respDivR'><div class='vertical-center'>(I)</div></div></div>","I","$15","$34","0","15","34","RISKY"
"html-keyboard-response","12","118296","0.0-5.0-3.2","63d85999228b7d6b636dd96c","bdp_rd","Mon Mar 27 2023 12:02:04 GMT-0500 (Central Daylight Time)","188226","","null","","","","offerFB","","<div class='trialBorder'><div class='vertical-center'><img style='vertical-align:center; align:center' src=img/fixation3.jpg></div><div class='cl'><div class='vertical-center'>$15<br>for<br>sure</div></div><div class='cr'><div class='vertical-center'><font style='color:orange'>$34<br>with a<br>50% chance</font></div></div><div class='respDivL'><div class='vertical-center'>(E)</div></div><div class='respDivR'><div class='vertical-center'><font style='color:orange'>(I)</font></div></div></div>","null","$15","$34","0","15","34",""
"html-keyboard-response","13","118797","0.0-5.0-1.3","63d85999228b7d6b636dd96c","bdp_rd","Mon Mar 27 2023 12:02:04 GMT-0500 (Central Daylight Time)","188226","","null","","","","FIX","","<div class='trialBorder'><div class='vertical-center'><img style='vertical-align:center; align:center' src=img/fixation3.jpg></div></div>","null","","","","","",""
"html-keyboard-response","14","119420","0.0-5.0-2.3","63d85999228b7d6b636dd96c","bdp_rd","Mon Mar 27 2023 12:02:04 GMT-0500 (Central Daylight Time)","188226","","622","","","","offer","","<div class='trialBorder'><div class='vertical-center'><img style='vertical-align:center; align:center' src=img/fixation3.jpg></div><div class='cl'><div class='vertical-center'>$3<br>for<br>sure</div></div><div class='cr'><div class='vertical-center'>$17<br>with a<br>50% chance</div></div><div class='respDivL'><div class='vertical-center'>(E)</div></div><div class='respDivR'><div class='vertical-center'>(I)</div></div></div>","I","$3","$17","0","3","17","RISKY"
"html-keyboard-response","15","119673","0.0-5.0-3.3","63d85999228b7d6b636dd96c","bdp_rd","Mon Mar 27 2023 12:02:04 GMT-0500 (Central Daylight Time)","188226","","null","","","","offerFB","","<div class='trialBorder'><div class='vertical-center'><img style='vertical-align:center; align:center' src=img/fixation3.jpg></div><div class='cl'><div class='vertical-center'>$3<br>for<br>sure</div></div><div class='cr'><div class='vertical-center'><font style='color:orange'>$17<br>with a<br>50% chance</font></div></div><div class='respDivL'><div class='vertical-center'>(E)</div></div><div class='respDivR'><div class='vertical-center'><font style='color:orange'>(I)</font></div></div></div>","null","$3","$17","0","3","17",""
"html-keyboard-response","16","120174","0.0-5.0-1.4","63d85999228b7d6b636dd96c","bdp_rd","Mon Mar 27 2023 12:02:04 GMT-0500 (Central Daylight Time)","188226","","null","","","","FIX","","<div class='trialBorder'><div class='vertical-center'><img style='vertical-align:center; align:center' src=img/fixation3.jpg></div></div>","null","","","","","",""
"html-keyboard-response","17","120620","0.0-5.0-2.4","63d85999228b7d6b636dd96c","bdp_rd","Mon Mar 27 2023 12:02:04 GMT-0500 (Central Daylight Time)","188226","","446","","","","offer","","<div class='trialBorder'><div class='vertical-center'><img style='vertical-align:center; align:center' src=img/fixation3.jpg></div><div class='cl'><div class='vertical-center'>$80<br>with a<br>50% chance</div></div><div class='cr'><div class='vertical-center'>$20<br>for<br>sure</div></div><div class='respDivL'><div class='vertical-center'>(E)</div></div><div class='respDivR'><div class='vertical-center'>(I)</div></div></div>","E","$20","$80","1","20","80","RISKY"
"html-keyboard-response","18","120872","0.0-5.0-3.4","63d85999228b7d6b636dd96c","bdp_rd","Mon Mar 27 2023 12:02:04 GMT-0500 (Central Daylight Time)","188226","","null","","","","offerFB","","<div class='trialBorder'><div class='vertical-center'><img style='vertical-align:center; align:center' src=img/fixation3.jpg></div><div class='cl'><div class='vertical-center'><font style='color:orange'>$80<br>with a<br>50% chance</font></div></div><div class='cr'><div class='vertical-center'>$20<br>for<br>sure</div></div><div class='respDivL'><div class='vertical-center'><font style='color:orange'>(E)</font></div></div><div class='respDivR'><div class='vertical-center'>(I)</div></div></div>","null","$20","$80","1","20","80",""
"html-keyboard-response","19","121374","0.0-5.0-1.5","63d85999228b7d6b636dd96c","bdp_rd","Mon Mar 27 2023 12:02:04 GMT-0500 (Central Daylight Time)","188226","","null","","","","FIX","","<div class='trialBorder'><div class='vertical-center'><img style='vertical-align:center; align:center' src=img/fixation3.jpg></div></div>","null","","","","","",""
"html-keyboard-response","20","121764","0.0-5.0-2.5","63d85999228b7d6b636dd96c","bdp_rd","Mon Mar 27 2023 12:02:04 GMT-0500 (Central Daylight Time)","188226","","390","","","","offer","","<div class='trialBorder'><div class='vertical-center'><img style='vertical-align:center; align:center' src=img/fixation3.jpg></div><div class='cl'><div class='vertical-center'>$22<br>for<br>sure</div></div><div class='cr'><div class='vertical-center'>$42<br>with a<br>50% chance</div></div><div class='respDivL'><div class='vertical-center'>(E)</div></div><div class='respDivR'><div class='vertical-center'>(I)</div></div></div>","I","$22","$42","0","22","42","RISKY"
"html-keyboard-response","21","122016","0.0-5.0-3.5","63d85999228b7d6b636dd96c","bdp_rd","Mon Mar 27 2023 12:02:04 GMT-0500 (Central Daylight Time)","188226","","null","","","","offerFB","","<div class='trialBorder'><div class='vertical-center'><img style='vertical-align:center; align:center' src=img/fixation3.jpg></div><div class='cl'><div class='vertical-center'>$22<br>for<br>sure</div></div><div class='cr'><div class='vertical-center'><font style='color:orange'>$42<br>with a<br>50% chance</font></div></div><div class='respDivL'><div class='vertical-center'>(E)</div></div><div class='respDivR'><div class='vertical-center'><font style='color:orange'>(I)</font></div></div></div>","null","$22","$42","0","22","42",""
"html-keyboard-response","22","122517","0.0-5.0-1.6","63d85999228b7d6b636dd96c","bdp_rd","Mon Mar 27 2023 12:02:04 GMT-0500 (Central Daylight Time)","188226","","null","","","","FIX","","<div class='trialBorder'><div class='vertical-center'><img style='vertical-align:center; align:center' src=img/fixation3.jpg></div></div>","null","","","","","",""
"html-keyboard-response","23","122892","0.0-5.0-2.6","63d85999228b7d6b636dd96c","bdp_rd","Mon Mar 27 2023 12:02:04 GMT-0500 (Central Daylight Time)","188226","","374","","","","offer","","<div class='trialBorder'><div class='vertical-center'><img style='vertical-align:center; align:center' src=img/fixation3.jpg></div><div class='cl'><div class='vertical-center'>$48<br>with a<br>50% chance</div></div><div class='cr'><div class='vertical-center'>$34<br>for<br>sure</div></div><div class='respDivL'><div class='vertical-center'>(E)</div></div><div class='respDivR'><div class='vertical-center'>(I)</div></div></div>","E","$34","$48","1","34","48","RISKY"
"html-keyboard-response","24","123144","0.0-5.0-3.6","63d85999228b7d6b636dd96c","bdp_rd","Mon Mar 27 2023 12:02:04 GMT-0500 (Central Daylight Time)","188226","","null","","","","offerFB","","<div class='trialBorder'><div class='vertical-center'><img style='vertical-align:center; align:center' src=img/fixation3.jpg></div><div class='cl'><div class='vertical-center'><font style='color:orange'>$48<br>with a<br>50% chance</font></div></div><div class='cr'><div class='vertical-center'>$34<br>for<br>sure</div></div><div class='respDivL'><div class='vertical-center'><font style='color:orange'>(E)</font></div></div><div class='respDivR'><div class='vertical-center'>(I)</div></div></div>","null","$34","$48","1","34","48",""
"html-keyboard-response","25","123646","0.0-5.0-1.7","63d85999228b7d6b636dd96c","bdp_rd","Mon Mar 27 2023 12:02:04 GMT-0500 (Central Daylight Time)","188226","","null","","","","FIX","","<div class='trialBorder'><div class='vertical-center'><img style='vertical-align:center; align:center' src=img/fixation3.jpg></div></div>","null","","","","","",""
"html-keyboard-response","26","124004","0.0-5.0-2.7","63d85999228b7d6b636dd96c","bdp_rd","Mon Mar 27 2023 12:02:04 GMT-0500 (Central Daylight Time)","188226","","358","","","","offer","","<div class='trialBorder'><div class='vertical-center'><img style='vertical-align:center; align:center' src=img/fixation3.jpg></div><div class='cl'><div class='vertical-center'>$100<br>with a<br>50% chance</div></div><div class='cr'><div class='vertical-center'>$63<br>for<br>sure</div></div><div class='respDivL'><div class='vertical-center'>(E)</div></div><div class='respDivR'><div class='vertical-center'>(I)</div></div></div>","E","$63","$100","1","63","10","RISKY"
"html-keyboard-response","27","124256","0.0-5.0-3.7","63d85999228b7d6b636dd96c","bdp_rd","Mon Mar 27 2023 12:02:04 GMT-0500 (Central Daylight Time)","188226","","null","","","","offerFB","","<div class='trialBorder'><div class='vertical-center'><img style='vertical-align:center; align:center' src=img/fixation3.jpg></div><div class='cl'><div class='vertical-center'><font style='color:orange'>$100<br>with a<br>50% chance</font></div></div><div class='cr'><div class='vertical-center'>$63<br>for<br>sure</div></div><div class='respDivL'><div class='vertical-center'><font style='color:orange'>(E)</font></div></div><div class='respDivR'><div class='vertical-center'>(I)</div></div></div>","null","$63","$100","1","63","10",""
"html-keyboard-response","28","124756","0.0-5.0-1.8","63d85999228b7d6b636dd96c","bdp_rd","Mon Mar 27 2023 12:02:04 GMT-0500 (Central Daylight Time)","188226","","null","","","","FIX","","<div class='trialBorder'><div class='vertical-center'><img style='vertical-align:center; align:center' src=img/fixation3.jpg></div></div>","null","","","","","",""
"html-keyboard-response","29","125124","0.0-5.0-2.8","63d85999228b7d6b636dd96c","bdp_rd","Mon Mar 27 2023 12:02:04 GMT-0500 (Central Daylight Time)","188226","","367","","","","offer","","<div class='trialBorder'><div class='vertical-center'><img style='vertical-align:center; align:center' src=img/fixation3.jpg></div><div class='cl'><div class='vertical-center'>$5<br>for<br>sure</div></div><div class='cr'><div class='vertical-center'>$16<br>with a<br>50% chance</div></div><div class='respDivL'><div class='vertical-center'>(E)</div></div><div class='respDivR'><div class='vertical-center'>(I)</div></div></div>","I","$5","$16","0","5","16","RISKY"
"html-keyboard-response","30","125376","0.0-5.0-3.8","63d85999228b7d6b636dd96c","bdp_rd","Mon Mar 27 2023 12:02:04 GMT-0500 (Central Daylight Time)","188226","","null","","","","offerFB","","<div class='trialBorder'><div class='vertical-center'><img style='vertical-align:center; align:center' src=img/fixation3.jpg></div><div class='cl'><div class='vertical-center'>$5<br>for<br>sure</div></div><div class='cr'><div class='vertical-center'><font style='color:orange'>$16<br>with a<br>50% chance</font></div></div><div class='respDivL'><div class='vertical-center'>(E)</div></div><div class='respDivR'><div class='vertical-center'><font style='color:orange'>(I)</font></div></div></div>","null","$5","$16","0","5","16",""
"html-keyboard-response","31","125878","0.0-5.0-1.9","63d85999228b7d6b636dd96c","bdp_rd","Mon Mar 27 2023 12:02:04 GMT-0500 (Central Daylight Time)","188226","","null","","","","FIX","","<div class='trialBorder'><div class='vertical-center'><img style='vertical-align:center; align:center' src=img/fixation3.jpg></div></div>","null","","","","","",""
"html-keyboard-response","32","126268","0.0-5.0-2.9","63d85999228b7d6b636dd96c","bdp_rd","Mon Mar 27 2023 12:02:04 GMT-0500 (Central Daylight Time)","188226","","390","","","","offer","","<div class='trialBorder'><div class='vertical-center'><img style='vertical-align:center; align:center' src=img/fixation3.jpg></div><div class='cl'><div class='vertical-center'>$6<br>for<br>sure</div></div><div class='cr'><div class='vertical-center'>$13<br>with a<br>50% chance</div></div><div class='respDivL'><div class='vertical-center'>(E)</div></div><div class='respDivR'><div class='vertical-center'>(I)</div></div></div>","I","$6","$13","0","6","13","RISKY"
"html-keyboard-response","33","126520","0.0-5.0-3.9","63d85999228b7d6b636dd96c","bdp_rd","Mon Mar 27 2023 12:02:04 GMT-0500 (Central Daylight Time)","188226","","null","","","","offerFB","","<div class='trialBorder'><div class='vertical-center'><img style='vertical-align:center; align:center' src=img/fixation3.jpg></div><div class='cl'><div class='vertical-center'>$6<br>for<br>sure</div></div><div class='cr'><div class='vertical-center'><font style='color:orange'>$13<br>with a<br>50% chance</font></div></div><div class='respDivL'><div class='vertical-center'>(E)</div></div><div class='respDivR'><div class='vertical-center'><font style='color:orange'>(I)</font></div></div></div>","null","$6","$13","0","6","13",""
"html-keyboard-response","34","127021","0.0-5.0-1.10","63d85999228b7d6b636dd96c","bdp_rd","Mon Mar 27 2023 12:02:04 GMT-0500 (Central Daylight Time)","188226","","null","","","","FIX","","<div class='trialBorder'><div class='vertical-center'><img style='vertical-align:center; align:center' src=img/fixation3.jpg></div></div>","null","","","","","",""
"html-keyboard-response","35","127484","0.0-5.0-2.10","63d85999228b7d6b636dd96c","bdp_rd","Mon Mar 27 2023 12:02:04 GMT-0500 (Central Daylight Time)","188226","","462","","","","offer","","<div class='trialBorder'><div class='vertical-center'><img style='vertical-align:center; align:center' src=img/fixation3.jpg></div><div class='cl'><div class='vertical-center'>$24<br>for<br>sure</div></div><div class='cr'><div class='vertical-center'>$70<br>with a<br>50% chance</div></div><div class='respDivL'><div class='vertical-center'>(E)</div></div><div class='respDivR'><div class='vertical-center'>(I)</div></div></div>","I","$24","$70","0","24","70","RISKY"
"html-keyboard-response","36","127736","0.0-5.0-3.10","63d85999228b7d6b636dd96c","bdp_rd","Mon Mar 27 2023 12:02:04 GMT-0500 (Central Daylight Time)","188226","","null","","","","offerFB","","<div class='trialBorder'><div class='vertical-center'><img style='vertical-align:center; align:center' src=img/fixation3.jpg></div><div class='cl'><div class='vertical-center'>$24<br>for<br>sure</div></div><div class='cr'><div class='vertical-center'><font style='color:orange'>$70<br>with a<br>50% chance</font></div></div><div class='respDivL'><div class='vertical-center'>(E)</div></div><div class='respDivR'><div class='vertical-center'><font style='color:orange'>(I)</font></div></div></div>","null","$24","$70","0","24","70",""
"html-keyboard-response","37","128237","0.0-5.0-1.11","63d85999228b7d6b636dd96c","bdp_rd","Mon Mar 27 2023 12:02:04 GMT-0500 (Central Daylight Time)","188226","","null","","","","FIX","","<div class='trialBorder'><div class='vertical-center'><img style='vertical-align:center; align:center' src=img/fixation3.jpg></div></div>","null","","","","","",""
"html-keyboard-response","38","128596","0.0-5.0-2.11","63d85999228b7d6b636dd96c","bdp_rd","Mon Mar 27 2023 12:02:04 GMT-0500 (Central Daylight Time)","188226","","359","","","","offer","","<div class='trialBorder'><div class='vertical-center'><img style='vertical-align:center; align:center' src=img/fixation3.jpg></div><div class='cl'><div class='vertical-center'>$19<br>with a<br>50% chance</div></div><div class='cr'><div class='vertical-center'>$10<br>for<br>sure</div></div><div class='respDivL'><div class='vertical-center'>(E)</div></div><div class='respDivR'><div class='vertical-center'>(I)</div></div></div>","E","$10","$19","1","10","19","RISKY"
"html-keyboard-response","39","128849","0.0-5.0-3.11","63d85999228b7d6b636dd96c","bdp_rd","Mon Mar 27 2023 12:02:04 GMT-0500 (Central Daylight Time)","188226","","null","","","","offerFB","","<div class='trialBorder'><div class='vertical-center'><img style='vertical-align:center; align:center' src=img/fixation3.jpg></div><div class='cl'><div class='vertical-center'><font style='color:orange'>$19<br>with a<br>50% chance</font></div></div><div class='cr'><div class='vertical-center'>$10<br>for<br>sure</div></div><div class='respDivL'><div class='vertical-center'><font style='color:orange'>(E)</font></div></div><div class='respDivR'><div class='vertical-center'>(I)</div></div></div>","null","$10","$19","1","10","19",""
"html-keyboard-response","40","129351","0.0-5.0-1.12","63d85999228b7d6b636dd96c","bdp_rd","Mon Mar 27 2023 12:02:04 GMT-0500 (Central Daylight Time)","188226","","null","","","","FIX","","<div class='trialBorder'><div class='vertical-center'><img style='vertical-align:center; align:center' src=img/fixation3.jpg></div></div>","null","","","","","",""
"html-keyboard-response","41","129692","0.0-5.0-2.12","63d85999228b7d6b636dd96c","bdp_rd","Mon Mar 27 2023 12:02:04 GMT-0500 (Central Daylight Time)","188226","","341","","","","offer","","<div class='trialBorder'><div class='vertical-center'><img style='vertical-align:center; align:center' src=img/fixation3.jpg></div><div class='cl'><div class='vertical-center'>$95<br>with a<br>50% chance</div></div><div class='cr'><div class='vertical-center'>$40<br>for<br>sure</div></div><div class='respDivL'><div class='vertical-center'>(E)</div></div><div class='respDivR'><div class='vertical-center'>(I)</div></div></div>","E","$40","$95","1","40","95","RISKY"
"html-keyboard-response","42","129944","0.0-5.0-3.12","63d85999228b7d6b636dd96c","bdp_rd","Mon Mar 27 2023 12:02:04 GMT-0500 (Central Daylight Time)","188226","","null","","","","offerFB","","<div class='trialBorder'><div class='vertical-center'><img style='vertical-align:center; align:center' src=img/fixation3.jpg></div><div class='cl'><div class='vertical-center'><font style='color:orange'>$95<br>with a<br>50% chance</font></div></div><div class='cr'><div class='vertical-center'>$40<br>for<br>sure</div></div><div class='respDivL'><div class='vertical-center'><font style='color:orange'>(E)</font></div></div><div class='respDivR'><div class='vertical-center'>(I)</div></div></div>","null","$40","$95","1","40","95",""
"html-keyboard-response","43","130446","0.0-5.0-1.13","63d85999228b7d6b636dd96c","bdp_rd","Mon Mar 27 2023 12:02:04 GMT-0500 (Central Daylight Time)","188226","","null","","","","FIX","","<div class='trialBorder'><div class='vertical-center'><img style='vertical-align:center; align:center' src=img/fixation3.jpg></div></div>","null","","","","","",""
"html-keyboard-response","44","130780","0.0-5.0-2.13","63d85999228b7d6b636dd96c","bdp_rd","Mon Mar 27 2023 12:02:04 GMT-0500 (Central Daylight Time)","188226","","334","","","","offer","","<div class='trialBorder'><div class='vertical-center'><img style='vertical-align:center; align:center' src=img/fixation3.jpg></div><div class='cl'><div class='vertical-center'>$29<br>with a<br>50% chance</div></div><div class='cr'><div class='vertical-center'>$14<br>for<br>sure</div></div><div class='respDivL'><div class='vertical-center'>(E)</div></div><div class='respDivR'><div class='vertical-center'>(I)</div></div></div>","E","$14","$29","1","14","29","RISKY"
"html-keyboard-response","45","131032","0.0-5.0-3.13","63d85999228b7d6b636dd96c","bdp_rd","Mon Mar 27 2023 12:02:04 GMT-0500 (Central Daylight Time)","188226","","null","","","","offerFB","","<div class='trialBorder'><div class='vertical-center'><img style='vertical-align:center; align:center' src=img/fixation3.jpg></div><div class='cl'><div class='vertical-center'><font style='color:orange'>$29<br>with a<br>50% chance</font></div></div><div class='cr'><div class='vertical-center'>$14<br>for<br>sure</div></div><div class='respDivL'><div class='vertical-center'><font style='color:orange'>(E)</font></div></div><div class='respDivR'><div class='vertical-center'>(I)</div></div></div>","null","$14","$29","1","14","29",""
"html-keyboard-response","46","131533","0.0-5.0-1.14","63d85999228b7d6b636dd96c","bdp_rd","Mon Mar 27 2023 12:02:04 GMT-0500 (Central Daylight Time)","188226","","null","","","","FIX","","<div class='trialBorder'><div class='vertical-center'><img style='vertical-align:center; align:center' src=img/fixation3.jpg></div></div>","null","","","","","",""
"html-keyboard-response","47","131852","0.0-5.0-2.14","63d85999228b7d6b636dd96c","bdp_rd","Mon Mar 27 2023 12:02:04 GMT-0500 (Central Daylight Time)","188226","","319","","","","offer","","<div class='trialBorder'><div class='vertical-center'><img style='vertical-align:center; align:center' src=img/fixation3.jpg></div><div class='cl'><div class='vertical-center'>$64<br>with a<br>50% chance</div></div><div class='cr'><div class='vertical-center'>$2<br>for<br>sure</div></div><div class='respDivL'><div class='vertical-center'>(E)</div></div><div class='respDivR'><div class='vertical-center'>(I)</div></div></div>","E","$2","$64","1","2","64","RISKY"
"html-keyboard-response","48","132103","0.0-5.0-3.14","63d85999228b7d6b636dd96c","bdp_rd","Mon Mar 27 2023 12:02:04 GMT-0500 (Central Daylight Time)","188226","","null","","","","offerFB","","<div class='trialBorder'><div class='vertical-center'><img style='vertical-align:center; align:center' src=img/fixation3.jpg></div><div class='cl'><div class='vertical-center'><font style='color:orange'>$64<br>with a<br>50% chance</font></div></div><div class='cr'><div class='vertical-center'>$2<br>for<br>sure</div></div><div class='respDivL'><div class='vertical-center'><font style='color:orange'>(E)</font></div></div><div class='respDivR'><div class='vertical-center'>(I)</div></div></div>","null","$2","$64","1","2","64",""
"html-keyboard-response","49","132603","0.0-5.0-1.15","63d85999228b7d6b636dd96c","bdp_rd","Mon Mar 27 2023 12:02:04 GMT-0500 (Central Daylight Time)","188226","","null","","","","FIX","","<div class='trialBorder'><div class='vertical-center'><img style='vertical-align:center; align:center' src=img/fixation3.jpg></div></div>","null","","","","","",""
"html-keyboard-response","50","132948","0.0-5.0-2.15","63d85999228b7d6b636dd96c","bdp_rd","Mon Mar 27 2023 12:02:04 GMT-0500 (Central Daylight Time)","188226","","344","","","","offer","","<div class='trialBorder'><div class='vertical-center'><img style='vertical-align:center; align:center' src=img/fixation3.jpg></div><div class='cl'><div class='vertical-center'>$38<br>with a<br>50% chance</div></div><div class='cr'><div class='vertical-center'>$16<br>for<br>sure</div></div><div class='respDivL'><div class='vertical-center'>(E)</div></div><div class='respDivR'><div class='vertical-center'>(I)</div></div></div>","E","$16","$38","1","16","38","RISKY"
"html-keyboard-response","51","133200","0.0-5.0-3.15","63d85999228b7d6b636dd96c","bdp_rd","Mon Mar 27 2023 12:02:04 GMT-0500 (Central Daylight Time)","188226","","null","","","","offerFB","","<div class='trialBorder'><div class='vertical-center'><img style='vertical-align:center; align:center' src=img/fixation3.jpg></div><div class='cl'><div class='vertical-center'><font style='color:orange'>$38<br>with a<br>50% chance</font></div></div><div class='cr'><div class='vertical-center'>$16<br>for<br>sure</div></div><div class='respDivL'><div class='vertical-center'><font style='color:orange'>(E)</font></div></div><div class='respDivR'><div class='vertical-center'>(I)</div></div></div>","null","$16","$38","1","16","38",""
"html-keyboard-response","52","133701","0.0-5.0-1.16","63d85999228b7d6b636dd96c","bdp_rd","Mon Mar 27 2023 12:02:04 GMT-0500 (Central Daylight Time)","188226","","null","","","","FIX","","<div class='trialBorder'><div class='vertical-center'><img style='vertical-align:center; align:center' src=img/fixation3.jpg></div></div>","null","","","","","",""
"html-keyboard-response","53","134092","0.0-5.0-2.16","63d85999228b7d6b636dd96c","bdp_rd","Mon Mar 27 2023 12:02:04 GMT-0500 (Central Daylight Time)","188226","","391","","","","offer","","<div class='trialBorder'><div class='vertical-center'><img style='vertical-align:center; align:center' src=img/fixation3.jpg></div><div class='cl'><div class='vertical-center'>$81<br>with a<br>50% chance</div></div><div class='cr'><div class='vertical-center'>$39<br>for<br>sure</div></div><div class='respDivL'><div class='vertical-center'>(E)</div></div><div class='respDivR'><div class='vertical-center'>(I)</div></div></div>","E","$39","$81","1","39","81","RISKY"
"html-keyboard-response","54","134344","0.0-5.0-3.16","63d85999228b7d6b636dd96c","bdp_rd","Mon Mar 27 2023 12:02:04 GMT-0500 (Central Daylight Time)","188226","","null","","","","offerFB","","<div class='trialBorder'><div class='vertical-center'><img style='vertical-align:center; align:center' src=img/fixation3.jpg></div><div class='cl'><div class='vertical-center'><font style='color:orange'>$81<br>with a<br>50% chance</font></div></div><div class='cr'><div class='vertical-center'>$39<br>for<br>sure</div></div><div class='respDivL'><div class='vertical-center'><font style='color:orange'>(E)</font></div></div><div class='respDivR'><div class='vertical-center'>(I)</div></div></div>","null","$39","$81","1","39","81",""
"html-keyboard-response","55","134846","0.0-5.0-1.17","63d85999228b7d6b636dd96c","bdp_rd","Mon Mar 27 2023 12:02:04 GMT-0500 (Central Daylight Time)","188226","","null","","","","FIX","","<div class='trialBorder'><div class='vertical-center'><img style='vertical-align:center; align:center' src=img/fixation3.jpg></div></div>","null","","","","","",""
"html-keyboard-response","56","135188","0.0-5.0-2.17","63d85999228b7d6b636dd96c","bdp_rd","Mon Mar 27 2023 12:02:04 GMT-0500 (Central Daylight Time)","188226","","341","","","","offer","","<div class='trialBorder'><div class='vertical-center'><img style='vertical-align:center; align:center' src=img/fixation3.jpg></div><div class='cl'><div class='vertical-center'>$33<br>with a<br>50% chance</div></div><div class='cr'><div class='vertical-center'>$1<br>for<br>sure</div></div><div class='respDivL'><div class='vertical-center'>(E)</div></div><div class='respDivR'><div class='vertical-center'>(I)</div></div></div>","E","$1","$33","1","1","33","RISKY"
"html-keyboard-response","57","135439","0.0-5.0-3.17","63d85999228b7d6b636dd96c","bdp_rd","Mon Mar 27 2023 12:02:04 GMT-0500 (Central Daylight Time)","188226","","null","","","","offerFB","","<div class='trialBorder'><div class='vertical-center'><img style='vertical-align:center; align:center' src=img/fixation3.jpg></div><div class='cl'><div class='vertical-center'><font style='color:orange'>$33<br>with a<br>50% chance</font></div></div><div class='cr'><div class='vertical-center'>$1<br>for<br>sure</div></div><div class='respDivL'><div class='vertical-center'><font style='color:orange'>(E)</font></div></div><div class='respDivR'><div class='vertical-center'>(I)</div></div></div>","null","$1","$33","1","1","33",""
"html-keyboard-response","58","135941","0.0-5.0-1.18","63d85999228b7d6b636dd96c","bdp_rd","Mon Mar 27 2023 12:02:04 GMT-0500 (Central Daylight Time)","188226","","null","","","","FIX","","<div class='trialBorder'><div class='vertical-center'><img style='vertical-align:center; align:center' src=img/fixation3.jpg></div></div>","null","","","","","",""
"html-keyboard-response","59","136300","0.0-5.0-2.18","63d85999228b7d6b636dd96c","bdp_rd","Mon Mar 27 2023 12:02:04 GMT-0500 (Central Daylight Time)","188226","","359","","","","offer","","<div class='trialBorder'><div class='vertical-center'><img style='vertical-align:center; align:center' src=img/fixation3.jpg></div><div class='cl'><div class='vertical-center'>$18<br>for<br>sure</div></div><div class='cr'><div class='vertical-center'>$39<br>with a<br>50% chance</div></div><div class='respDivL'><div class='vertical-center'>(E)</div></div><div class='respDivR'><div class='vertical-center'>(I)</div></div></div>","I","$18","$39","0","18","39","RISKY"
"html-keyboard-response","60","136551","0.0-5.0-3.18","63d85999228b7d6b636dd96c","bdp_rd","Mon Mar 27 2023 12:02:04 GMT-0500 (Central Daylight Time)","188226","","null","","","","offerFB","","<div class='trialBorder'><div class='vertical-center'><img style='vertical-align:center; align:center' src=img/fixation3.jpg></div><div class='cl'><div class='vertical-center'>$18<br>for<br>sure</div></div><div class='cr'><div class='vertical-center'><font style='color:orange'>$39<br>with a<br>50% chance</font></div></div><div class='respDivL'><div class='vertical-center'>(E)</div></div><div class='respDivR'><div class='vertical-center'><font style='color:orange'>(I)</font></div></div></div>","null","$18","$39","0","18","39",""
"html-keyboard-response","61","137052","0.0-5.0-1.19","63d85999228b7d6b636dd96c","bdp_rd","Mon Mar 27 2023 12:02:04 GMT-0500 (Central Daylight Time)","188226","","null","","","","FIX","","<div class='trialBorder'><div class='vertical-center'><img style='vertical-align:center; align:center' src=img/fixation3.jpg></div></div>","null","","","","","",""
"html-keyboard-response","62","137460","0.0-5.0-2.19","63d85999228b7d6b636dd96c","bdp_rd","Mon Mar 27 2023 12:02:04 GMT-0500 (Central Daylight Time)","188226","","408","","","","offer","","<div class='trialBorder'><div class='vertical-center'><img style='vertical-align:center; align:center' src=img/fixation3.jpg></div><div class='cl'><div class='vertical-center'>$37<br>for<br>sure</div></div><div class='cr'><div class='vertical-center'>$44<br>with a<br>50% chance</div></div><div class='respDivL'><div class='vertical-center'>(E)</div></div><div class='respDivR'><div class='vertical-center'>(I)</div></div></div>","I","$37","$44","0","37","44","RISKY"
"html-keyboard-response","63","137712","0.0-5.0-3.19","63d85999228b7d6b636dd96c","bdp_rd","Mon Mar 27 2023 12:02:04 GMT-0500 (Central Daylight Time)","188226","","null","","","","offerFB","","<div class='trialBorder'><div class='vertical-center'><img style='vertical-align:center; align:center' src=img/fixation3.jpg></div><div class='cl'><div class='vertical-center'>$37<br>for<br>sure</div></div><div class='cr'><div class='vertical-center'><font style='color:orange'>$44<br>with a<br>50% chance</font></div></div><div class='respDivL'><div class='vertical-center'>(E)</div></div><div class='respDivR'><div class='vertical-center'><font style='color:orange'>(I)</font></div></div></div>","null","$37","$44","0","37","44",""
"html-keyboard-response","64","138213","0.0-5.0-1.20","63d85999228b7d6b636dd96c","bdp_rd","Mon Mar 27 2023 12:02:04 GMT-0500 (Central Daylight Time)","188226","","null","","","","FIX","","<div class='trialBorder'><div class='vertical-center'><img style='vertical-align:center; align:center' src=img/fixation3.jpg></div></div>","null","","","","","",""
"html-keyboard-response","65","138660","0.0-5.0-2.20","63d85999228b7d6b636dd96c","bdp_rd","Mon Mar 27 2023 12:02:04 GMT-0500 (Central Daylight Time)","188226","","447","","","","offer","","<div class='trialBorder'><div class='vertical-center'><img style='vertical-align:center; align:center' src=img/fixation3.jpg></div><div class='cl'><div class='vertical-center'>$17<br>for<br>sure</div></div><div class='cr'><div class='vertical-center'>$43<br>with a<br>50% chance</div></div><div class='respDivL'><div class='vertical-center'>(E)</div></div><div class='respDivR'><div class='vertical-center'>(I)</div></div></div>","I","$17","$43","0","17","43","RISKY"
"html-keyboard-response","66","138911","0.0-5.0-3.20","63d85999228b7d6b636dd96c","bdp_rd","Mon Mar 27 2023 12:02:04 GMT-0500 (Central Daylight Time)","188226","","null","","","","offerFB","","<div class='trialBorder'><div class='vertical-center'><img style='vertical-align:center; align:center' src=img/fixation3.jpg></div><div class='cl'><div class='vertical-center'>$17<br>for<br>sure</div></div><div class='cr'><div class='vertical-center'><font style='color:orange'>$43<br>with a<br>50% chance</font></div></div><div class='respDivL'><div class='vertical-center'>(E)</div></div><div class='respDivR'><div class='vertical-center'><font style='color:orange'>(I)</font></div></div></div>","null","$17","$43","0","17","43",""
"html-keyboard-response","67","139413","0.0-5.0-1.21","63d85999228b7d6b636dd96c","bdp_rd","Mon Mar 27 2023 12:02:04 GMT-0500 (Central Daylight Time)","188226","","null","","","","FIX","","<div class='trialBorder'><div class='vertical-center'><img style='vertical-align:center; align:center' src=img/fixation3.jpg></div></div>","null","","","","","",""
"html-keyboard-response","68","139845","0.0-5.0-2.21","63d85999228b7d6b636dd96c","bdp_rd","Mon Mar 27 2023 12:02:04 GMT-0500 (Central Daylight Time)","188226","","431","","","","offer","","<div class='trialBorder'><div class='vertical-center'><img style='vertical-align:center; align:center' src=img/fixation3.jpg></div><div class='cl'><div class='vertical-center'>$2<br>for<br>sure</div></div><div class='cr'><div class='vertical-center'>$21<br>with a<br>50% chance</div></div><div class='respDivL'><div class='vertical-center'>(E)</div></div><div class='respDivR'><div class='vertical-center'>(I)</div></div></div>","I","$2","$21","0","2","21","RISKY"
"html-keyboard-response","69","140096","0.0-5.0-3.21","63d85999228b7d6b636dd96c","bdp_rd","Mon Mar 27 2023 12:02:04 GMT-0500 (Central Daylight Time)","188226","","null","","","","offerFB","","<div class='trialBorder'><div class='vertical-center'><img style='vertical-align:center; align:center' src=img/fixation3.jpg></div><div class='cl'><div class='vertical-center'>$2<br>for<br>sure</div></div><div class='cr'><div class='vertical-center'><font style='color:orange'>$21<br>with a<br>50% chance</font></div></div><div class='respDivL'><div class='vertical-center'>(E)</div></div><div class='respDivR'><div class='vertical-center'><font style='color:orange'>(I)</font></div></div></div>","null","$2","$21","0","2","21",""
"html-keyboard-response","70","140598","0.0-5.0-1.22","63d85999228b7d6b636dd96c","bdp_rd","Mon Mar 27 2023 12:02:04 GMT-0500 (Central Daylight Time)","188226","","null","","","","FIX","","<div class='trialBorder'><div class='vertical-center'><img style='vertical-align:center; align:center' src=img/fixation3.jpg></div></div>","null","","","","","",""
"html-keyboard-response","71","141012","0.0-5.0-2.22","63d85999228b7d6b636dd96c","bdp_rd","Mon Mar 27 2023 12:02:04 GMT-0500 (Central Daylight Time)","188226","","414","","","","offer","","<div class='trialBorder'><div class='vertical-center'><img style='vertical-align:center; align:center' src=img/fixation3.jpg></div><div class='cl'><div class='vertical-center'>$13<br>for<br>sure</div></div><div class='cr'><div class='vertical-center'>$24<br>with a<br>50% chance</div></div><div class='respDivL'><div class='vertical-center'>(E)</div></div><div class='respDivR'><div class='vertical-center'>(I)</div></div></div>","I","$13","$24","0","13","24","RISKY"
"html-keyboard-response","72","141264","0.0-5.0-3.22","63d85999228b7d6b636dd96c","bdp_rd","Mon Mar 27 2023 12:02:04 GMT-0500 (Central Daylight Time)","188226","","null","","","","offerFB","","<div class='trialBorder'><div class='vertical-center'><img style='vertical-align:center; align:center' src=img/fixation3.jpg></div><div class='cl'><div class='vertical-center'>$13<br>for<br>sure</div></div><div class='cr'><div class='vertical-center'><font style='color:orange'>$24<br>with a<br>50% chance</font></div></div><div class='respDivL'><div class='vertical-center'>(E)</div></div><div class='respDivR'><div class='vertical-center'><font style='color:orange'>(I)</font></div></div></div>","null","$13","$24","0","13","24",""
"html-keyboard-response","73","141766","0.0-5.0-1.23","63d85999228b7d6b636dd96c","bdp_rd","Mon Mar 27 2023 12:02:04 GMT-0500 (Central Daylight Time)","188226","","null","","","","FIX","","<div class='trialBorder'><div class='vertical-center'><img style='vertical-align:center; align:center' src=img/fixation3.jpg></div></div>","null","","","","","",""
"html-keyboard-response","74","142156","0.0-5.0-2.23","63d85999228b7d6b636dd96c","bdp_rd","Mon Mar 27 2023 12:02:04 GMT-0500 (Central Daylight Time)","188226","","390","","","","offer","","<div class='trialBorder'><div class='vertical-center'><img style='vertical-align:center; align:center' src=img/fixation3.jpg></div><div class='cl'><div class='vertical-center'>$9<br>for<br>sure</div></div><div class='cr'><div class='vertical-center'>$18<br>with a<br>50% chance</div></div><div class='respDivL'><div class='vertical-center'>(E)</div></div><div class='respDivR'><div class='vertical-center'>(I)</div></div></div>","I","$9","$18","0","9","18","RISKY"
"html-keyboard-response","75","142409","0.0-5.0-3.23","63d85999228b7d6b636dd96c","bdp_rd","Mon Mar 27 2023 12:02:04 GMT-0500 (Central Daylight Time)","188226","","null","","","","offerFB","","<div class='trialBorder'><div class='vertical-center'><img style='vertical-align:center; align:center' src=img/fixation3.jpg></div><div class='cl'><div class='vertical-center'>$9<br>for<br>sure</div></div><div class='cr'><div class='vertical-center'><font style='color:orange'>$18<br>with a<br>50% chance</font></div></div><div class='respDivL'><div class='vertical-center'>(E)</div></div><div class='respDivR'><div class='vertical-center'><font style='color:orange'>(I)</font></div></div></div>","null","$9","$18","0","9","18",""
"html-keyboard-response","76","142910","0.0-5.0-1.24","63d85999228b7d6b636dd96c","bdp_rd","Mon Mar 27 2023 12:02:04 GMT-0500 (Central Daylight Time)","188226","","null","","","","FIX","","<div class='trialBorder'><div class='vertical-center'><img style='vertical-align:center; align:center' src=img/fixation3.jpg></div></div>","null","","","","","",""
"html-keyboard-response","77","143316","0.0-5.0-2.24","63d85999228b7d6b636dd96c","bdp_rd","Mon Mar 27 2023 12:02:04 GMT-0500 (Central Daylight Time)","188226","","405","","","","offer","","<div class='trialBorder'><div class='vertical-center'><img style='vertical-align:center; align:center' src=img/fixation3.jpg></div><div class='cl'><div class='vertical-center'>$31<br>for<br>sure</div></div><div class='cr'><div class='vertical-center'>$78<br>with a<br>50% chance</div></div><div class='respDivL'><div class='vertical-center'>(E)</div></div><div class='respDivR'><div class='vertical-center'>(I)</div></div></div>","I","$31","$78","0","31","78","RISKY"
"html-keyboard-response","78","143568","0.0-5.0-3.24","63d85999228b7d6b636dd96c","bdp_rd","Mon Mar 27 2023 12:02:04 GMT-0500 (Central Daylight Time)","188226","","null","","","","offerFB","","<div class='trialBorder'><div class='vertical-center'><img style='vertical-align:center; align:center' src=img/fixation3.jpg></div><div class='cl'><div class='vertical-center'>$31<br>for<br>sure</div></div><div class='cr'><div class='vertical-center'><font style='color:orange'>$78<br>with a<br>50% chance</font></div></div><div class='respDivL'><div class='vertical-center'>(E)</div></div><div class='respDivR'><div class='vertical-center'><font style='color:orange'>(I)</font></div></div></div>","null","$31","$78","0","31","78",""
"html-keyboard-response","79","144069","0.0-5.0-1.25","63d85999228b7d6b636dd96c","bdp_rd","Mon Mar 27 2023 12:02:04 GMT-0500 (Central Daylight Time)","188226","","null","","","","FIX","","<div class='trialBorder'><div class='vertical-center'><img style='vertical-align:center; align:center' src=img/fixation3.jpg></div></div>","null","","","","","",""
"html-keyboard-response","80","144444","0.0-5.0-2.25","63d85999228b7d6b636dd96c","bdp_rd","Mon Mar 27 2023 12:02:04 GMT-0500 (Central Daylight Time)","188226","","375","","","","offer","","<div class='trialBorder'><div class='vertical-center'><img style='vertical-align:center; align:center' src=img/fixation3.jpg></div><div class='cl'><div class='vertical-center'>$36<br>with a<br>50% chance</div></div><div class='cr'><div class='vertical-center'>$18<br>for<br>sure</div></div><div class='respDivL'><div class='vertical-center'>(E)</div></div><div class='respDivR'><div class='vertical-center'>(I)</div></div></div>","E","$18","$36","1","18","36","RISKY"
"html-keyboard-response","81","144695","0.0-5.0-3.25","63d85999228b7d6b636dd96c","bdp_rd","Mon Mar 27 2023 12:02:04 GMT-0500 (Central Daylight Time)","188226","","null","","","","offerFB","","<div class='trialBorder'><div class='vertical-center'><img style='vertical-align:center; align:center' src=img/fixation3.jpg></div><div class='cl'><div class='vertical-center'><font style='color:orange'>$36<br>with a<br>50% chance</font></div></div><div class='cr'><div class='vertical-center'>$18<br>for<br>sure</div></div><div class='respDivL'><div class='vertical-center'><font style='color:orange'>(E)</font></div></div><div class='respDivR'><div class='vertical-center'>(I)</div></div></div>","null","$18","$36","1","18","36",""
"html-keyboard-response","82","145196","0.0-5.0-1.26","63d85999228b7d6b636dd96c","bdp_rd","Mon Mar 27 2023 12:02:04 GMT-0500 (Central Daylight Time)","188226","","null","","","","FIX","","<div class='trialBorder'><div class='vertical-center'><img style='vertical-align:center; align:center' src=img/fixation3.jpg></div></div>","null","","","","","",""
"html-keyboard-response","83","145596","0.0-5.0-2.26","63d85999228b7d6b636dd96c","bdp_rd","Mon Mar 27 2023 12:02:04 GMT-0500 (Central Daylight Time)","188226","","400","","","","offer","","<div class='trialBorder'><div class='vertical-center'><img style='vertical-align:center; align:center' src=img/fixation3.jpg></div><div class='cl'><div class='vertical-center'>$4<br>for<br>sure</div></div><div class='cr'><div class='vertical-center'>$11<br>with a<br>50% chance</div></div><div class='respDivL'><div class='vertical-center'>(E)</div></div><div class='respDivR'><div class='vertical-center'>(I)</div></div></div>","I","$4","$11","0","4","11","RISKY"
"html-keyboard-response","84","145848","0.0-5.0-3.26","63d85999228b7d6b636dd96c","bdp_rd","Mon Mar 27 2023 12:02:04 GMT-0500 (Central Daylight Time)","188226","","null","","","","offerFB","","<div class='trialBorder'><div class='vertical-center'><img style='vertical-align:center; align:center' src=img/fixation3.jpg></div><div class='cl'><div class='vertical-center'>$4<br>for<br>sure</div></div><div class='cr'><div class='vertical-center'><font style='color:orange'>$11<br>with a<br>50% chance</font></div></div><div class='respDivL'><div class='vertical-center'>(E)</div></div><div class='respDivR'><div class='vertical-center'><font style='color:orange'>(I)</font></div></div></div>","null","$4","$11","0","4","11",""
"html-keyboard-response","85","146348","0.0-5.0-1.27","63d85999228b7d6b636dd96c","bdp_rd","Mon Mar 27 2023 12:02:04 GMT-0500 (Central Daylight Time)","188226","","null","","","","FIX","","<div class='trialBorder'><div class='vertical-center'><img style='vertical-align:center; align:center' src=img/fixation3.jpg></div></div>","null","","","","","",""
"html-keyboard-response","86","146708","0.0-5.0-2.27","63d85999228b7d6b636dd96c","bdp_rd","Mon Mar 27 2023 12:02:04 GMT-0500 (Central Daylight Time)","188226","","359","","","","offer","","<div class='trialBorder'><div class='vertical-center'><img style='vertical-align:center; align:center' src=img/fixation3.jpg></div><div class='cl'><div class='vertical-center'>$32<br>with a<br>50% chance</div></div><div class='cr'><div class='vertical-center'>$9<br>for<br>sure</div></div><div class='respDivL'><div class='vertical-center'>(E)</div></div><div class='respDivR'><div class='vertical-center'>(I)</div></div></div>","E","$9","$32","1","9","32","RISKY"
"html-keyboard-response","87","146960","0.0-5.0-3.27","63d85999228b7d6b636dd96c","bdp_rd","Mon Mar 27 2023 12:02:04 GMT-0500 (Central Daylight Time)","188226","","null","","","","offerFB","","<div class='trialBorder'><div class='vertical-center'><img style='vertical-align:center; align:center' src=img/fixation3.jpg></div><div class='cl'><div class='vertical-center'><font style='color:orange'>$32<br>with a<br>50% chance</font></div></div><div class='cr'><div class='vertical-center'>$9<br>for<br>sure</div></div><div class='respDivL'><div class='vertical-center'><font style='color:orange'>(E)</font></div></div><div class='respDivR'><div class='vertical-center'>(I)</div></div></div>","null","$9","$32","1","9","32",""
"html-keyboard-response","88","147462","0.0-5.0-1.28","63d85999228b7d6b636dd96c","bdp_rd","Mon Mar 27 2023 12:02:04 GMT-0500 (Central Daylight Time)","188226","","null","","","","FIX","","<div class='trialBorder'><div class='vertical-center'><img style='vertical-align:center; align:center' src=img/fixation3.jpg></div></div>","null","","","","","",""
"html-keyboard-response","89","147820","0.0-5.0-2.28","63d85999228b7d6b636dd96c","bdp_rd","Mon Mar 27 2023 12:02:04 GMT-0500 (Central Daylight Time)","188226","","358","","","","offer","","<div class='trialBorder'><div class='vertical-center'><img style='vertical-align:center; align:center' src=img/fixation3.jpg></div><div class='cl'><div class='vertical-center'>$45<br>for<br>sure</div></div><div class='cr'><div class='vertical-center'>$86<br>with a<br>50% chance</div></div><div class='respDivL'><div class='vertical-center'>(E)</div></div><div class='respDivR'><div class='vertical-center'>(I)</div></div></div>","I","$45","$86","0","45","86","RISKY"
"html-keyboard-response","90","148072","0.0-5.0-3.28","63d85999228b7d6b636dd96c","bdp_rd","Mon Mar 27 2023 12:02:04 GMT-0500 (Central Daylight Time)","188226","","null","","","","offerFB","","<div class='trialBorder'><div class='vertical-center'><img style='vertical-align:center; align:center' src=img/fixation3.jpg></div><div class='cl'><div class='vertical-center'>$45<br>for<br>sure</div></div><div class='cr'><div class='vertical-center'><font style='color:orange'>$86<br>with a<br>50% chance</font></div></div><div class='respDivL'><div class='vertical-center'>(E)</div></div><div class='respDivR'><div class='vertical-center'><font style='color:orange'>(I)</font></div></div></div>","null","$45","$86","0","45","86",""
"html-keyboard-response","91","148573","0.0-5.0-1.29","63d85999228b7d6b636dd96c","bdp_rd","Mon Mar 27 2023 12:02:04 GMT-0500 (Central Daylight Time)","188226","","null","","","","FIX","","<div class='trialBorder'><div class='vertical-center'><img style='vertical-align:center; align:center' src=img/fixation3.jpg></div></div>","null","","","","","",""
"html-keyboard-response","92","148996","0.0-5.0-2.29","63d85999228b7d6b636dd96c","bdp_rd","Mon Mar 27 2023 12:02:04 GMT-0500 (Central Daylight Time)","188226","","422","","","","offer","","<div class='trialBorder'><div class='vertical-center'><img style='vertical-align:center; align:center' src=img/fixation3.jpg></div><div class='cl'><div class='vertical-center'>$98<br>with a<br>50% chance</div></div><div class='cr'><div class='vertical-center'>$53<br>for<br>sure</div></div><div class='respDivL'><div class='vertical-center'>(E)</div></div><div class='respDivR'><div class='vertical-center'>(I)</div></div></div>","E","$53","$98","1","53","98","RISKY"
"html-keyboard-response","93","149248","0.0-5.0-3.29","63d85999228b7d6b636dd96c","bdp_rd","Mon Mar 27 2023 12:02:04 GMT-0500 (Central Daylight Time)","188226","","null","","","","offerFB","","<div class='trialBorder'><div class='vertical-center'><img style='vertical-align:center; align:center' src=img/fixation3.jpg></div><div class='cl'><div class='vertical-center'><font style='color:orange'>$98<br>with a<br>50% chance</font></div></div><div class='cr'><div class='vertical-center'>$53<br>for<br>sure</div></div><div class='respDivL'><div class='vertical-center'><font style='color:orange'>(E)</font></div></div><div class='respDivR'><div class='vertical-center'>(I)</div></div></div>","null","$53","$98","1","53","98",""
"html-keyboard-response","94","149750","0.0-5.0-1.30","63d85999228b7d6b636dd96c","bdp_rd","Mon Mar 27 2023 12:02:04 GMT-0500 (Central Daylight Time)","188226","","null","","","","FIX","","<div class='trialBorder'><div class='vertical-center'><img style='vertical-align:center; align:center' src=img/fixation3.jpg></div></div>","null","","","","","",""
"html-keyboard-response","95","150197","0.0-5.0-2.30","63d85999228b7d6b636dd96c","bdp_rd","Mon Mar 27 2023 12:02:04 GMT-0500 (Central Daylight Time)","188226","","447","","","","offer","","<div class='trialBorder'><div class='vertical-center'><img style='vertical-align:center; align:center' src=img/fixation3.jpg></div><div class='cl'><div class='vertical-center'>$23<br>with a<br>50% chance</div></div><div class='cr'><div class='vertical-center'>$8<br>for<br>sure</div></div><div class='respDivL'><div class='vertical-center'>(E)</div></div><div class='respDivR'><div class='vertical-center'>(I)</div></div></div>","E","$8","$23","1","8","23","RISKY"
"html-keyboard-response","96","150449","0.0-5.0-3.30","63d85999228b7d6b636dd96c","bdp_rd","Mon Mar 27 2023 12:02:04 GMT-0500 (Central Daylight Time)","188226","","null","","","","offerFB","","<div class='trialBorder'><div class='vertical-center'><img style='vertical-align:center; align:center' src=img/fixation3.jpg></div><div class='cl'><div class='vertical-center'><font style='color:orange'>$23<br>with a<br>50% chance</font></div></div><div class='cr'><div class='vertical-center'>$8<br>for<br>sure</div></div><div class='respDivL'><div class='vertical-center'><font style='color:orange'>(E)</font></div></div><div class='respDivR'><div class='vertical-center'>(I)</div></div></div>","null","$8","$23","1","8","23",""
"html-keyboard-response","97","150950","0.0-5.0-1.31","63d85999228b7d6b636dd96c","bdp_rd","Mon Mar 27 2023 12:02:04 GMT-0500 (Central Daylight Time)","188226","","null","","","","FIX","","<div class='trialBorder'><div class='vertical-center'><img style='vertical-align:center; align:center' src=img/fixation3.jpg></div></div>","null","","","","","",""
"html-keyboard-response","98","151356","0.0-5.0-2.31","63d85999228b7d6b636dd96c","bdp_rd","Mon Mar 27 2023 12:02:04 GMT-0500 (Central Daylight Time)","188226","","405","","","","offer","","<div class='trialBorder'><div class='vertical-center'><img style='vertical-align:center; align:center' src=img/fixation3.jpg></div><div class='cl'><div class='vertical-center'>$69<br>with a<br>50% chance</div></div><div class='cr'><div class='vertical-center'>$58<br>for<br>sure</div></div><div class='respDivL'><div class='vertical-center'>(E)</div></div><div class='respDivR'><div class='vertical-center'>(I)</div></div></div>","E","$58","$69","1","58","69","RISKY"
"html-keyboard-response","99","151608","0.0-5.0-3.31","63d85999228b7d6b636dd96c","bdp_rd","Mon Mar 27 2023 12:02:04 GMT-0500 (Central Daylight Time)","188226","","null","","","","offerFB","","<div class='trialBorder'><div class='vertical-center'><img style='vertical-align:center; align:center' src=img/fixation3.jpg></div><div class='cl'><div class='vertical-center'><font style='color:orange'>$69<br>with a<br>50% chance</font></div></div><div class='cr'><div class='vertical-center'>$58<br>for<br>sure</div></div><div class='respDivL'><div class='vertical-center'><font style='color:orange'>(E)</font></div></div><div class='respDivR'><div class='vertical-center'>(I)</div></div></div>","null","$58","$69","1","58","69",""
"html-keyboard-response","100","152109","0.0-5.0-1.32","63d85999228b7d6b636dd96c","bdp_rd","Mon Mar 27 2023 12:02:04 GMT-0500 (Central Daylight Time)","188226","","null","","","","FIX","","<div class='trialBorder'><div class='vertical-center'><img style='vertical-align:center; align:center' src=img/fixation3.jpg></div></div>","null","","","","","",""
"html-keyboard-response","101","152492","0.0-5.0-2.32","63d85999228b7d6b636dd96c","bdp_rd","Mon Mar 27 2023 12:02:04 GMT-0500 (Central Daylight Time)","188226","","383","","","","offer","","<div class='trialBorder'><div class='vertical-center'><img style='vertical-align:center; align:center' src=img/fixation3.jpg></div><div class='cl'><div class='vertical-center'>$59<br>with a<br>50% chance</div></div><div class='cr'><div class='vertical-center'>$22<br>for<br>sure</div></div><div class='respDivL'><div class='vertical-center'>(E)</div></div><div class='respDivR'><div class='vertical-center'>(I)</div></div></div>","E","$22","$59","1","22","59","RISKY"
"html-keyboard-response","102","152744","0.0-5.0-3.32","63d85999228b7d6b636dd96c","bdp_rd","Mon Mar 27 2023 12:02:04 GMT-0500 (Central Daylight Time)","188226","","null","","","","offerFB","","<div class='trialBorder'><div class='vertical-center'><img style='vertical-align:center; align:center' src=img/fixation3.jpg></div><div class='cl'><div class='vertical-center'><font style='color:orange'>$59<br>with a<br>50% chance</font></div></div><div class='cr'><div class='vertical-center'>$22<br>for<br>sure</div></div><div class='respDivL'><div class='vertical-center'><font style='color:orange'>(E)</font></div></div><div class='respDivR'><div class='vertical-center'>(I)</div></div></div>","null","$22","$59","1","22","59",""
"html-keyboard-response","103","153244","0.0-5.0-1.33","63d85999228b7d6b636dd96c","bdp_rd","Mon Mar 27 2023 12:02:04 GMT-0500 (Central Daylight Time)","188226","","null","","","","FIX","","<div class='trialBorder'><div class='vertical-center'><img style='vertical-align:center; align:center' src=img/fixation3.jpg></div></div>","null","","","","","",""
"html-keyboard-response","104","154196","0.0-5.0-2.33","63d85999228b7d6b636dd96c","bdp_rd","Mon Mar 27 2023 12:02:04 GMT-0500 (Central Daylight Time)","188226","","951","","","","offer","","<div class='trialBorder'><div class='vertical-center'><img style='vertical-align:center; align:center' src=img/fixation3.jpg></div><div class='cl'><div class='vertical-center'>$46<br>for<br>sure</div></div><div class='cr'><div class='vertical-center'>$65<br>with a<br>50% chance</div></div><div class='respDivL'><div class='vertical-center'>(E)</div></div><div class='respDivR'><div class='vertical-center'>(I)</div></div></div>","I","$46","$65","0","46","65","RISKY"
"html-keyboard-response","105","154447","0.0-5.0-3.33","63d85999228b7d6b636dd96c","bdp_rd","Mon Mar 27 2023 12:02:04 GMT-0500 (Central Daylight Time)","188226","","null","","","","offerFB","","<div class='trialBorder'><div class='vertical-center'><img style='vertical-align:center; align:center' src=img/fixation3.jpg></div><div class='cl'><div class='vertical-center'>$46<br>for<br>sure</div></div><div class='cr'><div class='vertical-center'><font style='color:orange'>$65<br>with a<br>50% chance</font></div></div><div class='respDivL'><div class='vertical-center'>(E)</div></div><div class='respDivR'><div class='vertical-center'><font style='color:orange'>(I)</font></div></div></div>","null","$46","$65","0","46","65",""
"html-keyboard-response","106","154949","0.0-5.0-1.34","63d85999228b7d6b636dd96c","bdp_rd","Mon Mar 27 2023 12:02:04 GMT-0500 (Central Daylight Time)","188226","","null","","","","FIX","","<div class='trialBorder'><div class='vertical-center'><img style='vertical-align:center; align:center' src=img/fixation3.jpg></div></div>","null","","","","","",""
"html-keyboard-response","107","155964","0.0-5.0-2.34","63d85999228b7d6b636dd96c","bdp_rd","Mon Mar 27 2023 12:02:04 GMT-0500 (Central Daylight Time)","188226","","1015","","","","offer","","<div class='trialBorder'><div class='vertical-center'><img style='vertical-align:center; align:center' src=img/fixation3.jpg></div><div class='cl'><div class='vertical-center'>$13<br>for<br>sure</div></div><div class='cr'><div class='vertical-center'>$41<br>with a<br>50% chance</div></div><div class='respDivL'><div class='vertical-center'>(E)</div></div><div class='respDivR'><div class='vertical-center'>(I)</div></div></div>","I","$13","$41","0","13","41","RISKY"
"html-keyboard-response","108","156216","0.0-5.0-3.34","63d85999228b7d6b636dd96c","bdp_rd","Mon Mar 27 2023 12:02:04 GMT-0500 (Central Daylight Time)","188226","","null","","","","offerFB","","<div class='trialBorder'><div class='vertical-center'><img style='vertical-align:center; align:center' src=img/fixation3.jpg></div><div class='cl'><div class='vertical-center'>$13<br>for<br>sure</div></div><div class='cr'><div class='vertical-center'><font style='color:orange'>$41<br>with a<br>50% chance</font></div></div><div class='respDivL'><div class='vertical-center'>(E)</div></div><div class='respDivR'><div class='vertical-center'><font style='color:orange'>(I)</font></div></div></div>","null","$13","$41","0","13","41",""
"html-keyboard-response","109","156718","0.0-5.0-1.35","63d85999228b7d6b636dd96c","bdp_rd","Mon Mar 27 2023 12:02:04 GMT-0500 (Central Daylight Time)","188226","","null","","","","FIX","","<div class='trialBorder'><div class='vertical-center'><img style='vertical-align:center; align:center' src=img/fixation3.jpg></div></div>","null","","","","","",""
"html-keyboard-response","110","157996","0.0-5.0-2.35","63d85999228b7d6b636dd96c","bdp_rd","Mon Mar 27 2023 12:02:04 GMT-0500 (Central Daylight Time)","188226","","1278","","","","offer","","<div class='trialBorder'><div class='vertical-center'><img style='vertical-align:center; align:center' src=img/fixation3.jpg></div><div class='cl'><div class='vertical-center'>$12<br>for<br>sure</div></div><div class='cr'><div class='vertical-center'>$27<br>with a<br>50% chance</div></div><div class='respDivL'><div class='vertical-center'>(E)</div></div><div class='respDivR'><div class='vertical-center'>(I)</div></div></div>","I","$12","$27","0","12","27","RISKY"
"html-keyboard-response","111","158248","0.0-5.0-3.35","63d85999228b7d6b636dd96c","bdp_rd","Mon Mar 27 2023 12:02:04 GMT-0500 (Central Daylight Time)","188226","","null","","","","offerFB","","<div class='trialBorder'><div class='vertical-center'><img style='vertical-align:center; align:center' src=img/fixation3.jpg></div><div class='cl'><div class='vertical-center'>$12<br>for<br>sure</div></div><div class='cr'><div class='vertical-center'><font style='color:orange'>$27<br>with a<br>50% chance</font></div></div><div class='respDivL'><div class='vertical-center'>(E)</div></div><div class='respDivR'><div class='vertical-center'><font style='color:orange'>(I)</font></div></div></div>","null","$12","$27","0","12","27",""
"html-keyboard-response","112","158749","0.0-5.0-1.36","63d85999228b7d6b636dd96c","bdp_rd","Mon Mar 27 2023 12:02:04 GMT-0500 (Central Daylight Time)","188226","","null","","","","FIX","","<div class='trialBorder'><div class='vertical-center'><img style='vertical-align:center; align:center' src=img/fixation3.jpg></div></div>","null","","","","","",""
"html-keyboard-response","113","159444","0.0-5.0-2.36","63d85999228b7d6b636dd96c","bdp_rd","Mon Mar 27 2023 12:02:04 GMT-0500 (Central Daylight Time)","188226","","694","","","","offer","","<div class='trialBorder'><div class='vertical-center'><img style='vertical-align:center; align:center' src=img/fixation3.jpg></div><div class='cl'><div class='vertical-center'>$6<br>for<br>sure</div></div><div class='cr'><div class='vertical-center'>$15<br>with a<br>50% chance</div></div><div class='respDivL'><div class='vertical-center'>(E)</div></div><div class='respDivR'><div class='vertical-center'>(I)</div></div></div>","I","$6","$15","0","6","15","RISKY"
"html-keyboard-response","114","159696","0.0-5.0-3.36","63d85999228b7d6b636dd96c","bdp_rd","Mon Mar 27 2023 12:02:04 GMT-0500 (Central Daylight Time)","188226","","null","","","","offerFB","","<div class='trialBorder'><div class='vertical-center'><img style='vertical-align:center; align:center' src=img/fixation3.jpg></div><div class='cl'><div class='vertical-center'>$6<br>for<br>sure</div></div><div class='cr'><div class='vertical-center'><font style='color:orange'>$15<br>with a<br>50% chance</font></div></div><div class='respDivL'><div class='vertical-center'>(E)</div></div><div class='respDivR'><div class='vertical-center'><font style='color:orange'>(I)</font></div></div></div>","null","$6","$15","0","6","15",""
"html-keyboard-response","115","160196","0.0-5.0-1.37","63d85999228b7d6b636dd96c","bdp_rd","Mon Mar 27 2023 12:02:04 GMT-0500 (Central Daylight Time)","188226","","null","","","","FIX","","<div class='trialBorder'><div class='vertical-center'><img style='vertical-align:center; align:center' src=img/fixation3.jpg></div></div>","null","","","","","",""
"html-keyboard-response","116","160660","0.0-5.0-2.37","63d85999228b7d6b636dd96c","bdp_rd","Mon Mar 27 2023 12:02:04 GMT-0500 (Central Daylight Time)","188226","","463","","","","offer","","<div class='trialBorder'><div class='vertical-center'><img style='vertical-align:center; align:center' src=img/fixation3.jpg></div><div class='cl'><div class='vertical-center'>$12<br>with a<br>50% chance</div></div><div class='cr'><div class='vertical-center'>$3<br>for<br>sure</div></div><div class='respDivL'><div class='vertical-center'>(E)</div></div><div class='respDivR'><div class='vertical-center'>(I)</div></div></div>","E","$3","$12","1","3","12","RISKY"
"html-keyboard-response","117","160912","0.0-5.0-3.37","63d85999228b7d6b636dd96c","bdp_rd","Mon Mar 27 2023 12:02:04 GMT-0500 (Central Daylight Time)","188226","","null","","","","offerFB","","<div class='trialBorder'><div class='vertical-center'><img style='vertical-align:center; align:center' src=img/fixation3.jpg></div><div class='cl'><div class='vertical-center'><font style='color:orange'>$12<br>with a<br>50% chance</font></div></div><div class='cr'><div class='vertical-center'>$3<br>for<br>sure</div></div><div class='respDivL'><div class='vertical-center'><font style='color:orange'>(E)</font></div></div><div class='respDivR'><div class='vertical-center'>(I)</div></div></div>","null","$3","$12","1","3","12",""
"html-keyboard-response","118","161413","0.0-5.0-1.38","63d85999228b7d6b636dd96c","bdp_rd","Mon Mar 27 2023 12:02:04 GMT-0500 (Central Daylight Time)","188226","","null","","","","FIX","","<div class='trialBorder'><div class='vertical-center'><img style='vertical-align:center; align:center' src=img/fixation3.jpg></div></div>","null","","","","","",""
"html-keyboard-response","119","161908","0.0-5.0-2.38","63d85999228b7d6b636dd96c","bdp_rd","Mon Mar 27 2023 12:02:04 GMT-0500 (Central Daylight Time)","188226","","495","","","","offer","","<div class='trialBorder'><div class='vertical-center'><img style='vertical-align:center; align:center' src=img/fixation3.jpg></div><div class='cl'><div class='vertical-center'>$37<br>with a<br>50% chance</div></div><div class='cr'><div class='vertical-center'>$20<br>for<br>sure</div></div><div class='respDivL'><div class='vertical-center'>(E)</div></div><div class='respDivR'><div class='vertical-center'>(I)</div></div></div>","E","$20","$37","1","20","37","RISKY"
"html-keyboard-response","120","162160","0.0-5.0-3.38","63d85999228b7d6b636dd96c","bdp_rd","Mon Mar 27 2023 12:02:04 GMT-0500 (Central Daylight Time)","188226","","null","","","","offerFB","","<div class='trialBorder'><div class='vertical-center'><img style='vertical-align:center; align:center' src=img/fixation3.jpg></div><div class='cl'><div class='vertical-center'><font style='color:orange'>$37<br>with a<br>50% chance</font></div></div><div class='cr'><div class='vertical-center'>$20<br>for<br>sure</div></div><div class='respDivL'><div class='vertical-center'><font style='color:orange'>(E)</font></div></div><div class='respDivR'><div class='vertical-center'>(I)</div></div></div>","null","$20","$37","1","20","37",""
"html-keyboard-response","121","162660","0.0-5.0-1.39","63d85999228b7d6b636dd96c","bdp_rd","Mon Mar 27 2023 12:02:04 GMT-0500 (Central Daylight Time)","188226","","null","","","","FIX","","<div class='trialBorder'><div class='vertical-center'><img style='vertical-align:center; align:center' src=img/fixation3.jpg></div></div>","null","","","","","",""
"html-keyboard-response","122","163316","0.0-5.0-2.39","63d85999228b7d6b636dd96c","bdp_rd","Mon Mar 27 2023 12:02:04 GMT-0500 (Central Daylight Time)","188226","","655","","","","offer","","<div class='trialBorder'><div class='vertical-center'><img style='vertical-align:center; align:center' src=img/fixation3.jpg></div><div class='cl'><div class='vertical-center'>$1<br>for<br>sure</div></div><div class='cr'><div class='vertical-center'>$30<br>with a<br>50% chance</div></div><div class='respDivL'><div class='vertical-center'>(E)</div></div><div class='respDivR'><div class='vertical-center'>(I)</div></div></div>","I","$1","$30","0","1","30","RISKY"
"html-keyboard-response","123","163568","0.0-5.0-3.39","63d85999228b7d6b636dd96c","bdp_rd","Mon Mar 27 2023 12:02:04 GMT-0500 (Central Daylight Time)","188226","","null","","","","offerFB","","<div class='trialBorder'><div class='vertical-center'><img style='vertical-align:center; align:center' src=img/fixation3.jpg></div><div class='cl'><div class='vertical-center'>$1<br>for<br>sure</div></div><div class='cr'><div class='vertical-center'><font style='color:orange'>$30<br>with a<br>50% chance</font></div></div><div class='respDivL'><div class='vertical-center'>(E)</div></div><div class='respDivR'><div class='vertical-center'><font style='color:orange'>(I)</font></div></div></div>","null","$1","$30","0","1","30",""
"html-keyboard-response","124","164068","0.0-5.0-1.40","63d85999228b7d6b636dd96c","bdp_rd","Mon Mar 27 2023 12:02:04 GMT-0500 (Central Daylight Time)","188226","","null","","","","FIX","","<div class='trialBorder'><div class='vertical-center'><img style='vertical-align:center; align:center' src=img/fixation3.jpg></div></div>","null","","","","","",""
"html-keyboard-response","125","164724","0.0-5.0-2.40","63d85999228b7d6b636dd96c","bdp_rd","Mon Mar 27 2023 12:02:04 GMT-0500 (Central Daylight Time)","188226","","655","","","","offer","","<div class='trialBorder'><div class='vertical-center'><img style='vertical-align:center; align:center' src=img/fixation3.jpg></div><div class='cl'><div class='vertical-center'>$30<br>for<br>sure</div></div><div class='cr'><div class='vertical-center'>$68<br>with a<br>50% chance</div></div><div class='respDivL'><div class='vertical-center'>(E)</div></div><div class='respDivR'><div class='vertical-center'>(I)</div></div></div>","I","$30","$68","0","30","68","RISKY"
"html-keyboard-response","126","164977","0.0-5.0-3.40","63d85999228b7d6b636dd96c","bdp_rd","Mon Mar 27 2023 12:02:04 GMT-0500 (Central Daylight Time)","188226","","null","","","","offerFB","","<div class='trialBorder'><div class='vertical-center'><img style='vertical-align:center; align:center' src=img/fixation3.jpg></div><div class='cl'><div class='vertical-center'>$30<br>for<br>sure</div></div><div class='cr'><div class='vertical-center'><font style='color:orange'>$68<br>with a<br>50% chance</font></div></div><div class='respDivL'><div class='vertical-center'>(E)</div></div><div class='respDivR'><div class='vertical-center'><font style='color:orange'>(I)</font></div></div></div>","null","$30","$68","0","30","68",""
"html-keyboard-response","127","165478","0.0-5.0-1.41","63d85999228b7d6b636dd96c","bdp_rd","Mon Mar 27 2023 12:02:04 GMT-0500 (Central Daylight Time)","188226","","null","","","","FIX","","<div class='trialBorder'><div class='vertical-center'><img style='vertical-align:center; align:center' src=img/fixation3.jpg></div></div>","null","","","","","",""
"html-keyboard-response","128","166060","0.0-5.0-2.41","63d85999228b7d6b636dd96c","bdp_rd","Mon Mar 27 2023 12:02:04 GMT-0500 (Central Daylight Time)","188226","","581","","","","offer","","<div class='trialBorder'><div class='vertical-center'><img style='vertical-align:center; align:center' src=img/fixation3.jpg></div><div class='cl'><div class='vertical-center'>$8<br>for<br>sure</div></div><div class='cr'><div class='vertical-center'>$45<br>with a<br>50% chance</div></div><div class='respDivL'><div class='vertical-center'>(E)</div></div><div class='respDivR'><div class='vertical-center'>(I)</div></div></div>","I","$8","$45","0","8","45","RISKY"
"html-keyboard-response","129","166312","0.0-5.0-3.41","63d85999228b7d6b636dd96c","bdp_rd","Mon Mar 27 2023 12:02:04 GMT-0500 (Central Daylight Time)","188226","","null","","","","offerFB","","<div class='trialBorder'><div class='vertical-center'><img style='vertical-align:center; align:center' src=img/fixation3.jpg></div><div class='cl'><div class='vertical-center'>$8<br>for<br>sure</div></div><div class='cr'><div class='vertical-center'><font style='color:orange'>$45<br>with a<br>50% chance</font></div></div><div class='respDivL'><div class='vertical-center'>(E)</div></div><div class='respDivR'><div class='vertical-center'><font style='color:orange'>(I)</font></div></div></div>","null","$8","$45","0","8","45",""
"html-keyboard-response","130","166813","0.0-5.0-1.42","63d85999228b7d6b636dd96c","bdp_rd","Mon Mar 27 2023 12:02:04 GMT-0500 (Central Daylight Time)","188226","","null","","","","FIX","","<div class='trialBorder'><div class='vertical-center'><img style='vertical-align:center; align:center' src=img/fixation3.jpg></div></div>","null","","","","","",""
"html-keyboard-response","131","167548","0.0-5.0-2.42","63d85999228b7d6b636dd96c","bdp_rd","Mon Mar 27 2023 12:02:04 GMT-0500 (Central Daylight Time)","188226","","735","","","","offer","","<div class='trialBorder'><div class='vertical-center'><img style='vertical-align:center; align:center' src=img/fixation3.jpg></div><div class='cl'><div class='vertical-center'>$16<br>for<br>sure</div></div><div class='cr'><div class='vertical-center'>$28<br>with a<br>50% chance</div></div><div class='respDivL'><div class='vertical-center'>(E)</div></div><div class='respDivR'><div class='vertical-center'>(I)</div></div></div>","I","$16","$28","0","16","28","RISKY"
"html-keyboard-response","132","167799","0.0-5.0-3.42","63d85999228b7d6b636dd96c","bdp_rd","Mon Mar 27 2023 12:02:04 GMT-0500 (Central Daylight Time)","188226","","null","","","","offerFB","","<div class='trialBorder'><div class='vertical-center'><img style='vertical-align:center; align:center' src=img/fixation3.jpg></div><div class='cl'><div class='vertical-center'>$16<br>for<br>sure</div></div><div class='cr'><div class='vertical-center'><font style='color:orange'>$28<br>with a<br>50% chance</font></div></div><div class='respDivL'><div class='vertical-center'>(E)</div></div><div class='respDivR'><div class='vertical-center'><font style='color:orange'>(I)</font></div></div></div>","null","$16","$28","0","16","28",""
"html-keyboard-response","133","168301","0.0-5.0-1.43","63d85999228b7d6b636dd96c","bdp_rd","Mon Mar 27 2023 12:02:04 GMT-0500 (Central Daylight Time)","188226","","null","","","","FIX","","<div class='trialBorder'><div class='vertical-center'><img style='vertical-align:center; align:center' src=img/fixation3.jpg></div></div>","null","","","","","",""
"html-keyboard-response","134","168788","0.0-5.0-2.43","63d85999228b7d6b636dd96c","bdp_rd","Mon Mar 27 2023 12:02:04 GMT-0500 (Central Daylight Time)","188226","","487","","","","offer","","<div class='trialBorder'><div class='vertical-center'><img style='vertical-align:center; align:center' src=img/fixation3.jpg></div><div class='cl'><div class='vertical-center'>$29<br>for<br>sure</div></div><div class='cr'><div class='vertical-center'>$46<br>with a<br>50% chance</div></div><div class='respDivL'><div class='vertical-center'>(E)</div></div><div class='respDivR'><div class='vertical-center'>(I)</div></div></div>","I","$29","$46","0","29","46","RISKY"
"html-keyboard-response","135","169039","0.0-5.0-3.43","63d85999228b7d6b636dd96c","bdp_rd","Mon Mar 27 2023 12:02:04 GMT-0500 (Central Daylight Time)","188226","","null","","","","offerFB","","<div class='trialBorder'><div class='vertical-center'><img style='vertical-align:center; align:center' src=img/fixation3.jpg></div><div class='cl'><div class='vertical-center'>$29<br>for<br>sure</div></div><div class='cr'><div class='vertical-center'><font style='color:orange'>$46<br>with a<br>50% chance</font></div></div><div class='respDivL'><div class='vertical-center'>(E)</div></div><div class='respDivR'><div class='vertical-center'><font style='color:orange'>(I)</font></div></div></div>","null","$29","$46","0","29","46",""
"html-keyboard-response","136","169540","0.0-5.0-1.44","63d85999228b7d6b636dd96c","bdp_rd","Mon Mar 27 2023 12:02:04 GMT-0500 (Central Daylight Time)","188226","","null","","","","FIX","","<div class='trialBorder'><div class='vertical-center'><img style='vertical-align:center; align:center' src=img/fixation3.jpg></div></div>","null","","","","","",""
"html-keyboard-response","137","170052","0.0-5.0-2.44","63d85999228b7d6b636dd96c","bdp_rd","Mon Mar 27 2023 12:02:04 GMT-0500 (Central Daylight Time)","188226","","512","","","","offer","","<div class='trialBorder'><div class='vertical-center'><img style='vertical-align:center; align:center' src=img/fixation3.jpg></div><div class='cl'><div class='vertical-center'>$14<br>with a<br>50% chance</div></div><div class='cr'><div class='vertical-center'>$4<br>for<br>sure</div></div><div class='respDivL'><div class='vertical-center'>(E)</div></div><div class='respDivR'><div class='vertical-center'>(I)</div></div></div>","E","$4","$14","1","4","14","RISKY"
"html-keyboard-response","138","170304","0.0-5.0-3.44","63d85999228b7d6b636dd96c","bdp_rd","Mon Mar 27 2023 12:02:04 GMT-0500 (Central Daylight Time)","188226","","null","","","","offerFB","","<div class='trialBorder'><div class='vertical-center'><img style='vertical-align:center; align:center' src=img/fixation3.jpg></div><div class='cl'><div class='vertical-center'><font style='color:orange'>$14<br>with a<br>50% chance</font></div></div><div class='cr'><div class='vertical-center'>$4<br>for<br>sure</div></div><div class='respDivL'><div class='vertical-center'><font style='color:orange'>(E)</font></div></div><div class='respDivR'><div class='vertical-center'>(I)</div></div></div>","null","$4","$14","1","4","14",""
"html-keyboard-response","139","170805","0.0-5.0-1.45","63d85999228b7d6b636dd96c","bdp_rd","Mon Mar 27 2023 12:02:04 GMT-0500 (Central Daylight Time)","188226","","null","","","","FIX","","<div class='trialBorder'><div class='vertical-center'><img style='vertical-align:center; align:center' src=img/fixation3.jpg></div></div>","null","","","","","",""
"html-keyboard-response","140","171116","0.0-5.0-2.45","63d85999228b7d6b636dd96c","bdp_rd","Mon Mar 27 2023 12:02:04 GMT-0500 (Central Daylight Time)","188226","","311","","","","offer","","<div class='trialBorder'><div class='vertical-center'><img style='vertical-align:center; align:center' src=img/fixation3.jpg></div><div class='cl'><div class='vertical-center'>$10<br>with a<br>50% chance</div></div><div class='cr'><div class='vertical-center'>$7<br>for<br>sure</div></div><div class='respDivL'><div class='vertical-center'>(E)</div></div><div class='respDivR'><div class='vertical-center'>(I)</div></div></div>","E","$7","$10","1","7","10","RISKY"
"html-keyboard-response","141","171368","0.0-5.0-3.45","63d85999228b7d6b636dd96c","bdp_rd","Mon Mar 27 2023 12:02:04 GMT-0500 (Central Daylight Time)","188226","","null","","","","offerFB","","<div class='trialBorder'><div class='vertical-center'><img style='vertical-align:center; align:center' src=img/fixation3.jpg></div><div class='cl'><div class='vertical-center'><font style='color:orange'>$10<br>with a<br>50% chance</font></div></div><div class='cr'><div class='vertical-center'>$7<br>for<br>sure</div></div><div class='respDivL'><div class='vertical-center'><font style='color:orange'>(E)</font></div></div><div class='respDivR'><div class='vertical-center'>(I)</div></div></div>","null","$7","$10","1","7","10",""
"html-keyboard-response","142","171869","0.0-5.0-1.46","63d85999228b7d6b636dd96c","bdp_rd","Mon Mar 27 2023 12:02:04 GMT-0500 (Central Daylight Time)","188226","","null","","","","FIX","","<div class='trialBorder'><div class='vertical-center'><img style='vertical-align:center; align:center' src=img/fixation3.jpg></div></div>","null","","","","","",""
"html-keyboard-response","143","172164","0.0-5.0-2.46","63d85999228b7d6b636dd96c","bdp_rd","Mon Mar 27 2023 12:02:04 GMT-0500 (Central Daylight Time)","188226","","294","","","","offer","","<div class='trialBorder'><div class='vertical-center'><img style='vertical-align:center; align:center' src=img/fixation3.jpg></div><div class='cl'><div class='vertical-center'>$62<br>with a<br>50% chance</div></div><div class='cr'><div class='vertical-center'>$11<br>for<br>sure</div></div><div class='respDivL'><div class='vertical-center'>(E)</div></div><div class='respDivR'><div class='vertical-center'>(I)</div></div></div>","E","$11","$62","1","11","62","RISKY"
"html-keyboard-response","144","172415","0.0-5.0-3.46","63d85999228b7d6b636dd96c","bdp_rd","Mon Mar 27 2023 12:02:04 GMT-0500 (Central Daylight Time)","188226","","null","","","","offerFB","","<div class='trialBorder'><div class='vertical-center'><img style='vertical-align:center; align:center' src=img/fixation3.jpg></div><div class='cl'><div class='vertical-center'><font style='color:orange'>$62<br>with a<br>50% chance</font></div></div><div class='cr'><div class='vertical-center'>$11<br>for<br>sure</div></div><div class='respDivL'><div class='vertical-center'><font style='color:orange'>(E)</font></div></div><div class='respDivR'><div class='vertical-center'>(I)</div></div></div>","null","$11","$62","1","11","62",""
"html-keyboard-response","145","172917","0.0-5.0-1.47","63d85999228b7d6b636dd96c","bdp_rd","Mon Mar 27 2023 12:02:04 GMT-0500 (Central Daylight Time)","188226","","null","","","","FIX","","<div class='trialBorder'><div class='vertical-center'><img style='vertical-align:center; align:center' src=img/fixation3.jpg></div></div>","null","","","","","",""
"html-keyboard-response","146","173332","0.0-5.0-2.47","63d85999228b7d6b636dd96c","bdp_rd","Mon Mar 27 2023 12:02:04 GMT-0500 (Central Daylight Time)","188226","","415","","","","offer","","<div class='trialBorder'><div class='vertical-center'><img style='vertical-align:center; align:center' src=img/fixation3.jpg></div><div class='cl'><div class='vertical-center'>$11<br>for<br>sure</div></div><div class='cr'><div class='vertical-center'>$26<br>with a<br>50% chance</div></div><div class='respDivL'><div class='vertical-center'>(E)</div></div><div class='respDivR'><div class='vertical-center'>(I)</div></div></div>","I","$11","$26","0","11","26","RISKY"
"html-keyboard-response","147","173584","0.0-5.0-3.47","63d85999228b7d6b636dd96c","bdp_rd","Mon Mar 27 2023 12:02:04 GMT-0500 (Central Daylight Time)","188226","","null","","","","offerFB","","<div class='trialBorder'><div class='vertical-center'><img style='vertical-align:center; align:center' src=img/fixation3.jpg></div><div class='cl'><div class='vertical-center'>$11<br>for<br>sure</div></div><div class='cr'><div class='vertical-center'><font style='color:orange'>$26<br>with a<br>50% chance</font></div></div><div class='respDivL'><div class='vertical-center'>(E)</div></div><div class='respDivR'><div class='vertical-center'><font style='color:orange'>(I)</font></div></div></div>","null","$11","$26","0","11","26",""
"html-keyboard-response","148","174085","0.0-5.0-1.48","63d85999228b7d6b636dd96c","bdp_rd","Mon Mar 27 2023 12:02:04 GMT-0500 (Central Daylight Time)","188226","","null","","","","FIX","","<div class='trialBorder'><div class='vertical-center'><img style='vertical-align:center; align:center' src=img/fixation3.jpg></div></div>","null","","","","","",""
"html-keyboard-response","149","174460","0.0-5.0-2.48","63d85999228b7d6b636dd96c","bdp_rd","Mon Mar 27 2023 12:02:04 GMT-0500 (Central Daylight Time)","188226","","374","","","","offer","","<div class='trialBorder'><div class='vertical-center'><img style='vertical-align:center; align:center' src=img/fixation3.jpg></div><div class='cl'><div class='vertical-center'>$71<br>with a<br>50% chance</div></div><div class='cr'><div class='vertical-center'>$7<br>for<br>sure</div></div><div class='respDivL'><div class='vertical-center'>(E)</div></div><div class='respDivR'><div class='vertical-center'>(I)</div></div></div>","E","$7","$71","1","7","71","RISKY"
"html-keyboard-response","150","174712","0.0-5.0-3.48","63d85999228b7d6b636dd96c","bdp_rd","Mon Mar 27 2023 12:02:04 GMT-0500 (Central Daylight Time)","188226","","null","","","","offerFB","","<div class='trialBorder'><div class='vertical-center'><img style='vertical-align:center; align:center' src=img/fixation3.jpg></div><div class='cl'><div class='vertical-center'><font style='color:orange'>$71<br>with a<br>50% chance</font></div></div><div class='cr'><div class='vertical-center'>$7<br>for<br>sure</div></div><div class='respDivL'><div class='vertical-center'><font style='color:orange'>(E)</font></div></div><div class='respDivR'><div class='vertical-center'>(I)</div></div></div>","null","$7","$71","1","7","71",""
"html-keyboard-response","151","175213","0.0-5.0-1.49","63d85999228b7d6b636dd96c","bdp_rd","Mon Mar 27 2023 12:02:04 GMT-0500 (Central Daylight Time)","188226","","null","","","","FIX","","<div class='trialBorder'><div class='vertical-center'><img style='vertical-align:center; align:center' src=img/fixation3.jpg></div></div>","null","","","","","",""
"html-keyboard-response","152","175628","0.0-5.0-2.49","63d85999228b7d6b636dd96c","bdp_rd","Mon Mar 27 2023 12:02:04 GMT-0500 (Central Daylight Time)","188226","","415","","","","offer","","<div class='trialBorder'><div class='vertical-center'><img style='vertical-align:center; align:center' src=img/fixation3.jpg></div><div class='cl'><div class='vertical-center'>$12<br>for<br>sure</div></div><div class='cr'><div class='vertical-center'>$35<br>with a<br>50% chance</div></div><div class='respDivL'><div class='vertical-center'>(E)</div></div><div class='respDivR'><div class='vertical-center'>(I)</div></div></div>","I","$12","$35","0","12","35","RISKY"
"html-keyboard-response","153","175880","0.0-5.0-3.49","63d85999228b7d6b636dd96c","bdp_rd","Mon Mar 27 2023 12:02:04 GMT-0500 (Central Daylight Time)","188226","","null","","","","offerFB","","<div class='trialBorder'><div class='vertical-center'><img style='vertical-align:center; align:center' src=img/fixation3.jpg></div><div class='cl'><div class='vertical-center'>$12<br>for<br>sure</div></div><div class='cr'><div class='vertical-center'><font style='color:orange'>$35<br>with a<br>50% chance</font></div></div><div class='respDivL'><div class='vertical-center'>(E)</div></div><div class='respDivR'><div class='vertical-center'><font style='color:orange'>(I)</font></div></div></div>","null","$12","$35","0","12","35",""
"html-keyboard-response","154","176380","0.0-5.0-1.50","63d85999228b7d6b636dd96c","bdp_rd","Mon Mar 27 2023 12:02:04 GMT-0500 (Central Daylight Time)","188226","","null","","","","FIX","","<div class='trialBorder'><div class='vertical-center'><img style='vertical-align:center; align:center' src=img/fixation3.jpg></div></div>","null","","","","","",""
"html-keyboard-response","155","176780","0.0-5.0-2.50","63d85999228b7d6b636dd96c","bdp_rd","Mon Mar 27 2023 12:02:04 GMT-0500 (Central Daylight Time)","188226","","399","","","","offer","","<div class='trialBorder'><div class='vertical-center'><img style='vertical-align:center; align:center' src=img/fixation3.jpg></div><div class='cl'><div class='vertical-center'>$73<br>with a<br>50% chance</div></div><div class='cr'><div class='vertical-center'>$42<br>for<br>sure</div></div><div class='respDivL'><div class='vertical-center'>(E)</div></div><div class='respDivR'><div class='vertical-center'>(I)</div></div></div>","E","$42","$73","1","42","73","RISKY"
"html-keyboard-response","156","177031","0.0-5.0-3.50","63d85999228b7d6b636dd96c","bdp_rd","Mon Mar 27 2023 12:02:04 GMT-0500 (Central Daylight Time)","188226","","null","","","","offerFB","","<div class='trialBorder'><div class='vertical-center'><img style='vertical-align:center; align:center' src=img/fixation3.jpg></div><div class='cl'><div class='vertical-center'><font style='color:orange'>$73<br>with a<br>50% chance</font></div></div><div class='cr'><div class='vertical-center'>$42<br>for<br>sure</div></div><div class='respDivL'><div class='vertical-center'><font style='color:orange'>(E)</font></div></div><div class='respDivR'><div class='vertical-center'>(I)</div></div></div>","null","$42","$73","1","42","73",""
"html-keyboard-response","157","177533","0.0-5.0-1.51","63d85999228b7d6b636dd96c","bdp_rd","Mon Mar 27 2023 12:02:04 GMT-0500 (Central Daylight Time)","188226","","null","","","","FIX","","<div class='trialBorder'><div class='vertical-center'><img style='vertical-align:center; align:center' src=img/fixation3.jpg></div></div>","null","","","","","",""
"html-keyboard-response","158","178028","0.0-5.0-2.51","63d85999228b7d6b636dd96c","bdp_rd","Mon Mar 27 2023 12:02:04 GMT-0500 (Central Daylight Time)","188226","","495","","","","offer","","<div class='trialBorder'><div class='vertical-center'><img style='vertical-align:center; align:center' src=img/fixation3.jpg></div><div class='cl'><div class='vertical-center'>$28<br>for<br>sure</div></div><div class='cr'><div class='vertical-center'>$89<br>with a<br>50% chance</div></div><div class='respDivL'><div class='vertical-center'>(E)</div></div><div class='respDivR'><div class='vertical-center'>(I)</div></div></div>","I","$28","$89","0","28","89","RISKY"
"html-keyboard-response","159","178280","0.0-5.0-3.51","63d85999228b7d6b636dd96c","bdp_rd","Mon Mar 27 2023 12:02:04 GMT-0500 (Central Daylight Time)","188226","","null","","","","offerFB","","<div class='trialBorder'><div class='vertical-center'><img style='vertical-align:center; align:center' src=img/fixation3.jpg></div><div class='cl'><div class='vertical-center'>$28<br>for<br>sure</div></div><div class='cr'><div class='vertical-center'><font style='color:orange'>$89<br>with a<br>50% chance</font></div></div><div class='respDivL'><div class='vertical-center'>(E)</div></div><div class='respDivR'><div class='vertical-center'><font style='color:orange'>(I)</font></div></div></div>","null","$28","$89","0","28","89",""
"html-keyboard-response","160","178782","0.0-5.0-1.52","63d85999228b7d6b636dd96c","bdp_rd","Mon Mar 27 2023 12:02:04 GMT-0500 (Central Daylight Time)","188226","","null","","","","FIX","","<div class='trialBorder'><div class='vertical-center'><img style='vertical-align:center; align:center' src=img/fixation3.jpg></div></div>","null","","","","","",""
"html-keyboard-response","161","179148","0.0-5.0-2.52","63d85999228b7d6b636dd96c","bdp_rd","Mon Mar 27 2023 12:02:04 GMT-0500 (Central Daylight Time)","188226","","366","","","","offer","","<div class='trialBorder'><div class='vertical-center'><img style='vertical-align:center; align:center' src=img/fixation3.jpg></div><div class='cl'><div class='vertical-center'>$66<br>with a<br>50% chance</div></div><div class='cr'><div class='vertical-center'>$33<br>for<br>sure</div></div><div class='respDivL'><div class='vertical-center'>(E)</div></div><div class='respDivR'><div class='vertical-center'>(I)</div></div></div>","E","$33","$66","1","33","66","RISKY"
"html-keyboard-response","162","179400","0.0-5.0-3.52","63d85999228b7d6b636dd96c","bdp_rd","Mon Mar 27 2023 12:02:04 GMT-0500 (Central Daylight Time)","188226","","null","","","","offerFB","","<div class='trialBorder'><div class='vertical-center'><img style='vertical-align:center; align:center' src=img/fixation3.jpg></div><div class='cl'><div class='vertical-center'><font style='color:orange'>$66<br>with a<br>50% chance</font></div></div><div class='cr'><div class='vertical-center'>$33<br>for<br>sure</div></div><div class='respDivL'><div class='vertical-center'><font style='color:orange'>(E)</font></div></div><div class='respDivR'><div class='vertical-center'>(I)</div></div></div>","null","$33","$66","1","33","66",""
"html-keyboard-response","163","179902","0.0-5.0-1.53","63d85999228b7d6b636dd96c","bdp_rd","Mon Mar 27 2023 12:02:04 GMT-0500 (Central Daylight Time)","188226","","null","","","","FIX","","<div class='trialBorder'><div class='vertical-center'><img style='vertical-align:center; align:center' src=img/fixation3.jpg></div></div>","null","","","","","",""
"html-keyboard-response","164","180188","0.0-5.0-2.53","63d85999228b7d6b636dd96c","bdp_rd","Mon Mar 27 2023 12:02:04 GMT-0500 (Central Daylight Time)","188226","","286","","","","offer","","<div class='trialBorder'><div class='vertical-center'><img style='vertical-align:center; align:center' src=img/fixation3.jpg></div><div class='cl'><div class='vertical-center'>$40<br>with a<br>50% chance</div></div><div class='cr'><div class='vertical-center'>$10<br>for<br>sure</div></div><div class='respDivL'><div class='vertical-center'>(E)</div></div><div class='respDivR'><div class='vertical-center'>(I)</div></div></div>","E","$10","$40","1","10","40","RISKY"
"html-keyboard-response","165","180440","0.0-5.0-3.53","63d85999228b7d6b636dd96c","bdp_rd","Mon Mar 27 2023 12:02:04 GMT-0500 (Central Daylight Time)","188226","","null","","","","offerFB","","<div class='trialBorder'><div class='vertical-center'><img style='vertical-align:center; align:center' src=img/fixation3.jpg></div><div class='cl'><div class='vertical-center'><font style='color:orange'>$40<br>with a<br>50% chance</font></div></div><div class='cr'><div class='vertical-center'>$10<br>for<br>sure</div></div><div class='respDivL'><div class='vertical-center'><font style='color:orange'>(E)</font></div></div><div class='respDivR'><div class='vertical-center'>(I)</div></div></div>","null","$10","$40","1","10","40",""
"html-keyboard-response","166","180941","0.0-5.0-1.54","63d85999228b7d6b636dd96c","bdp_rd","Mon Mar 27 2023 12:02:04 GMT-0500 (Central Daylight Time)","188226","","null","","","","FIX","","<div class='trialBorder'><div class='vertical-center'><img style='vertical-align:center; align:center' src=img/fixation3.jpg></div></div>","null","","","","","",""
"html-keyboard-response","167","181324","0.0-5.0-2.54","63d85999228b7d6b636dd96c","bdp_rd","Mon Mar 27 2023 12:02:04 GMT-0500 (Central Daylight Time)","188226","","382","","","","offer","","<div class='trialBorder'><div class='vertical-center'><img style='vertical-align:center; align:center' src=img/fixation3.jpg></div><div class='cl'><div class='vertical-center'>$15<br>for<br>sure</div></div><div class='cr'><div class='vertical-center'>$31<br>with a<br>50% chance</div></div><div class='respDivL'><div class='vertical-center'>(E)</div></div><div class='respDivR'><div class='vertical-center'>(I)</div></div></div>","I","$15","$31","0","15","31","RISKY"
"html-keyboard-response","168","181576","0.0-5.0-3.54","63d85999228b7d6b636dd96c","bdp_rd","Mon Mar 27 2023 12:02:04 GMT-0500 (Central Daylight Time)","188226","","null","","","","offerFB","","<div class='trialBorder'><div class='vertical-center'><img style='vertical-align:center; align:center' src=img/fixation3.jpg></div><div class='cl'><div class='vertical-center'>$15<br>for<br>sure</div></div><div class='cr'><div class='vertical-center'><font style='color:orange'>$31<br>with a<br>50% chance</font></div></div><div class='respDivL'><div class='vertical-center'>(E)</div></div><div class='respDivR'><div class='vertical-center'><font style='color:orange'>(I)</font></div></div></div>","null","$15","$31","0","15","31",""
"html-keyboard-response","169","182078","0.0-5.0-1.55","63d85999228b7d6b636dd96c","bdp_rd","Mon Mar 27 2023 12:02:04 GMT-0500 (Central Daylight Time)","188226","","null","","","","FIX","","<div class='trialBorder'><div class='vertical-center'><img style='vertical-align:center; align:center' src=img/fixation3.jpg></div></div>","null","","","","","",""
"html-keyboard-response","170","182428","0.0-5.0-2.55","63d85999228b7d6b636dd96c","bdp_rd","Mon Mar 27 2023 12:02:04 GMT-0500 (Central Daylight Time)","188226","","350","","","","offer","","<div class='trialBorder'><div class='vertical-center'><img style='vertical-align:center; align:center' src=img/fixation3.jpg></div><div class='cl'><div class='vertical-center'>$51<br>with a<br>50% chance</div></div><div class='cr'><div class='vertical-center'>$19<br>for<br>sure</div></div><div class='respDivL'><div class='vertical-center'>(E)</div></div><div class='respDivR'><div class='vertical-center'>(I)</div></div></div>","E","$19","$51","1","19","51","RISKY"
"html-keyboard-response","171","182680","0.0-5.0-3.55","63d85999228b7d6b636dd96c","bdp_rd","Mon Mar 27 2023 12:02:04 GMT-0500 (Central Daylight Time)","188226","","null","","","","offerFB","","<div class='trialBorder'><div class='vertical-center'><img style='vertical-align:center; align:center' src=img/fixation3.jpg></div><div class='cl'><div class='vertical-center'><font style='color:orange'>$51<br>with a<br>50% chance</font></div></div><div class='cr'><div class='vertical-center'>$19<br>for<br>sure</div></div><div class='respDivL'><div class='vertical-center'><font style='color:orange'>(E)</font></div></div><div class='respDivR'><div class='vertical-center'>(I)</div></div></div>","null","$19","$51","1","19","51",""
"html-keyboard-response","172","183182","0.0-5.0-1.56","63d85999228b7d6b636dd96c","bdp_rd","Mon Mar 27 2023 12:02:04 GMT-0500 (Central Daylight Time)","188226","","null","","","","FIX","","<div class='trialBorder'><div class='vertical-center'><img style='vertical-align:center; align:center' src=img/fixation3.jpg></div></div>","null","","","","","",""
"html-keyboard-response","173","183548","0.0-5.0-2.56","63d85999228b7d6b636dd96c","bdp_rd","Mon Mar 27 2023 12:02:04 GMT-0500 (Central Daylight Time)","188226","","366","","","","offer","","<div class='trialBorder'><div class='vertical-center'><img style='vertical-align:center; align:center' src=img/fixation3.jpg></div><div class='cl'><div class='vertical-center'>$21<br>for<br>sure</div></div><div class='cr'><div class='vertical-center'>$25<br>with a<br>50% chance</div></div><div class='respDivL'><div class='vertical-center'>(E)</div></div><div class='respDivR'><div class='vertical-center'>(I)</div></div></div>","I","$21","$25","0","21","25","RISKY"
