"trial_type","trial_index","time_elapsed","internal_node_id","subject_id","task","startTime","totalTime","view_history","rt","event","trial","time","trialtype","success","stimulus","key_press","sureOffer","riskyOffer","riskyLeft","sureAmt","riskyAmt","chosen"
"pavlovia","0","2","0.0-0.0","5c9bfbfa325c3d001ad360a8","bdp_rd","Thu Mar 30 2023 22:48:12 GMT-0400 (Eastern Daylight Time)","291763","","","","","","","","","","","","","","",""
"instructions","1","979","0.0-1.0","5c9bfbfa325c3d001ad360a8","bdp_rd","Thu Mar 30 2023 22:48:12 GMT-0400 (Eastern Daylight Time)","291763","[{""page_index"":0,""viewing_time"":977}]","977","","","","","","","","","","","","",""
"","","","","5c9bfbfa325c3d001ad360a8","bdp_rd","Thu Mar 30 2023 22:48:12 GMT-0400 (Eastern Daylight Time)","291763","","","fullscreenenter","2","4529","fullscreenenter","","","","","","","","",""
"fullscreen","2","5515","0.0-2.0","5c9bfbfa325c3d001ad360a8","bdp_rd","Thu Mar 30 2023 22:48:12 GMT-0400 (Eastern Daylight Time)","291763","","","","","","","true","","","","","","","",""
"instructions","3","30143","0.0-4.0","5c9bfbfa325c3d001ad360a8","bdp_rd","Thu Mar 30 2023 22:48:12 GMT-0400 (Eastern Daylight Time)","291763","[{""page_index"":0,""viewing_time"":20128},{""page_index"":1,""viewing_time"":1964},{""page_index"":2,""viewing_time"":2535}]","24627","","","","","","","","","","","","",""
"html-keyboard-response","4","30645","0.0-5.0-1.0","5c9bfbfa325c3d001ad360a8","bdp_rd","Thu Mar 30 2023 22:48:12 GMT-0400 (Eastern Daylight Time)","291763","","null","","","","FIX","","<div class='trialBorder'><div class='vertical-center'><img style='vertical-align:center; align:center' src=img/fixation3.jpg></div></div>","null","","","","","",""
"html-keyboard-response","5","33662","0.0-5.0-2.0","5c9bfbfa325c3d001ad360a8","bdp_rd","Thu Mar 30 2023 22:48:12 GMT-0400 (Eastern Daylight Time)","291763","","3015","","","","offer","","<div class='trialBorder'><div class='vertical-center'><img style='vertical-align:center; align:center' src=img/fixation3.jpg></div><div class='cl'><div class='vertical-center'>$9<br>for<br>sure</div></div><div class='cr'><div class='vertical-center'>$18<br>with a<br>50% chance</div></div><div class='respDivL'><div class='vertical-center'>(E)</div></div><div class='respDivR'><div class='vertical-center'>(I)</div></div></div>","E","$9","$18","0","9","18","SURE"
"html-keyboard-response","6","33913","0.0-5.0-3.0","5c9bfbfa325c3d001ad360a8","bdp_rd","Thu Mar 30 2023 22:48:12 GMT-0400 (Eastern Daylight Time)","291763","","null","","","","offerFB","","<div class='trialBorder'><div class='vertical-center'><img style='vertical-align:center; align:center' src=img/fixation3.jpg></div><div class='cl'><div class='vertical-center'><font style='color:orange'>$9<br>for<br>sure</font></div></div><div class='cr'><div class='vertical-center'>$18<br>with a<br>50% chance</div></div><div class='respDivL'><div class='vertical-center'><font style='color:orange'>(E)</font></div></div><div class='respDivR'><div class='vertical-center'>(I)</div></div></div>","null","$9","$18","0","9","18",""
"html-keyboard-response","7","34416","0.0-5.0-1.1","5c9bfbfa325c3d001ad360a8","bdp_rd","Thu Mar 30 2023 22:48:12 GMT-0400 (Eastern Daylight Time)","291763","","null","","","","FIX","","<div class='trialBorder'><div class='vertical-center'><img style='vertical-align:center; align:center' src=img/fixation3.jpg></div></div>","null","","","","","",""
"html-keyboard-response","8","36882","0.0-5.0-2.1","5c9bfbfa325c3d001ad360a8","bdp_rd","Thu Mar 30 2023 22:48:12 GMT-0400 (Eastern Daylight Time)","291763","","2466","","","","offer","","<div class='trialBorder'><div class='vertical-center'><img style='vertical-align:center; align:center' src=img/fixation3.jpg></div><div class='cl'><div class='vertical-center'>$36<br>with a<br>50% chance</div></div><div class='cr'><div class='vertical-center'>$18<br>for<br>sure</div></div><div class='respDivL'><div class='vertical-center'>(E)</div></div><div class='respDivR'><div class='vertical-center'>(I)</div></div></div>","I","$18","$36","1","18","36","SURE"
"html-keyboard-response","9","37133","0.0-5.0-3.1","5c9bfbfa325c3d001ad360a8","bdp_rd","Thu Mar 30 2023 22:48:12 GMT-0400 (Eastern Daylight Time)","291763","","null","","","","offerFB","","<div class='trialBorder'><div class='vertical-center'><img style='vertical-align:center; align:center' src=img/fixation3.jpg></div><div class='cl'><div class='vertical-center'>$36<br>with a<br>50% chance</div></div><div class='cr'><div class='vertical-center'><font style='color:orange'>$18<br>for<br>sure</font></div></div><div class='respDivL'><div class='vertical-center'>(E)</div></div><div class='respDivR'><div class='vertical-center'><font style='color:orange'>(I)</font></div></div></div>","null","$18","$36","1","18","36",""
"html-keyboard-response","10","37635","0.0-5.0-1.2","5c9bfbfa325c3d001ad360a8","bdp_rd","Thu Mar 30 2023 22:48:12 GMT-0400 (Eastern Daylight Time)","291763","","null","","","","FIX","","<div class='trialBorder'><div class='vertical-center'><img style='vertical-align:center; align:center' src=img/fixation3.jpg></div></div>","null","","","","","",""
"html-keyboard-response","11","39220","0.0-5.0-2.2","5c9bfbfa325c3d001ad360a8","bdp_rd","Thu Mar 30 2023 22:48:12 GMT-0400 (Eastern Daylight Time)","291763","","1585","","","","offer","","<div class='trialBorder'><div class='vertical-center'><img style='vertical-align:center; align:center' src=img/fixation3.jpg></div><div class='cl'><div class='vertical-center'>$14<br>for<br>sure</div></div><div class='cr'><div class='vertical-center'>$29<br>with a<br>50% chance</div></div><div class='respDivL'><div class='vertical-center'>(E)</div></div><div class='respDivR'><div class='vertical-center'>(I)</div></div></div>","E","$14","$29","0","14","29","SURE"
"html-keyboard-response","12","39472","0.0-5.0-3.2","5c9bfbfa325c3d001ad360a8","bdp_rd","Thu Mar 30 2023 22:48:12 GMT-0400 (Eastern Daylight Time)","291763","","null","","","","offerFB","","<div class='trialBorder'><div class='vertical-center'><img style='vertical-align:center; align:center' src=img/fixation3.jpg></div><div class='cl'><div class='vertical-center'><font style='color:orange'>$14<br>for<br>sure</font></div></div><div class='cr'><div class='vertical-center'>$29<br>with a<br>50% chance</div></div><div class='respDivL'><div class='vertical-center'><font style='color:orange'>(E)</font></div></div><div class='respDivR'><div class='vertical-center'>(I)</div></div></div>","null","$14","$29","0","14","29",""
"html-keyboard-response","13","39973","0.0-5.0-1.3","5c9bfbfa325c3d001ad360a8","bdp_rd","Thu Mar 30 2023 22:48:12 GMT-0400 (Eastern Daylight Time)","291763","","null","","","","FIX","","<div class='trialBorder'><div class='vertical-center'><img style='vertical-align:center; align:center' src=img/fixation3.jpg></div></div>","null","","","","","",""
"html-keyboard-response","14","41922","0.0-5.0-2.3","5c9bfbfa325c3d001ad360a8","bdp_rd","Thu Mar 30 2023 22:48:12 GMT-0400 (Eastern Daylight Time)","291763","","1948","","","","offer","","<div class='trialBorder'><div class='vertical-center'><img style='vertical-align:center; align:center' src=img/fixation3.jpg></div><div class='cl'><div class='vertical-center'>$59<br>with a<br>50% chance</div></div><div class='cr'><div class='vertical-center'>$22<br>for<br>sure</div></div><div class='respDivL'><div class='vertical-center'>(E)</div></div><div class='respDivR'><div class='vertical-center'>(I)</div></div></div>","I","$22","$59","1","22","59","SURE"
"html-keyboard-response","15","42174","0.0-5.0-3.3","5c9bfbfa325c3d001ad360a8","bdp_rd","Thu Mar 30 2023 22:48:12 GMT-0400 (Eastern Daylight Time)","291763","","null","","","","offerFB","","<div class='trialBorder'><div class='vertical-center'><img style='vertical-align:center; align:center' src=img/fixation3.jpg></div><div class='cl'><div class='vertical-center'>$59<br>with a<br>50% chance</div></div><div class='cr'><div class='vertical-center'><font style='color:orange'>$22<br>for<br>sure</font></div></div><div class='respDivL'><div class='vertical-center'>(E)</div></div><div class='respDivR'><div class='vertical-center'><font style='color:orange'>(I)</font></div></div></div>","null","$22","$59","1","22","59",""
"html-keyboard-response","16","42675","0.0-5.0-1.4","5c9bfbfa325c3d001ad360a8","bdp_rd","Thu Mar 30 2023 22:48:12 GMT-0400 (Eastern Daylight Time)","291763","","null","","","","FIX","","<div class='trialBorder'><div class='vertical-center'><img style='vertical-align:center; align:center' src=img/fixation3.jpg></div></div>","null","","","","","",""
"html-keyboard-response","17","44024","0.0-5.0-2.4","5c9bfbfa325c3d001ad360a8","bdp_rd","Thu Mar 30 2023 22:48:12 GMT-0400 (Eastern Daylight Time)","291763","","1348","","","","offer","","<div class='trialBorder'><div class='vertical-center'><img style='vertical-align:center; align:center' src=img/fixation3.jpg></div><div class='cl'><div class='vertical-center'>$29<br>for<br>sure</div></div><div class='cr'><div class='vertical-center'>$46<br>with a<br>50% chance</div></div><div class='respDivL'><div class='vertical-center'>(E)</div></div><div class='respDivR'><div class='vertical-center'>(I)</div></div></div>","E","$29","$46","0","29","46","SURE"
"html-keyboard-response","18","44275","0.0-5.0-3.4","5c9bfbfa325c3d001ad360a8","bdp_rd","Thu Mar 30 2023 22:48:12 GMT-0400 (Eastern Daylight Time)","291763","","null","","","","offerFB","","<div class='trialBorder'><div class='vertical-center'><img style='vertical-align:center; align:center' src=img/fixation3.jpg></div><div class='cl'><div class='vertical-center'><font style='color:orange'>$29<br>for<br>sure</font></div></div><div class='cr'><div class='vertical-center'>$46<br>with a<br>50% chance</div></div><div class='respDivL'><div class='vertical-center'><font style='color:orange'>(E)</font></div></div><div class='respDivR'><div class='vertical-center'>(I)</div></div></div>","null","$29","$46","0","29","46",""
"html-keyboard-response","19","44777","0.0-5.0-1.5","5c9bfbfa325c3d001ad360a8","bdp_rd","Thu Mar 30 2023 22:48:12 GMT-0400 (Eastern Daylight Time)","291763","","null","","","","FIX","","<div class='trialBorder'><div class='vertical-center'><img style='vertical-align:center; align:center' src=img/fixation3.jpg></div></div>","null","","","","","",""
"html-keyboard-response","20","45595","0.0-5.0-2.5","5c9bfbfa325c3d001ad360a8","bdp_rd","Thu Mar 30 2023 22:48:12 GMT-0400 (Eastern Daylight Time)","291763","","818","","","","offer","","<div class='trialBorder'><div class='vertical-center'><img style='vertical-align:center; align:center' src=img/fixation3.jpg></div><div class='cl'><div class='vertical-center'>$37<br>for<br>sure</div></div><div class='cr'><div class='vertical-center'>$44<br>with a<br>50% chance</div></div><div class='respDivL'><div class='vertical-center'>(E)</div></div><div class='respDivR'><div class='vertical-center'>(I)</div></div></div>","E","$37","$44","0","37","44","SURE"
"html-keyboard-response","21","45847","0.0-5.0-3.5","5c9bfbfa325c3d001ad360a8","bdp_rd","Thu Mar 30 2023 22:48:12 GMT-0400 (Eastern Daylight Time)","291763","","null","","","","offerFB","","<div class='trialBorder'><div class='vertical-center'><img style='vertical-align:center; align:center' src=img/fixation3.jpg></div><div class='cl'><div class='vertical-center'><font style='color:orange'>$37<br>for<br>sure</font></div></div><div class='cr'><div class='vertical-center'>$44<br>with a<br>50% chance</div></div><div class='respDivL'><div class='vertical-center'><font style='color:orange'>(E)</font></div></div><div class='respDivR'><div class='vertical-center'>(I)</div></div></div>","null","$37","$44","0","37","44",""
"html-keyboard-response","22","46348","0.0-5.0-1.6","5c9bfbfa325c3d001ad360a8","bdp_rd","Thu Mar 30 2023 22:48:12 GMT-0400 (Eastern Daylight Time)","291763","","null","","","","FIX","","<div class='trialBorder'><div class='vertical-center'><img style='vertical-align:center; align:center' src=img/fixation3.jpg></div></div>","null","","","","","",""
"html-keyboard-response","23","47531","0.0-5.0-2.6","5c9bfbfa325c3d001ad360a8","bdp_rd","Thu Mar 30 2023 22:48:12 GMT-0400 (Eastern Daylight Time)","291763","","1182","","","","offer","","<div class='trialBorder'><div class='vertical-center'><img style='vertical-align:center; align:center' src=img/fixation3.jpg></div><div class='cl'><div class='vertical-center'>$73<br>with a<br>50% chance</div></div><div class='cr'><div class='vertical-center'>$42<br>for<br>sure</div></div><div class='respDivL'><div class='vertical-center'>(E)</div></div><div class='respDivR'><div class='vertical-center'>(I)</div></div></div>","I","$42","$73","1","42","73","SURE"
"html-keyboard-response","24","47782","0.0-5.0-3.6","5c9bfbfa325c3d001ad360a8","bdp_rd","Thu Mar 30 2023 22:48:12 GMT-0400 (Eastern Daylight Time)","291763","","null","","","","offerFB","","<div class='trialBorder'><div class='vertical-center'><img style='vertical-align:center; align:center' src=img/fixation3.jpg></div><div class='cl'><div class='vertical-center'>$73<br>with a<br>50% chance</div></div><div class='cr'><div class='vertical-center'><font style='color:orange'>$42<br>for<br>sure</font></div></div><div class='respDivL'><div class='vertical-center'>(E)</div></div><div class='respDivR'><div class='vertical-center'><font style='color:orange'>(I)</font></div></div></div>","null","$42","$73","1","42","73",""
"html-keyboard-response","25","48284","0.0-5.0-1.7","5c9bfbfa325c3d001ad360a8","bdp_rd","Thu Mar 30 2023 22:48:12 GMT-0400 (Eastern Daylight Time)","291763","","null","","","","FIX","","<div class='trialBorder'><div class='vertical-center'><img style='vertical-align:center; align:center' src=img/fixation3.jpg></div></div>","null","","","","","",""
"html-keyboard-response","26","49307","0.0-5.0-2.7","5c9bfbfa325c3d001ad360a8","bdp_rd","Thu Mar 30 2023 22:48:12 GMT-0400 (Eastern Daylight Time)","291763","","1023","","","","offer","","<div class='trialBorder'><div class='vertical-center'><img style='vertical-align:center; align:center' src=img/fixation3.jpg></div><div class='cl'><div class='vertical-center'>$39<br>for<br>sure</div></div><div class='cr'><div class='vertical-center'>$81<br>with a<br>50% chance</div></div><div class='respDivL'><div class='vertical-center'>(E)</div></div><div class='respDivR'><div class='vertical-center'>(I)</div></div></div>","E","$39","$81","0","39","81","SURE"
"html-keyboard-response","27","49559","0.0-5.0-3.7","5c9bfbfa325c3d001ad360a8","bdp_rd","Thu Mar 30 2023 22:48:12 GMT-0400 (Eastern Daylight Time)","291763","","null","","","","offerFB","","<div class='trialBorder'><div class='vertical-center'><img style='vertical-align:center; align:center' src=img/fixation3.jpg></div><div class='cl'><div class='vertical-center'><font style='color:orange'>$39<br>for<br>sure</font></div></div><div class='cr'><div class='vertical-center'>$81<br>with a<br>50% chance</div></div><div class='respDivL'><div class='vertical-center'><font style='color:orange'>(E)</font></div></div><div class='respDivR'><div class='vertical-center'>(I)</div></div></div>","null","$39","$81","0","39","81",""
"html-keyboard-response","28","50060","0.0-5.0-1.8","5c9bfbfa325c3d001ad360a8","bdp_rd","Thu Mar 30 2023 22:48:12 GMT-0400 (Eastern Daylight Time)","291763","","null","","","","FIX","","<div class='trialBorder'><div class='vertical-center'><img style='vertical-align:center; align:center' src=img/fixation3.jpg></div></div>","null","","","","","",""
"html-keyboard-response","29","52182","0.0-5.0-2.8","5c9bfbfa325c3d001ad360a8","bdp_rd","Thu Mar 30 2023 22:48:12 GMT-0400 (Eastern Daylight Time)","291763","","2122","","","","offer","","<div class='trialBorder'><div class='vertical-center'><img style='vertical-align:center; align:center' src=img/fixation3.jpg></div><div class='cl'><div class='vertical-center'>$18<br>for<br>sure</div></div><div class='cr'><div class='vertical-center'>$39<br>with a<br>50% chance</div></div><div class='respDivL'><div class='vertical-center'>(E)</div></div><div class='respDivR'><div class='vertical-center'>(I)</div></div></div>","E","$18","$39","0","18","39","SURE"
"html-keyboard-response","30","52434","0.0-5.0-3.8","5c9bfbfa325c3d001ad360a8","bdp_rd","Thu Mar 30 2023 22:48:12 GMT-0400 (Eastern Daylight Time)","291763","","null","","","","offerFB","","<div class='trialBorder'><div class='vertical-center'><img style='vertical-align:center; align:center' src=img/fixation3.jpg></div><div class='cl'><div class='vertical-center'><font style='color:orange'>$18<br>for<br>sure</font></div></div><div class='cr'><div class='vertical-center'>$39<br>with a<br>50% chance</div></div><div class='respDivL'><div class='vertical-center'><font style='color:orange'>(E)</font></div></div><div class='respDivR'><div class='vertical-center'>(I)</div></div></div>","null","$18","$39","0","18","39",""
"html-keyboard-response","31","52936","0.0-5.0-1.9","5c9bfbfa325c3d001ad360a8","bdp_rd","Thu Mar 30 2023 22:48:12 GMT-0400 (Eastern Daylight Time)","291763","","null","","","","FIX","","<div class='trialBorder'><div class='vertical-center'><img style='vertical-align:center; align:center' src=img/fixation3.jpg></div></div>","null","","","","","",""
"html-keyboard-response","32","55656","0.0-5.0-2.9","5c9bfbfa325c3d001ad360a8","bdp_rd","Thu Mar 30 2023 22:48:12 GMT-0400 (Eastern Daylight Time)","291763","","2720","","","","offer","","<div class='trialBorder'><div class='vertical-center'><img style='vertical-align:center; align:center' src=img/fixation3.jpg></div><div class='cl'><div class='vertical-center'>$19<br>for<br>sure</div></div><div class='cr'><div class='vertical-center'>$51<br>with a<br>50% chance</div></div><div class='respDivL'><div class='vertical-center'>(E)</div></div><div class='respDivR'><div class='vertical-center'>(I)</div></div></div>","E","$19","$51","0","19","51","SURE"
"html-keyboard-response","33","55908","0.0-5.0-3.9","5c9bfbfa325c3d001ad360a8","bdp_rd","Thu Mar 30 2023 22:48:12 GMT-0400 (Eastern Daylight Time)","291763","","null","","","","offerFB","","<div class='trialBorder'><div class='vertical-center'><img style='vertical-align:center; align:center' src=img/fixation3.jpg></div><div class='cl'><div class='vertical-center'><font style='color:orange'>$19<br>for<br>sure</font></div></div><div class='cr'><div class='vertical-center'>$51<br>with a<br>50% chance</div></div><div class='respDivL'><div class='vertical-center'><font style='color:orange'>(E)</font></div></div><div class='respDivR'><div class='vertical-center'>(I)</div></div></div>","null","$19","$51","0","19","51",""
"html-keyboard-response","34","56409","0.0-5.0-1.10","5c9bfbfa325c3d001ad360a8","bdp_rd","Thu Mar 30 2023 22:48:12 GMT-0400 (Eastern Daylight Time)","291763","","null","","","","FIX","","<div class='trialBorder'><div class='vertical-center'><img style='vertical-align:center; align:center' src=img/fixation3.jpg></div></div>","null","","","","","",""
"html-keyboard-response","35","57703","0.0-5.0-2.10","5c9bfbfa325c3d001ad360a8","bdp_rd","Thu Mar 30 2023 22:48:12 GMT-0400 (Eastern Daylight Time)","291763","","1292","","","","offer","","<div class='trialBorder'><div class='vertical-center'><img style='vertical-align:center; align:center' src=img/fixation3.jpg></div><div class='cl'><div class='vertical-center'>$80<br>with a<br>50% chance</div></div><div class='cr'><div class='vertical-center'>$20<br>for<br>sure</div></div><div class='respDivL'><div class='vertical-center'>(E)</div></div><div class='respDivR'><div class='vertical-center'>(I)</div></div></div>","I","$20","$80","1","20","80","SURE"
"html-keyboard-response","36","57954","0.0-5.0-3.10","5c9bfbfa325c3d001ad360a8","bdp_rd","Thu Mar 30 2023 22:48:12 GMT-0400 (Eastern Daylight Time)","291763","","null","","","","offerFB","","<div class='trialBorder'><div class='vertical-center'><img style='vertical-align:center; align:center' src=img/fixation3.jpg></div><div class='cl'><div class='vertical-center'>$80<br>with a<br>50% chance</div></div><div class='cr'><div class='vertical-center'><font style='color:orange'>$20<br>for<br>sure</font></div></div><div class='respDivL'><div class='vertical-center'>(E)</div></div><div class='respDivR'><div class='vertical-center'><font style='color:orange'>(I)</font></div></div></div>","null","$20","$80","1","20","80",""
"html-keyboard-response","37","58455","0.0-5.0-1.11","5c9bfbfa325c3d001ad360a8","bdp_rd","Thu Mar 30 2023 22:48:12 GMT-0400 (Eastern Daylight Time)","291763","","null","","","","FIX","","<div class='trialBorder'><div class='vertical-center'><img style='vertical-align:center; align:center' src=img/fixation3.jpg></div></div>","null","","","","","",""
"html-keyboard-response","38","59429","0.0-5.0-2.11","5c9bfbfa325c3d001ad360a8","bdp_rd","Thu Mar 30 2023 22:48:12 GMT-0400 (Eastern Daylight Time)","291763","","973","","","","offer","","<div class='trialBorder'><div class='vertical-center'><img style='vertical-align:center; align:center' src=img/fixation3.jpg></div><div class='cl'><div class='vertical-center'>$25<br>with a<br>50% chance</div></div><div class='cr'><div class='vertical-center'>$21<br>for<br>sure</div></div><div class='respDivL'><div class='vertical-center'>(E)</div></div><div class='respDivR'><div class='vertical-center'>(I)</div></div></div>","I","$21","$25","1","21","25","SURE"
"html-keyboard-response","39","59680","0.0-5.0-3.11","5c9bfbfa325c3d001ad360a8","bdp_rd","Thu Mar 30 2023 22:48:12 GMT-0400 (Eastern Daylight Time)","291763","","null","","","","offerFB","","<div class='trialBorder'><div class='vertical-center'><img style='vertical-align:center; align:center' src=img/fixation3.jpg></div><div class='cl'><div class='vertical-center'>$25<br>with a<br>50% chance</div></div><div class='cr'><div class='vertical-center'><font style='color:orange'>$21<br>for<br>sure</font></div></div><div class='respDivL'><div class='vertical-center'>(E)</div></div><div class='respDivR'><div class='vertical-center'><font style='color:orange'>(I)</font></div></div></div>","null","$21","$25","1","21","25",""
"html-keyboard-response","40","60182","0.0-5.0-1.12","5c9bfbfa325c3d001ad360a8","bdp_rd","Thu Mar 30 2023 22:48:12 GMT-0400 (Eastern Daylight Time)","291763","","null","","","","FIX","","<div class='trialBorder'><div class='vertical-center'><img style='vertical-align:center; align:center' src=img/fixation3.jpg></div></div>","null","","","","","",""
"html-keyboard-response","41","60787","0.0-5.0-2.12","5c9bfbfa325c3d001ad360a8","bdp_rd","Thu Mar 30 2023 22:48:12 GMT-0400 (Eastern Daylight Time)","291763","","604","","","","offer","","<div class='trialBorder'><div class='vertical-center'><img style='vertical-align:center; align:center' src=img/fixation3.jpg></div><div class='cl'><div class='vertical-center'>$68<br>with a<br>50% chance</div></div><div class='cr'><div class='vertical-center'>$30<br>for<br>sure</div></div><div class='respDivL'><div class='vertical-center'>(E)</div></div><div class='respDivR'><div class='vertical-center'>(I)</div></div></div>","I","$30","$68","1","30","68","SURE"
"html-keyboard-response","42","61038","0.0-5.0-3.12","5c9bfbfa325c3d001ad360a8","bdp_rd","Thu Mar 30 2023 22:48:12 GMT-0400 (Eastern Daylight Time)","291763","","null","","","","offerFB","","<div class='trialBorder'><div class='vertical-center'><img style='vertical-align:center; align:center' src=img/fixation3.jpg></div><div class='cl'><div class='vertical-center'>$68<br>with a<br>50% chance</div></div><div class='cr'><div class='vertical-center'><font style='color:orange'>$30<br>for<br>sure</font></div></div><div class='respDivL'><div class='vertical-center'>(E)</div></div><div class='respDivR'><div class='vertical-center'><font style='color:orange'>(I)</font></div></div></div>","null","$30","$68","1","30","68",""
"html-keyboard-response","43","61539","0.0-5.0-1.13","5c9bfbfa325c3d001ad360a8","bdp_rd","Thu Mar 30 2023 22:48:12 GMT-0400 (Eastern Daylight Time)","291763","","null","","","","FIX","","<div class='trialBorder'><div class='vertical-center'><img style='vertical-align:center; align:center' src=img/fixation3.jpg></div></div>","null","","","","","",""
"html-keyboard-response","44","62555","0.0-5.0-2.13","5c9bfbfa325c3d001ad360a8","bdp_rd","Thu Mar 30 2023 22:48:12 GMT-0400 (Eastern Daylight Time)","291763","","1016","","","","offer","","<div class='trialBorder'><div class='vertical-center'><img style='vertical-align:center; align:center' src=img/fixation3.jpg></div><div class='cl'><div class='vertical-center'>$7<br>for<br>sure</div></div><div class='cr'><div class='vertical-center'>$10<br>with a<br>50% chance</div></div><div class='respDivL'><div class='vertical-center'>(E)</div></div><div class='respDivR'><div class='vertical-center'>(I)</div></div></div>","E","$7","$10","0","7","10","SURE"
"html-keyboard-response","45","62806","0.0-5.0-3.13","5c9bfbfa325c3d001ad360a8","bdp_rd","Thu Mar 30 2023 22:48:12 GMT-0400 (Eastern Daylight Time)","291763","","null","","","","offerFB","","<div class='trialBorder'><div class='vertical-center'><img style='vertical-align:center; align:center' src=img/fixation3.jpg></div><div class='cl'><div class='vertical-center'><font style='color:orange'>$7<br>for<br>sure</font></div></div><div class='cr'><div class='vertical-center'>$10<br>with a<br>50% chance</div></div><div class='respDivL'><div class='vertical-center'><font style='color:orange'>(E)</font></div></div><div class='respDivR'><div class='vertical-center'>(I)</div></div></div>","null","$7","$10","0","7","10",""
"html-keyboard-response","46","63307","0.0-5.0-1.14","5c9bfbfa325c3d001ad360a8","bdp_rd","Thu Mar 30 2023 22:48:12 GMT-0400 (Eastern Daylight Time)","291763","","null","","","","FIX","","<div class='trialBorder'><div class='vertical-center'><img style='vertical-align:center; align:center' src=img/fixation3.jpg></div></div>","null","","","","","",""
"html-keyboard-response","47","64093","0.0-5.0-2.14","5c9bfbfa325c3d001ad360a8","bdp_rd","Thu Mar 30 2023 22:48:12 GMT-0400 (Eastern Daylight Time)","291763","","785","","","","offer","","<div class='trialBorder'><div class='vertical-center'><img style='vertical-align:center; align:center' src=img/fixation3.jpg></div><div class='cl'><div class='vertical-center'>$34<br>with a<br>50% chance</div></div><div class='cr'><div class='vertical-center'>$15<br>for<br>sure</div></div><div class='respDivL'><div class='vertical-center'>(E)</div></div><div class='respDivR'><div class='vertical-center'>(I)</div></div></div>","I","$15","$34","1","15","34","SURE"
"html-keyboard-response","48","64344","0.0-5.0-3.14","5c9bfbfa325c3d001ad360a8","bdp_rd","Thu Mar 30 2023 22:48:12 GMT-0400 (Eastern Daylight Time)","291763","","null","","","","offerFB","","<div class='trialBorder'><div class='vertical-center'><img style='vertical-align:center; align:center' src=img/fixation3.jpg></div><div class='cl'><div class='vertical-center'>$34<br>with a<br>50% chance</div></div><div class='cr'><div class='vertical-center'><font style='color:orange'>$15<br>for<br>sure</font></div></div><div class='respDivL'><div class='vertical-center'>(E)</div></div><div class='respDivR'><div class='vertical-center'><font style='color:orange'>(I)</font></div></div></div>","null","$15","$34","1","15","34",""
"html-keyboard-response","49","64845","0.0-5.0-1.15","5c9bfbfa325c3d001ad360a8","bdp_rd","Thu Mar 30 2023 22:48:12 GMT-0400 (Eastern Daylight Time)","291763","","null","","","","FIX","","<div class='trialBorder'><div class='vertical-center'><img style='vertical-align:center; align:center' src=img/fixation3.jpg></div></div>","null","","","","","",""
"html-keyboard-response","50","65699","0.0-5.0-2.15","5c9bfbfa325c3d001ad360a8","bdp_rd","Thu Mar 30 2023 22:48:12 GMT-0400 (Eastern Daylight Time)","291763","","854","","","","offer","","<div class='trialBorder'><div class='vertical-center'><img style='vertical-align:center; align:center' src=img/fixation3.jpg></div><div class='cl'><div class='vertical-center'>$43<br>with a<br>50% chance</div></div><div class='cr'><div class='vertical-center'>$17<br>for<br>sure</div></div><div class='respDivL'><div class='vertical-center'>(E)</div></div><div class='respDivR'><div class='vertical-center'>(I)</div></div></div>","I","$17","$43","1","17","43","SURE"
"html-keyboard-response","51","65951","0.0-5.0-3.15","5c9bfbfa325c3d001ad360a8","bdp_rd","Thu Mar 30 2023 22:48:12 GMT-0400 (Eastern Daylight Time)","291763","","null","","","","offerFB","","<div class='trialBorder'><div class='vertical-center'><img style='vertical-align:center; align:center' src=img/fixation3.jpg></div><div class='cl'><div class='vertical-center'>$43<br>with a<br>50% chance</div></div><div class='cr'><div class='vertical-center'><font style='color:orange'>$17<br>for<br>sure</font></div></div><div class='respDivL'><div class='vertical-center'>(E)</div></div><div class='respDivR'><div class='vertical-center'><font style='color:orange'>(I)</font></div></div></div>","null","$17","$43","1","17","43",""
"html-keyboard-response","52","66451","0.0-5.0-1.16","5c9bfbfa325c3d001ad360a8","bdp_rd","Thu Mar 30 2023 22:48:12 GMT-0400 (Eastern Daylight Time)","291763","","null","","","","FIX","","<div class='trialBorder'><div class='vertical-center'><img style='vertical-align:center; align:center' src=img/fixation3.jpg></div></div>","null","","","","","",""
"html-keyboard-response","53","71288","0.0-5.0-2.16","5c9bfbfa325c3d001ad360a8","bdp_rd","Thu Mar 30 2023 22:48:12 GMT-0400 (Eastern Daylight Time)","291763","","4836","","","","offer","","<div class='trialBorder'><div class='vertical-center'><img style='vertical-align:center; align:center' src=img/fixation3.jpg></div><div class='cl'><div class='vertical-center'>$2<br>for<br>sure</div></div><div class='cr'><div class='vertical-center'>$64<br>with a<br>50% chance</div></div><div class='respDivL'><div class='vertical-center'>(E)</div></div><div class='respDivR'><div class='vertical-center'>(I)</div></div></div>","I","$2","$64","0","2","64","RISKY"
"html-keyboard-response","54","71540","0.0-5.0-3.16","5c9bfbfa325c3d001ad360a8","bdp_rd","Thu Mar 30 2023 22:48:12 GMT-0400 (Eastern Daylight Time)","291763","","null","","","","offerFB","","<div class='trialBorder'><div class='vertical-center'><img style='vertical-align:center; align:center' src=img/fixation3.jpg></div><div class='cl'><div class='vertical-center'>$2<br>for<br>sure</div></div><div class='cr'><div class='vertical-center'><font style='color:orange'>$64<br>with a<br>50% chance</font></div></div><div class='respDivL'><div class='vertical-center'>(E)</div></div><div class='respDivR'><div class='vertical-center'><font style='color:orange'>(I)</font></div></div></div>","null","$2","$64","0","2","64",""
"html-keyboard-response","55","72041","0.0-5.0-1.17","5c9bfbfa325c3d001ad360a8","bdp_rd","Thu Mar 30 2023 22:48:12 GMT-0400 (Eastern Daylight Time)","291763","","null","","","","FIX","","<div class='trialBorder'><div class='vertical-center'><img style='vertical-align:center; align:center' src=img/fixation3.jpg></div></div>","null","","","","","",""
"html-keyboard-response","56","74125","0.0-5.0-2.17","5c9bfbfa325c3d001ad360a8","bdp_rd","Thu Mar 30 2023 22:48:12 GMT-0400 (Eastern Daylight Time)","291763","","2082","","","","offer","","<div class='trialBorder'><div class='vertical-center'><img style='vertical-align:center; align:center' src=img/fixation3.jpg></div><div class='cl'><div class='vertical-center'>$12<br>for<br>sure</div></div><div class='cr'><div class='vertical-center'>$35<br>with a<br>50% chance</div></div><div class='respDivL'><div class='vertical-center'>(E)</div></div><div class='respDivR'><div class='vertical-center'>(I)</div></div></div>","E","$12","$35","0","12","35","SURE"
"html-keyboard-response","57","74376","0.0-5.0-3.17","5c9bfbfa325c3d001ad360a8","bdp_rd","Thu Mar 30 2023 22:48:12 GMT-0400 (Eastern Daylight Time)","291763","","null","","","","offerFB","","<div class='trialBorder'><div class='vertical-center'><img style='vertical-align:center; align:center' src=img/fixation3.jpg></div><div class='cl'><div class='vertical-center'><font style='color:orange'>$12<br>for<br>sure</font></div></div><div class='cr'><div class='vertical-center'>$35<br>with a<br>50% chance</div></div><div class='respDivL'><div class='vertical-center'><font style='color:orange'>(E)</font></div></div><div class='respDivR'><div class='vertical-center'>(I)</div></div></div>","null","$12","$35","0","12","35",""
"html-keyboard-response","58","74877","0.0-5.0-1.18","5c9bfbfa325c3d001ad360a8","bdp_rd","Thu Mar 30 2023 22:48:12 GMT-0400 (Eastern Daylight Time)","291763","","null","","","","FIX","","<div class='trialBorder'><div class='vertical-center'><img style='vertical-align:center; align:center' src=img/fixation3.jpg></div></div>","null","","","","","",""
"html-keyboard-response","59","77452","0.0-5.0-2.18","5c9bfbfa325c3d001ad360a8","bdp_rd","Thu Mar 30 2023 22:48:12 GMT-0400 (Eastern Daylight Time)","291763","","2574","","","","offer","","<div class='trialBorder'><div class='vertical-center'><img style='vertical-align:center; align:center' src=img/fixation3.jpg></div><div class='cl'><div class='vertical-center'>$32<br>with a<br>50% chance</div></div><div class='cr'><div class='vertical-center'>$9<br>for<br>sure</div></div><div class='respDivL'><div class='vertical-center'>(E)</div></div><div class='respDivR'><div class='vertical-center'>(I)</div></div></div>","I","$9","$32","1","9","32","SURE"
"html-keyboard-response","60","77705","0.0-5.0-3.18","5c9bfbfa325c3d001ad360a8","bdp_rd","Thu Mar 30 2023 22:48:12 GMT-0400 (Eastern Daylight Time)","291763","","null","","","","offerFB","","<div class='trialBorder'><div class='vertical-center'><img style='vertical-align:center; align:center' src=img/fixation3.jpg></div><div class='cl'><div class='vertical-center'>$32<br>with a<br>50% chance</div></div><div class='cr'><div class='vertical-center'><font style='color:orange'>$9<br>for<br>sure</font></div></div><div class='respDivL'><div class='vertical-center'>(E)</div></div><div class='respDivR'><div class='vertical-center'><font style='color:orange'>(I)</font></div></div></div>","null","$9","$32","1","9","32",""
"html-keyboard-response","61","78207","0.0-5.0-1.19","5c9bfbfa325c3d001ad360a8","bdp_rd","Thu Mar 30 2023 22:48:12 GMT-0400 (Eastern Daylight Time)","291763","","null","","","","FIX","","<div class='trialBorder'><div class='vertical-center'><img style='vertical-align:center; align:center' src=img/fixation3.jpg></div></div>","null","","","","","",""
"html-keyboard-response","62","79538","0.0-5.0-2.19","5c9bfbfa325c3d001ad360a8","bdp_rd","Thu Mar 30 2023 22:48:12 GMT-0400 (Eastern Daylight Time)","291763","","1330","","","","offer","","<div class='trialBorder'><div class='vertical-center'><img style='vertical-align:center; align:center' src=img/fixation3.jpg></div><div class='cl'><div class='vertical-center'>$33<br>with a<br>50% chance</div></div><div class='cr'><div class='vertical-center'>$1<br>for<br>sure</div></div><div class='respDivL'><div class='vertical-center'>(E)</div></div><div class='respDivR'><div class='vertical-center'>(I)</div></div></div>","E","$1","$33","1","1","33","RISKY"
"html-keyboard-response","63","79788","0.0-5.0-3.19","5c9bfbfa325c3d001ad360a8","bdp_rd","Thu Mar 30 2023 22:48:12 GMT-0400 (Eastern Daylight Time)","291763","","null","","","","offerFB","","<div class='trialBorder'><div class='vertical-center'><img style='vertical-align:center; align:center' src=img/fixation3.jpg></div><div class='cl'><div class='vertical-center'><font style='color:orange'>$33<br>with a<br>50% chance</font></div></div><div class='cr'><div class='vertical-center'>$1<br>for<br>sure</div></div><div class='respDivL'><div class='vertical-center'><font style='color:orange'>(E)</font></div></div><div class='respDivR'><div class='vertical-center'>(I)</div></div></div>","null","$1","$33","1","1","33",""
"html-keyboard-response","64","80290","0.0-5.0-1.20","5c9bfbfa325c3d001ad360a8","bdp_rd","Thu Mar 30 2023 22:48:12 GMT-0400 (Eastern Daylight Time)","291763","","null","","","","FIX","","<div class='trialBorder'><div class='vertical-center'><img style='vertical-align:center; align:center' src=img/fixation3.jpg></div></div>","null","","","","","",""
"html-keyboard-response","65","82488","0.0-5.0-2.20","5c9bfbfa325c3d001ad360a8","bdp_rd","Thu Mar 30 2023 22:48:12 GMT-0400 (Eastern Daylight Time)","291763","","2198","","","","offer","","<div class='trialBorder'><div class='vertical-center'><img style='vertical-align:center; align:center' src=img/fixation3.jpg></div><div class='cl'><div class='vertical-center'>$8<br>for<br>sure</div></div><div class='cr'><div class='vertical-center'>$23<br>with a<br>50% chance</div></div><div class='respDivL'><div class='vertical-center'>(E)</div></div><div class='respDivR'><div class='vertical-center'>(I)</div></div></div>","E","$8","$23","0","8","23","SURE"
"html-keyboard-response","66","82740","0.0-5.0-3.20","5c9bfbfa325c3d001ad360a8","bdp_rd","Thu Mar 30 2023 22:48:12 GMT-0400 (Eastern Daylight Time)","291763","","null","","","","offerFB","","<div class='trialBorder'><div class='vertical-center'><img style='vertical-align:center; align:center' src=img/fixation3.jpg></div><div class='cl'><div class='vertical-center'><font style='color:orange'>$8<br>for<br>sure</font></div></div><div class='cr'><div class='vertical-center'>$23<br>with a<br>50% chance</div></div><div class='respDivL'><div class='vertical-center'><font style='color:orange'>(E)</font></div></div><div class='respDivR'><div class='vertical-center'>(I)</div></div></div>","null","$8","$23","0","8","23",""
"html-keyboard-response","67","83241","0.0-5.0-1.21","5c9bfbfa325c3d001ad360a8","bdp_rd","Thu Mar 30 2023 22:48:12 GMT-0400 (Eastern Daylight Time)","291763","","null","","","","FIX","","<div class='trialBorder'><div class='vertical-center'><img style='vertical-align:center; align:center' src=img/fixation3.jpg></div></div>","null","","","","","",""
"html-keyboard-response","68","85715","0.0-5.0-2.21","5c9bfbfa325c3d001ad360a8","bdp_rd","Thu Mar 30 2023 22:48:12 GMT-0400 (Eastern Daylight Time)","291763","","2473","","","","offer","","<div class='trialBorder'><div class='vertical-center'><img style='vertical-align:center; align:center' src=img/fixation3.jpg></div><div class='cl'><div class='vertical-center'>$3<br>for<br>sure</div></div><div class='cr'><div class='vertical-center'>$12<br>with a<br>50% chance</div></div><div class='respDivL'><div class='vertical-center'>(E)</div></div><div class='respDivR'><div class='vertical-center'>(I)</div></div></div>","I","$3","$12","0","3","12","RISKY"
"html-keyboard-response","69","85967","0.0-5.0-3.21","5c9bfbfa325c3d001ad360a8","bdp_rd","Thu Mar 30 2023 22:48:12 GMT-0400 (Eastern Daylight Time)","291763","","null","","","","offerFB","","<div class='trialBorder'><div class='vertical-center'><img style='vertical-align:center; align:center' src=img/fixation3.jpg></div><div class='cl'><div class='vertical-center'>$3<br>for<br>sure</div></div><div class='cr'><div class='vertical-center'><font style='color:orange'>$12<br>with a<br>50% chance</font></div></div><div class='respDivL'><div class='vertical-center'>(E)</div></div><div class='respDivR'><div class='vertical-center'><font style='color:orange'>(I)</font></div></div></div>","null","$3","$12","0","3","12",""
"html-keyboard-response","70","86469","0.0-5.0-1.22","5c9bfbfa325c3d001ad360a8","bdp_rd","Thu Mar 30 2023 22:48:12 GMT-0400 (Eastern Daylight Time)","291763","","null","","","","FIX","","<div class='trialBorder'><div class='vertical-center'><img style='vertical-align:center; align:center' src=img/fixation3.jpg></div></div>","null","","","","","",""
"html-keyboard-response","71","91307","0.0-5.0-2.22","5c9bfbfa325c3d001ad360a8","bdp_rd","Thu Mar 30 2023 22:48:12 GMT-0400 (Eastern Daylight Time)","291763","","4837","","","","offer","","<div class='trialBorder'><div class='vertical-center'><img style='vertical-align:center; align:center' src=img/fixation3.jpg></div><div class='cl'><div class='vertical-center'>$28<br>for<br>sure</div></div><div class='cr'><div class='vertical-center'>$89<br>with a<br>50% chance</div></div><div class='respDivL'><div class='vertical-center'>(E)</div></div><div class='respDivR'><div class='vertical-center'>(I)</div></div></div>","E","$28","$89","0","28","89","SURE"
"html-keyboard-response","72","91558","0.0-5.0-3.22","5c9bfbfa325c3d001ad360a8","bdp_rd","Thu Mar 30 2023 22:48:12 GMT-0400 (Eastern Daylight Time)","291763","","null","","","","offerFB","","<div class='trialBorder'><div class='vertical-center'><img style='vertical-align:center; align:center' src=img/fixation3.jpg></div><div class='cl'><div class='vertical-center'><font style='color:orange'>$28<br>for<br>sure</font></div></div><div class='cr'><div class='vertical-center'>$89<br>with a<br>50% chance</div></div><div class='respDivL'><div class='vertical-center'><font style='color:orange'>(E)</font></div></div><div class='respDivR'><div class='vertical-center'>(I)</div></div></div>","null","$28","$89","0","28","89",""
"html-keyboard-response","73","92060","0.0-5.0-1.23","5c9bfbfa325c3d001ad360a8","bdp_rd","Thu Mar 30 2023 22:48:12 GMT-0400 (Eastern Daylight Time)","291763","","null","","","","FIX","","<div class='trialBorder'><div class='vertical-center'><img style='vertical-align:center; align:center' src=img/fixation3.jpg></div></div>","null","","","","","",""
"html-keyboard-response","74","115466","0.0-5.0-2.23","5c9bfbfa325c3d001ad360a8","bdp_rd","Thu Mar 30 2023 22:48:12 GMT-0400 (Eastern Daylight Time)","291763","","23405","","","","offer","","<div class='trialBorder'><div class='vertical-center'><img style='vertical-align:center; align:center' src=img/fixation3.jpg></div><div class='cl'><div class='vertical-center'>$62<br>with a<br>50% chance</div></div><div class='cr'><div class='vertical-center'>$11<br>for<br>sure</div></div><div class='respDivL'><div class='vertical-center'>(E)</div></div><div class='respDivR'><div class='vertical-center'>(I)</div></div></div>","E","$11","$62","1","11","62","RISKY"
"html-keyboard-response","75","115717","0.0-5.0-3.23","5c9bfbfa325c3d001ad360a8","bdp_rd","Thu Mar 30 2023 22:48:12 GMT-0400 (Eastern Daylight Time)","291763","","null","","","","offerFB","","<div class='trialBorder'><div class='vertical-center'><img style='vertical-align:center; align:center' src=img/fixation3.jpg></div><div class='cl'><div class='vertical-center'><font style='color:orange'>$62<br>with a<br>50% chance</font></div></div><div class='cr'><div class='vertical-center'>$11<br>for<br>sure</div></div><div class='respDivL'><div class='vertical-center'><font style='color:orange'>(E)</font></div></div><div class='respDivR'><div class='vertical-center'>(I)</div></div></div>","null","$11","$62","1","11","62",""
"html-keyboard-response","76","116218","0.0-5.0-1.24","5c9bfbfa325c3d001ad360a8","bdp_rd","Thu Mar 30 2023 22:48:12 GMT-0400 (Eastern Daylight Time)","291763","","null","","","","FIX","","<div class='trialBorder'><div class='vertical-center'><img style='vertical-align:center; align:center' src=img/fixation3.jpg></div></div>","null","","","","","",""
"html-keyboard-response","77","119162","0.0-5.0-2.24","5c9bfbfa325c3d001ad360a8","bdp_rd","Thu Mar 30 2023 22:48:12 GMT-0400 (Eastern Daylight Time)","291763","","2943","","","","offer","","<div class='trialBorder'><div class='vertical-center'><img style='vertical-align:center; align:center' src=img/fixation3.jpg></div><div class='cl'><div class='vertical-center'>$31<br>with a<br>50% chance</div></div><div class='cr'><div class='vertical-center'>$15<br>for<br>sure</div></div><div class='respDivL'><div class='vertical-center'>(E)</div></div><div class='respDivR'><div class='vertical-center'>(I)</div></div></div>","I","$15","$31","1","15","31","SURE"
"html-keyboard-response","78","119414","0.0-5.0-3.24","5c9bfbfa325c3d001ad360a8","bdp_rd","Thu Mar 30 2023 22:48:12 GMT-0400 (Eastern Daylight Time)","291763","","null","","","","offerFB","","<div class='trialBorder'><div class='vertical-center'><img style='vertical-align:center; align:center' src=img/fixation3.jpg></div><div class='cl'><div class='vertical-center'>$31<br>with a<br>50% chance</div></div><div class='cr'><div class='vertical-center'><font style='color:orange'>$15<br>for<br>sure</font></div></div><div class='respDivL'><div class='vertical-center'>(E)</div></div><div class='respDivR'><div class='vertical-center'><font style='color:orange'>(I)</font></div></div></div>","null","$15","$31","1","15","31",""
"html-keyboard-response","79","119915","0.0-5.0-1.25","5c9bfbfa325c3d001ad360a8","bdp_rd","Thu Mar 30 2023 22:48:12 GMT-0400 (Eastern Daylight Time)","291763","","null","","","","FIX","","<div class='trialBorder'><div class='vertical-center'><img style='vertical-align:center; align:center' src=img/fixation3.jpg></div></div>","null","","","","","",""
"html-keyboard-response","80","125550","0.0-5.0-2.25","5c9bfbfa325c3d001ad360a8","bdp_rd","Thu Mar 30 2023 22:48:12 GMT-0400 (Eastern Daylight Time)","291763","","5634","","","","offer","","<div class='trialBorder'><div class='vertical-center'><img style='vertical-align:center; align:center' src=img/fixation3.jpg></div><div class='cl'><div class='vertical-center'>$13<br>for<br>sure</div></div><div class='cr'><div class='vertical-center'>$41<br>with a<br>50% chance</div></div><div class='respDivL'><div class='vertical-center'>(E)</div></div><div class='respDivR'><div class='vertical-center'>(I)</div></div></div>","E","$13","$41","0","13","41","SURE"
"html-keyboard-response","81","125802","0.0-5.0-3.25","5c9bfbfa325c3d001ad360a8","bdp_rd","Thu Mar 30 2023 22:48:12 GMT-0400 (Eastern Daylight Time)","291763","","null","","","","offerFB","","<div class='trialBorder'><div class='vertical-center'><img style='vertical-align:center; align:center' src=img/fixation3.jpg></div><div class='cl'><div class='vertical-center'><font style='color:orange'>$13<br>for<br>sure</font></div></div><div class='cr'><div class='vertical-center'>$41<br>with a<br>50% chance</div></div><div class='respDivL'><div class='vertical-center'><font style='color:orange'>(E)</font></div></div><div class='respDivR'><div class='vertical-center'>(I)</div></div></div>","null","$13","$41","0","13","41",""
"html-keyboard-response","82","126302","0.0-5.0-1.26","5c9bfbfa325c3d001ad360a8","bdp_rd","Thu Mar 30 2023 22:48:12 GMT-0400 (Eastern Daylight Time)","291763","","null","","","","FIX","","<div class='trialBorder'><div class='vertical-center'><img style='vertical-align:center; align:center' src=img/fixation3.jpg></div></div>","null","","","","","",""
"html-keyboard-response","83","127621","0.0-5.0-2.26","5c9bfbfa325c3d001ad360a8","bdp_rd","Thu Mar 30 2023 22:48:12 GMT-0400 (Eastern Daylight Time)","291763","","1318","","","","offer","","<div class='trialBorder'><div class='vertical-center'><img style='vertical-align:center; align:center' src=img/fixation3.jpg></div><div class='cl'><div class='vertical-center'>$10<br>for<br>sure</div></div><div class='cr'><div class='vertical-center'>$19<br>with a<br>50% chance</div></div><div class='respDivL'><div class='vertical-center'>(E)</div></div><div class='respDivR'><div class='vertical-center'>(I)</div></div></div>","E","$10","$19","0","10","19","SURE"
"html-keyboard-response","84","127872","0.0-5.0-3.26","5c9bfbfa325c3d001ad360a8","bdp_rd","Thu Mar 30 2023 22:48:12 GMT-0400 (Eastern Daylight Time)","291763","","null","","","","offerFB","","<div class='trialBorder'><div class='vertical-center'><img style='vertical-align:center; align:center' src=img/fixation3.jpg></div><div class='cl'><div class='vertical-center'><font style='color:orange'>$10<br>for<br>sure</font></div></div><div class='cr'><div class='vertical-center'>$19<br>with a<br>50% chance</div></div><div class='respDivL'><div class='vertical-center'><font style='color:orange'>(E)</font></div></div><div class='respDivR'><div class='vertical-center'>(I)</div></div></div>","null","$10","$19","0","10","19",""
"html-keyboard-response","85","128373","0.0-5.0-1.27","5c9bfbfa325c3d001ad360a8","bdp_rd","Thu Mar 30 2023 22:48:12 GMT-0400 (Eastern Daylight Time)","291763","","null","","","","FIX","","<div class='trialBorder'><div class='vertical-center'><img style='vertical-align:center; align:center' src=img/fixation3.jpg></div></div>","null","","","","","",""
"html-keyboard-response","86","131188","0.0-5.0-2.27","5c9bfbfa325c3d001ad360a8","bdp_rd","Thu Mar 30 2023 22:48:12 GMT-0400 (Eastern Daylight Time)","291763","","2813","","","","offer","","<div class='trialBorder'><div class='vertical-center'><img style='vertical-align:center; align:center' src=img/fixation3.jpg></div><div class='cl'><div class='vertical-center'>$13<br>with a<br>50% chance</div></div><div class='cr'><div class='vertical-center'>$6<br>for<br>sure</div></div><div class='respDivL'><div class='vertical-center'>(E)</div></div><div class='respDivR'><div class='vertical-center'>(I)</div></div></div>","I","$6","$13","1","6","13","SURE"
"html-keyboard-response","87","131439","0.0-5.0-3.27","5c9bfbfa325c3d001ad360a8","bdp_rd","Thu Mar 30 2023 22:48:12 GMT-0400 (Eastern Daylight Time)","291763","","null","","","","offerFB","","<div class='trialBorder'><div class='vertical-center'><img style='vertical-align:center; align:center' src=img/fixation3.jpg></div><div class='cl'><div class='vertical-center'>$13<br>with a<br>50% chance</div></div><div class='cr'><div class='vertical-center'><font style='color:orange'>$6<br>for<br>sure</font></div></div><div class='respDivL'><div class='vertical-center'>(E)</div></div><div class='respDivR'><div class='vertical-center'><font style='color:orange'>(I)</font></div></div></div>","null","$6","$13","1","6","13",""
"html-keyboard-response","88","131940","0.0-5.0-1.28","5c9bfbfa325c3d001ad360a8","bdp_rd","Thu Mar 30 2023 22:48:12 GMT-0400 (Eastern Daylight Time)","291763","","null","","","","FIX","","<div class='trialBorder'><div class='vertical-center'><img style='vertical-align:center; align:center' src=img/fixation3.jpg></div></div>","null","","","","","",""
"html-keyboard-response","89","133415","0.0-5.0-2.28","5c9bfbfa325c3d001ad360a8","bdp_rd","Thu Mar 30 2023 22:48:12 GMT-0400 (Eastern Daylight Time)","291763","","1474","","","","offer","","<div class='trialBorder'><div class='vertical-center'><img style='vertical-align:center; align:center' src=img/fixation3.jpg></div><div class='cl'><div class='vertical-center'>$98<br>with a<br>50% chance</div></div><div class='cr'><div class='vertical-center'>$53<br>for<br>sure</div></div><div class='respDivL'><div class='vertical-center'>(E)</div></div><div class='respDivR'><div class='vertical-center'>(I)</div></div></div>","I","$53","$98","1","53","98","SURE"
"html-keyboard-response","90","133666","0.0-5.0-3.28","5c9bfbfa325c3d001ad360a8","bdp_rd","Thu Mar 30 2023 22:48:12 GMT-0400 (Eastern Daylight Time)","291763","","null","","","","offerFB","","<div class='trialBorder'><div class='vertical-center'><img style='vertical-align:center; align:center' src=img/fixation3.jpg></div><div class='cl'><div class='vertical-center'>$98<br>with a<br>50% chance</div></div><div class='cr'><div class='vertical-center'><font style='color:orange'>$53<br>for<br>sure</font></div></div><div class='respDivL'><div class='vertical-center'>(E)</div></div><div class='respDivR'><div class='vertical-center'><font style='color:orange'>(I)</font></div></div></div>","null","$53","$98","1","53","98",""
"html-keyboard-response","91","134168","0.0-5.0-1.29","5c9bfbfa325c3d001ad360a8","bdp_rd","Thu Mar 30 2023 22:48:12 GMT-0400 (Eastern Daylight Time)","291763","","null","","","","FIX","","<div class='trialBorder'><div class='vertical-center'><img style='vertical-align:center; align:center' src=img/fixation3.jpg></div></div>","null","","","","","",""
"html-keyboard-response","92","135356","0.0-5.0-2.29","5c9bfbfa325c3d001ad360a8","bdp_rd","Thu Mar 30 2023 22:48:12 GMT-0400 (Eastern Daylight Time)","291763","","1186","","","","offer","","<div class='trialBorder'><div class='vertical-center'><img style='vertical-align:center; align:center' src=img/fixation3.jpg></div><div class='cl'><div class='vertical-center'>$40<br>for<br>sure</div></div><div class='cr'><div class='vertical-center'>$95<br>with a<br>50% chance</div></div><div class='respDivL'><div class='vertical-center'>(E)</div></div><div class='respDivR'><div class='vertical-center'>(I)</div></div></div>","E","$40","$95","0","40","95","SURE"
"html-keyboard-response","93","135607","0.0-5.0-3.29","5c9bfbfa325c3d001ad360a8","bdp_rd","Thu Mar 30 2023 22:48:12 GMT-0400 (Eastern Daylight Time)","291763","","null","","","","offerFB","","<div class='trialBorder'><div class='vertical-center'><img style='vertical-align:center; align:center' src=img/fixation3.jpg></div><div class='cl'><div class='vertical-center'><font style='color:orange'>$40<br>for<br>sure</font></div></div><div class='cr'><div class='vertical-center'>$95<br>with a<br>50% chance</div></div><div class='respDivL'><div class='vertical-center'><font style='color:orange'>(E)</font></div></div><div class='respDivR'><div class='vertical-center'>(I)</div></div></div>","null","$40","$95","0","40","95",""
"html-keyboard-response","94","136108","0.0-5.0-1.30","5c9bfbfa325c3d001ad360a8","bdp_rd","Thu Mar 30 2023 22:48:12 GMT-0400 (Eastern Daylight Time)","291763","","null","","","","FIX","","<div class='trialBorder'><div class='vertical-center'><img style='vertical-align:center; align:center' src=img/fixation3.jpg></div></div>","null","","","","","",""
"html-keyboard-response","95","137634","0.0-5.0-2.30","5c9bfbfa325c3d001ad360a8","bdp_rd","Thu Mar 30 2023 22:48:12 GMT-0400 (Eastern Daylight Time)","291763","","1525","","","","offer","","<div class='trialBorder'><div class='vertical-center'><img style='vertical-align:center; align:center' src=img/fixation3.jpg></div><div class='cl'><div class='vertical-center'>$71<br>with a<br>50% chance</div></div><div class='cr'><div class='vertical-center'>$7<br>for<br>sure</div></div><div class='respDivL'><div class='vertical-center'>(E)</div></div><div class='respDivR'><div class='vertical-center'>(I)</div></div></div>","E","$7","$71","1","7","71","RISKY"
"html-keyboard-response","96","137884","0.0-5.0-3.30","5c9bfbfa325c3d001ad360a8","bdp_rd","Thu Mar 30 2023 22:48:12 GMT-0400 (Eastern Daylight Time)","291763","","null","","","","offerFB","","<div class='trialBorder'><div class='vertical-center'><img style='vertical-align:center; align:center' src=img/fixation3.jpg></div><div class='cl'><div class='vertical-center'><font style='color:orange'>$71<br>with a<br>50% chance</font></div></div><div class='cr'><div class='vertical-center'>$7<br>for<br>sure</div></div><div class='respDivL'><div class='vertical-center'><font style='color:orange'>(E)</font></div></div><div class='respDivR'><div class='vertical-center'>(I)</div></div></div>","null","$7","$71","1","7","71",""
"html-keyboard-response","97","138386","0.0-5.0-1.31","5c9bfbfa325c3d001ad360a8","bdp_rd","Thu Mar 30 2023 22:48:12 GMT-0400 (Eastern Daylight Time)","291763","","null","","","","FIX","","<div class='trialBorder'><div class='vertical-center'><img style='vertical-align:center; align:center' src=img/fixation3.jpg></div></div>","null","","","","","",""
"html-keyboard-response","98","140319","0.0-5.0-2.31","5c9bfbfa325c3d001ad360a8","bdp_rd","Thu Mar 30 2023 22:48:12 GMT-0400 (Eastern Daylight Time)","291763","","1932","","","","offer","","<div class='trialBorder'><div class='vertical-center'><img style='vertical-align:center; align:center' src=img/fixation3.jpg></div><div class='cl'><div class='vertical-center'>$22<br>with a<br>50% chance</div></div><div class='cr'><div class='vertical-center'>$14<br>for<br>sure</div></div><div class='respDivL'><div class='vertical-center'>(E)</div></div><div class='respDivR'><div class='vertical-center'>(I)</div></div></div>","I","$14","$22","1","14","22","SURE"
"html-keyboard-response","99","140569","0.0-5.0-3.31","5c9bfbfa325c3d001ad360a8","bdp_rd","Thu Mar 30 2023 22:48:12 GMT-0400 (Eastern Daylight Time)","291763","","null","","","","offerFB","","<div class='trialBorder'><div class='vertical-center'><img style='vertical-align:center; align:center' src=img/fixation3.jpg></div><div class='cl'><div class='vertical-center'>$22<br>with a<br>50% chance</div></div><div class='cr'><div class='vertical-center'><font style='color:orange'>$14<br>for<br>sure</font></div></div><div class='respDivL'><div class='vertical-center'>(E)</div></div><div class='respDivR'><div class='vertical-center'><font style='color:orange'>(I)</font></div></div></div>","null","$14","$22","1","14","22",""
"html-keyboard-response","100","141071","0.0-5.0-1.32","5c9bfbfa325c3d001ad360a8","bdp_rd","Thu Mar 30 2023 22:48:12 GMT-0400 (Eastern Daylight Time)","291763","","null","","","","FIX","","<div class='trialBorder'><div class='vertical-center'><img style='vertical-align:center; align:center' src=img/fixation3.jpg></div></div>","null","","","","","",""
"html-keyboard-response","101","142812","0.0-5.0-2.32","5c9bfbfa325c3d001ad360a8","bdp_rd","Thu Mar 30 2023 22:48:12 GMT-0400 (Eastern Daylight Time)","291763","","1739","","","","offer","","<div class='trialBorder'><div class='vertical-center'><img style='vertical-align:center; align:center' src=img/fixation3.jpg></div><div class='cl'><div class='vertical-center'>$1<br>for<br>sure</div></div><div class='cr'><div class='vertical-center'>$30<br>with a<br>50% chance</div></div><div class='respDivL'><div class='vertical-center'>(E)</div></div><div class='respDivR'><div class='vertical-center'>(I)</div></div></div>","I","$1","$30","0","1","30","RISKY"
"html-keyboard-response","102","143063","0.0-5.0-3.32","5c9bfbfa325c3d001ad360a8","bdp_rd","Thu Mar 30 2023 22:48:12 GMT-0400 (Eastern Daylight Time)","291763","","null","","","","offerFB","","<div class='trialBorder'><div class='vertical-center'><img style='vertical-align:center; align:center' src=img/fixation3.jpg></div><div class='cl'><div class='vertical-center'>$1<br>for<br>sure</div></div><div class='cr'><div class='vertical-center'><font style='color:orange'>$30<br>with a<br>50% chance</font></div></div><div class='respDivL'><div class='vertical-center'>(E)</div></div><div class='respDivR'><div class='vertical-center'><font style='color:orange'>(I)</font></div></div></div>","null","$1","$30","0","1","30",""
"html-keyboard-response","103","143564","0.0-5.0-1.33","5c9bfbfa325c3d001ad360a8","bdp_rd","Thu Mar 30 2023 22:48:12 GMT-0400 (Eastern Daylight Time)","291763","","null","","","","FIX","","<div class='trialBorder'><div class='vertical-center'><img style='vertical-align:center; align:center' src=img/fixation3.jpg></div></div>","null","","","","","",""
"html-keyboard-response","104","144755","0.0-5.0-2.33","5c9bfbfa325c3d001ad360a8","bdp_rd","Thu Mar 30 2023 22:48:12 GMT-0400 (Eastern Daylight Time)","291763","","1190","","","","offer","","<div class='trialBorder'><div class='vertical-center'><img style='vertical-align:center; align:center' src=img/fixation3.jpg></div><div class='cl'><div class='vertical-center'>$12<br>for<br>sure</div></div><div class='cr'><div class='vertical-center'>$27<br>with a<br>50% chance</div></div><div class='respDivL'><div class='vertical-center'>(E)</div></div><div class='respDivR'><div class='vertical-center'>(I)</div></div></div>","E","$12","$27","0","12","27","SURE"
"html-keyboard-response","105","145007","0.0-5.0-3.33","5c9bfbfa325c3d001ad360a8","bdp_rd","Thu Mar 30 2023 22:48:12 GMT-0400 (Eastern Daylight Time)","291763","","null","","","","offerFB","","<div class='trialBorder'><div class='vertical-center'><img style='vertical-align:center; align:center' src=img/fixation3.jpg></div><div class='cl'><div class='vertical-center'><font style='color:orange'>$12<br>for<br>sure</font></div></div><div class='cr'><div class='vertical-center'>$27<br>with a<br>50% chance</div></div><div class='respDivL'><div class='vertical-center'><font style='color:orange'>(E)</font></div></div><div class='respDivR'><div class='vertical-center'>(I)</div></div></div>","null","$12","$27","0","12","27",""
"html-keyboard-response","106","145509","0.0-5.0-1.34","5c9bfbfa325c3d001ad360a8","bdp_rd","Thu Mar 30 2023 22:48:12 GMT-0400 (Eastern Daylight Time)","291763","","null","","","","FIX","","<div class='trialBorder'><div class='vertical-center'><img style='vertical-align:center; align:center' src=img/fixation3.jpg></div></div>","null","","","","","",""
"html-keyboard-response","107","146616","0.0-5.0-2.34","5c9bfbfa325c3d001ad360a8","bdp_rd","Thu Mar 30 2023 22:48:12 GMT-0400 (Eastern Daylight Time)","291763","","1106","","","","offer","","<div class='trialBorder'><div class='vertical-center'><img style='vertical-align:center; align:center' src=img/fixation3.jpg></div><div class='cl'><div class='vertical-center'>$37<br>with a<br>50% chance</div></div><div class='cr'><div class='vertical-center'>$20<br>for<br>sure</div></div><div class='respDivL'><div class='vertical-center'>(E)</div></div><div class='respDivR'><div class='vertical-center'>(I)</div></div></div>","I","$20","$37","1","20","37","SURE"
"html-keyboard-response","108","146866","0.0-5.0-3.34","5c9bfbfa325c3d001ad360a8","bdp_rd","Thu Mar 30 2023 22:48:12 GMT-0400 (Eastern Daylight Time)","291763","","null","","","","offerFB","","<div class='trialBorder'><div class='vertical-center'><img style='vertical-align:center; align:center' src=img/fixation3.jpg></div><div class='cl'><div class='vertical-center'>$37<br>with a<br>50% chance</div></div><div class='cr'><div class='vertical-center'><font style='color:orange'>$20<br>for<br>sure</font></div></div><div class='respDivL'><div class='vertical-center'>(E)</div></div><div class='respDivR'><div class='vertical-center'><font style='color:orange'>(I)</font></div></div></div>","null","$20","$37","1","20","37",""
"html-keyboard-response","109","147368","0.0-5.0-1.35","5c9bfbfa325c3d001ad360a8","bdp_rd","Thu Mar 30 2023 22:48:12 GMT-0400 (Eastern Daylight Time)","291763","","null","","","","FIX","","<div class='trialBorder'><div class='vertical-center'><img style='vertical-align:center; align:center' src=img/fixation3.jpg></div></div>","null","","","","","",""
"html-keyboard-response","110","149025","0.0-5.0-2.35","5c9bfbfa325c3d001ad360a8","bdp_rd","Thu Mar 30 2023 22:48:12 GMT-0400 (Eastern Daylight Time)","291763","","1657","","","","offer","","<div class='trialBorder'><div class='vertical-center'><img style='vertical-align:center; align:center' src=img/fixation3.jpg></div><div class='cl'><div class='vertical-center'>$63<br>for<br>sure</div></div><div class='cr'><div class='vertical-center'>$100<br>with a<br>50% chance</div></div><div class='respDivL'><div class='vertical-center'>(E)</div></div><div class='respDivR'><div class='vertical-center'>(I)</div></div></div>","E","$63","$100","0","63","10","SURE"
"html-keyboard-response","111","149277","0.0-5.0-3.35","5c9bfbfa325c3d001ad360a8","bdp_rd","Thu Mar 30 2023 22:48:12 GMT-0400 (Eastern Daylight Time)","291763","","null","","","","offerFB","","<div class='trialBorder'><div class='vertical-center'><img style='vertical-align:center; align:center' src=img/fixation3.jpg></div><div class='cl'><div class='vertical-center'><font style='color:orange'>$63<br>for<br>sure</font></div></div><div class='cr'><div class='vertical-center'>$100<br>with a<br>50% chance</div></div><div class='respDivL'><div class='vertical-center'><font style='color:orange'>(E)</font></div></div><div class='respDivR'><div class='vertical-center'>(I)</div></div></div>","null","$63","$100","0","63","10",""
"html-keyboard-response","112","149777","0.0-5.0-1.36","5c9bfbfa325c3d001ad360a8","bdp_rd","Thu Mar 30 2023 22:48:12 GMT-0400 (Eastern Daylight Time)","291763","","null","","","","FIX","","<div class='trialBorder'><div class='vertical-center'><img style='vertical-align:center; align:center' src=img/fixation3.jpg></div></div>","null","","","","","",""
"html-keyboard-response","113","151608","0.0-5.0-2.36","5c9bfbfa325c3d001ad360a8","bdp_rd","Thu Mar 30 2023 22:48:12 GMT-0400 (Eastern Daylight Time)","291763","","1829","","","","offer","","<div class='trialBorder'><div class='vertical-center'><img style='vertical-align:center; align:center' src=img/fixation3.jpg></div><div class='cl'><div class='vertical-center'>$45<br>for<br>sure</div></div><div class='cr'><div class='vertical-center'>$86<br>with a<br>50% chance</div></div><div class='respDivL'><div class='vertical-center'>(E)</div></div><div class='respDivR'><div class='vertical-center'>(I)</div></div></div>","E","$45","$86","0","45","86","SURE"
"html-keyboard-response","114","151859","0.0-5.0-3.36","5c9bfbfa325c3d001ad360a8","bdp_rd","Thu Mar 30 2023 22:48:12 GMT-0400 (Eastern Daylight Time)","291763","","null","","","","offerFB","","<div class='trialBorder'><div class='vertical-center'><img style='vertical-align:center; align:center' src=img/fixation3.jpg></div><div class='cl'><div class='vertical-center'><font style='color:orange'>$45<br>for<br>sure</font></div></div><div class='cr'><div class='vertical-center'>$86<br>with a<br>50% chance</div></div><div class='respDivL'><div class='vertical-center'><font style='color:orange'>(E)</font></div></div><div class='respDivR'><div class='vertical-center'>(I)</div></div></div>","null","$45","$86","0","45","86",""
"html-keyboard-response","115","152361","0.0-5.0-1.37","5c9bfbfa325c3d001ad360a8","bdp_rd","Thu Mar 30 2023 22:48:12 GMT-0400 (Eastern Daylight Time)","291763","","null","","","","FIX","","<div class='trialBorder'><div class='vertical-center'><img style='vertical-align:center; align:center' src=img/fixation3.jpg></div></div>","null","","","","","",""
"html-keyboard-response","116","155502","0.0-5.0-2.37","5c9bfbfa325c3d001ad360a8","bdp_rd","Thu Mar 30 2023 22:48:12 GMT-0400 (Eastern Daylight Time)","291763","","3140","","","","offer","","<div class='trialBorder'><div class='vertical-center'><img style='vertical-align:center; align:center' src=img/fixation3.jpg></div><div class='cl'><div class='vertical-center'>$16<br>for<br>sure</div></div><div class='cr'><div class='vertical-center'>$38<br>with a<br>50% chance</div></div><div class='respDivL'><div class='vertical-center'>(E)</div></div><div class='respDivR'><div class='vertical-center'>(I)</div></div></div>","E","$16","$38","0","16","38","SURE"
"html-keyboard-response","117","155753","0.0-5.0-3.37","5c9bfbfa325c3d001ad360a8","bdp_rd","Thu Mar 30 2023 22:48:12 GMT-0400 (Eastern Daylight Time)","291763","","null","","","","offerFB","","<div class='trialBorder'><div class='vertical-center'><img style='vertical-align:center; align:center' src=img/fixation3.jpg></div><div class='cl'><div class='vertical-center'><font style='color:orange'>$16<br>for<br>sure</font></div></div><div class='cr'><div class='vertical-center'>$38<br>with a<br>50% chance</div></div><div class='respDivL'><div class='vertical-center'><font style='color:orange'>(E)</font></div></div><div class='respDivR'><div class='vertical-center'>(I)</div></div></div>","null","$16","$38","0","16","38",""
"html-keyboard-response","118","156255","0.0-5.0-1.38","5c9bfbfa325c3d001ad360a8","bdp_rd","Thu Mar 30 2023 22:48:12 GMT-0400 (Eastern Daylight Time)","291763","","null","","","","FIX","","<div class='trialBorder'><div class='vertical-center'><img style='vertical-align:center; align:center' src=img/fixation3.jpg></div></div>","null","","","","","",""
"html-keyboard-response","119","157701","0.0-5.0-2.38","5c9bfbfa325c3d001ad360a8","bdp_rd","Thu Mar 30 2023 22:48:12 GMT-0400 (Eastern Daylight Time)","291763","","1446","","","","offer","","<div class='trialBorder'><div class='vertical-center'><img style='vertical-align:center; align:center' src=img/fixation3.jpg></div><div class='cl'><div class='vertical-center'>$16<br>with a<br>50% chance</div></div><div class='cr'><div class='vertical-center'>$5<br>for<br>sure</div></div><div class='respDivL'><div class='vertical-center'>(E)</div></div><div class='respDivR'><div class='vertical-center'>(I)</div></div></div>","I","$5","$16","1","5","16","SURE"
"html-keyboard-response","120","157952","0.0-5.0-3.38","5c9bfbfa325c3d001ad360a8","bdp_rd","Thu Mar 30 2023 22:48:12 GMT-0400 (Eastern Daylight Time)","291763","","null","","","","offerFB","","<div class='trialBorder'><div class='vertical-center'><img style='vertical-align:center; align:center' src=img/fixation3.jpg></div><div class='cl'><div class='vertical-center'>$16<br>with a<br>50% chance</div></div><div class='cr'><div class='vertical-center'><font style='color:orange'>$5<br>for<br>sure</font></div></div><div class='respDivL'><div class='vertical-center'>(E)</div></div><div class='respDivR'><div class='vertical-center'><font style='color:orange'>(I)</font></div></div></div>","null","$5","$16","1","5","16",""
"html-keyboard-response","121","158454","0.0-5.0-1.39","5c9bfbfa325c3d001ad360a8","bdp_rd","Thu Mar 30 2023 22:48:12 GMT-0400 (Eastern Daylight Time)","291763","","null","","","","FIX","","<div class='trialBorder'><div class='vertical-center'><img style='vertical-align:center; align:center' src=img/fixation3.jpg></div></div>","null","","","","","",""
"html-keyboard-response","122","159569","0.0-5.0-2.39","5c9bfbfa325c3d001ad360a8","bdp_rd","Thu Mar 30 2023 22:48:12 GMT-0400 (Eastern Daylight Time)","291763","","1114","","","","offer","","<div class='trialBorder'><div class='vertical-center'><img style='vertical-align:center; align:center' src=img/fixation3.jpg></div><div class='cl'><div class='vertical-center'>$26<br>with a<br>50% chance</div></div><div class='cr'><div class='vertical-center'>$11<br>for<br>sure</div></div><div class='respDivL'><div class='vertical-center'>(E)</div></div><div class='respDivR'><div class='vertical-center'>(I)</div></div></div>","I","$11","$26","1","11","26","SURE"
"html-keyboard-response","123","159820","0.0-5.0-3.39","5c9bfbfa325c3d001ad360a8","bdp_rd","Thu Mar 30 2023 22:48:12 GMT-0400 (Eastern Daylight Time)","291763","","null","","","","offerFB","","<div class='trialBorder'><div class='vertical-center'><img style='vertical-align:center; align:center' src=img/fixation3.jpg></div><div class='cl'><div class='vertical-center'>$26<br>with a<br>50% chance</div></div><div class='cr'><div class='vertical-center'><font style='color:orange'>$11<br>for<br>sure</font></div></div><div class='respDivL'><div class='vertical-center'>(E)</div></div><div class='respDivR'><div class='vertical-center'><font style='color:orange'>(I)</font></div></div></div>","null","$11","$26","1","11","26",""
"html-keyboard-response","124","160321","0.0-5.0-1.40","5c9bfbfa325c3d001ad360a8","bdp_rd","Thu Mar 30 2023 22:48:12 GMT-0400 (Eastern Daylight Time)","291763","","null","","","","FIX","","<div class='trialBorder'><div class='vertical-center'><img style='vertical-align:center; align:center' src=img/fixation3.jpg></div></div>","null","","","","","",""
"html-keyboard-response","125","162601","0.0-5.0-2.40","5c9bfbfa325c3d001ad360a8","bdp_rd","Thu Mar 30 2023 22:48:12 GMT-0400 (Eastern Daylight Time)","291763","","2278","","","","offer","","<div class='trialBorder'><div class='vertical-center'><img style='vertical-align:center; align:center' src=img/fixation3.jpg></div><div class='cl'><div class='vertical-center'>$16<br>for<br>sure</div></div><div class='cr'><div class='vertical-center'>$28<br>with a<br>50% chance</div></div><div class='respDivL'><div class='vertical-center'>(E)</div></div><div class='respDivR'><div class='vertical-center'>(I)</div></div></div>","E","$16","$28","0","16","28","SURE"
"html-keyboard-response","126","162853","0.0-5.0-3.40","5c9bfbfa325c3d001ad360a8","bdp_rd","Thu Mar 30 2023 22:48:12 GMT-0400 (Eastern Daylight Time)","291763","","null","","","","offerFB","","<div class='trialBorder'><div class='vertical-center'><img style='vertical-align:center; align:center' src=img/fixation3.jpg></div><div class='cl'><div class='vertical-center'><font style='color:orange'>$16<br>for<br>sure</font></div></div><div class='cr'><div class='vertical-center'>$28<br>with a<br>50% chance</div></div><div class='respDivL'><div class='vertical-center'><font style='color:orange'>(E)</font></div></div><div class='respDivR'><div class='vertical-center'>(I)</div></div></div>","null","$16","$28","0","16","28",""
"html-keyboard-response","127","163355","0.0-5.0-1.41","5c9bfbfa325c3d001ad360a8","bdp_rd","Thu Mar 30 2023 22:48:12 GMT-0400 (Eastern Daylight Time)","291763","","null","","","","FIX","","<div class='trialBorder'><div class='vertical-center'><img style='vertical-align:center; align:center' src=img/fixation3.jpg></div></div>","null","","","","","",""
"html-keyboard-response","128","165660","0.0-5.0-2.41","5c9bfbfa325c3d001ad360a8","bdp_rd","Thu Mar 30 2023 22:48:12 GMT-0400 (Eastern Daylight Time)","291763","","2305","","","","offer","","<div class='trialBorder'><div class='vertical-center'><img style='vertical-align:center; align:center' src=img/fixation3.jpg></div><div class='cl'><div class='vertical-center'>$45<br>with a<br>50% chance</div></div><div class='cr'><div class='vertical-center'>$8<br>for<br>sure</div></div><div class='respDivL'><div class='vertical-center'>(E)</div></div><div class='respDivR'><div class='vertical-center'>(I)</div></div></div>","E","$8","$45","1","8","45","RISKY"
"html-keyboard-response","129","165912","0.0-5.0-3.41","5c9bfbfa325c3d001ad360a8","bdp_rd","Thu Mar 30 2023 22:48:12 GMT-0400 (Eastern Daylight Time)","291763","","null","","","","offerFB","","<div class='trialBorder'><div class='vertical-center'><img style='vertical-align:center; align:center' src=img/fixation3.jpg></div><div class='cl'><div class='vertical-center'><font style='color:orange'>$45<br>with a<br>50% chance</font></div></div><div class='cr'><div class='vertical-center'>$8<br>for<br>sure</div></div><div class='respDivL'><div class='vertical-center'><font style='color:orange'>(E)</font></div></div><div class='respDivR'><div class='vertical-center'>(I)</div></div></div>","null","$8","$45","1","8","45",""
"html-keyboard-response","130","166414","0.0-5.0-1.42","5c9bfbfa325c3d001ad360a8","bdp_rd","Thu Mar 30 2023 22:48:12 GMT-0400 (Eastern Daylight Time)","291763","","null","","","","FIX","","<div class='trialBorder'><div class='vertical-center'><img style='vertical-align:center; align:center' src=img/fixation3.jpg></div></div>","null","","","","","",""
"html-keyboard-response","131","168737","0.0-5.0-2.42","5c9bfbfa325c3d001ad360a8","bdp_rd","Thu Mar 30 2023 22:48:12 GMT-0400 (Eastern Daylight Time)","291763","","2322","","","","offer","","<div class='trialBorder'><div class='vertical-center'><img style='vertical-align:center; align:center' src=img/fixation3.jpg></div><div class='cl'><div class='vertical-center'>$66<br>with a<br>50% chance</div></div><div class='cr'><div class='vertical-center'>$33<br>for<br>sure</div></div><div class='respDivL'><div class='vertical-center'>(E)</div></div><div class='respDivR'><div class='vertical-center'>(I)</div></div></div>","I","$33","$66","1","33","66","SURE"
"html-keyboard-response","132","168988","0.0-5.0-3.42","5c9bfbfa325c3d001ad360a8","bdp_rd","Thu Mar 30 2023 22:48:12 GMT-0400 (Eastern Daylight Time)","291763","","null","","","","offerFB","","<div class='trialBorder'><div class='vertical-center'><img style='vertical-align:center; align:center' src=img/fixation3.jpg></div><div class='cl'><div class='vertical-center'>$66<br>with a<br>50% chance</div></div><div class='cr'><div class='vertical-center'><font style='color:orange'>$33<br>for<br>sure</font></div></div><div class='respDivL'><div class='vertical-center'>(E)</div></div><div class='respDivR'><div class='vertical-center'><font style='color:orange'>(I)</font></div></div></div>","null","$33","$66","1","33","66",""
"html-keyboard-response","133","169489","0.0-5.0-1.43","5c9bfbfa325c3d001ad360a8","bdp_rd","Thu Mar 30 2023 22:48:12 GMT-0400 (Eastern Daylight Time)","291763","","null","","","","FIX","","<div class='trialBorder'><div class='vertical-center'><img style='vertical-align:center; align:center' src=img/fixation3.jpg></div></div>","null","","","","","",""
"html-keyboard-response","134","175182","0.0-5.0-2.43","5c9bfbfa325c3d001ad360a8","bdp_rd","Thu Mar 30 2023 22:48:12 GMT-0400 (Eastern Daylight Time)","291763","","5692","","","","offer","","<div class='trialBorder'><div class='vertical-center'><img style='vertical-align:center; align:center' src=img/fixation3.jpg></div><div class='cl'><div class='vertical-center'>$42<br>with a<br>50% chance</div></div><div class='cr'><div class='vertical-center'>$22<br>for<br>sure</div></div><div class='respDivL'><div class='vertical-center'>(E)</div></div><div class='respDivR'><div class='vertical-center'>(I)</div></div></div>","I","$22","$42","1","22","42","SURE"
"html-keyboard-response","135","175433","0.0-5.0-3.43","5c9bfbfa325c3d001ad360a8","bdp_rd","Thu Mar 30 2023 22:48:12 GMT-0400 (Eastern Daylight Time)","291763","","null","","","","offerFB","","<div class='trialBorder'><div class='vertical-center'><img style='vertical-align:center; align:center' src=img/fixation3.jpg></div><div class='cl'><div class='vertical-center'>$42<br>with a<br>50% chance</div></div><div class='cr'><div class='vertical-center'><font style='color:orange'>$22<br>for<br>sure</font></div></div><div class='respDivL'><div class='vertical-center'>(E)</div></div><div class='respDivR'><div class='vertical-center'><font style='color:orange'>(I)</font></div></div></div>","null","$22","$42","1","22","42",""
"html-keyboard-response","136","175935","0.0-5.0-1.44","5c9bfbfa325c3d001ad360a8","bdp_rd","Thu Mar 30 2023 22:48:12 GMT-0400 (Eastern Daylight Time)","291763","","null","","","","FIX","","<div class='trialBorder'><div class='vertical-center'><img style='vertical-align:center; align:center' src=img/fixation3.jpg></div></div>","null","","","","","",""
"html-keyboard-response","137","178544","0.0-5.0-2.44","5c9bfbfa325c3d001ad360a8","bdp_rd","Thu Mar 30 2023 22:48:12 GMT-0400 (Eastern Daylight Time)","291763","","2608","","","","offer","","<div class='trialBorder'><div class='vertical-center'><img style='vertical-align:center; align:center' src=img/fixation3.jpg></div><div class='cl'><div class='vertical-center'>$65<br>with a<br>50% chance</div></div><div class='cr'><div class='vertical-center'>$46<br>for<br>sure</div></div><div class='respDivL'><div class='vertical-center'>(E)</div></div><div class='respDivR'><div class='vertical-center'>(I)</div></div></div>","I","$46","$65","1","46","65","SURE"
"html-keyboard-response","138","178794","0.0-5.0-3.44","5c9bfbfa325c3d001ad360a8","bdp_rd","Thu Mar 30 2023 22:48:12 GMT-0400 (Eastern Daylight Time)","291763","","null","","","","offerFB","","<div class='trialBorder'><div class='vertical-center'><img style='vertical-align:center; align:center' src=img/fixation3.jpg></div><div class='cl'><div class='vertical-center'>$65<br>with a<br>50% chance</div></div><div class='cr'><div class='vertical-center'><font style='color:orange'>$46<br>for<br>sure</font></div></div><div class='respDivL'><div class='vertical-center'>(E)</div></div><div class='respDivR'><div class='vertical-center'><font style='color:orange'>(I)</font></div></div></div>","null","$46","$65","1","46","65",""
"html-keyboard-response","139","179295","0.0-5.0-1.45","5c9bfbfa325c3d001ad360a8","bdp_rd","Thu Mar 30 2023 22:48:12 GMT-0400 (Eastern Daylight Time)","291763","","null","","","","FIX","","<div class='trialBorder'><div class='vertical-center'><img style='vertical-align:center; align:center' src=img/fixation3.jpg></div></div>","null","","","","","",""
"html-keyboard-response","140","216197","0.0-5.0-2.45","5c9bfbfa325c3d001ad360a8","bdp_rd","Thu Mar 30 2023 22:48:12 GMT-0400 (Eastern Daylight Time)","291763","","36901","","","","offer","","<div class='trialBorder'><div class='vertical-center'><img style='vertical-align:center; align:center' src=img/fixation3.jpg></div><div class='cl'><div class='vertical-center'>$24<br>for<br>sure</div></div><div class='cr'><div class='vertical-center'>$70<br>with a<br>50% chance</div></div><div class='respDivL'><div class='vertical-center'>(E)</div></div><div class='respDivR'><div class='vertical-center'>(I)</div></div></div>","E","$24","$70","0","24","70","SURE"
"html-keyboard-response","141","216448","0.0-5.0-3.45","5c9bfbfa325c3d001ad360a8","bdp_rd","Thu Mar 30 2023 22:48:12 GMT-0400 (Eastern Daylight Time)","291763","","null","","","","offerFB","","<div class='trialBorder'><div class='vertical-center'><img style='vertical-align:center; align:center' src=img/fixation3.jpg></div><div class='cl'><div class='vertical-center'><font style='color:orange'>$24<br>for<br>sure</font></div></div><div class='cr'><div class='vertical-center'>$70<br>with a<br>50% chance</div></div><div class='respDivL'><div class='vertical-center'><font style='color:orange'>(E)</font></div></div><div class='respDivR'><div class='vertical-center'>(I)</div></div></div>","null","$24","$70","0","24","70",""
"html-keyboard-response","142","216949","0.0-5.0-1.46","5c9bfbfa325c3d001ad360a8","bdp_rd","Thu Mar 30 2023 22:48:12 GMT-0400 (Eastern Daylight Time)","291763","","null","","","","FIX","","<div class='trialBorder'><div class='vertical-center'><img style='vertical-align:center; align:center' src=img/fixation3.jpg></div></div>","null","","","","","",""
"html-keyboard-response","143","218382","0.0-5.0-2.46","5c9bfbfa325c3d001ad360a8","bdp_rd","Thu Mar 30 2023 22:48:12 GMT-0400 (Eastern Daylight Time)","291763","","1432","","","","offer","","<div class='trialBorder'><div class='vertical-center'><img style='vertical-align:center; align:center' src=img/fixation3.jpg></div><div class='cl'><div class='vertical-center'>$34<br>for<br>sure</div></div><div class='cr'><div class='vertical-center'>$48<br>with a<br>50% chance</div></div><div class='respDivL'><div class='vertical-center'>(E)</div></div><div class='respDivR'><div class='vertical-center'>(I)</div></div></div>","E","$34","$48","0","34","48","SURE"
"html-keyboard-response","144","218634","0.0-5.0-3.46","5c9bfbfa325c3d001ad360a8","bdp_rd","Thu Mar 30 2023 22:48:12 GMT-0400 (Eastern Daylight Time)","291763","","null","","","","offerFB","","<div class='trialBorder'><div class='vertical-center'><img style='vertical-align:center; align:center' src=img/fixation3.jpg></div><div class='cl'><div class='vertical-center'><font style='color:orange'>$34<br>for<br>sure</font></div></div><div class='cr'><div class='vertical-center'>$48<br>with a<br>50% chance</div></div><div class='respDivL'><div class='vertical-center'><font style='color:orange'>(E)</font></div></div><div class='respDivR'><div class='vertical-center'>(I)</div></div></div>","null","$34","$48","0","34","48",""
"html-keyboard-response","145","219136","0.0-5.0-1.47","5c9bfbfa325c3d001ad360a8","bdp_rd","Thu Mar 30 2023 22:48:12 GMT-0400 (Eastern Daylight Time)","291763","","null","","","","FIX","","<div class='trialBorder'><div class='vertical-center'><img style='vertical-align:center; align:center' src=img/fixation3.jpg></div></div>","null","","","","","",""
"html-keyboard-response","146","237608","0.0-5.0-2.47","5c9bfbfa325c3d001ad360a8","bdp_rd","Thu Mar 30 2023 22:48:12 GMT-0400 (Eastern Daylight Time)","291763","","18472","","","","offer","","<div class='trialBorder'><div class='vertical-center'><img style='vertical-align:center; align:center' src=img/fixation3.jpg></div><div class='cl'><div class='vertical-center'>$13<br>for<br>sure</div></div><div class='cr'><div class='vertical-center'>$24<br>with a<br>50% chance</div></div><div class='respDivL'><div class='vertical-center'>(E)</div></div><div class='respDivR'><div class='vertical-center'>(I)</div></div></div>","E","$13","$24","0","13","24","SURE"
"html-keyboard-response","147","237859","0.0-5.0-3.47","5c9bfbfa325c3d001ad360a8","bdp_rd","Thu Mar 30 2023 22:48:12 GMT-0400 (Eastern Daylight Time)","291763","","null","","","","offerFB","","<div class='trialBorder'><div class='vertical-center'><img style='vertical-align:center; align:center' src=img/fixation3.jpg></div><div class='cl'><div class='vertical-center'><font style='color:orange'>$13<br>for<br>sure</font></div></div><div class='cr'><div class='vertical-center'>$24<br>with a<br>50% chance</div></div><div class='respDivL'><div class='vertical-center'><font style='color:orange'>(E)</font></div></div><div class='respDivR'><div class='vertical-center'>(I)</div></div></div>","null","$13","$24","0","13","24",""
"html-keyboard-response","148","238360","0.0-5.0-1.48","5c9bfbfa325c3d001ad360a8","bdp_rd","Thu Mar 30 2023 22:48:12 GMT-0400 (Eastern Daylight Time)","291763","","null","","","","FIX","","<div class='trialBorder'><div class='vertical-center'><img style='vertical-align:center; align:center' src=img/fixation3.jpg></div></div>","null","","","","","",""
"html-keyboard-response","149","262011","0.0-5.0-2.48","5c9bfbfa325c3d001ad360a8","bdp_rd","Thu Mar 30 2023 22:48:12 GMT-0400 (Eastern Daylight Time)","291763","","23650","","","","offer","","<div class='trialBorder'><div class='vertical-center'><img style='vertical-align:center; align:center' src=img/fixation3.jpg></div><div class='cl'><div class='vertical-center'>$3<br>for<br>sure</div></div><div class='cr'><div class='vertical-center'>$17<br>with a<br>50% chance</div></div><div class='respDivL'><div class='vertical-center'>(E)</div></div><div class='respDivR'><div class='vertical-center'>(I)</div></div></div>","E","$3","$17","0","3","17","SURE"
"html-keyboard-response","150","262263","0.0-5.0-3.48","5c9bfbfa325c3d001ad360a8","bdp_rd","Thu Mar 30 2023 22:48:12 GMT-0400 (Eastern Daylight Time)","291763","","null","","","","offerFB","","<div class='trialBorder'><div class='vertical-center'><img style='vertical-align:center; align:center' src=img/fixation3.jpg></div><div class='cl'><div class='vertical-center'><font style='color:orange'>$3<br>for<br>sure</font></div></div><div class='cr'><div class='vertical-center'>$17<br>with a<br>50% chance</div></div><div class='respDivL'><div class='vertical-center'><font style='color:orange'>(E)</font></div></div><div class='respDivR'><div class='vertical-center'>(I)</div></div></div>","null","$3","$17","0","3","17",""
"html-keyboard-response","151","262764","0.0-5.0-1.49","5c9bfbfa325c3d001ad360a8","bdp_rd","Thu Mar 30 2023 22:48:12 GMT-0400 (Eastern Daylight Time)","291763","","null","","","","FIX","","<div class='trialBorder'><div class='vertical-center'><img style='vertical-align:center; align:center' src=img/fixation3.jpg></div></div>","null","","","","","",""
"html-keyboard-response","152","264300","0.0-5.0-2.49","5c9bfbfa325c3d001ad360a8","bdp_rd","Thu Mar 30 2023 22:48:12 GMT-0400 (Eastern Daylight Time)","291763","","1536","","","","offer","","<div class='trialBorder'><div class='vertical-center'><img style='vertical-align:center; align:center' src=img/fixation3.jpg></div><div class='cl'><div class='vertical-center'>$11<br>with a<br>50% chance</div></div><div class='cr'><div class='vertical-center'>$4<br>for<br>sure</div></div><div class='respDivL'><div class='vertical-center'>(E)</div></div><div class='respDivR'><div class='vertical-center'>(I)</div></div></div>","I","$4","$11","1","4","11","SURE"
"html-keyboard-response","153","264551","0.0-5.0-3.49","5c9bfbfa325c3d001ad360a8","bdp_rd","Thu Mar 30 2023 22:48:12 GMT-0400 (Eastern Daylight Time)","291763","","null","","","","offerFB","","<div class='trialBorder'><div class='vertical-center'><img style='vertical-align:center; align:center' src=img/fixation3.jpg></div><div class='cl'><div class='vertical-center'>$11<br>with a<br>50% chance</div></div><div class='cr'><div class='vertical-center'><font style='color:orange'>$4<br>for<br>sure</font></div></div><div class='respDivL'><div class='vertical-center'>(E)</div></div><div class='respDivR'><div class='vertical-center'><font style='color:orange'>(I)</font></div></div></div>","null","$4","$11","1","4","11",""
"html-keyboard-response","154","265053","0.0-5.0-1.50","5c9bfbfa325c3d001ad360a8","bdp_rd","Thu Mar 30 2023 22:48:12 GMT-0400 (Eastern Daylight Time)","291763","","null","","","","FIX","","<div class='trialBorder'><div class='vertical-center'><img style='vertical-align:center; align:center' src=img/fixation3.jpg></div></div>","null","","","","","",""
"html-keyboard-response","155","267127","0.0-5.0-2.50","5c9bfbfa325c3d001ad360a8","bdp_rd","Thu Mar 30 2023 22:48:12 GMT-0400 (Eastern Daylight Time)","291763","","2074","","","","offer","","<div class='trialBorder'><div class='vertical-center'><img style='vertical-align:center; align:center' src=img/fixation3.jpg></div><div class='cl'><div class='vertical-center'>$26<br>for<br>sure</div></div><div class='cr'><div class='vertical-center'>$92<br>with a<br>50% chance</div></div><div class='respDivL'><div class='vertical-center'>(E)</div></div><div class='respDivR'><div class='vertical-center'>(I)</div></div></div>","E","$26","$92","0","26","92","SURE"
"html-keyboard-response","156","267378","0.0-5.0-3.50","5c9bfbfa325c3d001ad360a8","bdp_rd","Thu Mar 30 2023 22:48:12 GMT-0400 (Eastern Daylight Time)","291763","","null","","","","offerFB","","<div class='trialBorder'><div class='vertical-center'><img style='vertical-align:center; align:center' src=img/fixation3.jpg></div><div class='cl'><div class='vertical-center'><font style='color:orange'>$26<br>for<br>sure</font></div></div><div class='cr'><div class='vertical-center'>$92<br>with a<br>50% chance</div></div><div class='respDivL'><div class='vertical-center'><font style='color:orange'>(E)</font></div></div><div class='respDivR'><div class='vertical-center'>(I)</div></div></div>","null","$26","$92","0","26","92",""
"html-keyboard-response","157","267880","0.0-5.0-1.51","5c9bfbfa325c3d001ad360a8","bdp_rd","Thu Mar 30 2023 22:48:12 GMT-0400 (Eastern Daylight Time)","291763","","null","","","","FIX","","<div class='trialBorder'><div class='vertical-center'><img style='vertical-align:center; align:center' src=img/fixation3.jpg></div></div>","null","","","","","",""
"html-keyboard-response","158","269408","0.0-5.0-2.51","5c9bfbfa325c3d001ad360a8","bdp_rd","Thu Mar 30 2023 22:48:12 GMT-0400 (Eastern Daylight Time)","291763","","1527","","","","offer","","<div class='trialBorder'><div class='vertical-center'><img style='vertical-align:center; align:center' src=img/fixation3.jpg></div><div class='cl'><div class='vertical-center'>$6<br>for<br>sure</div></div><div class='cr'><div class='vertical-center'>$15<br>with a<br>50% chance</div></div><div class='respDivL'><div class='vertical-center'>(E)</div></div><div class='respDivR'><div class='vertical-center'>(I)</div></div></div>","E","$6","$15","0","6","15","SURE"
"html-keyboard-response","159","269659","0.0-5.0-3.51","5c9bfbfa325c3d001ad360a8","bdp_rd","Thu Mar 30 2023 22:48:12 GMT-0400 (Eastern Daylight Time)","291763","","null","","","","offerFB","","<div class='trialBorder'><div class='vertical-center'><img style='vertical-align:center; align:center' src=img/fixation3.jpg></div><div class='cl'><div class='vertical-center'><font style='color:orange'>$6<br>for<br>sure</font></div></div><div class='cr'><div class='vertical-center'>$15<br>with a<br>50% chance</div></div><div class='respDivL'><div class='vertical-center'><font style='color:orange'>(E)</font></div></div><div class='respDivR'><div class='vertical-center'>(I)</div></div></div>","null","$6","$15","0","6","15",""
"html-keyboard-response","160","270161","0.0-5.0-1.52","5c9bfbfa325c3d001ad360a8","bdp_rd","Thu Mar 30 2023 22:48:12 GMT-0400 (Eastern Daylight Time)","291763","","null","","","","FIX","","<div class='trialBorder'><div class='vertical-center'><img style='vertical-align:center; align:center' src=img/fixation3.jpg></div></div>","null","","","","","",""
"html-keyboard-response","161","272867","0.0-5.0-2.52","5c9bfbfa325c3d001ad360a8","bdp_rd","Thu Mar 30 2023 22:48:12 GMT-0400 (Eastern Daylight Time)","291763","","2705","","","","offer","","<div class='trialBorder'><div class='vertical-center'><img style='vertical-align:center; align:center' src=img/fixation3.jpg></div><div class='cl'><div class='vertical-center'>$78<br>with a<br>50% chance</div></div><div class='cr'><div class='vertical-center'>$31<br>for<br>sure</div></div><div class='respDivL'><div class='vertical-center'>(E)</div></div><div class='respDivR'><div class='vertical-center'>(I)</div></div></div>","I","$31","$78","1","31","78","SURE"
"html-keyboard-response","162","273119","0.0-5.0-3.52","5c9bfbfa325c3d001ad360a8","bdp_rd","Thu Mar 30 2023 22:48:12 GMT-0400 (Eastern Daylight Time)","291763","","null","","","","offerFB","","<div class='trialBorder'><div class='vertical-center'><img style='vertical-align:center; align:center' src=img/fixation3.jpg></div><div class='cl'><div class='vertical-center'>$78<br>with a<br>50% chance</div></div><div class='cr'><div class='vertical-center'><font style='color:orange'>$31<br>for<br>sure</font></div></div><div class='respDivL'><div class='vertical-center'>(E)</div></div><div class='respDivR'><div class='vertical-center'><font style='color:orange'>(I)</font></div></div></div>","null","$31","$78","1","31","78",""
"html-keyboard-response","163","273621","0.0-5.0-1.53","5c9bfbfa325c3d001ad360a8","bdp_rd","Thu Mar 30 2023 22:48:12 GMT-0400 (Eastern Daylight Time)","291763","","null","","","","FIX","","<div class='trialBorder'><div class='vertical-center'><img style='vertical-align:center; align:center' src=img/fixation3.jpg></div></div>","null","","","","","",""
"html-keyboard-response","164","276424","0.0-5.0-2.53","5c9bfbfa325c3d001ad360a8","bdp_rd","Thu Mar 30 2023 22:48:12 GMT-0400 (Eastern Daylight Time)","291763","","2803","","","","offer","","<div class='trialBorder'><div class='vertical-center'><img style='vertical-align:center; align:center' src=img/fixation3.jpg></div><div class='cl'><div class='vertical-center'>$40<br>with a<br>50% chance</div></div><div class='cr'><div class='vertical-center'>$10<br>for<br>sure</div></div><div class='respDivL'><div class='vertical-center'>(E)</div></div><div class='respDivR'><div class='vertical-center'>(I)</div></div></div>","I","$10","$40","1","10","40","SURE"
"html-keyboard-response","165","276677","0.0-5.0-3.53","5c9bfbfa325c3d001ad360a8","bdp_rd","Thu Mar 30 2023 22:48:12 GMT-0400 (Eastern Daylight Time)","291763","","null","","","","offerFB","","<div class='trialBorder'><div class='vertical-center'><img style='vertical-align:center; align:center' src=img/fixation3.jpg></div><div class='cl'><div class='vertical-center'>$40<br>with a<br>50% chance</div></div><div class='cr'><div class='vertical-center'><font style='color:orange'>$10<br>for<br>sure</font></div></div><div class='respDivL'><div class='vertical-center'>(E)</div></div><div class='respDivR'><div class='vertical-center'><font style='color:orange'>(I)</font></div></div></div>","null","$10","$40","1","10","40",""
"html-keyboard-response","166","277178","0.0-5.0-1.54","5c9bfbfa325c3d001ad360a8","bdp_rd","Thu Mar 30 2023 22:48:12 GMT-0400 (Eastern Daylight Time)","291763","","null","","","","FIX","","<div class='trialBorder'><div class='vertical-center'><img style='vertical-align:center; align:center' src=img/fixation3.jpg></div></div>","null","","","","","",""
"html-keyboard-response","167","278176","0.0-5.0-2.54","5c9bfbfa325c3d001ad360a8","bdp_rd","Thu Mar 30 2023 22:48:12 GMT-0400 (Eastern Daylight Time)","291763","","998","","","","offer","","<div class='trialBorder'><div class='vertical-center'><img style='vertical-align:center; align:center' src=img/fixation3.jpg></div><div class='cl'><div class='vertical-center'>$47<br>with a<br>50% chance</div></div><div class='cr'><div class='vertical-center'>$27<br>for<br>sure</div></div><div class='respDivL'><div class='vertical-center'>(E)</div></div><div class='respDivR'><div class='vertical-center'>(I)</div></div></div>","I","$27","$47","1","27","47","SURE"
"html-keyboard-response","168","278428","0.0-5.0-3.54","5c9bfbfa325c3d001ad360a8","bdp_rd","Thu Mar 30 2023 22:48:12 GMT-0400 (Eastern Daylight Time)","291763","","null","","","","offerFB","","<div class='trialBorder'><div class='vertical-center'><img style='vertical-align:center; align:center' src=img/fixation3.jpg></div><div class='cl'><div class='vertical-center'>$47<br>with a<br>50% chance</div></div><div class='cr'><div class='vertical-center'><font style='color:orange'>$27<br>for<br>sure</font></div></div><div class='respDivL'><div class='vertical-center'>(E)</div></div><div class='respDivR'><div class='vertical-center'><font style='color:orange'>(I)</font></div></div></div>","null","$27","$47","1","27","47",""
"html-keyboard-response","169","278929","0.0-5.0-1.55","5c9bfbfa325c3d001ad360a8","bdp_rd","Thu Mar 30 2023 22:48:12 GMT-0400 (Eastern Daylight Time)","291763","","null","","","","FIX","","<div class='trialBorder'><div class='vertical-center'><img style='vertical-align:center; align:center' src=img/fixation3.jpg></div></div>","null","","","","","",""
"html-keyboard-response","170","281133","0.0-5.0-2.55","5c9bfbfa325c3d001ad360a8","bdp_rd","Thu Mar 30 2023 22:48:12 GMT-0400 (Eastern Daylight Time)","291763","","2203","","","","offer","","<div class='trialBorder'><div class='vertical-center'><img style='vertical-align:center; align:center' src=img/fixation3.jpg></div><div class='cl'><div class='vertical-center'>$50<br>with a<br>50% chance</div></div><div class='cr'><div class='vertical-center'>$5<br>for<br>sure</div></div><div class='respDivL'><div class='vertical-center'>(E)</div></div><div class='respDivR'><div class='vertical-center'>(I)</div></div></div>","E","$5","$50","1","5","50","RISKY"
"html-keyboard-response","171","281385","0.0-5.0-3.55","5c9bfbfa325c3d001ad360a8","bdp_rd","Thu Mar 30 2023 22:48:12 GMT-0400 (Eastern Daylight Time)","291763","","null","","","","offerFB","","<div class='trialBorder'><div class='vertical-center'><img style='vertical-align:center; align:center' src=img/fixation3.jpg></div><div class='cl'><div class='vertical-center'><font style='color:orange'>$50<br>with a<br>50% chance</font></div></div><div class='cr'><div class='vertical-center'>$5<br>for<br>sure</div></div><div class='respDivL'><div class='vertical-center'><font style='color:orange'>(E)</font></div></div><div class='respDivR'><div class='vertical-center'>(I)</div></div></div>","null","$5","$50","1","5","50",""
"html-keyboard-response","172","281887","0.0-5.0-1.56","5c9bfbfa325c3d001ad360a8","bdp_rd","Thu Mar 30 2023 22:48:12 GMT-0400 (Eastern Daylight Time)","291763","","null","","","","FIX","","<div class='trialBorder'><div class='vertical-center'><img style='vertical-align:center; align:center' src=img/fixation3.jpg></div></div>","null","","","","","",""
"html-keyboard-response","173","283164","0.0-5.0-2.56","5c9bfbfa325c3d001ad360a8","bdp_rd","Thu Mar 30 2023 22:48:12 GMT-0400 (Eastern Daylight Time)","291763","","1275","","","","offer","","<div class='trialBorder'><div class='vertical-center'><img style='vertical-align:center; align:center' src=img/fixation3.jpg></div><div class='cl'><div class='vertical-center'>$4<br>for<br>sure</div></div><div class='cr'><div class='vertical-center'>$14<br>with a<br>50% chance</div></div><div class='respDivL'><div class='vertical-center'>(E)</div></div><div class='respDivR'><div class='vertical-center'>(I)</div></div></div>","E","$4","$14","0","4","14","SURE"
