"trial_type","trial_index","time_elapsed","internal_node_id","subject_id","task","startTime","totalTime","view_history","rt","event","trial","time","trialtype","success","stimulus","key_press","sureOffer","riskyOffer","riskyLeft","sureAmt","riskyAmt","chosen"
"pavlovia","0","19","0.0-0.0","611343092396f1d9ed7018ad","bdp_rd","Sun Apr 16 2023 19:52:16 GMT-0600 (Mountain Daylight Time)","215387","","","","","","","","","","","","","","",""
"instructions","1","3448","0.0-1.0","611343092396f1d9ed7018ad","bdp_rd","Sun Apr 16 2023 19:52:16 GMT-0600 (Mountain Daylight Time)","215387","[{""page_index"":0,""viewing_time"":3425}]","3425","","","","","","","","","","","","",""
"","","","","611343092396f1d9ed7018ad","bdp_rd","Sun Apr 16 2023 19:52:16 GMT-0600 (Mountain Daylight Time)","215387","","","fullscreenenter","2","5059","fullscreenenter","","","","","","","","",""
"fullscreen","2","6031","0.0-2.0","611343092396f1d9ed7018ad","bdp_rd","Sun Apr 16 2023 19:52:16 GMT-0600 (Mountain Daylight Time)","215387","","","","","","","true","","","","","","","",""
"instructions","3","32496","0.0-4.0","611343092396f1d9ed7018ad","bdp_rd","Sun Apr 16 2023 19:52:16 GMT-0600 (Mountain Daylight Time)","215387","[{""page_index"":0,""viewing_time"":12151},{""page_index"":1,""viewing_time"":11341},{""page_index"":2,""viewing_time"":2968}]","26461","","","","","","","","","","","","",""
"html-keyboard-response","4","33002","0.0-5.0-1.0","611343092396f1d9ed7018ad","bdp_rd","Sun Apr 16 2023 19:52:16 GMT-0600 (Mountain Daylight Time)","215387","","null","","","","FIX","","<div class='trialBorder'><div class='vertical-center'><img style='vertical-align:center; align:center' src=img/fixation3.jpg></div></div>","null","","","","","",""
"html-keyboard-response","5","39257","0.0-5.0-2.0","611343092396f1d9ed7018ad","bdp_rd","Sun Apr 16 2023 19:52:16 GMT-0600 (Mountain Daylight Time)","215387","","6251","","","","offer","","<div class='trialBorder'><div class='vertical-center'><img style='vertical-align:center; align:center' src=img/fixation3.jpg></div><div class='cl'><div class='vertical-center'>$22<br>for<br>sure</div></div><div class='cr'><div class='vertical-center'>$59<br>with a<br>50% chance</div></div><div class='respDivL'><div class='vertical-center'>(E)</div></div><div class='respDivR'><div class='vertical-center'>(I)</div></div></div>","I","$22","$59","0","22","59","RISKY"
"html-keyboard-response","6","39513","0.0-5.0-3.0","611343092396f1d9ed7018ad","bdp_rd","Sun Apr 16 2023 19:52:16 GMT-0600 (Mountain Daylight Time)","215387","","null","","","","offerFB","","<div class='trialBorder'><div class='vertical-center'><img style='vertical-align:center; align:center' src=img/fixation3.jpg></div><div class='cl'><div class='vertical-center'>$22<br>for<br>sure</div></div><div class='cr'><div class='vertical-center'><font style='color:orange'>$59<br>with a<br>50% chance</font></div></div><div class='respDivL'><div class='vertical-center'>(E)</div></div><div class='respDivR'><div class='vertical-center'><font style='color:orange'>(I)</font></div></div></div>","null","$22","$59","0","22","59",""
"html-keyboard-response","7","40017","0.0-5.0-1.1","611343092396f1d9ed7018ad","bdp_rd","Sun Apr 16 2023 19:52:16 GMT-0600 (Mountain Daylight Time)","215387","","null","","","","FIX","","<div class='trialBorder'><div class='vertical-center'><img style='vertical-align:center; align:center' src=img/fixation3.jpg></div></div>","null","","","","","",""
"html-keyboard-response","8","43726","0.0-5.0-2.1","611343092396f1d9ed7018ad","bdp_rd","Sun Apr 16 2023 19:52:16 GMT-0600 (Mountain Daylight Time)","215387","","3707","","","","offer","","<div class='trialBorder'><div class='vertical-center'><img style='vertical-align:center; align:center' src=img/fixation3.jpg></div><div class='cl'><div class='vertical-center'>$16<br>with a<br>50% chance</div></div><div class='cr'><div class='vertical-center'>$5<br>for<br>sure</div></div><div class='respDivL'><div class='vertical-center'>(E)</div></div><div class='respDivR'><div class='vertical-center'>(I)</div></div></div>","I","$5","$16","1","5","16","SURE"
"html-keyboard-response","9","43982","0.0-5.0-3.1","611343092396f1d9ed7018ad","bdp_rd","Sun Apr 16 2023 19:52:16 GMT-0600 (Mountain Daylight Time)","215387","","null","","","","offerFB","","<div class='trialBorder'><div class='vertical-center'><img style='vertical-align:center; align:center' src=img/fixation3.jpg></div><div class='cl'><div class='vertical-center'>$16<br>with a<br>50% chance</div></div><div class='cr'><div class='vertical-center'><font style='color:orange'>$5<br>for<br>sure</font></div></div><div class='respDivL'><div class='vertical-center'>(E)</div></div><div class='respDivR'><div class='vertical-center'><font style='color:orange'>(I)</font></div></div></div>","null","$5","$16","1","5","16",""
"html-keyboard-response","10","44485","0.0-5.0-1.2","611343092396f1d9ed7018ad","bdp_rd","Sun Apr 16 2023 19:52:16 GMT-0600 (Mountain Daylight Time)","215387","","null","","","","FIX","","<div class='trialBorder'><div class='vertical-center'><img style='vertical-align:center; align:center' src=img/fixation3.jpg></div></div>","null","","","","","",""
"html-keyboard-response","11","47985","0.0-5.0-2.2","611343092396f1d9ed7018ad","bdp_rd","Sun Apr 16 2023 19:52:16 GMT-0600 (Mountain Daylight Time)","215387","","3497","","","","offer","","<div class='trialBorder'><div class='vertical-center'><img style='vertical-align:center; align:center' src=img/fixation3.jpg></div><div class='cl'><div class='vertical-center'>$50<br>with a<br>50% chance</div></div><div class='cr'><div class='vertical-center'>$5<br>for<br>sure</div></div><div class='respDivL'><div class='vertical-center'>(E)</div></div><div class='respDivR'><div class='vertical-center'>(I)</div></div></div>","E","$5","$50","1","5","50","RISKY"
"html-keyboard-response","12","48241","0.0-5.0-3.2","611343092396f1d9ed7018ad","bdp_rd","Sun Apr 16 2023 19:52:16 GMT-0600 (Mountain Daylight Time)","215387","","null","","","","offerFB","","<div class='trialBorder'><div class='vertical-center'><img style='vertical-align:center; align:center' src=img/fixation3.jpg></div><div class='cl'><div class='vertical-center'><font style='color:orange'>$50<br>with a<br>50% chance</font></div></div><div class='cr'><div class='vertical-center'>$5<br>for<br>sure</div></div><div class='respDivL'><div class='vertical-center'><font style='color:orange'>(E)</font></div></div><div class='respDivR'><div class='vertical-center'>(I)</div></div></div>","null","$5","$50","1","5","50",""
"html-keyboard-response","13","48745","0.0-5.0-1.3","611343092396f1d9ed7018ad","bdp_rd","Sun Apr 16 2023 19:52:16 GMT-0600 (Mountain Daylight Time)","215387","","null","","","","FIX","","<div class='trialBorder'><div class='vertical-center'><img style='vertical-align:center; align:center' src=img/fixation3.jpg></div></div>","null","","","","","",""
"html-keyboard-response","14","51036","0.0-5.0-2.3","611343092396f1d9ed7018ad","bdp_rd","Sun Apr 16 2023 19:52:16 GMT-0600 (Mountain Daylight Time)","215387","","2289","","","","offer","","<div class='trialBorder'><div class='vertical-center'><img style='vertical-align:center; align:center' src=img/fixation3.jpg></div><div class='cl'><div class='vertical-center'>$35<br>with a<br>50% chance</div></div><div class='cr'><div class='vertical-center'>$12<br>for<br>sure</div></div><div class='respDivL'><div class='vertical-center'>(E)</div></div><div class='respDivR'><div class='vertical-center'>(I)</div></div></div>","E","$12","$35","1","12","35","RISKY"
"html-keyboard-response","15","51291","0.0-5.0-3.3","611343092396f1d9ed7018ad","bdp_rd","Sun Apr 16 2023 19:52:16 GMT-0600 (Mountain Daylight Time)","215387","","null","","","","offerFB","","<div class='trialBorder'><div class='vertical-center'><img style='vertical-align:center; align:center' src=img/fixation3.jpg></div><div class='cl'><div class='vertical-center'><font style='color:orange'>$35<br>with a<br>50% chance</font></div></div><div class='cr'><div class='vertical-center'>$12<br>for<br>sure</div></div><div class='respDivL'><div class='vertical-center'><font style='color:orange'>(E)</font></div></div><div class='respDivR'><div class='vertical-center'>(I)</div></div></div>","null","$12","$35","1","12","35",""
"html-keyboard-response","16","51794","0.0-5.0-1.4","611343092396f1d9ed7018ad","bdp_rd","Sun Apr 16 2023 19:52:16 GMT-0600 (Mountain Daylight Time)","215387","","null","","","","FIX","","<div class='trialBorder'><div class='vertical-center'><img style='vertical-align:center; align:center' src=img/fixation3.jpg></div></div>","null","","","","","",""
"html-keyboard-response","17","54338","0.0-5.0-2.4","611343092396f1d9ed7018ad","bdp_rd","Sun Apr 16 2023 19:52:16 GMT-0600 (Mountain Daylight Time)","215387","","2541","","","","offer","","<div class='trialBorder'><div class='vertical-center'><img style='vertical-align:center; align:center' src=img/fixation3.jpg></div><div class='cl'><div class='vertical-center'>$6<br>for<br>sure</div></div><div class='cr'><div class='vertical-center'>$15<br>with a<br>50% chance</div></div><div class='respDivL'><div class='vertical-center'>(E)</div></div><div class='respDivR'><div class='vertical-center'>(I)</div></div></div>","E","$6","$15","0","6","15","SURE"
"html-keyboard-response","18","54592","0.0-5.0-3.4","611343092396f1d9ed7018ad","bdp_rd","Sun Apr 16 2023 19:52:16 GMT-0600 (Mountain Daylight Time)","215387","","null","","","","offerFB","","<div class='trialBorder'><div class='vertical-center'><img style='vertical-align:center; align:center' src=img/fixation3.jpg></div><div class='cl'><div class='vertical-center'><font style='color:orange'>$6<br>for<br>sure</font></div></div><div class='cr'><div class='vertical-center'>$15<br>with a<br>50% chance</div></div><div class='respDivL'><div class='vertical-center'><font style='color:orange'>(E)</font></div></div><div class='respDivR'><div class='vertical-center'>(I)</div></div></div>","null","$6","$15","0","6","15",""
"html-keyboard-response","19","55095","0.0-5.0-1.5","611343092396f1d9ed7018ad","bdp_rd","Sun Apr 16 2023 19:52:16 GMT-0600 (Mountain Daylight Time)","215387","","null","","","","FIX","","<div class='trialBorder'><div class='vertical-center'><img style='vertical-align:center; align:center' src=img/fixation3.jpg></div></div>","null","","","","","",""
"html-keyboard-response","20","56958","0.0-5.0-2.5","611343092396f1d9ed7018ad","bdp_rd","Sun Apr 16 2023 19:52:16 GMT-0600 (Mountain Daylight Time)","215387","","1860","","","","offer","","<div class='trialBorder'><div class='vertical-center'><img style='vertical-align:center; align:center' src=img/fixation3.jpg></div><div class='cl'><div class='vertical-center'>$100<br>with a<br>50% chance</div></div><div class='cr'><div class='vertical-center'>$63<br>for<br>sure</div></div><div class='respDivL'><div class='vertical-center'>(E)</div></div><div class='respDivR'><div class='vertical-center'>(I)</div></div></div>","I","$63","$100","1","63","10","SURE"
"html-keyboard-response","21","57211","0.0-5.0-3.5","611343092396f1d9ed7018ad","bdp_rd","Sun Apr 16 2023 19:52:16 GMT-0600 (Mountain Daylight Time)","215387","","null","","","","offerFB","","<div class='trialBorder'><div class='vertical-center'><img style='vertical-align:center; align:center' src=img/fixation3.jpg></div><div class='cl'><div class='vertical-center'>$100<br>with a<br>50% chance</div></div><div class='cr'><div class='vertical-center'><font style='color:orange'>$63<br>for<br>sure</font></div></div><div class='respDivL'><div class='vertical-center'>(E)</div></div><div class='respDivR'><div class='vertical-center'><font style='color:orange'>(I)</font></div></div></div>","null","$63","$100","1","63","10",""
"html-keyboard-response","22","57714","0.0-5.0-1.6","611343092396f1d9ed7018ad","bdp_rd","Sun Apr 16 2023 19:52:16 GMT-0600 (Mountain Daylight Time)","215387","","null","","","","FIX","","<div class='trialBorder'><div class='vertical-center'><img style='vertical-align:center; align:center' src=img/fixation3.jpg></div></div>","null","","","","","",""
"html-keyboard-response","23","60097","0.0-5.0-2.6","611343092396f1d9ed7018ad","bdp_rd","Sun Apr 16 2023 19:52:16 GMT-0600 (Mountain Daylight Time)","215387","","2379","","","","offer","","<div class='trialBorder'><div class='vertical-center'><img style='vertical-align:center; align:center' src=img/fixation3.jpg></div><div class='cl'><div class='vertical-center'>$70<br>with a<br>50% chance</div></div><div class='cr'><div class='vertical-center'>$24<br>for<br>sure</div></div><div class='respDivL'><div class='vertical-center'>(E)</div></div><div class='respDivR'><div class='vertical-center'>(I)</div></div></div>","E","$24","$70","1","24","70","RISKY"
"html-keyboard-response","24","60352","0.0-5.0-3.6","611343092396f1d9ed7018ad","bdp_rd","Sun Apr 16 2023 19:52:16 GMT-0600 (Mountain Daylight Time)","215387","","null","","","","offerFB","","<div class='trialBorder'><div class='vertical-center'><img style='vertical-align:center; align:center' src=img/fixation3.jpg></div><div class='cl'><div class='vertical-center'><font style='color:orange'>$70<br>with a<br>50% chance</font></div></div><div class='cr'><div class='vertical-center'>$24<br>for<br>sure</div></div><div class='respDivL'><div class='vertical-center'><font style='color:orange'>(E)</font></div></div><div class='respDivR'><div class='vertical-center'>(I)</div></div></div>","null","$24","$70","1","24","70",""
"html-keyboard-response","25","60856","0.0-5.0-1.7","611343092396f1d9ed7018ad","bdp_rd","Sun Apr 16 2023 19:52:16 GMT-0600 (Mountain Daylight Time)","215387","","null","","","","FIX","","<div class='trialBorder'><div class='vertical-center'><img style='vertical-align:center; align:center' src=img/fixation3.jpg></div></div>","null","","","","","",""
"html-keyboard-response","26","64017","0.0-5.0-2.7","611343092396f1d9ed7018ad","bdp_rd","Sun Apr 16 2023 19:52:16 GMT-0600 (Mountain Daylight Time)","215387","","3157","","","","offer","","<div class='trialBorder'><div class='vertical-center'><img style='vertical-align:center; align:center' src=img/fixation3.jpg></div><div class='cl'><div class='vertical-center'>$15<br>for<br>sure</div></div><div class='cr'><div class='vertical-center'>$34<br>with a<br>50% chance</div></div><div class='respDivL'><div class='vertical-center'>(E)</div></div><div class='respDivR'><div class='vertical-center'>(I)</div></div></div>","I","$15","$34","0","15","34","RISKY"
"html-keyboard-response","27","64272","0.0-5.0-3.7","611343092396f1d9ed7018ad","bdp_rd","Sun Apr 16 2023 19:52:16 GMT-0600 (Mountain Daylight Time)","215387","","null","","","","offerFB","","<div class='trialBorder'><div class='vertical-center'><img style='vertical-align:center; align:center' src=img/fixation3.jpg></div><div class='cl'><div class='vertical-center'>$15<br>for<br>sure</div></div><div class='cr'><div class='vertical-center'><font style='color:orange'>$34<br>with a<br>50% chance</font></div></div><div class='respDivL'><div class='vertical-center'>(E)</div></div><div class='respDivR'><div class='vertical-center'><font style='color:orange'>(I)</font></div></div></div>","null","$15","$34","0","15","34",""
"html-keyboard-response","28","64776","0.0-5.0-1.8","611343092396f1d9ed7018ad","bdp_rd","Sun Apr 16 2023 19:52:16 GMT-0600 (Mountain Daylight Time)","215387","","null","","","","FIX","","<div class='trialBorder'><div class='vertical-center'><img style='vertical-align:center; align:center' src=img/fixation3.jpg></div></div>","null","","","","","",""
"html-keyboard-response","29","67257","0.0-5.0-2.8","611343092396f1d9ed7018ad","bdp_rd","Sun Apr 16 2023 19:52:16 GMT-0600 (Mountain Daylight Time)","215387","","2479","","","","offer","","<div class='trialBorder'><div class='vertical-center'><img style='vertical-align:center; align:center' src=img/fixation3.jpg></div><div class='cl'><div class='vertical-center'>$13<br>with a<br>50% chance</div></div><div class='cr'><div class='vertical-center'>$6<br>for<br>sure</div></div><div class='respDivL'><div class='vertical-center'>(E)</div></div><div class='respDivR'><div class='vertical-center'>(I)</div></div></div>","I","$6","$13","1","6","13","SURE"
"html-keyboard-response","30","67512","0.0-5.0-3.8","611343092396f1d9ed7018ad","bdp_rd","Sun Apr 16 2023 19:52:16 GMT-0600 (Mountain Daylight Time)","215387","","null","","","","offerFB","","<div class='trialBorder'><div class='vertical-center'><img style='vertical-align:center; align:center' src=img/fixation3.jpg></div><div class='cl'><div class='vertical-center'>$13<br>with a<br>50% chance</div></div><div class='cr'><div class='vertical-center'><font style='color:orange'>$6<br>for<br>sure</font></div></div><div class='respDivL'><div class='vertical-center'>(E)</div></div><div class='respDivR'><div class='vertical-center'><font style='color:orange'>(I)</font></div></div></div>","null","$6","$13","1","6","13",""
"html-keyboard-response","31","68016","0.0-5.0-1.9","611343092396f1d9ed7018ad","bdp_rd","Sun Apr 16 2023 19:52:16 GMT-0600 (Mountain Daylight Time)","215387","","null","","","","FIX","","<div class='trialBorder'><div class='vertical-center'><img style='vertical-align:center; align:center' src=img/fixation3.jpg></div></div>","null","","","","","",""
"html-keyboard-response","32","72077","0.0-5.0-2.9","611343092396f1d9ed7018ad","bdp_rd","Sun Apr 16 2023 19:52:16 GMT-0600 (Mountain Daylight Time)","215387","","4057","","","","offer","","<div class='trialBorder'><div class='vertical-center'><img style='vertical-align:center; align:center' src=img/fixation3.jpg></div><div class='cl'><div class='vertical-center'>$3<br>for<br>sure</div></div><div class='cr'><div class='vertical-center'>$17<br>with a<br>50% chance</div></div><div class='respDivL'><div class='vertical-center'>(E)</div></div><div class='respDivR'><div class='vertical-center'>(I)</div></div></div>","I","$3","$17","0","3","17","RISKY"
"html-keyboard-response","33","72331","0.0-5.0-3.9","611343092396f1d9ed7018ad","bdp_rd","Sun Apr 16 2023 19:52:16 GMT-0600 (Mountain Daylight Time)","215387","","null","","","","offerFB","","<div class='trialBorder'><div class='vertical-center'><img style='vertical-align:center; align:center' src=img/fixation3.jpg></div><div class='cl'><div class='vertical-center'>$3<br>for<br>sure</div></div><div class='cr'><div class='vertical-center'><font style='color:orange'>$17<br>with a<br>50% chance</font></div></div><div class='respDivL'><div class='vertical-center'>(E)</div></div><div class='respDivR'><div class='vertical-center'><font style='color:orange'>(I)</font></div></div></div>","null","$3","$17","0","3","17",""
"html-keyboard-response","34","72834","0.0-5.0-1.10","611343092396f1d9ed7018ad","bdp_rd","Sun Apr 16 2023 19:52:16 GMT-0600 (Mountain Daylight Time)","215387","","null","","","","FIX","","<div class='trialBorder'><div class='vertical-center'><img style='vertical-align:center; align:center' src=img/fixation3.jpg></div></div>","null","","","","","",""
"html-keyboard-response","35","78897","0.0-5.0-2.10","611343092396f1d9ed7018ad","bdp_rd","Sun Apr 16 2023 19:52:16 GMT-0600 (Mountain Daylight Time)","215387","","6061","","","","offer","","<div class='trialBorder'><div class='vertical-center'><img style='vertical-align:center; align:center' src=img/fixation3.jpg></div><div class='cl'><div class='vertical-center'>$16<br>for<br>sure</div></div><div class='cr'><div class='vertical-center'>$28<br>with a<br>50% chance</div></div><div class='respDivL'><div class='vertical-center'>(E)</div></div><div class='respDivR'><div class='vertical-center'>(I)</div></div></div>","E","$16","$28","0","16","28","SURE"
"html-keyboard-response","36","79162","0.0-5.0-3.10","611343092396f1d9ed7018ad","bdp_rd","Sun Apr 16 2023 19:52:16 GMT-0600 (Mountain Daylight Time)","215387","","null","","","","offerFB","","<div class='trialBorder'><div class='vertical-center'><img style='vertical-align:center; align:center' src=img/fixation3.jpg></div><div class='cl'><div class='vertical-center'><font style='color:orange'>$16<br>for<br>sure</font></div></div><div class='cr'><div class='vertical-center'>$28<br>with a<br>50% chance</div></div><div class='respDivL'><div class='vertical-center'><font style='color:orange'>(E)</font></div></div><div class='respDivR'><div class='vertical-center'>(I)</div></div></div>","null","$16","$28","0","16","28",""
"html-keyboard-response","37","79665","0.0-5.0-1.11","611343092396f1d9ed7018ad","bdp_rd","Sun Apr 16 2023 19:52:16 GMT-0600 (Mountain Daylight Time)","215387","","null","","","","FIX","","<div class='trialBorder'><div class='vertical-center'><img style='vertical-align:center; align:center' src=img/fixation3.jpg></div></div>","null","","","","","",""
"html-keyboard-response","38","81827","0.0-5.0-2.11","611343092396f1d9ed7018ad","bdp_rd","Sun Apr 16 2023 19:52:16 GMT-0600 (Mountain Daylight Time)","215387","","2159","","","","offer","","<div class='trialBorder'><div class='vertical-center'><img style='vertical-align:center; align:center' src=img/fixation3.jpg></div><div class='cl'><div class='vertical-center'>$47<br>with a<br>50% chance</div></div><div class='cr'><div class='vertical-center'>$27<br>for<br>sure</div></div><div class='respDivL'><div class='vertical-center'>(E)</div></div><div class='respDivR'><div class='vertical-center'>(I)</div></div></div>","I","$27","$47","1","27","47","SURE"
"html-keyboard-response","39","82082","0.0-5.0-3.11","611343092396f1d9ed7018ad","bdp_rd","Sun Apr 16 2023 19:52:16 GMT-0600 (Mountain Daylight Time)","215387","","null","","","","offerFB","","<div class='trialBorder'><div class='vertical-center'><img style='vertical-align:center; align:center' src=img/fixation3.jpg></div><div class='cl'><div class='vertical-center'>$47<br>with a<br>50% chance</div></div><div class='cr'><div class='vertical-center'><font style='color:orange'>$27<br>for<br>sure</font></div></div><div class='respDivL'><div class='vertical-center'>(E)</div></div><div class='respDivR'><div class='vertical-center'><font style='color:orange'>(I)</font></div></div></div>","null","$27","$47","1","27","47",""
"html-keyboard-response","40","82585","0.0-5.0-1.12","611343092396f1d9ed7018ad","bdp_rd","Sun Apr 16 2023 19:52:16 GMT-0600 (Mountain Daylight Time)","215387","","null","","","","FIX","","<div class='trialBorder'><div class='vertical-center'><img style='vertical-align:center; align:center' src=img/fixation3.jpg></div></div>","null","","","","","",""
"html-keyboard-response","41","85619","0.0-5.0-2.12","611343092396f1d9ed7018ad","bdp_rd","Sun Apr 16 2023 19:52:16 GMT-0600 (Mountain Daylight Time)","215387","","3030","","","","offer","","<div class='trialBorder'><div class='vertical-center'><img style='vertical-align:center; align:center' src=img/fixation3.jpg></div><div class='cl'><div class='vertical-center'>$39<br>with a<br>50% chance</div></div><div class='cr'><div class='vertical-center'>$18<br>for<br>sure</div></div><div class='respDivL'><div class='vertical-center'>(E)</div></div><div class='respDivR'><div class='vertical-center'>(I)</div></div></div>","I","$18","$39","1","18","39","SURE"
"html-keyboard-response","42","85873","0.0-5.0-3.12","611343092396f1d9ed7018ad","bdp_rd","Sun Apr 16 2023 19:52:16 GMT-0600 (Mountain Daylight Time)","215387","","null","","","","offerFB","","<div class='trialBorder'><div class='vertical-center'><img style='vertical-align:center; align:center' src=img/fixation3.jpg></div><div class='cl'><div class='vertical-center'>$39<br>with a<br>50% chance</div></div><div class='cr'><div class='vertical-center'><font style='color:orange'>$18<br>for<br>sure</font></div></div><div class='respDivL'><div class='vertical-center'>(E)</div></div><div class='respDivR'><div class='vertical-center'><font style='color:orange'>(I)</font></div></div></div>","null","$18","$39","1","18","39",""
"html-keyboard-response","43","86377","0.0-5.0-1.13","611343092396f1d9ed7018ad","bdp_rd","Sun Apr 16 2023 19:52:16 GMT-0600 (Mountain Daylight Time)","215387","","null","","","","FIX","","<div class='trialBorder'><div class='vertical-center'><img style='vertical-align:center; align:center' src=img/fixation3.jpg></div></div>","null","","","","","",""
"html-keyboard-response","44","88597","0.0-5.0-2.13","611343092396f1d9ed7018ad","bdp_rd","Sun Apr 16 2023 19:52:16 GMT-0600 (Mountain Daylight Time)","215387","","2219","","","","offer","","<div class='trialBorder'><div class='vertical-center'><img style='vertical-align:center; align:center' src=img/fixation3.jpg></div><div class='cl'><div class='vertical-center'>$13<br>for<br>sure</div></div><div class='cr'><div class='vertical-center'>$41<br>with a<br>50% chance</div></div><div class='respDivL'><div class='vertical-center'>(E)</div></div><div class='respDivR'><div class='vertical-center'>(I)</div></div></div>","I","$13","$41","0","13","41","RISKY"
"html-keyboard-response","45","88853","0.0-5.0-3.13","611343092396f1d9ed7018ad","bdp_rd","Sun Apr 16 2023 19:52:16 GMT-0600 (Mountain Daylight Time)","215387","","null","","","","offerFB","","<div class='trialBorder'><div class='vertical-center'><img style='vertical-align:center; align:center' src=img/fixation3.jpg></div><div class='cl'><div class='vertical-center'>$13<br>for<br>sure</div></div><div class='cr'><div class='vertical-center'><font style='color:orange'>$41<br>with a<br>50% chance</font></div></div><div class='respDivL'><div class='vertical-center'>(E)</div></div><div class='respDivR'><div class='vertical-center'><font style='color:orange'>(I)</font></div></div></div>","null","$13","$41","0","13","41",""
"html-keyboard-response","46","89356","0.0-5.0-1.14","611343092396f1d9ed7018ad","bdp_rd","Sun Apr 16 2023 19:52:16 GMT-0600 (Mountain Daylight Time)","215387","","null","","","","FIX","","<div class='trialBorder'><div class='vertical-center'><img style='vertical-align:center; align:center' src=img/fixation3.jpg></div></div>","null","","","","","",""
"html-keyboard-response","47","91389","0.0-5.0-2.14","611343092396f1d9ed7018ad","bdp_rd","Sun Apr 16 2023 19:52:16 GMT-0600 (Mountain Daylight Time)","215387","","2031","","","","offer","","<div class='trialBorder'><div class='vertical-center'><img style='vertical-align:center; align:center' src=img/fixation3.jpg></div><div class='cl'><div class='vertical-center'>$14<br>with a<br>50% chance</div></div><div class='cr'><div class='vertical-center'>$4<br>for<br>sure</div></div><div class='respDivL'><div class='vertical-center'>(E)</div></div><div class='respDivR'><div class='vertical-center'>(I)</div></div></div>","E","$4","$14","1","4","14","RISKY"
"html-keyboard-response","48","91643","0.0-5.0-3.14","611343092396f1d9ed7018ad","bdp_rd","Sun Apr 16 2023 19:52:16 GMT-0600 (Mountain Daylight Time)","215387","","null","","","","offerFB","","<div class='trialBorder'><div class='vertical-center'><img style='vertical-align:center; align:center' src=img/fixation3.jpg></div><div class='cl'><div class='vertical-center'><font style='color:orange'>$14<br>with a<br>50% chance</font></div></div><div class='cr'><div class='vertical-center'>$4<br>for<br>sure</div></div><div class='respDivL'><div class='vertical-center'><font style='color:orange'>(E)</font></div></div><div class='respDivR'><div class='vertical-center'>(I)</div></div></div>","null","$4","$14","1","4","14",""
"html-keyboard-response","49","92147","0.0-5.0-1.15","611343092396f1d9ed7018ad","bdp_rd","Sun Apr 16 2023 19:52:16 GMT-0600 (Mountain Daylight Time)","215387","","null","","","","FIX","","<div class='trialBorder'><div class='vertical-center'><img style='vertical-align:center; align:center' src=img/fixation3.jpg></div></div>","null","","","","","",""
"html-keyboard-response","50","93357","0.0-5.0-2.15","611343092396f1d9ed7018ad","bdp_rd","Sun Apr 16 2023 19:52:16 GMT-0600 (Mountain Daylight Time)","215387","","1208","","","","offer","","<div class='trialBorder'><div class='vertical-center'><img style='vertical-align:center; align:center' src=img/fixation3.jpg></div><div class='cl'><div class='vertical-center'>$19<br>with a<br>50% chance</div></div><div class='cr'><div class='vertical-center'>$10<br>for<br>sure</div></div><div class='respDivL'><div class='vertical-center'>(E)</div></div><div class='respDivR'><div class='vertical-center'>(I)</div></div></div>","E","$10","$19","1","10","19","RISKY"
"html-keyboard-response","51","93611","0.0-5.0-3.15","611343092396f1d9ed7018ad","bdp_rd","Sun Apr 16 2023 19:52:16 GMT-0600 (Mountain Daylight Time)","215387","","null","","","","offerFB","","<div class='trialBorder'><div class='vertical-center'><img style='vertical-align:center; align:center' src=img/fixation3.jpg></div><div class='cl'><div class='vertical-center'><font style='color:orange'>$19<br>with a<br>50% chance</font></div></div><div class='cr'><div class='vertical-center'>$10<br>for<br>sure</div></div><div class='respDivL'><div class='vertical-center'><font style='color:orange'>(E)</font></div></div><div class='respDivR'><div class='vertical-center'>(I)</div></div></div>","null","$10","$19","1","10","19",""
"html-keyboard-response","52","94114","0.0-5.0-1.16","611343092396f1d9ed7018ad","bdp_rd","Sun Apr 16 2023 19:52:16 GMT-0600 (Mountain Daylight Time)","215387","","null","","","","FIX","","<div class='trialBorder'><div class='vertical-center'><img style='vertical-align:center; align:center' src=img/fixation3.jpg></div></div>","null","","","","","",""
"html-keyboard-response","53","99578","0.0-5.0-2.16","611343092396f1d9ed7018ad","bdp_rd","Sun Apr 16 2023 19:52:16 GMT-0600 (Mountain Daylight Time)","215387","","5462","","","","offer","","<div class='trialBorder'><div class='vertical-center'><img style='vertical-align:center; align:center' src=img/fixation3.jpg></div><div class='cl'><div class='vertical-center'>$22<br>with a<br>50% chance</div></div><div class='cr'><div class='vertical-center'>$14<br>for<br>sure</div></div><div class='respDivL'><div class='vertical-center'>(E)</div></div><div class='respDivR'><div class='vertical-center'>(I)</div></div></div>","I","$14","$22","1","14","22","SURE"
"html-keyboard-response","54","99834","0.0-5.0-3.16","611343092396f1d9ed7018ad","bdp_rd","Sun Apr 16 2023 19:52:16 GMT-0600 (Mountain Daylight Time)","215387","","null","","","","offerFB","","<div class='trialBorder'><div class='vertical-center'><img style='vertical-align:center; align:center' src=img/fixation3.jpg></div><div class='cl'><div class='vertical-center'>$22<br>with a<br>50% chance</div></div><div class='cr'><div class='vertical-center'><font style='color:orange'>$14<br>for<br>sure</font></div></div><div class='respDivL'><div class='vertical-center'>(E)</div></div><div class='respDivR'><div class='vertical-center'><font style='color:orange'>(I)</font></div></div></div>","null","$14","$22","1","14","22",""
"html-keyboard-response","55","100337","0.0-5.0-1.17","611343092396f1d9ed7018ad","bdp_rd","Sun Apr 16 2023 19:52:16 GMT-0600 (Mountain Daylight Time)","215387","","null","","","","FIX","","<div class='trialBorder'><div class='vertical-center'><img style='vertical-align:center; align:center' src=img/fixation3.jpg></div></div>","null","","","","","",""
"html-keyboard-response","56","102318","0.0-5.0-2.17","611343092396f1d9ed7018ad","bdp_rd","Sun Apr 16 2023 19:52:16 GMT-0600 (Mountain Daylight Time)","215387","","1977","","","","offer","","<div class='trialBorder'><div class='vertical-center'><img style='vertical-align:center; align:center' src=img/fixation3.jpg></div><div class='cl'><div class='vertical-center'>$26<br>with a<br>50% chance</div></div><div class='cr'><div class='vertical-center'>$11<br>for<br>sure</div></div><div class='respDivL'><div class='vertical-center'>(E)</div></div><div class='respDivR'><div class='vertical-center'>(I)</div></div></div>","E","$11","$26","1","11","26","RISKY"
"html-keyboard-response","57","102572","0.0-5.0-3.17","611343092396f1d9ed7018ad","bdp_rd","Sun Apr 16 2023 19:52:16 GMT-0600 (Mountain Daylight Time)","215387","","null","","","","offerFB","","<div class='trialBorder'><div class='vertical-center'><img style='vertical-align:center; align:center' src=img/fixation3.jpg></div><div class='cl'><div class='vertical-center'><font style='color:orange'>$26<br>with a<br>50% chance</font></div></div><div class='cr'><div class='vertical-center'>$11<br>for<br>sure</div></div><div class='respDivL'><div class='vertical-center'><font style='color:orange'>(E)</font></div></div><div class='respDivR'><div class='vertical-center'>(I)</div></div></div>","null","$11","$26","1","11","26",""
"html-keyboard-response","58","103076","0.0-5.0-1.18","611343092396f1d9ed7018ad","bdp_rd","Sun Apr 16 2023 19:52:16 GMT-0600 (Mountain Daylight Time)","215387","","null","","","","FIX","","<div class='trialBorder'><div class='vertical-center'><img style='vertical-align:center; align:center' src=img/fixation3.jpg></div></div>","null","","","","","",""
"html-keyboard-response","59","105048","0.0-5.0-2.18","611343092396f1d9ed7018ad","bdp_rd","Sun Apr 16 2023 19:52:16 GMT-0600 (Mountain Daylight Time)","215387","","1970","","","","offer","","<div class='trialBorder'><div class='vertical-center'><img style='vertical-align:center; align:center' src=img/fixation3.jpg></div><div class='cl'><div class='vertical-center'>$42<br>for<br>sure</div></div><div class='cr'><div class='vertical-center'>$73<br>with a<br>50% chance</div></div><div class='respDivL'><div class='vertical-center'>(E)</div></div><div class='respDivR'><div class='vertical-center'>(I)</div></div></div>","E","$42","$73","0","42","73","SURE"
"html-keyboard-response","60","105302","0.0-5.0-3.18","611343092396f1d9ed7018ad","bdp_rd","Sun Apr 16 2023 19:52:16 GMT-0600 (Mountain Daylight Time)","215387","","null","","","","offerFB","","<div class='trialBorder'><div class='vertical-center'><img style='vertical-align:center; align:center' src=img/fixation3.jpg></div><div class='cl'><div class='vertical-center'><font style='color:orange'>$42<br>for<br>sure</font></div></div><div class='cr'><div class='vertical-center'>$73<br>with a<br>50% chance</div></div><div class='respDivL'><div class='vertical-center'><font style='color:orange'>(E)</font></div></div><div class='respDivR'><div class='vertical-center'>(I)</div></div></div>","null","$42","$73","0","42","73",""
"html-keyboard-response","61","105806","0.0-5.0-1.19","611343092396f1d9ed7018ad","bdp_rd","Sun Apr 16 2023 19:52:16 GMT-0600 (Mountain Daylight Time)","215387","","null","","","","FIX","","<div class='trialBorder'><div class='vertical-center'><img style='vertical-align:center; align:center' src=img/fixation3.jpg></div></div>","null","","","","","",""
"html-keyboard-response","62","108388","0.0-5.0-2.19","611343092396f1d9ed7018ad","bdp_rd","Sun Apr 16 2023 19:52:16 GMT-0600 (Mountain Daylight Time)","215387","","2579","","","","offer","","<div class='trialBorder'><div class='vertical-center'><img style='vertical-align:center; align:center' src=img/fixation3.jpg></div><div class='cl'><div class='vertical-center'>$27<br>with a<br>50% chance</div></div><div class='cr'><div class='vertical-center'>$12<br>for<br>sure</div></div><div class='respDivL'><div class='vertical-center'>(E)</div></div><div class='respDivR'><div class='vertical-center'>(I)</div></div></div>","I","$12","$27","1","12","27","SURE"
"html-keyboard-response","63","108641","0.0-5.0-3.19","611343092396f1d9ed7018ad","bdp_rd","Sun Apr 16 2023 19:52:16 GMT-0600 (Mountain Daylight Time)","215387","","null","","","","offerFB","","<div class='trialBorder'><div class='vertical-center'><img style='vertical-align:center; align:center' src=img/fixation3.jpg></div><div class='cl'><div class='vertical-center'>$27<br>with a<br>50% chance</div></div><div class='cr'><div class='vertical-center'><font style='color:orange'>$12<br>for<br>sure</font></div></div><div class='respDivL'><div class='vertical-center'>(E)</div></div><div class='respDivR'><div class='vertical-center'><font style='color:orange'>(I)</font></div></div></div>","null","$12","$27","1","12","27",""
"html-keyboard-response","64","109145","0.0-5.0-1.20","611343092396f1d9ed7018ad","bdp_rd","Sun Apr 16 2023 19:52:16 GMT-0600 (Mountain Daylight Time)","215387","","null","","","","FIX","","<div class='trialBorder'><div class='vertical-center'><img style='vertical-align:center; align:center' src=img/fixation3.jpg></div></div>","null","","","","","",""
"html-keyboard-response","65","111808","0.0-5.0-2.20","611343092396f1d9ed7018ad","bdp_rd","Sun Apr 16 2023 19:52:16 GMT-0600 (Mountain Daylight Time)","215387","","2661","","","","offer","","<div class='trialBorder'><div class='vertical-center'><img style='vertical-align:center; align:center' src=img/fixation3.jpg></div><div class='cl'><div class='vertical-center'>$19<br>for<br>sure</div></div><div class='cr'><div class='vertical-center'>$51<br>with a<br>50% chance</div></div><div class='respDivL'><div class='vertical-center'>(E)</div></div><div class='respDivR'><div class='vertical-center'>(I)</div></div></div>","I","$19","$51","0","19","51","RISKY"
"html-keyboard-response","66","112062","0.0-5.0-3.20","611343092396f1d9ed7018ad","bdp_rd","Sun Apr 16 2023 19:52:16 GMT-0600 (Mountain Daylight Time)","215387","","null","","","","offerFB","","<div class='trialBorder'><div class='vertical-center'><img style='vertical-align:center; align:center' src=img/fixation3.jpg></div><div class='cl'><div class='vertical-center'>$19<br>for<br>sure</div></div><div class='cr'><div class='vertical-center'><font style='color:orange'>$51<br>with a<br>50% chance</font></div></div><div class='respDivL'><div class='vertical-center'>(E)</div></div><div class='respDivR'><div class='vertical-center'><font style='color:orange'>(I)</font></div></div></div>","null","$19","$51","0","19","51",""
"html-keyboard-response","67","112566","0.0-5.0-1.21","611343092396f1d9ed7018ad","bdp_rd","Sun Apr 16 2023 19:52:16 GMT-0600 (Mountain Daylight Time)","215387","","null","","","","FIX","","<div class='trialBorder'><div class='vertical-center'><img style='vertical-align:center; align:center' src=img/fixation3.jpg></div></div>","null","","","","","",""
"html-keyboard-response","68","114799","0.0-5.0-2.21","611343092396f1d9ed7018ad","bdp_rd","Sun Apr 16 2023 19:52:16 GMT-0600 (Mountain Daylight Time)","215387","","2230","","","","offer","","<div class='trialBorder'><div class='vertical-center'><img style='vertical-align:center; align:center' src=img/fixation3.jpg></div><div class='cl'><div class='vertical-center'>$71<br>with a<br>50% chance</div></div><div class='cr'><div class='vertical-center'>$7<br>for<br>sure</div></div><div class='respDivL'><div class='vertical-center'>(E)</div></div><div class='respDivR'><div class='vertical-center'>(I)</div></div></div>","E","$7","$71","1","7","71","RISKY"
"html-keyboard-response","69","115053","0.0-5.0-3.21","611343092396f1d9ed7018ad","bdp_rd","Sun Apr 16 2023 19:52:16 GMT-0600 (Mountain Daylight Time)","215387","","null","","","","offerFB","","<div class='trialBorder'><div class='vertical-center'><img style='vertical-align:center; align:center' src=img/fixation3.jpg></div><div class='cl'><div class='vertical-center'><font style='color:orange'>$71<br>with a<br>50% chance</font></div></div><div class='cr'><div class='vertical-center'>$7<br>for<br>sure</div></div><div class='respDivL'><div class='vertical-center'><font style='color:orange'>(E)</font></div></div><div class='respDivR'><div class='vertical-center'>(I)</div></div></div>","null","$7","$71","1","7","71",""
"html-keyboard-response","70","115556","0.0-5.0-1.22","611343092396f1d9ed7018ad","bdp_rd","Sun Apr 16 2023 19:52:16 GMT-0600 (Mountain Daylight Time)","215387","","null","","","","FIX","","<div class='trialBorder'><div class='vertical-center'><img style='vertical-align:center; align:center' src=img/fixation3.jpg></div></div>","null","","","","","",""
"html-keyboard-response","71","119359","0.0-5.0-2.22","611343092396f1d9ed7018ad","bdp_rd","Sun Apr 16 2023 19:52:16 GMT-0600 (Mountain Daylight Time)","215387","","3801","","","","offer","","<div class='trialBorder'><div class='vertical-center'><img style='vertical-align:center; align:center' src=img/fixation3.jpg></div><div class='cl'><div class='vertical-center'>$39<br>for<br>sure</div></div><div class='cr'><div class='vertical-center'>$81<br>with a<br>50% chance</div></div><div class='respDivL'><div class='vertical-center'>(E)</div></div><div class='respDivR'><div class='vertical-center'>(I)</div></div></div>","I","$39","$81","0","39","81","RISKY"
"html-keyboard-response","72","119615","0.0-5.0-3.22","611343092396f1d9ed7018ad","bdp_rd","Sun Apr 16 2023 19:52:16 GMT-0600 (Mountain Daylight Time)","215387","","null","","","","offerFB","","<div class='trialBorder'><div class='vertical-center'><img style='vertical-align:center; align:center' src=img/fixation3.jpg></div><div class='cl'><div class='vertical-center'>$39<br>for<br>sure</div></div><div class='cr'><div class='vertical-center'><font style='color:orange'>$81<br>with a<br>50% chance</font></div></div><div class='respDivL'><div class='vertical-center'>(E)</div></div><div class='respDivR'><div class='vertical-center'><font style='color:orange'>(I)</font></div></div></div>","null","$39","$81","0","39","81",""
"html-keyboard-response","73","120119","0.0-5.0-1.23","611343092396f1d9ed7018ad","bdp_rd","Sun Apr 16 2023 19:52:16 GMT-0600 (Mountain Daylight Time)","215387","","null","","","","FIX","","<div class='trialBorder'><div class='vertical-center'><img style='vertical-align:center; align:center' src=img/fixation3.jpg></div></div>","null","","","","","",""
"html-keyboard-response","74","121889","0.0-5.0-2.23","611343092396f1d9ed7018ad","bdp_rd","Sun Apr 16 2023 19:52:16 GMT-0600 (Mountain Daylight Time)","215387","","1768","","","","offer","","<div class='trialBorder'><div class='vertical-center'><img style='vertical-align:center; align:center' src=img/fixation3.jpg></div><div class='cl'><div class='vertical-center'>$21<br>with a<br>50% chance</div></div><div class='cr'><div class='vertical-center'>$2<br>for<br>sure</div></div><div class='respDivL'><div class='vertical-center'>(E)</div></div><div class='respDivR'><div class='vertical-center'>(I)</div></div></div>","E","$2","$21","1","2","21","RISKY"
"html-keyboard-response","75","122142","0.0-5.0-3.23","611343092396f1d9ed7018ad","bdp_rd","Sun Apr 16 2023 19:52:16 GMT-0600 (Mountain Daylight Time)","215387","","null","","","","offerFB","","<div class='trialBorder'><div class='vertical-center'><img style='vertical-align:center; align:center' src=img/fixation3.jpg></div><div class='cl'><div class='vertical-center'><font style='color:orange'>$21<br>with a<br>50% chance</font></div></div><div class='cr'><div class='vertical-center'>$2<br>for<br>sure</div></div><div class='respDivL'><div class='vertical-center'><font style='color:orange'>(E)</font></div></div><div class='respDivR'><div class='vertical-center'>(I)</div></div></div>","null","$2","$21","1","2","21",""
"html-keyboard-response","76","122645","0.0-5.0-1.24","611343092396f1d9ed7018ad","bdp_rd","Sun Apr 16 2023 19:52:16 GMT-0600 (Mountain Daylight Time)","215387","","null","","","","FIX","","<div class='trialBorder'><div class='vertical-center'><img style='vertical-align:center; align:center' src=img/fixation3.jpg></div></div>","null","","","","","",""
"html-keyboard-response","77","124349","0.0-5.0-2.24","611343092396f1d9ed7018ad","bdp_rd","Sun Apr 16 2023 19:52:16 GMT-0600 (Mountain Daylight Time)","215387","","1702","","","","offer","","<div class='trialBorder'><div class='vertical-center'><img style='vertical-align:center; align:center' src=img/fixation3.jpg></div><div class='cl'><div class='vertical-center'>$42<br>with a<br>50% chance</div></div><div class='cr'><div class='vertical-center'>$22<br>for<br>sure</div></div><div class='respDivL'><div class='vertical-center'>(E)</div></div><div class='respDivR'><div class='vertical-center'>(I)</div></div></div>","I","$22","$42","1","22","42","SURE"
"html-keyboard-response","78","124604","0.0-5.0-3.24","611343092396f1d9ed7018ad","bdp_rd","Sun Apr 16 2023 19:52:16 GMT-0600 (Mountain Daylight Time)","215387","","null","","","","offerFB","","<div class='trialBorder'><div class='vertical-center'><img style='vertical-align:center; align:center' src=img/fixation3.jpg></div><div class='cl'><div class='vertical-center'>$42<br>with a<br>50% chance</div></div><div class='cr'><div class='vertical-center'><font style='color:orange'>$22<br>for<br>sure</font></div></div><div class='respDivL'><div class='vertical-center'>(E)</div></div><div class='respDivR'><div class='vertical-center'><font style='color:orange'>(I)</font></div></div></div>","null","$22","$42","1","22","42",""
"html-keyboard-response","79","125107","0.0-5.0-1.25","611343092396f1d9ed7018ad","bdp_rd","Sun Apr 16 2023 19:52:16 GMT-0600 (Mountain Daylight Time)","215387","","null","","","","FIX","","<div class='trialBorder'><div class='vertical-center'><img style='vertical-align:center; align:center' src=img/fixation3.jpg></div></div>","null","","","","","",""
"html-keyboard-response","80","126460","0.0-5.0-2.25","611343092396f1d9ed7018ad","bdp_rd","Sun Apr 16 2023 19:52:16 GMT-0600 (Mountain Daylight Time)","215387","","1350","","","","offer","","<div class='trialBorder'><div class='vertical-center'><img style='vertical-align:center; align:center' src=img/fixation3.jpg></div><div class='cl'><div class='vertical-center'>$44<br>with a<br>50% chance</div></div><div class='cr'><div class='vertical-center'>$37<br>for<br>sure</div></div><div class='respDivL'><div class='vertical-center'>(E)</div></div><div class='respDivR'><div class='vertical-center'>(I)</div></div></div>","E","$37","$44","1","37","44","RISKY"
"html-keyboard-response","81","126714","0.0-5.0-3.25","611343092396f1d9ed7018ad","bdp_rd","Sun Apr 16 2023 19:52:16 GMT-0600 (Mountain Daylight Time)","215387","","null","","","","offerFB","","<div class='trialBorder'><div class='vertical-center'><img style='vertical-align:center; align:center' src=img/fixation3.jpg></div><div class='cl'><div class='vertical-center'><font style='color:orange'>$44<br>with a<br>50% chance</font></div></div><div class='cr'><div class='vertical-center'>$37<br>for<br>sure</div></div><div class='respDivL'><div class='vertical-center'><font style='color:orange'>(E)</font></div></div><div class='respDivR'><div class='vertical-center'>(I)</div></div></div>","null","$37","$44","1","37","44",""
"html-keyboard-response","82","127217","0.0-5.0-1.26","611343092396f1d9ed7018ad","bdp_rd","Sun Apr 16 2023 19:52:16 GMT-0600 (Mountain Daylight Time)","215387","","null","","","","FIX","","<div class='trialBorder'><div class='vertical-center'><img style='vertical-align:center; align:center' src=img/fixation3.jpg></div></div>","null","","","","","",""
"html-keyboard-response","83","129239","0.0-5.0-2.26","611343092396f1d9ed7018ad","bdp_rd","Sun Apr 16 2023 19:52:16 GMT-0600 (Mountain Daylight Time)","215387","","2019","","","","offer","","<div class='trialBorder'><div class='vertical-center'><img style='vertical-align:center; align:center' src=img/fixation3.jpg></div><div class='cl'><div class='vertical-center'>$45<br>for<br>sure</div></div><div class='cr'><div class='vertical-center'>$86<br>with a<br>50% chance</div></div><div class='respDivL'><div class='vertical-center'>(E)</div></div><div class='respDivR'><div class='vertical-center'>(I)</div></div></div>","E","$45","$86","0","45","86","SURE"
"html-keyboard-response","84","129493","0.0-5.0-3.26","611343092396f1d9ed7018ad","bdp_rd","Sun Apr 16 2023 19:52:16 GMT-0600 (Mountain Daylight Time)","215387","","null","","","","offerFB","","<div class='trialBorder'><div class='vertical-center'><img style='vertical-align:center; align:center' src=img/fixation3.jpg></div><div class='cl'><div class='vertical-center'><font style='color:orange'>$45<br>for<br>sure</font></div></div><div class='cr'><div class='vertical-center'>$86<br>with a<br>50% chance</div></div><div class='respDivL'><div class='vertical-center'><font style='color:orange'>(E)</font></div></div><div class='respDivR'><div class='vertical-center'>(I)</div></div></div>","null","$45","$86","0","45","86",""
"html-keyboard-response","85","129995","0.0-5.0-1.27","611343092396f1d9ed7018ad","bdp_rd","Sun Apr 16 2023 19:52:16 GMT-0600 (Mountain Daylight Time)","215387","","null","","","","FIX","","<div class='trialBorder'><div class='vertical-center'><img style='vertical-align:center; align:center' src=img/fixation3.jpg></div></div>","null","","","","","",""
"html-keyboard-response","86","131409","0.0-5.0-2.27","611343092396f1d9ed7018ad","bdp_rd","Sun Apr 16 2023 19:52:16 GMT-0600 (Mountain Daylight Time)","215387","","1412","","","","offer","","<div class='trialBorder'><div class='vertical-center'><img style='vertical-align:center; align:center' src=img/fixation3.jpg></div><div class='cl'><div class='vertical-center'>$32<br>with a<br>50% chance</div></div><div class='cr'><div class='vertical-center'>$9<br>for<br>sure</div></div><div class='respDivL'><div class='vertical-center'>(E)</div></div><div class='respDivR'><div class='vertical-center'>(I)</div></div></div>","E","$9","$32","1","9","32","RISKY"
"html-keyboard-response","87","131663","0.0-5.0-3.27","611343092396f1d9ed7018ad","bdp_rd","Sun Apr 16 2023 19:52:16 GMT-0600 (Mountain Daylight Time)","215387","","null","","","","offerFB","","<div class='trialBorder'><div class='vertical-center'><img style='vertical-align:center; align:center' src=img/fixation3.jpg></div><div class='cl'><div class='vertical-center'><font style='color:orange'>$32<br>with a<br>50% chance</font></div></div><div class='cr'><div class='vertical-center'>$9<br>for<br>sure</div></div><div class='respDivL'><div class='vertical-center'><font style='color:orange'>(E)</font></div></div><div class='respDivR'><div class='vertical-center'>(I)</div></div></div>","null","$9","$32","1","9","32",""
"html-keyboard-response","88","132165","0.0-5.0-1.28","611343092396f1d9ed7018ad","bdp_rd","Sun Apr 16 2023 19:52:16 GMT-0600 (Mountain Daylight Time)","215387","","null","","","","FIX","","<div class='trialBorder'><div class='vertical-center'><img style='vertical-align:center; align:center' src=img/fixation3.jpg></div></div>","null","","","","","",""
"html-keyboard-response","89","134909","0.0-5.0-2.28","611343092396f1d9ed7018ad","bdp_rd","Sun Apr 16 2023 19:52:16 GMT-0600 (Mountain Daylight Time)","215387","","2741","","","","offer","","<div class='trialBorder'><div class='vertical-center'><img style='vertical-align:center; align:center' src=img/fixation3.jpg></div><div class='cl'><div class='vertical-center'>$53<br>for<br>sure</div></div><div class='cr'><div class='vertical-center'>$98<br>with a<br>50% chance</div></div><div class='respDivL'><div class='vertical-center'>(E)</div></div><div class='respDivR'><div class='vertical-center'>(I)</div></div></div>","E","$53","$98","0","53","98","SURE"
"html-keyboard-response","90","135165","0.0-5.0-3.28","611343092396f1d9ed7018ad","bdp_rd","Sun Apr 16 2023 19:52:16 GMT-0600 (Mountain Daylight Time)","215387","","null","","","","offerFB","","<div class='trialBorder'><div class='vertical-center'><img style='vertical-align:center; align:center' src=img/fixation3.jpg></div><div class='cl'><div class='vertical-center'><font style='color:orange'>$53<br>for<br>sure</font></div></div><div class='cr'><div class='vertical-center'>$98<br>with a<br>50% chance</div></div><div class='respDivL'><div class='vertical-center'><font style='color:orange'>(E)</font></div></div><div class='respDivR'><div class='vertical-center'>(I)</div></div></div>","null","$53","$98","0","53","98",""
"html-keyboard-response","91","135669","0.0-5.0-1.29","611343092396f1d9ed7018ad","bdp_rd","Sun Apr 16 2023 19:52:16 GMT-0600 (Mountain Daylight Time)","215387","","null","","","","FIX","","<div class='trialBorder'><div class='vertical-center'><img style='vertical-align:center; align:center' src=img/fixation3.jpg></div></div>","null","","","","","",""
"html-keyboard-response","92","137680","0.0-5.0-2.29","611343092396f1d9ed7018ad","bdp_rd","Sun Apr 16 2023 19:52:16 GMT-0600 (Mountain Daylight Time)","215387","","2009","","","","offer","","<div class='trialBorder'><div class='vertical-center'><img style='vertical-align:center; align:center' src=img/fixation3.jpg></div><div class='cl'><div class='vertical-center'>$46<br>for<br>sure</div></div><div class='cr'><div class='vertical-center'>$65<br>with a<br>50% chance</div></div><div class='respDivL'><div class='vertical-center'>(E)</div></div><div class='respDivR'><div class='vertical-center'>(I)</div></div></div>","E","$46","$65","0","46","65","SURE"
"html-keyboard-response","93","137937","0.0-5.0-3.29","611343092396f1d9ed7018ad","bdp_rd","Sun Apr 16 2023 19:52:16 GMT-0600 (Mountain Daylight Time)","215387","","null","","","","offerFB","","<div class='trialBorder'><div class='vertical-center'><img style='vertical-align:center; align:center' src=img/fixation3.jpg></div><div class='cl'><div class='vertical-center'><font style='color:orange'>$46<br>for<br>sure</font></div></div><div class='cr'><div class='vertical-center'>$65<br>with a<br>50% chance</div></div><div class='respDivL'><div class='vertical-center'><font style='color:orange'>(E)</font></div></div><div class='respDivR'><div class='vertical-center'>(I)</div></div></div>","null","$46","$65","0","46","65",""
"html-keyboard-response","94","138441","0.0-5.0-1.30","611343092396f1d9ed7018ad","bdp_rd","Sun Apr 16 2023 19:52:16 GMT-0600 (Mountain Daylight Time)","215387","","null","","","","FIX","","<div class='trialBorder'><div class='vertical-center'><img style='vertical-align:center; align:center' src=img/fixation3.jpg></div></div>","null","","","","","",""
"html-keyboard-response","95","140360","0.0-5.0-2.30","611343092396f1d9ed7018ad","bdp_rd","Sun Apr 16 2023 19:52:16 GMT-0600 (Mountain Daylight Time)","215387","","1915","","","","offer","","<div class='trialBorder'><div class='vertical-center'><img style='vertical-align:center; align:center' src=img/fixation3.jpg></div><div class='cl'><div class='vertical-center'>$29<br>for<br>sure</div></div><div class='cr'><div class='vertical-center'>$46<br>with a<br>50% chance</div></div><div class='respDivL'><div class='vertical-center'>(E)</div></div><div class='respDivR'><div class='vertical-center'>(I)</div></div></div>","I","$29","$46","0","29","46","RISKY"
"html-keyboard-response","96","140613","0.0-5.0-3.30","611343092396f1d9ed7018ad","bdp_rd","Sun Apr 16 2023 19:52:16 GMT-0600 (Mountain Daylight Time)","215387","","null","","","","offerFB","","<div class='trialBorder'><div class='vertical-center'><img style='vertical-align:center; align:center' src=img/fixation3.jpg></div><div class='cl'><div class='vertical-center'>$29<br>for<br>sure</div></div><div class='cr'><div class='vertical-center'><font style='color:orange'>$46<br>with a<br>50% chance</font></div></div><div class='respDivL'><div class='vertical-center'>(E)</div></div><div class='respDivR'><div class='vertical-center'><font style='color:orange'>(I)</font></div></div></div>","null","$29","$46","0","29","46",""
"html-keyboard-response","97","141116","0.0-5.0-1.31","611343092396f1d9ed7018ad","bdp_rd","Sun Apr 16 2023 19:52:16 GMT-0600 (Mountain Daylight Time)","215387","","null","","","","FIX","","<div class='trialBorder'><div class='vertical-center'><img style='vertical-align:center; align:center' src=img/fixation3.jpg></div></div>","null","","","","","",""
"html-keyboard-response","98","144220","0.0-5.0-2.31","611343092396f1d9ed7018ad","bdp_rd","Sun Apr 16 2023 19:52:16 GMT-0600 (Mountain Daylight Time)","215387","","3100","","","","offer","","<div class='trialBorder'><div class='vertical-center'><img style='vertical-align:center; align:center' src=img/fixation3.jpg></div><div class='cl'><div class='vertical-center'>$36<br>with a<br>50% chance</div></div><div class='cr'><div class='vertical-center'>$18<br>for<br>sure</div></div><div class='respDivL'><div class='vertical-center'>(E)</div></div><div class='respDivR'><div class='vertical-center'>(I)</div></div></div>","E","$18","$36","1","18","36","RISKY"
"html-keyboard-response","99","144475","0.0-5.0-3.31","611343092396f1d9ed7018ad","bdp_rd","Sun Apr 16 2023 19:52:16 GMT-0600 (Mountain Daylight Time)","215387","","null","","","","offerFB","","<div class='trialBorder'><div class='vertical-center'><img style='vertical-align:center; align:center' src=img/fixation3.jpg></div><div class='cl'><div class='vertical-center'><font style='color:orange'>$36<br>with a<br>50% chance</font></div></div><div class='cr'><div class='vertical-center'>$18<br>for<br>sure</div></div><div class='respDivL'><div class='vertical-center'><font style='color:orange'>(E)</font></div></div><div class='respDivR'><div class='vertical-center'>(I)</div></div></div>","null","$18","$36","1","18","36",""
"html-keyboard-response","100","144977","0.0-5.0-1.32","611343092396f1d9ed7018ad","bdp_rd","Sun Apr 16 2023 19:52:16 GMT-0600 (Mountain Daylight Time)","215387","","null","","","","FIX","","<div class='trialBorder'><div class='vertical-center'><img style='vertical-align:center; align:center' src=img/fixation3.jpg></div></div>","null","","","","","",""
"html-keyboard-response","101","147580","0.0-5.0-2.32","611343092396f1d9ed7018ad","bdp_rd","Sun Apr 16 2023 19:52:16 GMT-0600 (Mountain Daylight Time)","215387","","2601","","","","offer","","<div class='trialBorder'><div class='vertical-center'><img style='vertical-align:center; align:center' src=img/fixation3.jpg></div><div class='cl'><div class='vertical-center'>$95<br>with a<br>50% chance</div></div><div class='cr'><div class='vertical-center'>$40<br>for<br>sure</div></div><div class='respDivL'><div class='vertical-center'>(E)</div></div><div class='respDivR'><div class='vertical-center'>(I)</div></div></div>","E","$40","$95","1","40","95","RISKY"
"html-keyboard-response","102","147834","0.0-5.0-3.32","611343092396f1d9ed7018ad","bdp_rd","Sun Apr 16 2023 19:52:16 GMT-0600 (Mountain Daylight Time)","215387","","null","","","","offerFB","","<div class='trialBorder'><div class='vertical-center'><img style='vertical-align:center; align:center' src=img/fixation3.jpg></div><div class='cl'><div class='vertical-center'><font style='color:orange'>$95<br>with a<br>50% chance</font></div></div><div class='cr'><div class='vertical-center'>$40<br>for<br>sure</div></div><div class='respDivL'><div class='vertical-center'><font style='color:orange'>(E)</font></div></div><div class='respDivR'><div class='vertical-center'>(I)</div></div></div>","null","$40","$95","1","40","95",""
"html-keyboard-response","103","148338","0.0-5.0-1.33","611343092396f1d9ed7018ad","bdp_rd","Sun Apr 16 2023 19:52:16 GMT-0600 (Mountain Daylight Time)","215387","","null","","","","FIX","","<div class='trialBorder'><div class='vertical-center'><img style='vertical-align:center; align:center' src=img/fixation3.jpg></div></div>","null","","","","","",""
"html-keyboard-response","104","149741","0.0-5.0-2.33","611343092396f1d9ed7018ad","bdp_rd","Sun Apr 16 2023 19:52:16 GMT-0600 (Mountain Daylight Time)","215387","","1401","","","","offer","","<div class='trialBorder'><div class='vertical-center'><img style='vertical-align:center; align:center' src=img/fixation3.jpg></div><div class='cl'><div class='vertical-center'>$31<br>for<br>sure</div></div><div class='cr'><div class='vertical-center'>$78<br>with a<br>50% chance</div></div><div class='respDivL'><div class='vertical-center'>(E)</div></div><div class='respDivR'><div class='vertical-center'>(I)</div></div></div>","I","$31","$78","0","31","78","RISKY"
"html-keyboard-response","105","149996","0.0-5.0-3.33","611343092396f1d9ed7018ad","bdp_rd","Sun Apr 16 2023 19:52:16 GMT-0600 (Mountain Daylight Time)","215387","","null","","","","offerFB","","<div class='trialBorder'><div class='vertical-center'><img style='vertical-align:center; align:center' src=img/fixation3.jpg></div><div class='cl'><div class='vertical-center'>$31<br>for<br>sure</div></div><div class='cr'><div class='vertical-center'><font style='color:orange'>$78<br>with a<br>50% chance</font></div></div><div class='respDivL'><div class='vertical-center'>(E)</div></div><div class='respDivR'><div class='vertical-center'><font style='color:orange'>(I)</font></div></div></div>","null","$31","$78","0","31","78",""
"html-keyboard-response","106","150498","0.0-5.0-1.34","611343092396f1d9ed7018ad","bdp_rd","Sun Apr 16 2023 19:52:16 GMT-0600 (Mountain Daylight Time)","215387","","null","","","","FIX","","<div class='trialBorder'><div class='vertical-center'><img style='vertical-align:center; align:center' src=img/fixation3.jpg></div></div>","null","","","","","",""
"html-keyboard-response","107","151671","0.0-5.0-2.34","611343092396f1d9ed7018ad","bdp_rd","Sun Apr 16 2023 19:52:16 GMT-0600 (Mountain Daylight Time)","215387","","1170","","","","offer","","<div class='trialBorder'><div class='vertical-center'><img style='vertical-align:center; align:center' src=img/fixation3.jpg></div><div class='cl'><div class='vertical-center'>$33<br>with a<br>50% chance</div></div><div class='cr'><div class='vertical-center'>$1<br>for<br>sure</div></div><div class='respDivL'><div class='vertical-center'>(E)</div></div><div class='respDivR'><div class='vertical-center'>(I)</div></div></div>","E","$1","$33","1","1","33","RISKY"
"html-keyboard-response","108","151927","0.0-5.0-3.34","611343092396f1d9ed7018ad","bdp_rd","Sun Apr 16 2023 19:52:16 GMT-0600 (Mountain Daylight Time)","215387","","null","","","","offerFB","","<div class='trialBorder'><div class='vertical-center'><img style='vertical-align:center; align:center' src=img/fixation3.jpg></div><div class='cl'><div class='vertical-center'><font style='color:orange'>$33<br>with a<br>50% chance</font></div></div><div class='cr'><div class='vertical-center'>$1<br>for<br>sure</div></div><div class='respDivL'><div class='vertical-center'><font style='color:orange'>(E)</font></div></div><div class='respDivR'><div class='vertical-center'>(I)</div></div></div>","null","$1","$33","1","1","33",""
"html-keyboard-response","109","152430","0.0-5.0-1.35","611343092396f1d9ed7018ad","bdp_rd","Sun Apr 16 2023 19:52:16 GMT-0600 (Mountain Daylight Time)","215387","","null","","","","FIX","","<div class='trialBorder'><div class='vertical-center'><img style='vertical-align:center; align:center' src=img/fixation3.jpg></div></div>","null","","","","","",""
"html-keyboard-response","110","154242","0.0-5.0-2.35","611343092396f1d9ed7018ad","bdp_rd","Sun Apr 16 2023 19:52:16 GMT-0600 (Mountain Daylight Time)","215387","","1809","","","","offer","","<div class='trialBorder'><div class='vertical-center'><img style='vertical-align:center; align:center' src=img/fixation3.jpg></div><div class='cl'><div class='vertical-center'>$21<br>for<br>sure</div></div><div class='cr'><div class='vertical-center'>$25<br>with a<br>50% chance</div></div><div class='respDivL'><div class='vertical-center'>(E)</div></div><div class='respDivR'><div class='vertical-center'>(I)</div></div></div>","E","$21","$25","0","21","25","SURE"
"html-keyboard-response","111","154497","0.0-5.0-3.35","611343092396f1d9ed7018ad","bdp_rd","Sun Apr 16 2023 19:52:16 GMT-0600 (Mountain Daylight Time)","215387","","null","","","","offerFB","","<div class='trialBorder'><div class='vertical-center'><img style='vertical-align:center; align:center' src=img/fixation3.jpg></div><div class='cl'><div class='vertical-center'><font style='color:orange'>$21<br>for<br>sure</font></div></div><div class='cr'><div class='vertical-center'>$25<br>with a<br>50% chance</div></div><div class='respDivL'><div class='vertical-center'><font style='color:orange'>(E)</font></div></div><div class='respDivR'><div class='vertical-center'>(I)</div></div></div>","null","$21","$25","0","21","25",""
"html-keyboard-response","112","155000","0.0-5.0-1.36","611343092396f1d9ed7018ad","bdp_rd","Sun Apr 16 2023 19:52:16 GMT-0600 (Mountain Daylight Time)","215387","","null","","","","FIX","","<div class='trialBorder'><div class='vertical-center'><img style='vertical-align:center; align:center' src=img/fixation3.jpg></div></div>","null","","","","","",""
"html-keyboard-response","113","158511","0.0-5.0-2.36","611343092396f1d9ed7018ad","bdp_rd","Sun Apr 16 2023 19:52:16 GMT-0600 (Mountain Daylight Time)","215387","","3507","","","","offer","","<div class='trialBorder'><div class='vertical-center'><img style='vertical-align:center; align:center' src=img/fixation3.jpg></div><div class='cl'><div class='vertical-center'>$8<br>for<br>sure</div></div><div class='cr'><div class='vertical-center'>$45<br>with a<br>50% chance</div></div><div class='respDivL'><div class='vertical-center'>(E)</div></div><div class='respDivR'><div class='vertical-center'>(I)</div></div></div>","I","$8","$45","0","8","45","RISKY"
"html-keyboard-response","114","158765","0.0-5.0-3.36","611343092396f1d9ed7018ad","bdp_rd","Sun Apr 16 2023 19:52:16 GMT-0600 (Mountain Daylight Time)","215387","","null","","","","offerFB","","<div class='trialBorder'><div class='vertical-center'><img style='vertical-align:center; align:center' src=img/fixation3.jpg></div><div class='cl'><div class='vertical-center'>$8<br>for<br>sure</div></div><div class='cr'><div class='vertical-center'><font style='color:orange'>$45<br>with a<br>50% chance</font></div></div><div class='respDivL'><div class='vertical-center'>(E)</div></div><div class='respDivR'><div class='vertical-center'><font style='color:orange'>(I)</font></div></div></div>","null","$8","$45","0","8","45",""
"html-keyboard-response","115","159269","0.0-5.0-1.37","611343092396f1d9ed7018ad","bdp_rd","Sun Apr 16 2023 19:52:16 GMT-0600 (Mountain Daylight Time)","215387","","null","","","","FIX","","<div class='trialBorder'><div class='vertical-center'><img style='vertical-align:center; align:center' src=img/fixation3.jpg></div></div>","null","","","","","",""
"html-keyboard-response","116","160551","0.0-5.0-2.37","611343092396f1d9ed7018ad","bdp_rd","Sun Apr 16 2023 19:52:16 GMT-0600 (Mountain Daylight Time)","215387","","1280","","","","offer","","<div class='trialBorder'><div class='vertical-center'><img style='vertical-align:center; align:center' src=img/fixation3.jpg></div><div class='cl'><div class='vertical-center'>$20<br>for<br>sure</div></div><div class='cr'><div class='vertical-center'>$37<br>with a<br>50% chance</div></div><div class='respDivL'><div class='vertical-center'>(E)</div></div><div class='respDivR'><div class='vertical-center'>(I)</div></div></div>","E","$20","$37","0","20","37","SURE"
"html-keyboard-response","117","160807","0.0-5.0-3.37","611343092396f1d9ed7018ad","bdp_rd","Sun Apr 16 2023 19:52:16 GMT-0600 (Mountain Daylight Time)","215387","","null","","","","offerFB","","<div class='trialBorder'><div class='vertical-center'><img style='vertical-align:center; align:center' src=img/fixation3.jpg></div><div class='cl'><div class='vertical-center'><font style='color:orange'>$20<br>for<br>sure</font></div></div><div class='cr'><div class='vertical-center'>$37<br>with a<br>50% chance</div></div><div class='respDivL'><div class='vertical-center'><font style='color:orange'>(E)</font></div></div><div class='respDivR'><div class='vertical-center'>(I)</div></div></div>","null","$20","$37","0","20","37",""
"html-keyboard-response","118","161311","0.0-5.0-1.38","611343092396f1d9ed7018ad","bdp_rd","Sun Apr 16 2023 19:52:16 GMT-0600 (Mountain Daylight Time)","215387","","null","","","","FIX","","<div class='trialBorder'><div class='vertical-center'><img style='vertical-align:center; align:center' src=img/fixation3.jpg></div></div>","null","","","","","",""
"html-keyboard-response","119","162790","0.0-5.0-2.38","611343092396f1d9ed7018ad","bdp_rd","Sun Apr 16 2023 19:52:16 GMT-0600 (Mountain Daylight Time)","215387","","1477","","","","offer","","<div class='trialBorder'><div class='vertical-center'><img style='vertical-align:center; align:center' src=img/fixation3.jpg></div><div class='cl'><div class='vertical-center'>$16<br>for<br>sure</div></div><div class='cr'><div class='vertical-center'>$38<br>with a<br>50% chance</div></div><div class='respDivL'><div class='vertical-center'>(E)</div></div><div class='respDivR'><div class='vertical-center'>(I)</div></div></div>","I","$16","$38","0","16","38","RISKY"
"html-keyboard-response","120","163044","0.0-5.0-3.38","611343092396f1d9ed7018ad","bdp_rd","Sun Apr 16 2023 19:52:16 GMT-0600 (Mountain Daylight Time)","215387","","null","","","","offerFB","","<div class='trialBorder'><div class='vertical-center'><img style='vertical-align:center; align:center' src=img/fixation3.jpg></div><div class='cl'><div class='vertical-center'>$16<br>for<br>sure</div></div><div class='cr'><div class='vertical-center'><font style='color:orange'>$38<br>with a<br>50% chance</font></div></div><div class='respDivL'><div class='vertical-center'>(E)</div></div><div class='respDivR'><div class='vertical-center'><font style='color:orange'>(I)</font></div></div></div>","null","$16","$38","0","16","38",""
"html-keyboard-response","121","163548","0.0-5.0-1.39","611343092396f1d9ed7018ad","bdp_rd","Sun Apr 16 2023 19:52:16 GMT-0600 (Mountain Daylight Time)","215387","","null","","","","FIX","","<div class='trialBorder'><div class='vertical-center'><img style='vertical-align:center; align:center' src=img/fixation3.jpg></div></div>","null","","","","","",""
"html-keyboard-response","122","165350","0.0-5.0-2.39","611343092396f1d9ed7018ad","bdp_rd","Sun Apr 16 2023 19:52:16 GMT-0600 (Mountain Daylight Time)","215387","","1800","","","","offer","","<div class='trialBorder'><div class='vertical-center'><img style='vertical-align:center; align:center' src=img/fixation3.jpg></div><div class='cl'><div class='vertical-center'>$31<br>with a<br>50% chance</div></div><div class='cr'><div class='vertical-center'>$15<br>for<br>sure</div></div><div class='respDivL'><div class='vertical-center'>(E)</div></div><div class='respDivR'><div class='vertical-center'>(I)</div></div></div>","E","$15","$31","1","15","31","RISKY"
"html-keyboard-response","123","165604","0.0-5.0-3.39","611343092396f1d9ed7018ad","bdp_rd","Sun Apr 16 2023 19:52:16 GMT-0600 (Mountain Daylight Time)","215387","","null","","","","offerFB","","<div class='trialBorder'><div class='vertical-center'><img style='vertical-align:center; align:center' src=img/fixation3.jpg></div><div class='cl'><div class='vertical-center'><font style='color:orange'>$31<br>with a<br>50% chance</font></div></div><div class='cr'><div class='vertical-center'>$15<br>for<br>sure</div></div><div class='respDivL'><div class='vertical-center'><font style='color:orange'>(E)</font></div></div><div class='respDivR'><div class='vertical-center'>(I)</div></div></div>","null","$15","$31","1","15","31",""
"html-keyboard-response","124","166107","0.0-5.0-1.40","611343092396f1d9ed7018ad","bdp_rd","Sun Apr 16 2023 19:52:16 GMT-0600 (Mountain Daylight Time)","215387","","null","","","","FIX","","<div class='trialBorder'><div class='vertical-center'><img style='vertical-align:center; align:center' src=img/fixation3.jpg></div></div>","null","","","","","",""
"html-keyboard-response","125","167381","0.0-5.0-2.40","611343092396f1d9ed7018ad","bdp_rd","Sun Apr 16 2023 19:52:16 GMT-0600 (Mountain Daylight Time)","215387","","1270","","","","offer","","<div class='trialBorder'><div class='vertical-center'><img style='vertical-align:center; align:center' src=img/fixation3.jpg></div><div class='cl'><div class='vertical-center'>$20<br>for<br>sure</div></div><div class='cr'><div class='vertical-center'>$80<br>with a<br>50% chance</div></div><div class='respDivL'><div class='vertical-center'>(E)</div></div><div class='respDivR'><div class='vertical-center'>(I)</div></div></div>","I","$20","$80","0","20","80","RISKY"
"html-keyboard-response","126","167635","0.0-5.0-3.40","611343092396f1d9ed7018ad","bdp_rd","Sun Apr 16 2023 19:52:16 GMT-0600 (Mountain Daylight Time)","215387","","null","","","","offerFB","","<div class='trialBorder'><div class='vertical-center'><img style='vertical-align:center; align:center' src=img/fixation3.jpg></div><div class='cl'><div class='vertical-center'>$20<br>for<br>sure</div></div><div class='cr'><div class='vertical-center'><font style='color:orange'>$80<br>with a<br>50% chance</font></div></div><div class='respDivL'><div class='vertical-center'>(E)</div></div><div class='respDivR'><div class='vertical-center'><font style='color:orange'>(I)</font></div></div></div>","null","$20","$80","0","20","80",""
"html-keyboard-response","127","168139","0.0-5.0-1.41","611343092396f1d9ed7018ad","bdp_rd","Sun Apr 16 2023 19:52:16 GMT-0600 (Mountain Daylight Time)","215387","","null","","","","FIX","","<div class='trialBorder'><div class='vertical-center'><img style='vertical-align:center; align:center' src=img/fixation3.jpg></div></div>","null","","","","","",""
"html-keyboard-response","128","169221","0.0-5.0-2.41","611343092396f1d9ed7018ad","bdp_rd","Sun Apr 16 2023 19:52:16 GMT-0600 (Mountain Daylight Time)","215387","","1080","","","","offer","","<div class='trialBorder'><div class='vertical-center'><img style='vertical-align:center; align:center' src=img/fixation3.jpg></div><div class='cl'><div class='vertical-center'>$28<br>for<br>sure</div></div><div class='cr'><div class='vertical-center'>$89<br>with a<br>50% chance</div></div><div class='respDivL'><div class='vertical-center'>(E)</div></div><div class='respDivR'><div class='vertical-center'>(I)</div></div></div>","I","$28","$89","0","28","89","RISKY"
"html-keyboard-response","129","169476","0.0-5.0-3.41","611343092396f1d9ed7018ad","bdp_rd","Sun Apr 16 2023 19:52:16 GMT-0600 (Mountain Daylight Time)","215387","","null","","","","offerFB","","<div class='trialBorder'><div class='vertical-center'><img style='vertical-align:center; align:center' src=img/fixation3.jpg></div><div class='cl'><div class='vertical-center'>$28<br>for<br>sure</div></div><div class='cr'><div class='vertical-center'><font style='color:orange'>$89<br>with a<br>50% chance</font></div></div><div class='respDivL'><div class='vertical-center'>(E)</div></div><div class='respDivR'><div class='vertical-center'><font style='color:orange'>(I)</font></div></div></div>","null","$28","$89","0","28","89",""
"html-keyboard-response","130","169982","0.0-5.0-1.42","611343092396f1d9ed7018ad","bdp_rd","Sun Apr 16 2023 19:52:16 GMT-0600 (Mountain Daylight Time)","215387","","null","","","","FIX","","<div class='trialBorder'><div class='vertical-center'><img style='vertical-align:center; align:center' src=img/fixation3.jpg></div></div>","null","","","","","",""
"html-keyboard-response","131","172831","0.0-5.0-2.42","611343092396f1d9ed7018ad","bdp_rd","Sun Apr 16 2023 19:52:16 GMT-0600 (Mountain Daylight Time)","215387","","2845","","","","offer","","<div class='trialBorder'><div class='vertical-center'><img style='vertical-align:center; align:center' src=img/fixation3.jpg></div><div class='cl'><div class='vertical-center'>$68<br>with a<br>50% chance</div></div><div class='cr'><div class='vertical-center'>$30<br>for<br>sure</div></div><div class='respDivL'><div class='vertical-center'>(E)</div></div><div class='respDivR'><div class='vertical-center'>(I)</div></div></div>","E","$30","$68","1","30","68","RISKY"
"html-keyboard-response","132","173087","0.0-5.0-3.42","611343092396f1d9ed7018ad","bdp_rd","Sun Apr 16 2023 19:52:16 GMT-0600 (Mountain Daylight Time)","215387","","null","","","","offerFB","","<div class='trialBorder'><div class='vertical-center'><img style='vertical-align:center; align:center' src=img/fixation3.jpg></div><div class='cl'><div class='vertical-center'><font style='color:orange'>$68<br>with a<br>50% chance</font></div></div><div class='cr'><div class='vertical-center'>$30<br>for<br>sure</div></div><div class='respDivL'><div class='vertical-center'><font style='color:orange'>(E)</font></div></div><div class='respDivR'><div class='vertical-center'>(I)</div></div></div>","null","$30","$68","1","30","68",""
"html-keyboard-response","133","173590","0.0-5.0-1.43","611343092396f1d9ed7018ad","bdp_rd","Sun Apr 16 2023 19:52:16 GMT-0600 (Mountain Daylight Time)","215387","","null","","","","FIX","","<div class='trialBorder'><div class='vertical-center'><img style='vertical-align:center; align:center' src=img/fixation3.jpg></div></div>","null","","","","","",""
"html-keyboard-response","134","175191","0.0-5.0-2.43","611343092396f1d9ed7018ad","bdp_rd","Sun Apr 16 2023 19:52:16 GMT-0600 (Mountain Daylight Time)","215387","","1598","","","","offer","","<div class='trialBorder'><div class='vertical-center'><img style='vertical-align:center; align:center' src=img/fixation3.jpg></div><div class='cl'><div class='vertical-center'>$2<br>for<br>sure</div></div><div class='cr'><div class='vertical-center'>$64<br>with a<br>50% chance</div></div><div class='respDivL'><div class='vertical-center'>(E)</div></div><div class='respDivR'><div class='vertical-center'>(I)</div></div></div>","I","$2","$64","0","2","64","RISKY"
"html-keyboard-response","135","175444","0.0-5.0-3.43","611343092396f1d9ed7018ad","bdp_rd","Sun Apr 16 2023 19:52:16 GMT-0600 (Mountain Daylight Time)","215387","","null","","","","offerFB","","<div class='trialBorder'><div class='vertical-center'><img style='vertical-align:center; align:center' src=img/fixation3.jpg></div><div class='cl'><div class='vertical-center'>$2<br>for<br>sure</div></div><div class='cr'><div class='vertical-center'><font style='color:orange'>$64<br>with a<br>50% chance</font></div></div><div class='respDivL'><div class='vertical-center'>(E)</div></div><div class='respDivR'><div class='vertical-center'><font style='color:orange'>(I)</font></div></div></div>","null","$2","$64","0","2","64",""
"html-keyboard-response","136","175947","0.0-5.0-1.44","611343092396f1d9ed7018ad","bdp_rd","Sun Apr 16 2023 19:52:16 GMT-0600 (Mountain Daylight Time)","215387","","null","","","","FIX","","<div class='trialBorder'><div class='vertical-center'><img style='vertical-align:center; align:center' src=img/fixation3.jpg></div></div>","null","","","","","",""
"html-keyboard-response","137","179180","0.0-5.0-2.44","611343092396f1d9ed7018ad","bdp_rd","Sun Apr 16 2023 19:52:16 GMT-0600 (Mountain Daylight Time)","215387","","3230","","","","offer","","<div class='trialBorder'><div class='vertical-center'><img style='vertical-align:center; align:center' src=img/fixation3.jpg></div><div class='cl'><div class='vertical-center'>$9<br>for<br>sure</div></div><div class='cr'><div class='vertical-center'>$18<br>with a<br>50% chance</div></div><div class='respDivL'><div class='vertical-center'>(E)</div></div><div class='respDivR'><div class='vertical-center'>(I)</div></div></div>","E","$9","$18","0","9","18","SURE"
"html-keyboard-response","138","179437","0.0-5.0-3.44","611343092396f1d9ed7018ad","bdp_rd","Sun Apr 16 2023 19:52:16 GMT-0600 (Mountain Daylight Time)","215387","","null","","","","offerFB","","<div class='trialBorder'><div class='vertical-center'><img style='vertical-align:center; align:center' src=img/fixation3.jpg></div><div class='cl'><div class='vertical-center'><font style='color:orange'>$9<br>for<br>sure</font></div></div><div class='cr'><div class='vertical-center'>$18<br>with a<br>50% chance</div></div><div class='respDivL'><div class='vertical-center'><font style='color:orange'>(E)</font></div></div><div class='respDivR'><div class='vertical-center'>(I)</div></div></div>","null","$9","$18","0","9","18",""
"html-keyboard-response","139","179941","0.0-5.0-1.45","611343092396f1d9ed7018ad","bdp_rd","Sun Apr 16 2023 19:52:16 GMT-0600 (Mountain Daylight Time)","215387","","null","","","","FIX","","<div class='trialBorder'><div class='vertical-center'><img style='vertical-align:center; align:center' src=img/fixation3.jpg></div></div>","null","","","","","",""
"html-keyboard-response","140","180851","0.0-5.0-2.45","611343092396f1d9ed7018ad","bdp_rd","Sun Apr 16 2023 19:52:16 GMT-0600 (Mountain Daylight Time)","215387","","907","","","","offer","","<div class='trialBorder'><div class='vertical-center'><img style='vertical-align:center; align:center' src=img/fixation3.jpg></div><div class='cl'><div class='vertical-center'>$17<br>for<br>sure</div></div><div class='cr'><div class='vertical-center'>$43<br>with a<br>50% chance</div></div><div class='respDivL'><div class='vertical-center'>(E)</div></div><div class='respDivR'><div class='vertical-center'>(I)</div></div></div>","I","$17","$43","0","17","43","RISKY"
"html-keyboard-response","141","181106","0.0-5.0-3.45","611343092396f1d9ed7018ad","bdp_rd","Sun Apr 16 2023 19:52:16 GMT-0600 (Mountain Daylight Time)","215387","","null","","","","offerFB","","<div class='trialBorder'><div class='vertical-center'><img style='vertical-align:center; align:center' src=img/fixation3.jpg></div><div class='cl'><div class='vertical-center'>$17<br>for<br>sure</div></div><div class='cr'><div class='vertical-center'><font style='color:orange'>$43<br>with a<br>50% chance</font></div></div><div class='respDivL'><div class='vertical-center'>(E)</div></div><div class='respDivR'><div class='vertical-center'><font style='color:orange'>(I)</font></div></div></div>","null","$17","$43","0","17","43",""
"html-keyboard-response","142","181609","0.0-5.0-1.46","611343092396f1d9ed7018ad","bdp_rd","Sun Apr 16 2023 19:52:16 GMT-0600 (Mountain Daylight Time)","215387","","null","","","","FIX","","<div class='trialBorder'><div class='vertical-center'><img style='vertical-align:center; align:center' src=img/fixation3.jpg></div></div>","null","","","","","",""
"html-keyboard-response","143","182802","0.0-5.0-2.46","611343092396f1d9ed7018ad","bdp_rd","Sun Apr 16 2023 19:52:16 GMT-0600 (Mountain Daylight Time)","215387","","1191","","","","offer","","<div class='trialBorder'><div class='vertical-center'><img style='vertical-align:center; align:center' src=img/fixation3.jpg></div><div class='cl'><div class='vertical-center'>$4<br>for<br>sure</div></div><div class='cr'><div class='vertical-center'>$11<br>with a<br>50% chance</div></div><div class='respDivL'><div class='vertical-center'>(E)</div></div><div class='respDivR'><div class='vertical-center'>(I)</div></div></div>","I","$4","$11","0","4","11","RISKY"
"html-keyboard-response","144","183056","0.0-5.0-3.46","611343092396f1d9ed7018ad","bdp_rd","Sun Apr 16 2023 19:52:16 GMT-0600 (Mountain Daylight Time)","215387","","null","","","","offerFB","","<div class='trialBorder'><div class='vertical-center'><img style='vertical-align:center; align:center' src=img/fixation3.jpg></div><div class='cl'><div class='vertical-center'>$4<br>for<br>sure</div></div><div class='cr'><div class='vertical-center'><font style='color:orange'>$11<br>with a<br>50% chance</font></div></div><div class='respDivL'><div class='vertical-center'>(E)</div></div><div class='respDivR'><div class='vertical-center'><font style='color:orange'>(I)</font></div></div></div>","null","$4","$11","0","4","11",""
"html-keyboard-response","145","183559","0.0-5.0-1.47","611343092396f1d9ed7018ad","bdp_rd","Sun Apr 16 2023 19:52:16 GMT-0600 (Mountain Daylight Time)","215387","","null","","","","FIX","","<div class='trialBorder'><div class='vertical-center'><img style='vertical-align:center; align:center' src=img/fixation3.jpg></div></div>","null","","","","","",""
"html-keyboard-response","146","184912","0.0-5.0-2.47","611343092396f1d9ed7018ad","bdp_rd","Sun Apr 16 2023 19:52:16 GMT-0600 (Mountain Daylight Time)","215387","","1350","","","","offer","","<div class='trialBorder'><div class='vertical-center'><img style='vertical-align:center; align:center' src=img/fixation3.jpg></div><div class='cl'><div class='vertical-center'>$12<br>with a<br>50% chance</div></div><div class='cr'><div class='vertical-center'>$3<br>for<br>sure</div></div><div class='respDivL'><div class='vertical-center'>(E)</div></div><div class='respDivR'><div class='vertical-center'>(I)</div></div></div>","E","$3","$12","1","3","12","RISKY"
"html-keyboard-response","147","185167","0.0-5.0-3.47","611343092396f1d9ed7018ad","bdp_rd","Sun Apr 16 2023 19:52:16 GMT-0600 (Mountain Daylight Time)","215387","","null","","","","offerFB","","<div class='trialBorder'><div class='vertical-center'><img style='vertical-align:center; align:center' src=img/fixation3.jpg></div><div class='cl'><div class='vertical-center'><font style='color:orange'>$12<br>with a<br>50% chance</font></div></div><div class='cr'><div class='vertical-center'>$3<br>for<br>sure</div></div><div class='respDivL'><div class='vertical-center'><font style='color:orange'>(E)</font></div></div><div class='respDivR'><div class='vertical-center'>(I)</div></div></div>","null","$3","$12","1","3","12",""
"html-keyboard-response","148","185671","0.0-5.0-1.48","611343092396f1d9ed7018ad","bdp_rd","Sun Apr 16 2023 19:52:16 GMT-0600 (Mountain Daylight Time)","215387","","null","","","","FIX","","<div class='trialBorder'><div class='vertical-center'><img style='vertical-align:center; align:center' src=img/fixation3.jpg></div></div>","null","","","","","",""
"html-keyboard-response","149","187205","0.0-5.0-2.48","611343092396f1d9ed7018ad","bdp_rd","Sun Apr 16 2023 19:52:16 GMT-0600 (Mountain Daylight Time)","215387","","1532","","","","offer","","<div class='trialBorder'><div class='vertical-center'><img style='vertical-align:center; align:center' src=img/fixation3.jpg></div><div class='cl'><div class='vertical-center'>$10<br>with a<br>50% chance</div></div><div class='cr'><div class='vertical-center'>$7<br>for<br>sure</div></div><div class='respDivL'><div class='vertical-center'>(E)</div></div><div class='respDivR'><div class='vertical-center'>(I)</div></div></div>","I","$7","$10","1","7","10","SURE"
"html-keyboard-response","150","187459","0.0-5.0-3.48","611343092396f1d9ed7018ad","bdp_rd","Sun Apr 16 2023 19:52:16 GMT-0600 (Mountain Daylight Time)","215387","","null","","","","offerFB","","<div class='trialBorder'><div class='vertical-center'><img style='vertical-align:center; align:center' src=img/fixation3.jpg></div><div class='cl'><div class='vertical-center'>$10<br>with a<br>50% chance</div></div><div class='cr'><div class='vertical-center'><font style='color:orange'>$7<br>for<br>sure</font></div></div><div class='respDivL'><div class='vertical-center'>(E)</div></div><div class='respDivR'><div class='vertical-center'><font style='color:orange'>(I)</font></div></div></div>","null","$7","$10","1","7","10",""
"html-keyboard-response","151","187963","0.0-5.0-1.49","611343092396f1d9ed7018ad","bdp_rd","Sun Apr 16 2023 19:52:16 GMT-0600 (Mountain Daylight Time)","215387","","null","","","","FIX","","<div class='trialBorder'><div class='vertical-center'><img style='vertical-align:center; align:center' src=img/fixation3.jpg></div></div>","null","","","","","",""
"html-keyboard-response","152","189072","0.0-5.0-2.49","611343092396f1d9ed7018ad","bdp_rd","Sun Apr 16 2023 19:52:16 GMT-0600 (Mountain Daylight Time)","215387","","1106","","","","offer","","<div class='trialBorder'><div class='vertical-center'><img style='vertical-align:center; align:center' src=img/fixation3.jpg></div><div class='cl'><div class='vertical-center'>$66<br>with a<br>50% chance</div></div><div class='cr'><div class='vertical-center'>$33<br>for<br>sure</div></div><div class='respDivL'><div class='vertical-center'>(E)</div></div><div class='respDivR'><div class='vertical-center'>(I)</div></div></div>","E","$33","$66","1","33","66","RISKY"
"html-keyboard-response","153","189326","0.0-5.0-3.49","611343092396f1d9ed7018ad","bdp_rd","Sun Apr 16 2023 19:52:16 GMT-0600 (Mountain Daylight Time)","215387","","null","","","","offerFB","","<div class='trialBorder'><div class='vertical-center'><img style='vertical-align:center; align:center' src=img/fixation3.jpg></div><div class='cl'><div class='vertical-center'><font style='color:orange'>$66<br>with a<br>50% chance</font></div></div><div class='cr'><div class='vertical-center'>$33<br>for<br>sure</div></div><div class='respDivL'><div class='vertical-center'><font style='color:orange'>(E)</font></div></div><div class='respDivR'><div class='vertical-center'>(I)</div></div></div>","null","$33","$66","1","33","66",""
"html-keyboard-response","154","189830","0.0-5.0-1.50","611343092396f1d9ed7018ad","bdp_rd","Sun Apr 16 2023 19:52:16 GMT-0600 (Mountain Daylight Time)","215387","","null","","","","FIX","","<div class='trialBorder'><div class='vertical-center'><img style='vertical-align:center; align:center' src=img/fixation3.jpg></div></div>","null","","","","","",""
"html-keyboard-response","155","193521","0.0-5.0-2.50","611343092396f1d9ed7018ad","bdp_rd","Sun Apr 16 2023 19:52:16 GMT-0600 (Mountain Daylight Time)","215387","","3688","","","","offer","","<div class='trialBorder'><div class='vertical-center'><img style='vertical-align:center; align:center' src=img/fixation3.jpg></div><div class='cl'><div class='vertical-center'>$69<br>with a<br>50% chance</div></div><div class='cr'><div class='vertical-center'>$58<br>for<br>sure</div></div><div class='respDivL'><div class='vertical-center'>(E)</div></div><div class='respDivR'><div class='vertical-center'>(I)</div></div></div>","I","$58","$69","1","58","69","SURE"
"html-keyboard-response","156","193777","0.0-5.0-3.50","611343092396f1d9ed7018ad","bdp_rd","Sun Apr 16 2023 19:52:16 GMT-0600 (Mountain Daylight Time)","215387","","null","","","","offerFB","","<div class='trialBorder'><div class='vertical-center'><img style='vertical-align:center; align:center' src=img/fixation3.jpg></div><div class='cl'><div class='vertical-center'>$69<br>with a<br>50% chance</div></div><div class='cr'><div class='vertical-center'><font style='color:orange'>$58<br>for<br>sure</font></div></div><div class='respDivL'><div class='vertical-center'>(E)</div></div><div class='respDivR'><div class='vertical-center'><font style='color:orange'>(I)</font></div></div></div>","null","$58","$69","1","58","69",""
"html-keyboard-response","157","194280","0.0-5.0-1.51","611343092396f1d9ed7018ad","bdp_rd","Sun Apr 16 2023 19:52:16 GMT-0600 (Mountain Daylight Time)","215387","","null","","","","FIX","","<div class='trialBorder'><div class='vertical-center'><img style='vertical-align:center; align:center' src=img/fixation3.jpg></div></div>","null","","","","","",""
"html-keyboard-response","158","195342","0.0-5.0-2.51","611343092396f1d9ed7018ad","bdp_rd","Sun Apr 16 2023 19:52:16 GMT-0600 (Mountain Daylight Time)","215387","","1060","","","","offer","","<div class='trialBorder'><div class='vertical-center'><img style='vertical-align:center; align:center' src=img/fixation3.jpg></div><div class='cl'><div class='vertical-center'>$8<br>for<br>sure</div></div><div class='cr'><div class='vertical-center'>$23<br>with a<br>50% chance</div></div><div class='respDivL'><div class='vertical-center'>(E)</div></div><div class='respDivR'><div class='vertical-center'>(I)</div></div></div>","I","$8","$23","0","8","23","RISKY"
"html-keyboard-response","159","195596","0.0-5.0-3.51","611343092396f1d9ed7018ad","bdp_rd","Sun Apr 16 2023 19:52:16 GMT-0600 (Mountain Daylight Time)","215387","","null","","","","offerFB","","<div class='trialBorder'><div class='vertical-center'><img style='vertical-align:center; align:center' src=img/fixation3.jpg></div><div class='cl'><div class='vertical-center'>$8<br>for<br>sure</div></div><div class='cr'><div class='vertical-center'><font style='color:orange'>$23<br>with a<br>50% chance</font></div></div><div class='respDivL'><div class='vertical-center'>(E)</div></div><div class='respDivR'><div class='vertical-center'><font style='color:orange'>(I)</font></div></div></div>","null","$8","$23","0","8","23",""
"html-keyboard-response","160","196100","0.0-5.0-1.52","611343092396f1d9ed7018ad","bdp_rd","Sun Apr 16 2023 19:52:16 GMT-0600 (Mountain Daylight Time)","215387","","null","","","","FIX","","<div class='trialBorder'><div class='vertical-center'><img style='vertical-align:center; align:center' src=img/fixation3.jpg></div></div>","null","","","","","",""
"html-keyboard-response","161","198822","0.0-5.0-2.52","611343092396f1d9ed7018ad","bdp_rd","Sun Apr 16 2023 19:52:16 GMT-0600 (Mountain Daylight Time)","215387","","2718","","","","offer","","<div class='trialBorder'><div class='vertical-center'><img style='vertical-align:center; align:center' src=img/fixation3.jpg></div><div class='cl'><div class='vertical-center'>$48<br>with a<br>50% chance</div></div><div class='cr'><div class='vertical-center'>$34<br>for<br>sure</div></div><div class='respDivL'><div class='vertical-center'>(E)</div></div><div class='respDivR'><div class='vertical-center'>(I)</div></div></div>","I","$34","$48","1","34","48","SURE"
"html-keyboard-response","162","199078","0.0-5.0-3.52","611343092396f1d9ed7018ad","bdp_rd","Sun Apr 16 2023 19:52:16 GMT-0600 (Mountain Daylight Time)","215387","","null","","","","offerFB","","<div class='trialBorder'><div class='vertical-center'><img style='vertical-align:center; align:center' src=img/fixation3.jpg></div><div class='cl'><div class='vertical-center'>$48<br>with a<br>50% chance</div></div><div class='cr'><div class='vertical-center'><font style='color:orange'>$34<br>for<br>sure</font></div></div><div class='respDivL'><div class='vertical-center'>(E)</div></div><div class='respDivR'><div class='vertical-center'><font style='color:orange'>(I)</font></div></div></div>","null","$34","$48","1","34","48",""
"html-keyboard-response","163","199581","0.0-5.0-1.53","611343092396f1d9ed7018ad","bdp_rd","Sun Apr 16 2023 19:52:16 GMT-0600 (Mountain Daylight Time)","215387","","null","","","","FIX","","<div class='trialBorder'><div class='vertical-center'><img style='vertical-align:center; align:center' src=img/fixation3.jpg></div></div>","null","","","","","",""
"html-keyboard-response","164","200500","0.0-5.0-2.53","611343092396f1d9ed7018ad","bdp_rd","Sun Apr 16 2023 19:52:16 GMT-0600 (Mountain Daylight Time)","215387","","916","","","","offer","","<div class='trialBorder'><div class='vertical-center'><img style='vertical-align:center; align:center' src=img/fixation3.jpg></div><div class='cl'><div class='vertical-center'>$40<br>with a<br>50% chance</div></div><div class='cr'><div class='vertical-center'>$10<br>for<br>sure</div></div><div class='respDivL'><div class='vertical-center'>(E)</div></div><div class='respDivR'><div class='vertical-center'>(I)</div></div></div>","E","$10","$40","1","10","40","RISKY"
"html-keyboard-response","165","200754","0.0-5.0-3.53","611343092396f1d9ed7018ad","bdp_rd","Sun Apr 16 2023 19:52:16 GMT-0600 (Mountain Daylight Time)","215387","","null","","","","offerFB","","<div class='trialBorder'><div class='vertical-center'><img style='vertical-align:center; align:center' src=img/fixation3.jpg></div><div class='cl'><div class='vertical-center'><font style='color:orange'>$40<br>with a<br>50% chance</font></div></div><div class='cr'><div class='vertical-center'>$10<br>for<br>sure</div></div><div class='respDivL'><div class='vertical-center'><font style='color:orange'>(E)</font></div></div><div class='respDivR'><div class='vertical-center'>(I)</div></div></div>","null","$10","$40","1","10","40",""
"html-keyboard-response","166","201257","0.0-5.0-1.54","611343092396f1d9ed7018ad","bdp_rd","Sun Apr 16 2023 19:52:16 GMT-0600 (Mountain Daylight Time)","215387","","null","","","","FIX","","<div class='trialBorder'><div class='vertical-center'><img style='vertical-align:center; align:center' src=img/fixation3.jpg></div></div>","null","","","","","",""
"html-keyboard-response","167","202811","0.0-5.0-2.54","611343092396f1d9ed7018ad","bdp_rd","Sun Apr 16 2023 19:52:16 GMT-0600 (Mountain Daylight Time)","215387","","1552","","","","offer","","<div class='trialBorder'><div class='vertical-center'><img style='vertical-align:center; align:center' src=img/fixation3.jpg></div><div class='cl'><div class='vertical-center'>$11<br>for<br>sure</div></div><div class='cr'><div class='vertical-center'>$62<br>with a<br>50% chance</div></div><div class='respDivL'><div class='vertical-center'>(E)</div></div><div class='respDivR'><div class='vertical-center'>(I)</div></div></div>","I","$11","$62","0","11","62","RISKY"
"html-keyboard-response","168","203073","0.0-5.0-3.54","611343092396f1d9ed7018ad","bdp_rd","Sun Apr 16 2023 19:52:16 GMT-0600 (Mountain Daylight Time)","215387","","null","","","","offerFB","","<div class='trialBorder'><div class='vertical-center'><img style='vertical-align:center; align:center' src=img/fixation3.jpg></div><div class='cl'><div class='vertical-center'>$11<br>for<br>sure</div></div><div class='cr'><div class='vertical-center'><font style='color:orange'>$62<br>with a<br>50% chance</font></div></div><div class='respDivL'><div class='vertical-center'>(E)</div></div><div class='respDivR'><div class='vertical-center'><font style='color:orange'>(I)</font></div></div></div>","null","$11","$62","0","11","62",""
"html-keyboard-response","169","203576","0.0-5.0-1.55","611343092396f1d9ed7018ad","bdp_rd","Sun Apr 16 2023 19:52:16 GMT-0600 (Mountain Daylight Time)","215387","","null","","","","FIX","","<div class='trialBorder'><div class='vertical-center'><img style='vertical-align:center; align:center' src=img/fixation3.jpg></div></div>","null","","","","","",""
"html-keyboard-response","170","205583","0.0-5.0-2.55","611343092396f1d9ed7018ad","bdp_rd","Sun Apr 16 2023 19:52:16 GMT-0600 (Mountain Daylight Time)","215387","","2005","","","","offer","","<div class='trialBorder'><div class='vertical-center'><img style='vertical-align:center; align:center' src=img/fixation3.jpg></div><div class='cl'><div class='vertical-center'>$26<br>for<br>sure</div></div><div class='cr'><div class='vertical-center'>$92<br>with a<br>50% chance</div></div><div class='respDivL'><div class='vertical-center'>(E)</div></div><div class='respDivR'><div class='vertical-center'>(I)</div></div></div>","I","$26","$92","0","26","92","RISKY"
"html-keyboard-response","171","205836","0.0-5.0-3.55","611343092396f1d9ed7018ad","bdp_rd","Sun Apr 16 2023 19:52:16 GMT-0600 (Mountain Daylight Time)","215387","","null","","","","offerFB","","<div class='trialBorder'><div class='vertical-center'><img style='vertical-align:center; align:center' src=img/fixation3.jpg></div><div class='cl'><div class='vertical-center'>$26<br>for<br>sure</div></div><div class='cr'><div class='vertical-center'><font style='color:orange'>$92<br>with a<br>50% chance</font></div></div><div class='respDivL'><div class='vertical-center'>(E)</div></div><div class='respDivR'><div class='vertical-center'><font style='color:orange'>(I)</font></div></div></div>","null","$26","$92","0","26","92",""
"html-keyboard-response","172","206340","0.0-5.0-1.56","611343092396f1d9ed7018ad","bdp_rd","Sun Apr 16 2023 19:52:16 GMT-0600 (Mountain Daylight Time)","215387","","null","","","","FIX","","<div class='trialBorder'><div class='vertical-center'><img style='vertical-align:center; align:center' src=img/fixation3.jpg></div></div>","null","","","","","",""
"html-keyboard-response","173","207722","0.0-5.0-2.56","611343092396f1d9ed7018ad","bdp_rd","Sun Apr 16 2023 19:52:16 GMT-0600 (Mountain Daylight Time)","215387","","1379","","","","offer","","<div class='trialBorder'><div class='vertical-center'><img style='vertical-align:center; align:center' src=img/fixation3.jpg></div><div class='cl'><div class='vertical-center'>$13<br>for<br>sure</div></div><div class='cr'><div class='vertical-center'>$24<br>with a<br>50% chance</div></div><div class='respDivL'><div class='vertical-center'>(E)</div></div><div class='respDivR'><div class='vertical-center'>(I)</div></div></div>","I","$13","$24","0","13","24","RISKY"
