"trial_type","trial_index","time_elapsed","internal_node_id","subject_id","task","startTime","totalTime","view_history","rt","event","trial","time","trialtype","success","stimulus","key_press","sureOffer","riskyOffer","riskyLeft","sureAmt","riskyAmt","chosen"
"pavlovia","0","2","0.0-0.0","63dd3dd2593c92be97d8dbde","bdp_rd","Mon Apr 10 2023 00:55:35 GMT-0700 (Pacific Daylight Time)","167005","","","","","","","","","","","","","","",""
"instructions","1","6947","0.0-1.0","63dd3dd2593c92be97d8dbde","bdp_rd","Mon Apr 10 2023 00:55:35 GMT-0700 (Pacific Daylight Time)","167005","[{""page_index"":0,""viewing_time"":6945}]","6945","","","","","","","","","","","","",""
"","","","","63dd3dd2593c92be97d8dbde","bdp_rd","Mon Apr 10 2023 00:55:35 GMT-0700 (Pacific Daylight Time)","167005","","","fullscreenenter","2","9464","fullscreenenter","","","","","","","","",""
"fullscreen","2","10454","0.0-2.0","63dd3dd2593c92be97d8dbde","bdp_rd","Mon Apr 10 2023 00:55:35 GMT-0700 (Pacific Daylight Time)","167005","","","","","","","true","","","","","","","",""
"instructions","3","30838","0.0-4.0","63dd3dd2593c92be97d8dbde","bdp_rd","Mon Apr 10 2023 00:55:35 GMT-0700 (Pacific Daylight Time)","167005","[{""page_index"":0,""viewing_time"":15623},{""page_index"":1,""viewing_time"":3840},{""page_index"":2,""viewing_time"":920}]","20384","","","","","","","","","","","","",""
"html-keyboard-response","4","31340","0.0-5.0-1.0","63dd3dd2593c92be97d8dbde","bdp_rd","Mon Apr 10 2023 00:55:35 GMT-0700 (Pacific Daylight Time)","167005","","null","","","","FIX","","<div class='trialBorder'><div class='vertical-center'><img style='vertical-align:center; align:center' src=img/fixation3.jpg></div></div>","null","","","","","",""
"html-keyboard-response","5","36271","0.0-5.0-2.0","63dd3dd2593c92be97d8dbde","bdp_rd","Mon Apr 10 2023 00:55:35 GMT-0700 (Pacific Daylight Time)","167005","","4930","","","","offer","","<div class='trialBorder'><div class='vertical-center'><img style='vertical-align:center; align:center' src=img/fixation3.jpg></div><div class='cl'><div class='vertical-center'>$22<br>for<br>sure</div></div><div class='cr'><div class='vertical-center'>$42<br>with a<br>50% chance</div></div><div class='respDivL'><div class='vertical-center'>(E)</div></div><div class='respDivR'><div class='vertical-center'>(I)</div></div></div>","E","$22","$42","0","22","42","SURE"
"html-keyboard-response","6","36522","0.0-5.0-3.0","63dd3dd2593c92be97d8dbde","bdp_rd","Mon Apr 10 2023 00:55:35 GMT-0700 (Pacific Daylight Time)","167005","","null","","","","offerFB","","<div class='trialBorder'><div class='vertical-center'><img style='vertical-align:center; align:center' src=img/fixation3.jpg></div><div class='cl'><div class='vertical-center'><font style='color:orange'>$22<br>for<br>sure</font></div></div><div class='cr'><div class='vertical-center'>$42<br>with a<br>50% chance</div></div><div class='respDivL'><div class='vertical-center'><font style='color:orange'>(E)</font></div></div><div class='respDivR'><div class='vertical-center'>(I)</div></div></div>","null","$22","$42","0","22","42",""
"html-keyboard-response","7","37023","0.0-5.0-1.1","63dd3dd2593c92be97d8dbde","bdp_rd","Mon Apr 10 2023 00:55:35 GMT-0700 (Pacific Daylight Time)","167005","","null","","","","FIX","","<div class='trialBorder'><div class='vertical-center'><img style='vertical-align:center; align:center' src=img/fixation3.jpg></div></div>","null","","","","","",""
"html-keyboard-response","8","38015","0.0-5.0-2.1","63dd3dd2593c92be97d8dbde","bdp_rd","Mon Apr 10 2023 00:55:35 GMT-0700 (Pacific Daylight Time)","167005","","991","","","","offer","","<div class='trialBorder'><div class='vertical-center'><img style='vertical-align:center; align:center' src=img/fixation3.jpg></div><div class='cl'><div class='vertical-center'>$39<br>with a<br>50% chance</div></div><div class='cr'><div class='vertical-center'>$18<br>for<br>sure</div></div><div class='respDivL'><div class='vertical-center'>(E)</div></div><div class='respDivR'><div class='vertical-center'>(I)</div></div></div>","I","$18","$39","1","18","39","SURE"
"html-keyboard-response","9","38266","0.0-5.0-3.1","63dd3dd2593c92be97d8dbde","bdp_rd","Mon Apr 10 2023 00:55:35 GMT-0700 (Pacific Daylight Time)","167005","","null","","","","offerFB","","<div class='trialBorder'><div class='vertical-center'><img style='vertical-align:center; align:center' src=img/fixation3.jpg></div><div class='cl'><div class='vertical-center'>$39<br>with a<br>50% chance</div></div><div class='cr'><div class='vertical-center'><font style='color:orange'>$18<br>for<br>sure</font></div></div><div class='respDivL'><div class='vertical-center'>(E)</div></div><div class='respDivR'><div class='vertical-center'><font style='color:orange'>(I)</font></div></div></div>","null","$18","$39","1","18","39",""
"html-keyboard-response","10","38767","0.0-5.0-1.2","63dd3dd2593c92be97d8dbde","bdp_rd","Mon Apr 10 2023 00:55:35 GMT-0700 (Pacific Daylight Time)","167005","","null","","","","FIX","","<div class='trialBorder'><div class='vertical-center'><img style='vertical-align:center; align:center' src=img/fixation3.jpg></div></div>","null","","","","","",""
"html-keyboard-response","11","40599","0.0-5.0-2.2","63dd3dd2593c92be97d8dbde","bdp_rd","Mon Apr 10 2023 00:55:35 GMT-0700 (Pacific Daylight Time)","167005","","1832","","","","offer","","<div class='trialBorder'><div class='vertical-center'><img style='vertical-align:center; align:center' src=img/fixation3.jpg></div><div class='cl'><div class='vertical-center'>$63<br>for<br>sure</div></div><div class='cr'><div class='vertical-center'>$100<br>with a<br>50% chance</div></div><div class='respDivL'><div class='vertical-center'>(E)</div></div><div class='respDivR'><div class='vertical-center'>(I)</div></div></div>","E","$63","$100","0","63","10","SURE"
"html-keyboard-response","12","40851","0.0-5.0-3.2","63dd3dd2593c92be97d8dbde","bdp_rd","Mon Apr 10 2023 00:55:35 GMT-0700 (Pacific Daylight Time)","167005","","null","","","","offerFB","","<div class='trialBorder'><div class='vertical-center'><img style='vertical-align:center; align:center' src=img/fixation3.jpg></div><div class='cl'><div class='vertical-center'><font style='color:orange'>$63<br>for<br>sure</font></div></div><div class='cr'><div class='vertical-center'>$100<br>with a<br>50% chance</div></div><div class='respDivL'><div class='vertical-center'><font style='color:orange'>(E)</font></div></div><div class='respDivR'><div class='vertical-center'>(I)</div></div></div>","null","$63","$100","0","63","10",""
"html-keyboard-response","13","41352","0.0-5.0-1.3","63dd3dd2593c92be97d8dbde","bdp_rd","Mon Apr 10 2023 00:55:35 GMT-0700 (Pacific Daylight Time)","167005","","null","","","","FIX","","<div class='trialBorder'><div class='vertical-center'><img style='vertical-align:center; align:center' src=img/fixation3.jpg></div></div>","null","","","","","",""
"html-keyboard-response","14","43495","0.0-5.0-2.3","63dd3dd2593c92be97d8dbde","bdp_rd","Mon Apr 10 2023 00:55:35 GMT-0700 (Pacific Daylight Time)","167005","","2143","","","","offer","","<div class='trialBorder'><div class='vertical-center'><img style='vertical-align:center; align:center' src=img/fixation3.jpg></div><div class='cl'><div class='vertical-center'>$4<br>for<br>sure</div></div><div class='cr'><div class='vertical-center'>$11<br>with a<br>50% chance</div></div><div class='respDivL'><div class='vertical-center'>(E)</div></div><div class='respDivR'><div class='vertical-center'>(I)</div></div></div>","E","$4","$11","0","4","11","SURE"
"html-keyboard-response","15","43747","0.0-5.0-3.3","63dd3dd2593c92be97d8dbde","bdp_rd","Mon Apr 10 2023 00:55:35 GMT-0700 (Pacific Daylight Time)","167005","","null","","","","offerFB","","<div class='trialBorder'><div class='vertical-center'><img style='vertical-align:center; align:center' src=img/fixation3.jpg></div><div class='cl'><div class='vertical-center'><font style='color:orange'>$4<br>for<br>sure</font></div></div><div class='cr'><div class='vertical-center'>$11<br>with a<br>50% chance</div></div><div class='respDivL'><div class='vertical-center'><font style='color:orange'>(E)</font></div></div><div class='respDivR'><div class='vertical-center'>(I)</div></div></div>","null","$4","$11","0","4","11",""
"html-keyboard-response","16","44248","0.0-5.0-1.4","63dd3dd2593c92be97d8dbde","bdp_rd","Mon Apr 10 2023 00:55:35 GMT-0700 (Pacific Daylight Time)","167005","","null","","","","FIX","","<div class='trialBorder'><div class='vertical-center'><img style='vertical-align:center; align:center' src=img/fixation3.jpg></div></div>","null","","","","","",""
"html-keyboard-response","17","46536","0.0-5.0-2.4","63dd3dd2593c92be97d8dbde","bdp_rd","Mon Apr 10 2023 00:55:35 GMT-0700 (Pacific Daylight Time)","167005","","2288","","","","offer","","<div class='trialBorder'><div class='vertical-center'><img style='vertical-align:center; align:center' src=img/fixation3.jpg></div><div class='cl'><div class='vertical-center'>$71<br>with a<br>50% chance</div></div><div class='cr'><div class='vertical-center'>$7<br>for<br>sure</div></div><div class='respDivL'><div class='vertical-center'>(E)</div></div><div class='respDivR'><div class='vertical-center'>(I)</div></div></div>","E","$7","$71","1","7","71","RISKY"
"html-keyboard-response","18","46788","0.0-5.0-3.4","63dd3dd2593c92be97d8dbde","bdp_rd","Mon Apr 10 2023 00:55:35 GMT-0700 (Pacific Daylight Time)","167005","","null","","","","offerFB","","<div class='trialBorder'><div class='vertical-center'><img style='vertical-align:center; align:center' src=img/fixation3.jpg></div><div class='cl'><div class='vertical-center'><font style='color:orange'>$71<br>with a<br>50% chance</font></div></div><div class='cr'><div class='vertical-center'>$7<br>for<br>sure</div></div><div class='respDivL'><div class='vertical-center'><font style='color:orange'>(E)</font></div></div><div class='respDivR'><div class='vertical-center'>(I)</div></div></div>","null","$7","$71","1","7","71",""
"html-keyboard-response","19","47288","0.0-5.0-1.5","63dd3dd2593c92be97d8dbde","bdp_rd","Mon Apr 10 2023 00:55:35 GMT-0700 (Pacific Daylight Time)","167005","","null","","","","FIX","","<div class='trialBorder'><div class='vertical-center'><img style='vertical-align:center; align:center' src=img/fixation3.jpg></div></div>","null","","","","","",""
"html-keyboard-response","20","49248","0.0-5.0-2.5","63dd3dd2593c92be97d8dbde","bdp_rd","Mon Apr 10 2023 00:55:35 GMT-0700 (Pacific Daylight Time)","167005","","1959","","","","offer","","<div class='trialBorder'><div class='vertical-center'><img style='vertical-align:center; align:center' src=img/fixation3.jpg></div><div class='cl'><div class='vertical-center'>$22<br>with a<br>50% chance</div></div><div class='cr'><div class='vertical-center'>$14<br>for<br>sure</div></div><div class='respDivL'><div class='vertical-center'>(E)</div></div><div class='respDivR'><div class='vertical-center'>(I)</div></div></div>","I","$14","$22","1","14","22","SURE"
"html-keyboard-response","21","49500","0.0-5.0-3.5","63dd3dd2593c92be97d8dbde","bdp_rd","Mon Apr 10 2023 00:55:35 GMT-0700 (Pacific Daylight Time)","167005","","null","","","","offerFB","","<div class='trialBorder'><div class='vertical-center'><img style='vertical-align:center; align:center' src=img/fixation3.jpg></div><div class='cl'><div class='vertical-center'>$22<br>with a<br>50% chance</div></div><div class='cr'><div class='vertical-center'><font style='color:orange'>$14<br>for<br>sure</font></div></div><div class='respDivL'><div class='vertical-center'>(E)</div></div><div class='respDivR'><div class='vertical-center'><font style='color:orange'>(I)</font></div></div></div>","null","$14","$22","1","14","22",""
"html-keyboard-response","22","50001","0.0-5.0-1.6","63dd3dd2593c92be97d8dbde","bdp_rd","Mon Apr 10 2023 00:55:35 GMT-0700 (Pacific Daylight Time)","167005","","null","","","","FIX","","<div class='trialBorder'><div class='vertical-center'><img style='vertical-align:center; align:center' src=img/fixation3.jpg></div></div>","null","","","","","",""
"html-keyboard-response","23","51464","0.0-5.0-2.6","63dd3dd2593c92be97d8dbde","bdp_rd","Mon Apr 10 2023 00:55:35 GMT-0700 (Pacific Daylight Time)","167005","","1462","","","","offer","","<div class='trialBorder'><div class='vertical-center'><img style='vertical-align:center; align:center' src=img/fixation3.jpg></div><div class='cl'><div class='vertical-center'>$16<br>for<br>sure</div></div><div class='cr'><div class='vertical-center'>$28<br>with a<br>50% chance</div></div><div class='respDivL'><div class='vertical-center'>(E)</div></div><div class='respDivR'><div class='vertical-center'>(I)</div></div></div>","E","$16","$28","0","16","28","SURE"
"html-keyboard-response","24","51716","0.0-5.0-3.6","63dd3dd2593c92be97d8dbde","bdp_rd","Mon Apr 10 2023 00:55:35 GMT-0700 (Pacific Daylight Time)","167005","","null","","","","offerFB","","<div class='trialBorder'><div class='vertical-center'><img style='vertical-align:center; align:center' src=img/fixation3.jpg></div><div class='cl'><div class='vertical-center'><font style='color:orange'>$16<br>for<br>sure</font></div></div><div class='cr'><div class='vertical-center'>$28<br>with a<br>50% chance</div></div><div class='respDivL'><div class='vertical-center'><font style='color:orange'>(E)</font></div></div><div class='respDivR'><div class='vertical-center'>(I)</div></div></div>","null","$16","$28","0","16","28",""
"html-keyboard-response","25","52218","0.0-5.0-1.7","63dd3dd2593c92be97d8dbde","bdp_rd","Mon Apr 10 2023 00:55:35 GMT-0700 (Pacific Daylight Time)","167005","","null","","","","FIX","","<div class='trialBorder'><div class='vertical-center'><img style='vertical-align:center; align:center' src=img/fixation3.jpg></div></div>","null","","","","","",""
"html-keyboard-response","26","55001","0.0-5.0-2.7","63dd3dd2593c92be97d8dbde","bdp_rd","Mon Apr 10 2023 00:55:35 GMT-0700 (Pacific Daylight Time)","167005","","2782","","","","offer","","<div class='trialBorder'><div class='vertical-center'><img style='vertical-align:center; align:center' src=img/fixation3.jpg></div><div class='cl'><div class='vertical-center'>$15<br>with a<br>50% chance</div></div><div class='cr'><div class='vertical-center'>$6<br>for<br>sure</div></div><div class='respDivL'><div class='vertical-center'>(E)</div></div><div class='respDivR'><div class='vertical-center'>(I)</div></div></div>","E","$6","$15","1","6","15","RISKY"
"html-keyboard-response","27","55252","0.0-5.0-3.7","63dd3dd2593c92be97d8dbde","bdp_rd","Mon Apr 10 2023 00:55:35 GMT-0700 (Pacific Daylight Time)","167005","","null","","","","offerFB","","<div class='trialBorder'><div class='vertical-center'><img style='vertical-align:center; align:center' src=img/fixation3.jpg></div><div class='cl'><div class='vertical-center'><font style='color:orange'>$15<br>with a<br>50% chance</font></div></div><div class='cr'><div class='vertical-center'>$6<br>for<br>sure</div></div><div class='respDivL'><div class='vertical-center'><font style='color:orange'>(E)</font></div></div><div class='respDivR'><div class='vertical-center'>(I)</div></div></div>","null","$6","$15","1","6","15",""
"html-keyboard-response","28","55754","0.0-5.0-1.8","63dd3dd2593c92be97d8dbde","bdp_rd","Mon Apr 10 2023 00:55:35 GMT-0700 (Pacific Daylight Time)","167005","","null","","","","FIX","","<div class='trialBorder'><div class='vertical-center'><img style='vertical-align:center; align:center' src=img/fixation3.jpg></div></div>","null","","","","","",""
"html-keyboard-response","29","60906","0.0-5.0-2.8","63dd3dd2593c92be97d8dbde","bdp_rd","Mon Apr 10 2023 00:55:35 GMT-0700 (Pacific Daylight Time)","167005","","5152","","","","offer","","<div class='trialBorder'><div class='vertical-center'><img style='vertical-align:center; align:center' src=img/fixation3.jpg></div><div class='cl'><div class='vertical-center'>$40<br>for<br>sure</div></div><div class='cr'><div class='vertical-center'>$95<br>with a<br>50% chance</div></div><div class='respDivL'><div class='vertical-center'>(E)</div></div><div class='respDivR'><div class='vertical-center'>(I)</div></div></div>","E","$40","$95","0","40","95","SURE"
"html-keyboard-response","30","61158","0.0-5.0-3.8","63dd3dd2593c92be97d8dbde","bdp_rd","Mon Apr 10 2023 00:55:35 GMT-0700 (Pacific Daylight Time)","167005","","null","","","","offerFB","","<div class='trialBorder'><div class='vertical-center'><img style='vertical-align:center; align:center' src=img/fixation3.jpg></div><div class='cl'><div class='vertical-center'><font style='color:orange'>$40<br>for<br>sure</font></div></div><div class='cr'><div class='vertical-center'>$95<br>with a<br>50% chance</div></div><div class='respDivL'><div class='vertical-center'><font style='color:orange'>(E)</font></div></div><div class='respDivR'><div class='vertical-center'>(I)</div></div></div>","null","$40","$95","0","40","95",""
"html-keyboard-response","31","61659","0.0-5.0-1.9","63dd3dd2593c92be97d8dbde","bdp_rd","Mon Apr 10 2023 00:55:35 GMT-0700 (Pacific Daylight Time)","167005","","null","","","","FIX","","<div class='trialBorder'><div class='vertical-center'><img style='vertical-align:center; align:center' src=img/fixation3.jpg></div></div>","null","","","","","",""
"html-keyboard-response","32","64018","0.0-5.0-2.9","63dd3dd2593c92be97d8dbde","bdp_rd","Mon Apr 10 2023 00:55:35 GMT-0700 (Pacific Daylight Time)","167005","","2358","","","","offer","","<div class='trialBorder'><div class='vertical-center'><img style='vertical-align:center; align:center' src=img/fixation3.jpg></div><div class='cl'><div class='vertical-center'>$20<br>for<br>sure</div></div><div class='cr'><div class='vertical-center'>$80<br>with a<br>50% chance</div></div><div class='respDivL'><div class='vertical-center'>(E)</div></div><div class='respDivR'><div class='vertical-center'>(I)</div></div></div>","I","$20","$80","0","20","80","RISKY"
"html-keyboard-response","33","64269","0.0-5.0-3.9","63dd3dd2593c92be97d8dbde","bdp_rd","Mon Apr 10 2023 00:55:35 GMT-0700 (Pacific Daylight Time)","167005","","null","","","","offerFB","","<div class='trialBorder'><div class='vertical-center'><img style='vertical-align:center; align:center' src=img/fixation3.jpg></div><div class='cl'><div class='vertical-center'>$20<br>for<br>sure</div></div><div class='cr'><div class='vertical-center'><font style='color:orange'>$80<br>with a<br>50% chance</font></div></div><div class='respDivL'><div class='vertical-center'>(E)</div></div><div class='respDivR'><div class='vertical-center'><font style='color:orange'>(I)</font></div></div></div>","null","$20","$80","0","20","80",""
"html-keyboard-response","34","64771","0.0-5.0-1.10","63dd3dd2593c92be97d8dbde","bdp_rd","Mon Apr 10 2023 00:55:35 GMT-0700 (Pacific Daylight Time)","167005","","null","","","","FIX","","<div class='trialBorder'><div class='vertical-center'><img style='vertical-align:center; align:center' src=img/fixation3.jpg></div></div>","null","","","","","",""
"html-keyboard-response","35","66610","0.0-5.0-2.10","63dd3dd2593c92be97d8dbde","bdp_rd","Mon Apr 10 2023 00:55:35 GMT-0700 (Pacific Daylight Time)","167005","","1839","","","","offer","","<div class='trialBorder'><div class='vertical-center'><img style='vertical-align:center; align:center' src=img/fixation3.jpg></div><div class='cl'><div class='vertical-center'>$41<br>with a<br>50% chance</div></div><div class='cr'><div class='vertical-center'>$13<br>for<br>sure</div></div><div class='respDivL'><div class='vertical-center'>(E)</div></div><div class='respDivR'><div class='vertical-center'>(I)</div></div></div>","I","$13","$41","1","13","41","SURE"
"html-keyboard-response","36","66861","0.0-5.0-3.10","63dd3dd2593c92be97d8dbde","bdp_rd","Mon Apr 10 2023 00:55:35 GMT-0700 (Pacific Daylight Time)","167005","","null","","","","offerFB","","<div class='trialBorder'><div class='vertical-center'><img style='vertical-align:center; align:center' src=img/fixation3.jpg></div><div class='cl'><div class='vertical-center'>$41<br>with a<br>50% chance</div></div><div class='cr'><div class='vertical-center'><font style='color:orange'>$13<br>for<br>sure</font></div></div><div class='respDivL'><div class='vertical-center'>(E)</div></div><div class='respDivR'><div class='vertical-center'><font style='color:orange'>(I)</font></div></div></div>","null","$13","$41","1","13","41",""
"html-keyboard-response","37","67362","0.0-5.0-1.11","63dd3dd2593c92be97d8dbde","bdp_rd","Mon Apr 10 2023 00:55:35 GMT-0700 (Pacific Daylight Time)","167005","","null","","","","FIX","","<div class='trialBorder'><div class='vertical-center'><img style='vertical-align:center; align:center' src=img/fixation3.jpg></div></div>","null","","","","","",""
"html-keyboard-response","38","68643","0.0-5.0-2.11","63dd3dd2593c92be97d8dbde","bdp_rd","Mon Apr 10 2023 00:55:35 GMT-0700 (Pacific Daylight Time)","167005","","1280","","","","offer","","<div class='trialBorder'><div class='vertical-center'><img style='vertical-align:center; align:center' src=img/fixation3.jpg></div><div class='cl'><div class='vertical-center'>$11<br>for<br>sure</div></div><div class='cr'><div class='vertical-center'>$62<br>with a<br>50% chance</div></div><div class='respDivL'><div class='vertical-center'>(E)</div></div><div class='respDivR'><div class='vertical-center'>(I)</div></div></div>","I","$11","$62","0","11","62","RISKY"
"html-keyboard-response","39","68895","0.0-5.0-3.11","63dd3dd2593c92be97d8dbde","bdp_rd","Mon Apr 10 2023 00:55:35 GMT-0700 (Pacific Daylight Time)","167005","","null","","","","offerFB","","<div class='trialBorder'><div class='vertical-center'><img style='vertical-align:center; align:center' src=img/fixation3.jpg></div><div class='cl'><div class='vertical-center'>$11<br>for<br>sure</div></div><div class='cr'><div class='vertical-center'><font style='color:orange'>$62<br>with a<br>50% chance</font></div></div><div class='respDivL'><div class='vertical-center'>(E)</div></div><div class='respDivR'><div class='vertical-center'><font style='color:orange'>(I)</font></div></div></div>","null","$11","$62","0","11","62",""
"html-keyboard-response","40","69397","0.0-5.0-1.12","63dd3dd2593c92be97d8dbde","bdp_rd","Mon Apr 10 2023 00:55:35 GMT-0700 (Pacific Daylight Time)","167005","","null","","","","FIX","","<div class='trialBorder'><div class='vertical-center'><img style='vertical-align:center; align:center' src=img/fixation3.jpg></div></div>","null","","","","","",""
"html-keyboard-response","41","71507","0.0-5.0-2.12","63dd3dd2593c92be97d8dbde","bdp_rd","Mon Apr 10 2023 00:55:35 GMT-0700 (Pacific Daylight Time)","167005","","2110","","","","offer","","<div class='trialBorder'><div class='vertical-center'><img style='vertical-align:center; align:center' src=img/fixation3.jpg></div><div class='cl'><div class='vertical-center'>$1<br>for<br>sure</div></div><div class='cr'><div class='vertical-center'>$30<br>with a<br>50% chance</div></div><div class='respDivL'><div class='vertical-center'>(E)</div></div><div class='respDivR'><div class='vertical-center'>(I)</div></div></div>","I","$1","$30","0","1","30","RISKY"
"html-keyboard-response","42","71760","0.0-5.0-3.12","63dd3dd2593c92be97d8dbde","bdp_rd","Mon Apr 10 2023 00:55:35 GMT-0700 (Pacific Daylight Time)","167005","","null","","","","offerFB","","<div class='trialBorder'><div class='vertical-center'><img style='vertical-align:center; align:center' src=img/fixation3.jpg></div><div class='cl'><div class='vertical-center'>$1<br>for<br>sure</div></div><div class='cr'><div class='vertical-center'><font style='color:orange'>$30<br>with a<br>50% chance</font></div></div><div class='respDivL'><div class='vertical-center'>(E)</div></div><div class='respDivR'><div class='vertical-center'><font style='color:orange'>(I)</font></div></div></div>","null","$1","$30","0","1","30",""
"html-keyboard-response","43","72260","0.0-5.0-1.13","63dd3dd2593c92be97d8dbde","bdp_rd","Mon Apr 10 2023 00:55:35 GMT-0700 (Pacific Daylight Time)","167005","","null","","","","FIX","","<div class='trialBorder'><div class='vertical-center'><img style='vertical-align:center; align:center' src=img/fixation3.jpg></div></div>","null","","","","","",""
"html-keyboard-response","44","74067","0.0-5.0-2.13","63dd3dd2593c92be97d8dbde","bdp_rd","Mon Apr 10 2023 00:55:35 GMT-0700 (Pacific Daylight Time)","167005","","1806","","","","offer","","<div class='trialBorder'><div class='vertical-center'><img style='vertical-align:center; align:center' src=img/fixation3.jpg></div><div class='cl'><div class='vertical-center'>$47<br>with a<br>50% chance</div></div><div class='cr'><div class='vertical-center'>$27<br>for<br>sure</div></div><div class='respDivL'><div class='vertical-center'>(E)</div></div><div class='respDivR'><div class='vertical-center'>(I)</div></div></div>","I","$27","$47","1","27","47","SURE"
"html-keyboard-response","45","74320","0.0-5.0-3.13","63dd3dd2593c92be97d8dbde","bdp_rd","Mon Apr 10 2023 00:55:35 GMT-0700 (Pacific Daylight Time)","167005","","null","","","","offerFB","","<div class='trialBorder'><div class='vertical-center'><img style='vertical-align:center; align:center' src=img/fixation3.jpg></div><div class='cl'><div class='vertical-center'>$47<br>with a<br>50% chance</div></div><div class='cr'><div class='vertical-center'><font style='color:orange'>$27<br>for<br>sure</font></div></div><div class='respDivL'><div class='vertical-center'>(E)</div></div><div class='respDivR'><div class='vertical-center'><font style='color:orange'>(I)</font></div></div></div>","null","$27","$47","1","27","47",""
"html-keyboard-response","46","74821","0.0-5.0-1.14","63dd3dd2593c92be97d8dbde","bdp_rd","Mon Apr 10 2023 00:55:35 GMT-0700 (Pacific Daylight Time)","167005","","null","","","","FIX","","<div class='trialBorder'><div class='vertical-center'><img style='vertical-align:center; align:center' src=img/fixation3.jpg></div></div>","null","","","","","",""
"html-keyboard-response","47","76196","0.0-5.0-2.14","63dd3dd2593c92be97d8dbde","bdp_rd","Mon Apr 10 2023 00:55:35 GMT-0700 (Pacific Daylight Time)","167005","","1374","","","","offer","","<div class='trialBorder'><div class='vertical-center'><img style='vertical-align:center; align:center' src=img/fixation3.jpg></div><div class='cl'><div class='vertical-center'>$19<br>for<br>sure</div></div><div class='cr'><div class='vertical-center'>$51<br>with a<br>50% chance</div></div><div class='respDivL'><div class='vertical-center'>(E)</div></div><div class='respDivR'><div class='vertical-center'>(I)</div></div></div>","E","$19","$51","0","19","51","SURE"
"html-keyboard-response","48","76447","0.0-5.0-3.14","63dd3dd2593c92be97d8dbde","bdp_rd","Mon Apr 10 2023 00:55:35 GMT-0700 (Pacific Daylight Time)","167005","","null","","","","offerFB","","<div class='trialBorder'><div class='vertical-center'><img style='vertical-align:center; align:center' src=img/fixation3.jpg></div><div class='cl'><div class='vertical-center'><font style='color:orange'>$19<br>for<br>sure</font></div></div><div class='cr'><div class='vertical-center'>$51<br>with a<br>50% chance</div></div><div class='respDivL'><div class='vertical-center'><font style='color:orange'>(E)</font></div></div><div class='respDivR'><div class='vertical-center'>(I)</div></div></div>","null","$19","$51","0","19","51",""
"html-keyboard-response","49","76948","0.0-5.0-1.15","63dd3dd2593c92be97d8dbde","bdp_rd","Mon Apr 10 2023 00:55:35 GMT-0700 (Pacific Daylight Time)","167005","","null","","","","FIX","","<div class='trialBorder'><div class='vertical-center'><img style='vertical-align:center; align:center' src=img/fixation3.jpg></div></div>","null","","","","","",""
"html-keyboard-response","50","79436","0.0-5.0-2.15","63dd3dd2593c92be97d8dbde","bdp_rd","Mon Apr 10 2023 00:55:35 GMT-0700 (Pacific Daylight Time)","167005","","2488","","","","offer","","<div class='trialBorder'><div class='vertical-center'><img style='vertical-align:center; align:center' src=img/fixation3.jpg></div><div class='cl'><div class='vertical-center'>$13<br>with a<br>50% chance</div></div><div class='cr'><div class='vertical-center'>$6<br>for<br>sure</div></div><div class='respDivL'><div class='vertical-center'>(E)</div></div><div class='respDivR'><div class='vertical-center'>(I)</div></div></div>","I","$6","$13","1","6","13","SURE"
"html-keyboard-response","51","79687","0.0-5.0-3.15","63dd3dd2593c92be97d8dbde","bdp_rd","Mon Apr 10 2023 00:55:35 GMT-0700 (Pacific Daylight Time)","167005","","null","","","","offerFB","","<div class='trialBorder'><div class='vertical-center'><img style='vertical-align:center; align:center' src=img/fixation3.jpg></div><div class='cl'><div class='vertical-center'>$13<br>with a<br>50% chance</div></div><div class='cr'><div class='vertical-center'><font style='color:orange'>$6<br>for<br>sure</font></div></div><div class='respDivL'><div class='vertical-center'>(E)</div></div><div class='respDivR'><div class='vertical-center'><font style='color:orange'>(I)</font></div></div></div>","null","$6","$13","1","6","13",""
"html-keyboard-response","52","80189","0.0-5.0-1.16","63dd3dd2593c92be97d8dbde","bdp_rd","Mon Apr 10 2023 00:55:35 GMT-0700 (Pacific Daylight Time)","167005","","null","","","","FIX","","<div class='trialBorder'><div class='vertical-center'><img style='vertical-align:center; align:center' src=img/fixation3.jpg></div></div>","null","","","","","",""
"html-keyboard-response","53","81749","0.0-5.0-2.16","63dd3dd2593c92be97d8dbde","bdp_rd","Mon Apr 10 2023 00:55:35 GMT-0700 (Pacific Daylight Time)","167005","","1560","","","","offer","","<div class='trialBorder'><div class='vertical-center'><img style='vertical-align:center; align:center' src=img/fixation3.jpg></div><div class='cl'><div class='vertical-center'>$25<br>with a<br>50% chance</div></div><div class='cr'><div class='vertical-center'>$21<br>for<br>sure</div></div><div class='respDivL'><div class='vertical-center'>(E)</div></div><div class='respDivR'><div class='vertical-center'>(I)</div></div></div>","I","$21","$25","1","21","25","SURE"
"html-keyboard-response","54","82000","0.0-5.0-3.16","63dd3dd2593c92be97d8dbde","bdp_rd","Mon Apr 10 2023 00:55:35 GMT-0700 (Pacific Daylight Time)","167005","","null","","","","offerFB","","<div class='trialBorder'><div class='vertical-center'><img style='vertical-align:center; align:center' src=img/fixation3.jpg></div><div class='cl'><div class='vertical-center'>$25<br>with a<br>50% chance</div></div><div class='cr'><div class='vertical-center'><font style='color:orange'>$21<br>for<br>sure</font></div></div><div class='respDivL'><div class='vertical-center'>(E)</div></div><div class='respDivR'><div class='vertical-center'><font style='color:orange'>(I)</font></div></div></div>","null","$21","$25","1","21","25",""
"html-keyboard-response","55","82502","0.0-5.0-1.17","63dd3dd2593c92be97d8dbde","bdp_rd","Mon Apr 10 2023 00:55:35 GMT-0700 (Pacific Daylight Time)","167005","","null","","","","FIX","","<div class='trialBorder'><div class='vertical-center'><img style='vertical-align:center; align:center' src=img/fixation3.jpg></div></div>","null","","","","","",""
"html-keyboard-response","56","83468","0.0-5.0-2.17","63dd3dd2593c92be97d8dbde","bdp_rd","Mon Apr 10 2023 00:55:35 GMT-0700 (Pacific Daylight Time)","167005","","966","","","","offer","","<div class='trialBorder'><div class='vertical-center'><img style='vertical-align:center; align:center' src=img/fixation3.jpg></div><div class='cl'><div class='vertical-center'>$33<br>with a<br>50% chance</div></div><div class='cr'><div class='vertical-center'>$1<br>for<br>sure</div></div><div class='respDivL'><div class='vertical-center'>(E)</div></div><div class='respDivR'><div class='vertical-center'>(I)</div></div></div>","E","$1","$33","1","1","33","RISKY"
"html-keyboard-response","57","83721","0.0-5.0-3.17","63dd3dd2593c92be97d8dbde","bdp_rd","Mon Apr 10 2023 00:55:35 GMT-0700 (Pacific Daylight Time)","167005","","null","","","","offerFB","","<div class='trialBorder'><div class='vertical-center'><img style='vertical-align:center; align:center' src=img/fixation3.jpg></div><div class='cl'><div class='vertical-center'><font style='color:orange'>$33<br>with a<br>50% chance</font></div></div><div class='cr'><div class='vertical-center'>$1<br>for<br>sure</div></div><div class='respDivL'><div class='vertical-center'><font style='color:orange'>(E)</font></div></div><div class='respDivR'><div class='vertical-center'>(I)</div></div></div>","null","$1","$33","1","1","33",""
"html-keyboard-response","58","84223","0.0-5.0-1.18","63dd3dd2593c92be97d8dbde","bdp_rd","Mon Apr 10 2023 00:55:35 GMT-0700 (Pacific Daylight Time)","167005","","null","","","","FIX","","<div class='trialBorder'><div class='vertical-center'><img style='vertical-align:center; align:center' src=img/fixation3.jpg></div></div>","null","","","","","",""
"html-keyboard-response","59","85429","0.0-5.0-2.18","63dd3dd2593c92be97d8dbde","bdp_rd","Mon Apr 10 2023 00:55:35 GMT-0700 (Pacific Daylight Time)","167005","","1206","","","","offer","","<div class='trialBorder'><div class='vertical-center'><img style='vertical-align:center; align:center' src=img/fixation3.jpg></div><div class='cl'><div class='vertical-center'>$45<br>for<br>sure</div></div><div class='cr'><div class='vertical-center'>$86<br>with a<br>50% chance</div></div><div class='respDivL'><div class='vertical-center'>(E)</div></div><div class='respDivR'><div class='vertical-center'>(I)</div></div></div>","E","$45","$86","0","45","86","SURE"
"html-keyboard-response","60","85680","0.0-5.0-3.18","63dd3dd2593c92be97d8dbde","bdp_rd","Mon Apr 10 2023 00:55:35 GMT-0700 (Pacific Daylight Time)","167005","","null","","","","offerFB","","<div class='trialBorder'><div class='vertical-center'><img style='vertical-align:center; align:center' src=img/fixation3.jpg></div><div class='cl'><div class='vertical-center'><font style='color:orange'>$45<br>for<br>sure</font></div></div><div class='cr'><div class='vertical-center'>$86<br>with a<br>50% chance</div></div><div class='respDivL'><div class='vertical-center'><font style='color:orange'>(E)</font></div></div><div class='respDivR'><div class='vertical-center'>(I)</div></div></div>","null","$45","$86","0","45","86",""
"html-keyboard-response","61","86182","0.0-5.0-1.19","63dd3dd2593c92be97d8dbde","bdp_rd","Mon Apr 10 2023 00:55:35 GMT-0700 (Pacific Daylight Time)","167005","","null","","","","FIX","","<div class='trialBorder'><div class='vertical-center'><img style='vertical-align:center; align:center' src=img/fixation3.jpg></div></div>","null","","","","","",""
"html-keyboard-response","62","87069","0.0-5.0-2.19","63dd3dd2593c92be97d8dbde","bdp_rd","Mon Apr 10 2023 00:55:35 GMT-0700 (Pacific Daylight Time)","167005","","886","","","","offer","","<div class='trialBorder'><div class='vertical-center'><img style='vertical-align:center; align:center' src=img/fixation3.jpg></div><div class='cl'><div class='vertical-center'>$2<br>for<br>sure</div></div><div class='cr'><div class='vertical-center'>$21<br>with a<br>50% chance</div></div><div class='respDivL'><div class='vertical-center'>(E)</div></div><div class='respDivR'><div class='vertical-center'>(I)</div></div></div>","I","$2","$21","0","2","21","RISKY"
"html-keyboard-response","63","87320","0.0-5.0-3.19","63dd3dd2593c92be97d8dbde","bdp_rd","Mon Apr 10 2023 00:55:35 GMT-0700 (Pacific Daylight Time)","167005","","null","","","","offerFB","","<div class='trialBorder'><div class='vertical-center'><img style='vertical-align:center; align:center' src=img/fixation3.jpg></div><div class='cl'><div class='vertical-center'>$2<br>for<br>sure</div></div><div class='cr'><div class='vertical-center'><font style='color:orange'>$21<br>with a<br>50% chance</font></div></div><div class='respDivL'><div class='vertical-center'>(E)</div></div><div class='respDivR'><div class='vertical-center'><font style='color:orange'>(I)</font></div></div></div>","null","$2","$21","0","2","21",""
"html-keyboard-response","64","87822","0.0-5.0-1.20","63dd3dd2593c92be97d8dbde","bdp_rd","Mon Apr 10 2023 00:55:35 GMT-0700 (Pacific Daylight Time)","167005","","null","","","","FIX","","<div class='trialBorder'><div class='vertical-center'><img style='vertical-align:center; align:center' src=img/fixation3.jpg></div></div>","null","","","","","",""
"html-keyboard-response","65","89230","0.0-5.0-2.20","63dd3dd2593c92be97d8dbde","bdp_rd","Mon Apr 10 2023 00:55:35 GMT-0700 (Pacific Daylight Time)","167005","","1408","","","","offer","","<div class='trialBorder'><div class='vertical-center'><img style='vertical-align:center; align:center' src=img/fixation3.jpg></div><div class='cl'><div class='vertical-center'>$27<br>with a<br>50% chance</div></div><div class='cr'><div class='vertical-center'>$12<br>for<br>sure</div></div><div class='respDivL'><div class='vertical-center'>(E)</div></div><div class='respDivR'><div class='vertical-center'>(I)</div></div></div>","I","$12","$27","1","12","27","SURE"
"html-keyboard-response","66","89481","0.0-5.0-3.20","63dd3dd2593c92be97d8dbde","bdp_rd","Mon Apr 10 2023 00:55:35 GMT-0700 (Pacific Daylight Time)","167005","","null","","","","offerFB","","<div class='trialBorder'><div class='vertical-center'><img style='vertical-align:center; align:center' src=img/fixation3.jpg></div><div class='cl'><div class='vertical-center'>$27<br>with a<br>50% chance</div></div><div class='cr'><div class='vertical-center'><font style='color:orange'>$12<br>for<br>sure</font></div></div><div class='respDivL'><div class='vertical-center'>(E)</div></div><div class='respDivR'><div class='vertical-center'><font style='color:orange'>(I)</font></div></div></div>","null","$12","$27","1","12","27",""
"html-keyboard-response","67","89981","0.0-5.0-1.21","63dd3dd2593c92be97d8dbde","bdp_rd","Mon Apr 10 2023 00:55:35 GMT-0700 (Pacific Daylight Time)","167005","","null","","","","FIX","","<div class='trialBorder'><div class='vertical-center'><img style='vertical-align:center; align:center' src=img/fixation3.jpg></div></div>","null","","","","","",""
"html-keyboard-response","68","91110","0.0-5.0-2.21","63dd3dd2593c92be97d8dbde","bdp_rd","Mon Apr 10 2023 00:55:35 GMT-0700 (Pacific Daylight Time)","167005","","1128","","","","offer","","<div class='trialBorder'><div class='vertical-center'><img style='vertical-align:center; align:center' src=img/fixation3.jpg></div><div class='cl'><div class='vertical-center'>$81<br>with a<br>50% chance</div></div><div class='cr'><div class='vertical-center'>$39<br>for<br>sure</div></div><div class='respDivL'><div class='vertical-center'>(E)</div></div><div class='respDivR'><div class='vertical-center'>(I)</div></div></div>","I","$39","$81","1","39","81","SURE"
"html-keyboard-response","69","91362","0.0-5.0-3.21","63dd3dd2593c92be97d8dbde","bdp_rd","Mon Apr 10 2023 00:55:35 GMT-0700 (Pacific Daylight Time)","167005","","null","","","","offerFB","","<div class='trialBorder'><div class='vertical-center'><img style='vertical-align:center; align:center' src=img/fixation3.jpg></div><div class='cl'><div class='vertical-center'>$81<br>with a<br>50% chance</div></div><div class='cr'><div class='vertical-center'><font style='color:orange'>$39<br>for<br>sure</font></div></div><div class='respDivL'><div class='vertical-center'>(E)</div></div><div class='respDivR'><div class='vertical-center'><font style='color:orange'>(I)</font></div></div></div>","null","$39","$81","1","39","81",""
"html-keyboard-response","70","91864","0.0-5.0-1.22","63dd3dd2593c92be97d8dbde","bdp_rd","Mon Apr 10 2023 00:55:35 GMT-0700 (Pacific Daylight Time)","167005","","null","","","","FIX","","<div class='trialBorder'><div class='vertical-center'><img style='vertical-align:center; align:center' src=img/fixation3.jpg></div></div>","null","","","","","",""
"html-keyboard-response","71","94143","0.0-5.0-2.22","63dd3dd2593c92be97d8dbde","bdp_rd","Mon Apr 10 2023 00:55:35 GMT-0700 (Pacific Daylight Time)","167005","","2278","","","","offer","","<div class='trialBorder'><div class='vertical-center'><img style='vertical-align:center; align:center' src=img/fixation3.jpg></div><div class='cl'><div class='vertical-center'>$78<br>with a<br>50% chance</div></div><div class='cr'><div class='vertical-center'>$31<br>for<br>sure</div></div><div class='respDivL'><div class='vertical-center'>(E)</div></div><div class='respDivR'><div class='vertical-center'>(I)</div></div></div>","I","$31","$78","1","31","78","SURE"
"html-keyboard-response","72","94394","0.0-5.0-3.22","63dd3dd2593c92be97d8dbde","bdp_rd","Mon Apr 10 2023 00:55:35 GMT-0700 (Pacific Daylight Time)","167005","","null","","","","offerFB","","<div class='trialBorder'><div class='vertical-center'><img style='vertical-align:center; align:center' src=img/fixation3.jpg></div><div class='cl'><div class='vertical-center'>$78<br>with a<br>50% chance</div></div><div class='cr'><div class='vertical-center'><font style='color:orange'>$31<br>for<br>sure</font></div></div><div class='respDivL'><div class='vertical-center'>(E)</div></div><div class='respDivR'><div class='vertical-center'><font style='color:orange'>(I)</font></div></div></div>","null","$31","$78","1","31","78",""
"html-keyboard-response","73","94896","0.0-5.0-1.23","63dd3dd2593c92be97d8dbde","bdp_rd","Mon Apr 10 2023 00:55:35 GMT-0700 (Pacific Daylight Time)","167005","","null","","","","FIX","","<div class='trialBorder'><div class='vertical-center'><img style='vertical-align:center; align:center' src=img/fixation3.jpg></div></div>","null","","","","","",""
"html-keyboard-response","74","95967","0.0-5.0-2.23","63dd3dd2593c92be97d8dbde","bdp_rd","Mon Apr 10 2023 00:55:35 GMT-0700 (Pacific Daylight Time)","167005","","1070","","","","offer","","<div class='trialBorder'><div class='vertical-center'><img style='vertical-align:center; align:center' src=img/fixation3.jpg></div><div class='cl'><div class='vertical-center'>$15<br>for<br>sure</div></div><div class='cr'><div class='vertical-center'>$34<br>with a<br>50% chance</div></div><div class='respDivL'><div class='vertical-center'>(E)</div></div><div class='respDivR'><div class='vertical-center'>(I)</div></div></div>","E","$15","$34","0","15","34","SURE"
"html-keyboard-response","75","96217","0.0-5.0-3.23","63dd3dd2593c92be97d8dbde","bdp_rd","Mon Apr 10 2023 00:55:35 GMT-0700 (Pacific Daylight Time)","167005","","null","","","","offerFB","","<div class='trialBorder'><div class='vertical-center'><img style='vertical-align:center; align:center' src=img/fixation3.jpg></div><div class='cl'><div class='vertical-center'><font style='color:orange'>$15<br>for<br>sure</font></div></div><div class='cr'><div class='vertical-center'>$34<br>with a<br>50% chance</div></div><div class='respDivL'><div class='vertical-center'><font style='color:orange'>(E)</font></div></div><div class='respDivR'><div class='vertical-center'>(I)</div></div></div>","null","$15","$34","0","15","34",""
"html-keyboard-response","76","96718","0.0-5.0-1.24","63dd3dd2593c92be97d8dbde","bdp_rd","Mon Apr 10 2023 00:55:35 GMT-0700 (Pacific Daylight Time)","167005","","null","","","","FIX","","<div class='trialBorder'><div class='vertical-center'><img style='vertical-align:center; align:center' src=img/fixation3.jpg></div></div>","null","","","","","",""
"html-keyboard-response","77","98575","0.0-5.0-2.24","63dd3dd2593c92be97d8dbde","bdp_rd","Mon Apr 10 2023 00:55:35 GMT-0700 (Pacific Daylight Time)","167005","","1856","","","","offer","","<div class='trialBorder'><div class='vertical-center'><img style='vertical-align:center; align:center' src=img/fixation3.jpg></div><div class='cl'><div class='vertical-center'>$5<br>for<br>sure</div></div><div class='cr'><div class='vertical-center'>$50<br>with a<br>50% chance</div></div><div class='respDivL'><div class='vertical-center'>(E)</div></div><div class='respDivR'><div class='vertical-center'>(I)</div></div></div>","I","$5","$50","0","5","50","RISKY"
"html-keyboard-response","78","98826","0.0-5.0-3.24","63dd3dd2593c92be97d8dbde","bdp_rd","Mon Apr 10 2023 00:55:35 GMT-0700 (Pacific Daylight Time)","167005","","null","","","","offerFB","","<div class='trialBorder'><div class='vertical-center'><img style='vertical-align:center; align:center' src=img/fixation3.jpg></div><div class='cl'><div class='vertical-center'>$5<br>for<br>sure</div></div><div class='cr'><div class='vertical-center'><font style='color:orange'>$50<br>with a<br>50% chance</font></div></div><div class='respDivL'><div class='vertical-center'>(E)</div></div><div class='respDivR'><div class='vertical-center'><font style='color:orange'>(I)</font></div></div></div>","null","$5","$50","0","5","50",""
"html-keyboard-response","79","99326","0.0-5.0-1.25","63dd3dd2593c92be97d8dbde","bdp_rd","Mon Apr 10 2023 00:55:35 GMT-0700 (Pacific Daylight Time)","167005","","null","","","","FIX","","<div class='trialBorder'><div class='vertical-center'><img style='vertical-align:center; align:center' src=img/fixation3.jpg></div></div>","null","","","","","",""
"html-keyboard-response","80","100999","0.0-5.0-2.25","63dd3dd2593c92be97d8dbde","bdp_rd","Mon Apr 10 2023 00:55:35 GMT-0700 (Pacific Daylight Time)","167005","","1672","","","","offer","","<div class='trialBorder'><div class='vertical-center'><img style='vertical-align:center; align:center' src=img/fixation3.jpg></div><div class='cl'><div class='vertical-center'>$53<br>for<br>sure</div></div><div class='cr'><div class='vertical-center'>$98<br>with a<br>50% chance</div></div><div class='respDivL'><div class='vertical-center'>(E)</div></div><div class='respDivR'><div class='vertical-center'>(I)</div></div></div>","E","$53","$98","0","53","98","SURE"
"html-keyboard-response","81","101250","0.0-5.0-3.25","63dd3dd2593c92be97d8dbde","bdp_rd","Mon Apr 10 2023 00:55:35 GMT-0700 (Pacific Daylight Time)","167005","","null","","","","offerFB","","<div class='trialBorder'><div class='vertical-center'><img style='vertical-align:center; align:center' src=img/fixation3.jpg></div><div class='cl'><div class='vertical-center'><font style='color:orange'>$53<br>for<br>sure</font></div></div><div class='cr'><div class='vertical-center'>$98<br>with a<br>50% chance</div></div><div class='respDivL'><div class='vertical-center'><font style='color:orange'>(E)</font></div></div><div class='respDivR'><div class='vertical-center'>(I)</div></div></div>","null","$53","$98","0","53","98",""
"html-keyboard-response","82","101752","0.0-5.0-1.26","63dd3dd2593c92be97d8dbde","bdp_rd","Mon Apr 10 2023 00:55:35 GMT-0700 (Pacific Daylight Time)","167005","","null","","","","FIX","","<div class='trialBorder'><div class='vertical-center'><img style='vertical-align:center; align:center' src=img/fixation3.jpg></div></div>","null","","","","","",""
"html-keyboard-response","83","103000","0.0-5.0-2.26","63dd3dd2593c92be97d8dbde","bdp_rd","Mon Apr 10 2023 00:55:35 GMT-0700 (Pacific Daylight Time)","167005","","1246","","","","offer","","<div class='trialBorder'><div class='vertical-center'><img style='vertical-align:center; align:center' src=img/fixation3.jpg></div><div class='cl'><div class='vertical-center'>$70<br>with a<br>50% chance</div></div><div class='cr'><div class='vertical-center'>$24<br>for<br>sure</div></div><div class='respDivL'><div class='vertical-center'>(E)</div></div><div class='respDivR'><div class='vertical-center'>(I)</div></div></div>","I","$24","$70","1","24","70","SURE"
"html-keyboard-response","84","103251","0.0-5.0-3.26","63dd3dd2593c92be97d8dbde","bdp_rd","Mon Apr 10 2023 00:55:35 GMT-0700 (Pacific Daylight Time)","167005","","null","","","","offerFB","","<div class='trialBorder'><div class='vertical-center'><img style='vertical-align:center; align:center' src=img/fixation3.jpg></div><div class='cl'><div class='vertical-center'>$70<br>with a<br>50% chance</div></div><div class='cr'><div class='vertical-center'><font style='color:orange'>$24<br>for<br>sure</font></div></div><div class='respDivL'><div class='vertical-center'>(E)</div></div><div class='respDivR'><div class='vertical-center'><font style='color:orange'>(I)</font></div></div></div>","null","$24","$70","1","24","70",""
"html-keyboard-response","85","103752","0.0-5.0-1.27","63dd3dd2593c92be97d8dbde","bdp_rd","Mon Apr 10 2023 00:55:35 GMT-0700 (Pacific Daylight Time)","167005","","null","","","","FIX","","<div class='trialBorder'><div class='vertical-center'><img style='vertical-align:center; align:center' src=img/fixation3.jpg></div></div>","null","","","","","",""
"html-keyboard-response","86","104960","0.0-5.0-2.27","63dd3dd2593c92be97d8dbde","bdp_rd","Mon Apr 10 2023 00:55:35 GMT-0700 (Pacific Daylight Time)","167005","","1207","","","","offer","","<div class='trialBorder'><div class='vertical-center'><img style='vertical-align:center; align:center' src=img/fixation3.jpg></div><div class='cl'><div class='vertical-center'>$16<br>for<br>sure</div></div><div class='cr'><div class='vertical-center'>$38<br>with a<br>50% chance</div></div><div class='respDivL'><div class='vertical-center'>(E)</div></div><div class='respDivR'><div class='vertical-center'>(I)</div></div></div>","E","$16","$38","0","16","38","SURE"
"html-keyboard-response","87","105212","0.0-5.0-3.27","63dd3dd2593c92be97d8dbde","bdp_rd","Mon Apr 10 2023 00:55:35 GMT-0700 (Pacific Daylight Time)","167005","","null","","","","offerFB","","<div class='trialBorder'><div class='vertical-center'><img style='vertical-align:center; align:center' src=img/fixation3.jpg></div><div class='cl'><div class='vertical-center'><font style='color:orange'>$16<br>for<br>sure</font></div></div><div class='cr'><div class='vertical-center'>$38<br>with a<br>50% chance</div></div><div class='respDivL'><div class='vertical-center'><font style='color:orange'>(E)</font></div></div><div class='respDivR'><div class='vertical-center'>(I)</div></div></div>","null","$16","$38","0","16","38",""
"html-keyboard-response","88","105713","0.0-5.0-1.28","63dd3dd2593c92be97d8dbde","bdp_rd","Mon Apr 10 2023 00:55:35 GMT-0700 (Pacific Daylight Time)","167005","","null","","","","FIX","","<div class='trialBorder'><div class='vertical-center'><img style='vertical-align:center; align:center' src=img/fixation3.jpg></div></div>","null","","","","","",""
"html-keyboard-response","89","106712","0.0-5.0-2.28","63dd3dd2593c92be97d8dbde","bdp_rd","Mon Apr 10 2023 00:55:35 GMT-0700 (Pacific Daylight Time)","167005","","998","","","","offer","","<div class='trialBorder'><div class='vertical-center'><img style='vertical-align:center; align:center' src=img/fixation3.jpg></div><div class='cl'><div class='vertical-center'>$64<br>with a<br>50% chance</div></div><div class='cr'><div class='vertical-center'>$2<br>for<br>sure</div></div><div class='respDivL'><div class='vertical-center'>(E)</div></div><div class='respDivR'><div class='vertical-center'>(I)</div></div></div>","E","$2","$64","1","2","64","RISKY"
"html-keyboard-response","90","106963","0.0-5.0-3.28","63dd3dd2593c92be97d8dbde","bdp_rd","Mon Apr 10 2023 00:55:35 GMT-0700 (Pacific Daylight Time)","167005","","null","","","","offerFB","","<div class='trialBorder'><div class='vertical-center'><img style='vertical-align:center; align:center' src=img/fixation3.jpg></div><div class='cl'><div class='vertical-center'><font style='color:orange'>$64<br>with a<br>50% chance</font></div></div><div class='cr'><div class='vertical-center'>$2<br>for<br>sure</div></div><div class='respDivL'><div class='vertical-center'><font style='color:orange'>(E)</font></div></div><div class='respDivR'><div class='vertical-center'>(I)</div></div></div>","null","$2","$64","1","2","64",""
"html-keyboard-response","91","107465","0.0-5.0-1.29","63dd3dd2593c92be97d8dbde","bdp_rd","Mon Apr 10 2023 00:55:35 GMT-0700 (Pacific Daylight Time)","167005","","null","","","","FIX","","<div class='trialBorder'><div class='vertical-center'><img style='vertical-align:center; align:center' src=img/fixation3.jpg></div></div>","null","","","","","",""
"html-keyboard-response","92","109408","0.0-5.0-2.29","63dd3dd2593c92be97d8dbde","bdp_rd","Mon Apr 10 2023 00:55:35 GMT-0700 (Pacific Daylight Time)","167005","","1942","","","","offer","","<div class='trialBorder'><div class='vertical-center'><img style='vertical-align:center; align:center' src=img/fixation3.jpg></div><div class='cl'><div class='vertical-center'>$65<br>with a<br>50% chance</div></div><div class='cr'><div class='vertical-center'>$46<br>for<br>sure</div></div><div class='respDivL'><div class='vertical-center'>(E)</div></div><div class='respDivR'><div class='vertical-center'>(I)</div></div></div>","I","$46","$65","1","46","65","SURE"
"html-keyboard-response","93","109660","0.0-5.0-3.29","63dd3dd2593c92be97d8dbde","bdp_rd","Mon Apr 10 2023 00:55:35 GMT-0700 (Pacific Daylight Time)","167005","","null","","","","offerFB","","<div class='trialBorder'><div class='vertical-center'><img style='vertical-align:center; align:center' src=img/fixation3.jpg></div><div class='cl'><div class='vertical-center'>$65<br>with a<br>50% chance</div></div><div class='cr'><div class='vertical-center'><font style='color:orange'>$46<br>for<br>sure</font></div></div><div class='respDivL'><div class='vertical-center'>(E)</div></div><div class='respDivR'><div class='vertical-center'><font style='color:orange'>(I)</font></div></div></div>","null","$46","$65","1","46","65",""
"html-keyboard-response","94","110162","0.0-5.0-1.30","63dd3dd2593c92be97d8dbde","bdp_rd","Mon Apr 10 2023 00:55:35 GMT-0700 (Pacific Daylight Time)","167005","","null","","","","FIX","","<div class='trialBorder'><div class='vertical-center'><img style='vertical-align:center; align:center' src=img/fixation3.jpg></div></div>","null","","","","","",""
"html-keyboard-response","95","111641","0.0-5.0-2.30","63dd3dd2593c92be97d8dbde","bdp_rd","Mon Apr 10 2023 00:55:35 GMT-0700 (Pacific Daylight Time)","167005","","1478","","","","offer","","<div class='trialBorder'><div class='vertical-center'><img style='vertical-align:center; align:center' src=img/fixation3.jpg></div><div class='cl'><div class='vertical-center'>$5<br>for<br>sure</div></div><div class='cr'><div class='vertical-center'>$16<br>with a<br>50% chance</div></div><div class='respDivL'><div class='vertical-center'>(E)</div></div><div class='respDivR'><div class='vertical-center'>(I)</div></div></div>","E","$5","$16","0","5","16","SURE"
"html-keyboard-response","96","111892","0.0-5.0-3.30","63dd3dd2593c92be97d8dbde","bdp_rd","Mon Apr 10 2023 00:55:35 GMT-0700 (Pacific Daylight Time)","167005","","null","","","","offerFB","","<div class='trialBorder'><div class='vertical-center'><img style='vertical-align:center; align:center' src=img/fixation3.jpg></div><div class='cl'><div class='vertical-center'><font style='color:orange'>$5<br>for<br>sure</font></div></div><div class='cr'><div class='vertical-center'>$16<br>with a<br>50% chance</div></div><div class='respDivL'><div class='vertical-center'><font style='color:orange'>(E)</font></div></div><div class='respDivR'><div class='vertical-center'>(I)</div></div></div>","null","$5","$16","0","5","16",""
"html-keyboard-response","97","112393","0.0-5.0-1.31","63dd3dd2593c92be97d8dbde","bdp_rd","Mon Apr 10 2023 00:55:35 GMT-0700 (Pacific Daylight Time)","167005","","null","","","","FIX","","<div class='trialBorder'><div class='vertical-center'><img style='vertical-align:center; align:center' src=img/fixation3.jpg></div></div>","null","","","","","",""
"html-keyboard-response","98","113609","0.0-5.0-2.31","63dd3dd2593c92be97d8dbde","bdp_rd","Mon Apr 10 2023 00:55:35 GMT-0700 (Pacific Daylight Time)","167005","","1215","","","","offer","","<div class='trialBorder'><div class='vertical-center'><img style='vertical-align:center; align:center' src=img/fixation3.jpg></div><div class='cl'><div class='vertical-center'>$20<br>for<br>sure</div></div><div class='cr'><div class='vertical-center'>$37<br>with a<br>50% chance</div></div><div class='respDivL'><div class='vertical-center'>(E)</div></div><div class='respDivR'><div class='vertical-center'>(I)</div></div></div>","E","$20","$37","0","20","37","SURE"
"html-keyboard-response","99","113860","0.0-5.0-3.31","63dd3dd2593c92be97d8dbde","bdp_rd","Mon Apr 10 2023 00:55:35 GMT-0700 (Pacific Daylight Time)","167005","","null","","","","offerFB","","<div class='trialBorder'><div class='vertical-center'><img style='vertical-align:center; align:center' src=img/fixation3.jpg></div><div class='cl'><div class='vertical-center'><font style='color:orange'>$20<br>for<br>sure</font></div></div><div class='cr'><div class='vertical-center'>$37<br>with a<br>50% chance</div></div><div class='respDivL'><div class='vertical-center'><font style='color:orange'>(E)</font></div></div><div class='respDivR'><div class='vertical-center'>(I)</div></div></div>","null","$20","$37","0","20","37",""
"html-keyboard-response","100","114362","0.0-5.0-1.32","63dd3dd2593c92be97d8dbde","bdp_rd","Mon Apr 10 2023 00:55:35 GMT-0700 (Pacific Daylight Time)","167005","","null","","","","FIX","","<div class='trialBorder'><div class='vertical-center'><img style='vertical-align:center; align:center' src=img/fixation3.jpg></div></div>","null","","","","","",""
"html-keyboard-response","101","115762","0.0-5.0-2.32","63dd3dd2593c92be97d8dbde","bdp_rd","Mon Apr 10 2023 00:55:35 GMT-0700 (Pacific Daylight Time)","167005","","1400","","","","offer","","<div class='trialBorder'><div class='vertical-center'><img style='vertical-align:center; align:center' src=img/fixation3.jpg></div><div class='cl'><div class='vertical-center'>$66<br>with a<br>50% chance</div></div><div class='cr'><div class='vertical-center'>$33<br>for<br>sure</div></div><div class='respDivL'><div class='vertical-center'>(E)</div></div><div class='respDivR'><div class='vertical-center'>(I)</div></div></div>","I","$33","$66","1","33","66","SURE"
"html-keyboard-response","102","116013","0.0-5.0-3.32","63dd3dd2593c92be97d8dbde","bdp_rd","Mon Apr 10 2023 00:55:35 GMT-0700 (Pacific Daylight Time)","167005","","null","","","","offerFB","","<div class='trialBorder'><div class='vertical-center'><img style='vertical-align:center; align:center' src=img/fixation3.jpg></div><div class='cl'><div class='vertical-center'>$66<br>with a<br>50% chance</div></div><div class='cr'><div class='vertical-center'><font style='color:orange'>$33<br>for<br>sure</font></div></div><div class='respDivL'><div class='vertical-center'>(E)</div></div><div class='respDivR'><div class='vertical-center'><font style='color:orange'>(I)</font></div></div></div>","null","$33","$66","1","33","66",""
"html-keyboard-response","103","116514","0.0-5.0-1.33","63dd3dd2593c92be97d8dbde","bdp_rd","Mon Apr 10 2023 00:55:35 GMT-0700 (Pacific Daylight Time)","167005","","null","","","","FIX","","<div class='trialBorder'><div class='vertical-center'><img style='vertical-align:center; align:center' src=img/fixation3.jpg></div></div>","null","","","","","",""
"html-keyboard-response","104","118074","0.0-5.0-2.33","63dd3dd2593c92be97d8dbde","bdp_rd","Mon Apr 10 2023 00:55:35 GMT-0700 (Pacific Daylight Time)","167005","","1558","","","","offer","","<div class='trialBorder'><div class='vertical-center'><img style='vertical-align:center; align:center' src=img/fixation3.jpg></div><div class='cl'><div class='vertical-center'>$46<br>with a<br>50% chance</div></div><div class='cr'><div class='vertical-center'>$29<br>for<br>sure</div></div><div class='respDivL'><div class='vertical-center'>(E)</div></div><div class='respDivR'><div class='vertical-center'>(I)</div></div></div>","I","$29","$46","1","29","46","SURE"
"html-keyboard-response","105","118325","0.0-5.0-3.33","63dd3dd2593c92be97d8dbde","bdp_rd","Mon Apr 10 2023 00:55:35 GMT-0700 (Pacific Daylight Time)","167005","","null","","","","offerFB","","<div class='trialBorder'><div class='vertical-center'><img style='vertical-align:center; align:center' src=img/fixation3.jpg></div><div class='cl'><div class='vertical-center'>$46<br>with a<br>50% chance</div></div><div class='cr'><div class='vertical-center'><font style='color:orange'>$29<br>for<br>sure</font></div></div><div class='respDivL'><div class='vertical-center'>(E)</div></div><div class='respDivR'><div class='vertical-center'><font style='color:orange'>(I)</font></div></div></div>","null","$29","$46","1","29","46",""
"html-keyboard-response","106","118826","0.0-5.0-1.34","63dd3dd2593c92be97d8dbde","bdp_rd","Mon Apr 10 2023 00:55:35 GMT-0700 (Pacific Daylight Time)","167005","","null","","","","FIX","","<div class='trialBorder'><div class='vertical-center'><img style='vertical-align:center; align:center' src=img/fixation3.jpg></div></div>","null","","","","","",""
"html-keyboard-response","107","120890","0.0-5.0-2.34","63dd3dd2593c92be97d8dbde","bdp_rd","Mon Apr 10 2023 00:55:35 GMT-0700 (Pacific Daylight Time)","167005","","2063","","","","offer","","<div class='trialBorder'><div class='vertical-center'><img style='vertical-align:center; align:center' src=img/fixation3.jpg></div><div class='cl'><div class='vertical-center'>$29<br>with a<br>50% chance</div></div><div class='cr'><div class='vertical-center'>$14<br>for<br>sure</div></div><div class='respDivL'><div class='vertical-center'>(E)</div></div><div class='respDivR'><div class='vertical-center'>(I)</div></div></div>","I","$14","$29","1","14","29","SURE"
"html-keyboard-response","108","121141","0.0-5.0-3.34","63dd3dd2593c92be97d8dbde","bdp_rd","Mon Apr 10 2023 00:55:35 GMT-0700 (Pacific Daylight Time)","167005","","null","","","","offerFB","","<div class='trialBorder'><div class='vertical-center'><img style='vertical-align:center; align:center' src=img/fixation3.jpg></div><div class='cl'><div class='vertical-center'>$29<br>with a<br>50% chance</div></div><div class='cr'><div class='vertical-center'><font style='color:orange'>$14<br>for<br>sure</font></div></div><div class='respDivL'><div class='vertical-center'>(E)</div></div><div class='respDivR'><div class='vertical-center'><font style='color:orange'>(I)</font></div></div></div>","null","$14","$29","1","14","29",""
"html-keyboard-response","109","121643","0.0-5.0-1.35","63dd3dd2593c92be97d8dbde","bdp_rd","Mon Apr 10 2023 00:55:35 GMT-0700 (Pacific Daylight Time)","167005","","null","","","","FIX","","<div class='trialBorder'><div class='vertical-center'><img style='vertical-align:center; align:center' src=img/fixation3.jpg></div></div>","null","","","","","",""
"html-keyboard-response","110","122370","0.0-5.0-2.35","63dd3dd2593c92be97d8dbde","bdp_rd","Mon Apr 10 2023 00:55:35 GMT-0700 (Pacific Daylight Time)","167005","","726","","","","offer","","<div class='trialBorder'><div class='vertical-center'><img style='vertical-align:center; align:center' src=img/fixation3.jpg></div><div class='cl'><div class='vertical-center'>$13<br>for<br>sure</div></div><div class='cr'><div class='vertical-center'>$24<br>with a<br>50% chance</div></div><div class='respDivL'><div class='vertical-center'>(E)</div></div><div class='respDivR'><div class='vertical-center'>(I)</div></div></div>","E","$13","$24","0","13","24","SURE"
"html-keyboard-response","111","122622","0.0-5.0-3.35","63dd3dd2593c92be97d8dbde","bdp_rd","Mon Apr 10 2023 00:55:35 GMT-0700 (Pacific Daylight Time)","167005","","null","","","","offerFB","","<div class='trialBorder'><div class='vertical-center'><img style='vertical-align:center; align:center' src=img/fixation3.jpg></div><div class='cl'><div class='vertical-center'><font style='color:orange'>$13<br>for<br>sure</font></div></div><div class='cr'><div class='vertical-center'>$24<br>with a<br>50% chance</div></div><div class='respDivL'><div class='vertical-center'><font style='color:orange'>(E)</font></div></div><div class='respDivR'><div class='vertical-center'>(I)</div></div></div>","null","$13","$24","0","13","24",""
"html-keyboard-response","112","123123","0.0-5.0-1.36","63dd3dd2593c92be97d8dbde","bdp_rd","Mon Apr 10 2023 00:55:35 GMT-0700 (Pacific Daylight Time)","167005","","null","","","","FIX","","<div class='trialBorder'><div class='vertical-center'><img style='vertical-align:center; align:center' src=img/fixation3.jpg></div></div>","null","","","","","",""
"html-keyboard-response","113","123826","0.0-5.0-2.36","63dd3dd2593c92be97d8dbde","bdp_rd","Mon Apr 10 2023 00:55:35 GMT-0700 (Pacific Daylight Time)","167005","","702","","","","offer","","<div class='trialBorder'><div class='vertical-center'><img style='vertical-align:center; align:center' src=img/fixation3.jpg></div><div class='cl'><div class='vertical-center'>$18<br>for<br>sure</div></div><div class='cr'><div class='vertical-center'>$36<br>with a<br>50% chance</div></div><div class='respDivL'><div class='vertical-center'>(E)</div></div><div class='respDivR'><div class='vertical-center'>(I)</div></div></div>","E","$18","$36","0","18","36","SURE"
"html-keyboard-response","114","124078","0.0-5.0-3.36","63dd3dd2593c92be97d8dbde","bdp_rd","Mon Apr 10 2023 00:55:35 GMT-0700 (Pacific Daylight Time)","167005","","null","","","","offerFB","","<div class='trialBorder'><div class='vertical-center'><img style='vertical-align:center; align:center' src=img/fixation3.jpg></div><div class='cl'><div class='vertical-center'><font style='color:orange'>$18<br>for<br>sure</font></div></div><div class='cr'><div class='vertical-center'>$36<br>with a<br>50% chance</div></div><div class='respDivL'><div class='vertical-center'><font style='color:orange'>(E)</font></div></div><div class='respDivR'><div class='vertical-center'>(I)</div></div></div>","null","$18","$36","0","18","36",""
"html-keyboard-response","115","124579","0.0-5.0-1.37","63dd3dd2593c92be97d8dbde","bdp_rd","Mon Apr 10 2023 00:55:35 GMT-0700 (Pacific Daylight Time)","167005","","null","","","","FIX","","<div class='trialBorder'><div class='vertical-center'><img style='vertical-align:center; align:center' src=img/fixation3.jpg></div></div>","null","","","","","",""
"html-keyboard-response","116","125523","0.0-5.0-2.37","63dd3dd2593c92be97d8dbde","bdp_rd","Mon Apr 10 2023 00:55:35 GMT-0700 (Pacific Daylight Time)","167005","","942","","","","offer","","<div class='trialBorder'><div class='vertical-center'><img style='vertical-align:center; align:center' src=img/fixation3.jpg></div><div class='cl'><div class='vertical-center'>$44<br>with a<br>50% chance</div></div><div class='cr'><div class='vertical-center'>$37<br>for<br>sure</div></div><div class='respDivL'><div class='vertical-center'>(E)</div></div><div class='respDivR'><div class='vertical-center'>(I)</div></div></div>","I","$37","$44","1","37","44","SURE"
"html-keyboard-response","117","125773","0.0-5.0-3.37","63dd3dd2593c92be97d8dbde","bdp_rd","Mon Apr 10 2023 00:55:35 GMT-0700 (Pacific Daylight Time)","167005","","null","","","","offerFB","","<div class='trialBorder'><div class='vertical-center'><img style='vertical-align:center; align:center' src=img/fixation3.jpg></div><div class='cl'><div class='vertical-center'>$44<br>with a<br>50% chance</div></div><div class='cr'><div class='vertical-center'><font style='color:orange'>$37<br>for<br>sure</font></div></div><div class='respDivL'><div class='vertical-center'>(E)</div></div><div class='respDivR'><div class='vertical-center'><font style='color:orange'>(I)</font></div></div></div>","null","$37","$44","1","37","44",""
"html-keyboard-response","118","126275","0.0-5.0-1.38","63dd3dd2593c92be97d8dbde","bdp_rd","Mon Apr 10 2023 00:55:35 GMT-0700 (Pacific Daylight Time)","167005","","null","","","","FIX","","<div class='trialBorder'><div class='vertical-center'><img style='vertical-align:center; align:center' src=img/fixation3.jpg></div></div>","null","","","","","",""
"html-keyboard-response","119","127755","0.0-5.0-2.38","63dd3dd2593c92be97d8dbde","bdp_rd","Mon Apr 10 2023 00:55:35 GMT-0700 (Pacific Daylight Time)","167005","","1479","","","","offer","","<div class='trialBorder'><div class='vertical-center'><img style='vertical-align:center; align:center' src=img/fixation3.jpg></div><div class='cl'><div class='vertical-center'>$15<br>for<br>sure</div></div><div class='cr'><div class='vertical-center'>$31<br>with a<br>50% chance</div></div><div class='respDivL'><div class='vertical-center'>(E)</div></div><div class='respDivR'><div class='vertical-center'>(I)</div></div></div>","E","$15","$31","0","15","31","SURE"
"html-keyboard-response","120","128007","0.0-5.0-3.38","63dd3dd2593c92be97d8dbde","bdp_rd","Mon Apr 10 2023 00:55:35 GMT-0700 (Pacific Daylight Time)","167005","","null","","","","offerFB","","<div class='trialBorder'><div class='vertical-center'><img style='vertical-align:center; align:center' src=img/fixation3.jpg></div><div class='cl'><div class='vertical-center'><font style='color:orange'>$15<br>for<br>sure</font></div></div><div class='cr'><div class='vertical-center'>$31<br>with a<br>50% chance</div></div><div class='respDivL'><div class='vertical-center'><font style='color:orange'>(E)</font></div></div><div class='respDivR'><div class='vertical-center'>(I)</div></div></div>","null","$15","$31","0","15","31",""
"html-keyboard-response","121","128508","0.0-5.0-1.39","63dd3dd2593c92be97d8dbde","bdp_rd","Mon Apr 10 2023 00:55:35 GMT-0700 (Pacific Daylight Time)","167005","","null","","","","FIX","","<div class='trialBorder'><div class='vertical-center'><img style='vertical-align:center; align:center' src=img/fixation3.jpg></div></div>","null","","","","","",""
"html-keyboard-response","122","129171","0.0-5.0-2.39","63dd3dd2593c92be97d8dbde","bdp_rd","Mon Apr 10 2023 00:55:35 GMT-0700 (Pacific Daylight Time)","167005","","662","","","","offer","","<div class='trialBorder'><div class='vertical-center'><img style='vertical-align:center; align:center' src=img/fixation3.jpg></div><div class='cl'><div class='vertical-center'>$26<br>for<br>sure</div></div><div class='cr'><div class='vertical-center'>$92<br>with a<br>50% chance</div></div><div class='respDivL'><div class='vertical-center'>(E)</div></div><div class='respDivR'><div class='vertical-center'>(I)</div></div></div>","E","$26","$92","0","26","92","SURE"
"html-keyboard-response","123","129422","0.0-5.0-3.39","63dd3dd2593c92be97d8dbde","bdp_rd","Mon Apr 10 2023 00:55:35 GMT-0700 (Pacific Daylight Time)","167005","","null","","","","offerFB","","<div class='trialBorder'><div class='vertical-center'><img style='vertical-align:center; align:center' src=img/fixation3.jpg></div><div class='cl'><div class='vertical-center'><font style='color:orange'>$26<br>for<br>sure</font></div></div><div class='cr'><div class='vertical-center'>$92<br>with a<br>50% chance</div></div><div class='respDivL'><div class='vertical-center'><font style='color:orange'>(E)</font></div></div><div class='respDivR'><div class='vertical-center'>(I)</div></div></div>","null","$26","$92","0","26","92",""
"html-keyboard-response","124","129923","0.0-5.0-1.40","63dd3dd2593c92be97d8dbde","bdp_rd","Mon Apr 10 2023 00:55:35 GMT-0700 (Pacific Daylight Time)","167005","","null","","","","FIX","","<div class='trialBorder'><div class='vertical-center'><img style='vertical-align:center; align:center' src=img/fixation3.jpg></div></div>","null","","","","","",""
"html-keyboard-response","125","130731","0.0-5.0-2.40","63dd3dd2593c92be97d8dbde","bdp_rd","Mon Apr 10 2023 00:55:35 GMT-0700 (Pacific Daylight Time)","167005","","807","","","","offer","","<div class='trialBorder'><div class='vertical-center'><img style='vertical-align:center; align:center' src=img/fixation3.jpg></div><div class='cl'><div class='vertical-center'>$43<br>with a<br>50% chance</div></div><div class='cr'><div class='vertical-center'>$17<br>for<br>sure</div></div><div class='respDivL'><div class='vertical-center'>(E)</div></div><div class='respDivR'><div class='vertical-center'>(I)</div></div></div>","I","$17","$43","1","17","43","SURE"
"html-keyboard-response","126","130983","0.0-5.0-3.40","63dd3dd2593c92be97d8dbde","bdp_rd","Mon Apr 10 2023 00:55:35 GMT-0700 (Pacific Daylight Time)","167005","","null","","","","offerFB","","<div class='trialBorder'><div class='vertical-center'><img style='vertical-align:center; align:center' src=img/fixation3.jpg></div><div class='cl'><div class='vertical-center'>$43<br>with a<br>50% chance</div></div><div class='cr'><div class='vertical-center'><font style='color:orange'>$17<br>for<br>sure</font></div></div><div class='respDivL'><div class='vertical-center'>(E)</div></div><div class='respDivR'><div class='vertical-center'><font style='color:orange'>(I)</font></div></div></div>","null","$17","$43","1","17","43",""
"html-keyboard-response","127","131485","0.0-5.0-1.41","63dd3dd2593c92be97d8dbde","bdp_rd","Mon Apr 10 2023 00:55:35 GMT-0700 (Pacific Daylight Time)","167005","","null","","","","FIX","","<div class='trialBorder'><div class='vertical-center'><img style='vertical-align:center; align:center' src=img/fixation3.jpg></div></div>","null","","","","","",""
"html-keyboard-response","128","132235","0.0-5.0-2.41","63dd3dd2593c92be97d8dbde","bdp_rd","Mon Apr 10 2023 00:55:35 GMT-0700 (Pacific Daylight Time)","167005","","750","","","","offer","","<div class='trialBorder'><div class='vertical-center'><img style='vertical-align:center; align:center' src=img/fixation3.jpg></div><div class='cl'><div class='vertical-center'>$12<br>for<br>sure</div></div><div class='cr'><div class='vertical-center'>$35<br>with a<br>50% chance</div></div><div class='respDivL'><div class='vertical-center'>(E)</div></div><div class='respDivR'><div class='vertical-center'>(I)</div></div></div>","E","$12","$35","0","12","35","SURE"
"html-keyboard-response","129","132486","0.0-5.0-3.41","63dd3dd2593c92be97d8dbde","bdp_rd","Mon Apr 10 2023 00:55:35 GMT-0700 (Pacific Daylight Time)","167005","","null","","","","offerFB","","<div class='trialBorder'><div class='vertical-center'><img style='vertical-align:center; align:center' src=img/fixation3.jpg></div><div class='cl'><div class='vertical-center'><font style='color:orange'>$12<br>for<br>sure</font></div></div><div class='cr'><div class='vertical-center'>$35<br>with a<br>50% chance</div></div><div class='respDivL'><div class='vertical-center'><font style='color:orange'>(E)</font></div></div><div class='respDivR'><div class='vertical-center'>(I)</div></div></div>","null","$12","$35","0","12","35",""
"html-keyboard-response","130","132988","0.0-5.0-1.42","63dd3dd2593c92be97d8dbde","bdp_rd","Mon Apr 10 2023 00:55:35 GMT-0700 (Pacific Daylight Time)","167005","","null","","","","FIX","","<div class='trialBorder'><div class='vertical-center'><img style='vertical-align:center; align:center' src=img/fixation3.jpg></div></div>","null","","","","","",""
"html-keyboard-response","131","133964","0.0-5.0-2.42","63dd3dd2593c92be97d8dbde","bdp_rd","Mon Apr 10 2023 00:55:35 GMT-0700 (Pacific Daylight Time)","167005","","975","","","","offer","","<div class='trialBorder'><div class='vertical-center'><img style='vertical-align:center; align:center' src=img/fixation3.jpg></div><div class='cl'><div class='vertical-center'>$19<br>with a<br>50% chance</div></div><div class='cr'><div class='vertical-center'>$10<br>for<br>sure</div></div><div class='respDivL'><div class='vertical-center'>(E)</div></div><div class='respDivR'><div class='vertical-center'>(I)</div></div></div>","I","$10","$19","1","10","19","SURE"
"html-keyboard-response","132","134215","0.0-5.0-3.42","63dd3dd2593c92be97d8dbde","bdp_rd","Mon Apr 10 2023 00:55:35 GMT-0700 (Pacific Daylight Time)","167005","","null","","","","offerFB","","<div class='trialBorder'><div class='vertical-center'><img style='vertical-align:center; align:center' src=img/fixation3.jpg></div><div class='cl'><div class='vertical-center'>$19<br>with a<br>50% chance</div></div><div class='cr'><div class='vertical-center'><font style='color:orange'>$10<br>for<br>sure</font></div></div><div class='respDivL'><div class='vertical-center'>(E)</div></div><div class='respDivR'><div class='vertical-center'><font style='color:orange'>(I)</font></div></div></div>","null","$10","$19","1","10","19",""
"html-keyboard-response","133","134715","0.0-5.0-1.43","63dd3dd2593c92be97d8dbde","bdp_rd","Mon Apr 10 2023 00:55:35 GMT-0700 (Pacific Daylight Time)","167005","","null","","","","FIX","","<div class='trialBorder'><div class='vertical-center'><img style='vertical-align:center; align:center' src=img/fixation3.jpg></div></div>","null","","","","","",""
"html-keyboard-response","134","135660","0.0-5.0-2.43","63dd3dd2593c92be97d8dbde","bdp_rd","Mon Apr 10 2023 00:55:35 GMT-0700 (Pacific Daylight Time)","167005","","944","","","","offer","","<div class='trialBorder'><div class='vertical-center'><img style='vertical-align:center; align:center' src=img/fixation3.jpg></div><div class='cl'><div class='vertical-center'>$18<br>with a<br>50% chance</div></div><div class='cr'><div class='vertical-center'>$9<br>for<br>sure</div></div><div class='respDivL'><div class='vertical-center'>(E)</div></div><div class='respDivR'><div class='vertical-center'>(I)</div></div></div>","I","$9","$18","1","9","18","SURE"
"html-keyboard-response","135","135911","0.0-5.0-3.43","63dd3dd2593c92be97d8dbde","bdp_rd","Mon Apr 10 2023 00:55:35 GMT-0700 (Pacific Daylight Time)","167005","","null","","","","offerFB","","<div class='trialBorder'><div class='vertical-center'><img style='vertical-align:center; align:center' src=img/fixation3.jpg></div><div class='cl'><div class='vertical-center'>$18<br>with a<br>50% chance</div></div><div class='cr'><div class='vertical-center'><font style='color:orange'>$9<br>for<br>sure</font></div></div><div class='respDivL'><div class='vertical-center'>(E)</div></div><div class='respDivR'><div class='vertical-center'><font style='color:orange'>(I)</font></div></div></div>","null","$9","$18","1","9","18",""
"html-keyboard-response","136","136412","0.0-5.0-1.44","63dd3dd2593c92be97d8dbde","bdp_rd","Mon Apr 10 2023 00:55:35 GMT-0700 (Pacific Daylight Time)","167005","","null","","","","FIX","","<div class='trialBorder'><div class='vertical-center'><img style='vertical-align:center; align:center' src=img/fixation3.jpg></div></div>","null","","","","","",""
"html-keyboard-response","137","137476","0.0-5.0-2.44","63dd3dd2593c92be97d8dbde","bdp_rd","Mon Apr 10 2023 00:55:35 GMT-0700 (Pacific Daylight Time)","167005","","1063","","","","offer","","<div class='trialBorder'><div class='vertical-center'><img style='vertical-align:center; align:center' src=img/fixation3.jpg></div><div class='cl'><div class='vertical-center'>$73<br>with a<br>50% chance</div></div><div class='cr'><div class='vertical-center'>$42<br>for<br>sure</div></div><div class='respDivL'><div class='vertical-center'>(E)</div></div><div class='respDivR'><div class='vertical-center'>(I)</div></div></div>","I","$42","$73","1","42","73","SURE"
"html-keyboard-response","138","137727","0.0-5.0-3.44","63dd3dd2593c92be97d8dbde","bdp_rd","Mon Apr 10 2023 00:55:35 GMT-0700 (Pacific Daylight Time)","167005","","null","","","","offerFB","","<div class='trialBorder'><div class='vertical-center'><img style='vertical-align:center; align:center' src=img/fixation3.jpg></div><div class='cl'><div class='vertical-center'>$73<br>with a<br>50% chance</div></div><div class='cr'><div class='vertical-center'><font style='color:orange'>$42<br>for<br>sure</font></div></div><div class='respDivL'><div class='vertical-center'>(E)</div></div><div class='respDivR'><div class='vertical-center'><font style='color:orange'>(I)</font></div></div></div>","null","$42","$73","1","42","73",""
"html-keyboard-response","139","138228","0.0-5.0-1.45","63dd3dd2593c92be97d8dbde","bdp_rd","Mon Apr 10 2023 00:55:35 GMT-0700 (Pacific Daylight Time)","167005","","null","","","","FIX","","<div class='trialBorder'><div class='vertical-center'><img style='vertical-align:center; align:center' src=img/fixation3.jpg></div></div>","null","","","","","",""
"html-keyboard-response","140","139405","0.0-5.0-2.45","63dd3dd2593c92be97d8dbde","bdp_rd","Mon Apr 10 2023 00:55:35 GMT-0700 (Pacific Daylight Time)","167005","","1176","","","","offer","","<div class='trialBorder'><div class='vertical-center'><img style='vertical-align:center; align:center' src=img/fixation3.jpg></div><div class='cl'><div class='vertical-center'>$54<br>with a<br>50% chance</div></div><div class='cr'><div class='vertical-center'>$25<br>for<br>sure</div></div><div class='respDivL'><div class='vertical-center'>(E)</div></div><div class='respDivR'><div class='vertical-center'>(I)</div></div></div>","I","$25","$54","1","25","54","SURE"
"html-keyboard-response","141","139656","0.0-5.0-3.45","63dd3dd2593c92be97d8dbde","bdp_rd","Mon Apr 10 2023 00:55:35 GMT-0700 (Pacific Daylight Time)","167005","","null","","","","offerFB","","<div class='trialBorder'><div class='vertical-center'><img style='vertical-align:center; align:center' src=img/fixation3.jpg></div><div class='cl'><div class='vertical-center'>$54<br>with a<br>50% chance</div></div><div class='cr'><div class='vertical-center'><font style='color:orange'>$25<br>for<br>sure</font></div></div><div class='respDivL'><div class='vertical-center'>(E)</div></div><div class='respDivR'><div class='vertical-center'><font style='color:orange'>(I)</font></div></div></div>","null","$25","$54","1","25","54",""
"html-keyboard-response","142","140157","0.0-5.0-1.46","63dd3dd2593c92be97d8dbde","bdp_rd","Mon Apr 10 2023 00:55:35 GMT-0700 (Pacific Daylight Time)","167005","","null","","","","FIX","","<div class='trialBorder'><div class='vertical-center'><img style='vertical-align:center; align:center' src=img/fixation3.jpg></div></div>","null","","","","","",""
"html-keyboard-response","143","141381","0.0-5.0-2.46","63dd3dd2593c92be97d8dbde","bdp_rd","Mon Apr 10 2023 00:55:35 GMT-0700 (Pacific Daylight Time)","167005","","1223","","","","offer","","<div class='trialBorder'><div class='vertical-center'><img style='vertical-align:center; align:center' src=img/fixation3.jpg></div><div class='cl'><div class='vertical-center'>$58<br>for<br>sure</div></div><div class='cr'><div class='vertical-center'>$69<br>with a<br>50% chance</div></div><div class='respDivL'><div class='vertical-center'>(E)</div></div><div class='respDivR'><div class='vertical-center'>(I)</div></div></div>","E","$58","$69","0","58","69","SURE"
"html-keyboard-response","144","141632","0.0-5.0-3.46","63dd3dd2593c92be97d8dbde","bdp_rd","Mon Apr 10 2023 00:55:35 GMT-0700 (Pacific Daylight Time)","167005","","null","","","","offerFB","","<div class='trialBorder'><div class='vertical-center'><img style='vertical-align:center; align:center' src=img/fixation3.jpg></div><div class='cl'><div class='vertical-center'><font style='color:orange'>$58<br>for<br>sure</font></div></div><div class='cr'><div class='vertical-center'>$69<br>with a<br>50% chance</div></div><div class='respDivL'><div class='vertical-center'><font style='color:orange'>(E)</font></div></div><div class='respDivR'><div class='vertical-center'>(I)</div></div></div>","null","$58","$69","0","58","69",""
"html-keyboard-response","145","142133","0.0-5.0-1.47","63dd3dd2593c92be97d8dbde","bdp_rd","Mon Apr 10 2023 00:55:35 GMT-0700 (Pacific Daylight Time)","167005","","null","","","","FIX","","<div class='trialBorder'><div class='vertical-center'><img style='vertical-align:center; align:center' src=img/fixation3.jpg></div></div>","null","","","","","",""
"html-keyboard-response","146","143229","0.0-5.0-2.47","63dd3dd2593c92be97d8dbde","bdp_rd","Mon Apr 10 2023 00:55:35 GMT-0700 (Pacific Daylight Time)","167005","","1095","","","","offer","","<div class='trialBorder'><div class='vertical-center'><img style='vertical-align:center; align:center' src=img/fixation3.jpg></div><div class='cl'><div class='vertical-center'>$48<br>with a<br>50% chance</div></div><div class='cr'><div class='vertical-center'>$34<br>for<br>sure</div></div><div class='respDivL'><div class='vertical-center'>(E)</div></div><div class='respDivR'><div class='vertical-center'>(I)</div></div></div>","I","$34","$48","1","34","48","SURE"
"html-keyboard-response","147","143481","0.0-5.0-3.47","63dd3dd2593c92be97d8dbde","bdp_rd","Mon Apr 10 2023 00:55:35 GMT-0700 (Pacific Daylight Time)","167005","","null","","","","offerFB","","<div class='trialBorder'><div class='vertical-center'><img style='vertical-align:center; align:center' src=img/fixation3.jpg></div><div class='cl'><div class='vertical-center'>$48<br>with a<br>50% chance</div></div><div class='cr'><div class='vertical-center'><font style='color:orange'>$34<br>for<br>sure</font></div></div><div class='respDivL'><div class='vertical-center'>(E)</div></div><div class='respDivR'><div class='vertical-center'><font style='color:orange'>(I)</font></div></div></div>","null","$34","$48","1","34","48",""
"html-keyboard-response","148","143982","0.0-5.0-1.48","63dd3dd2593c92be97d8dbde","bdp_rd","Mon Apr 10 2023 00:55:35 GMT-0700 (Pacific Daylight Time)","167005","","null","","","","FIX","","<div class='trialBorder'><div class='vertical-center'><img style='vertical-align:center; align:center' src=img/fixation3.jpg></div></div>","null","","","","","",""
"html-keyboard-response","149","145397","0.0-5.0-2.48","63dd3dd2593c92be97d8dbde","bdp_rd","Mon Apr 10 2023 00:55:35 GMT-0700 (Pacific Daylight Time)","167005","","1414","","","","offer","","<div class='trialBorder'><div class='vertical-center'><img style='vertical-align:center; align:center' src=img/fixation3.jpg></div><div class='cl'><div class='vertical-center'>$12<br>with a<br>50% chance</div></div><div class='cr'><div class='vertical-center'>$3<br>for<br>sure</div></div><div class='respDivL'><div class='vertical-center'>(E)</div></div><div class='respDivR'><div class='vertical-center'>(I)</div></div></div>","I","$3","$12","1","3","12","SURE"
"html-keyboard-response","150","145648","0.0-5.0-3.48","63dd3dd2593c92be97d8dbde","bdp_rd","Mon Apr 10 2023 00:55:35 GMT-0700 (Pacific Daylight Time)","167005","","null","","","","offerFB","","<div class='trialBorder'><div class='vertical-center'><img style='vertical-align:center; align:center' src=img/fixation3.jpg></div><div class='cl'><div class='vertical-center'>$12<br>with a<br>50% chance</div></div><div class='cr'><div class='vertical-center'><font style='color:orange'>$3<br>for<br>sure</font></div></div><div class='respDivL'><div class='vertical-center'>(E)</div></div><div class='respDivR'><div class='vertical-center'><font style='color:orange'>(I)</font></div></div></div>","null","$3","$12","1","3","12",""
"html-keyboard-response","151","146150","0.0-5.0-1.49","63dd3dd2593c92be97d8dbde","bdp_rd","Mon Apr 10 2023 00:55:35 GMT-0700 (Pacific Daylight Time)","167005","","null","","","","FIX","","<div class='trialBorder'><div class='vertical-center'><img style='vertical-align:center; align:center' src=img/fixation3.jpg></div></div>","null","","","","","",""
"html-keyboard-response","152","147237","0.0-5.0-2.49","63dd3dd2593c92be97d8dbde","bdp_rd","Mon Apr 10 2023 00:55:35 GMT-0700 (Pacific Daylight Time)","167005","","1086","","","","offer","","<div class='trialBorder'><div class='vertical-center'><img style='vertical-align:center; align:center' src=img/fixation3.jpg></div><div class='cl'><div class='vertical-center'>$8<br>for<br>sure</div></div><div class='cr'><div class='vertical-center'>$45<br>with a<br>50% chance</div></div><div class='respDivL'><div class='vertical-center'>(E)</div></div><div class='respDivR'><div class='vertical-center'>(I)</div></div></div>","E","$8","$45","0","8","45","SURE"
"html-keyboard-response","153","147489","0.0-5.0-3.49","63dd3dd2593c92be97d8dbde","bdp_rd","Mon Apr 10 2023 00:55:35 GMT-0700 (Pacific Daylight Time)","167005","","null","","","","offerFB","","<div class='trialBorder'><div class='vertical-center'><img style='vertical-align:center; align:center' src=img/fixation3.jpg></div><div class='cl'><div class='vertical-center'><font style='color:orange'>$8<br>for<br>sure</font></div></div><div class='cr'><div class='vertical-center'>$45<br>with a<br>50% chance</div></div><div class='respDivL'><div class='vertical-center'><font style='color:orange'>(E)</font></div></div><div class='respDivR'><div class='vertical-center'>(I)</div></div></div>","null","$8","$45","0","8","45",""
"html-keyboard-response","154","147990","0.0-5.0-1.50","63dd3dd2593c92be97d8dbde","bdp_rd","Mon Apr 10 2023 00:55:35 GMT-0700 (Pacific Daylight Time)","167005","","null","","","","FIX","","<div class='trialBorder'><div class='vertical-center'><img style='vertical-align:center; align:center' src=img/fixation3.jpg></div></div>","null","","","","","",""
"html-keyboard-response","155","149166","0.0-5.0-2.50","63dd3dd2593c92be97d8dbde","bdp_rd","Mon Apr 10 2023 00:55:35 GMT-0700 (Pacific Daylight Time)","167005","","1175","","","","offer","","<div class='trialBorder'><div class='vertical-center'><img style='vertical-align:center; align:center' src=img/fixation3.jpg></div><div class='cl'><div class='vertical-center'>$9<br>for<br>sure</div></div><div class='cr'><div class='vertical-center'>$32<br>with a<br>50% chance</div></div><div class='respDivL'><div class='vertical-center'>(E)</div></div><div class='respDivR'><div class='vertical-center'>(I)</div></div></div>","E","$9","$32","0","9","32","SURE"
"html-keyboard-response","156","149416","0.0-5.0-3.50","63dd3dd2593c92be97d8dbde","bdp_rd","Mon Apr 10 2023 00:55:35 GMT-0700 (Pacific Daylight Time)","167005","","null","","","","offerFB","","<div class='trialBorder'><div class='vertical-center'><img style='vertical-align:center; align:center' src=img/fixation3.jpg></div><div class='cl'><div class='vertical-center'><font style='color:orange'>$9<br>for<br>sure</font></div></div><div class='cr'><div class='vertical-center'>$32<br>with a<br>50% chance</div></div><div class='respDivL'><div class='vertical-center'><font style='color:orange'>(E)</font></div></div><div class='respDivR'><div class='vertical-center'>(I)</div></div></div>","null","$9","$32","0","9","32",""
"html-keyboard-response","157","149918","0.0-5.0-1.51","63dd3dd2593c92be97d8dbde","bdp_rd","Mon Apr 10 2023 00:55:35 GMT-0700 (Pacific Daylight Time)","167005","","null","","","","FIX","","<div class='trialBorder'><div class='vertical-center'><img style='vertical-align:center; align:center' src=img/fixation3.jpg></div></div>","null","","","","","",""
"html-keyboard-response","158","150590","0.0-5.0-2.51","63dd3dd2593c92be97d8dbde","bdp_rd","Mon Apr 10 2023 00:55:35 GMT-0700 (Pacific Daylight Time)","167005","","671","","","","offer","","<div class='trialBorder'><div class='vertical-center'><img style='vertical-align:center; align:center' src=img/fixation3.jpg></div><div class='cl'><div class='vertical-center'>$23<br>with a<br>50% chance</div></div><div class='cr'><div class='vertical-center'>$8<br>for<br>sure</div></div><div class='respDivL'><div class='vertical-center'>(E)</div></div><div class='respDivR'><div class='vertical-center'>(I)</div></div></div>","I","$8","$23","1","8","23","SURE"
"html-keyboard-response","159","150842","0.0-5.0-3.51","63dd3dd2593c92be97d8dbde","bdp_rd","Mon Apr 10 2023 00:55:35 GMT-0700 (Pacific Daylight Time)","167005","","null","","","","offerFB","","<div class='trialBorder'><div class='vertical-center'><img style='vertical-align:center; align:center' src=img/fixation3.jpg></div><div class='cl'><div class='vertical-center'>$23<br>with a<br>50% chance</div></div><div class='cr'><div class='vertical-center'><font style='color:orange'>$8<br>for<br>sure</font></div></div><div class='respDivL'><div class='vertical-center'>(E)</div></div><div class='respDivR'><div class='vertical-center'><font style='color:orange'>(I)</font></div></div></div>","null","$8","$23","1","8","23",""
"html-keyboard-response","160","151343","0.0-5.0-1.52","63dd3dd2593c92be97d8dbde","bdp_rd","Mon Apr 10 2023 00:55:35 GMT-0700 (Pacific Daylight Time)","167005","","null","","","","FIX","","<div class='trialBorder'><div class='vertical-center'><img style='vertical-align:center; align:center' src=img/fixation3.jpg></div></div>","null","","","","","",""
"html-keyboard-response","161","152462","0.0-5.0-2.52","63dd3dd2593c92be97d8dbde","bdp_rd","Mon Apr 10 2023 00:55:35 GMT-0700 (Pacific Daylight Time)","167005","","1118","","","","offer","","<div class='trialBorder'><div class='vertical-center'><img style='vertical-align:center; align:center' src=img/fixation3.jpg></div><div class='cl'><div class='vertical-center'>$4<br>for<br>sure</div></div><div class='cr'><div class='vertical-center'>$14<br>with a<br>50% chance</div></div><div class='respDivL'><div class='vertical-center'>(E)</div></div><div class='respDivR'><div class='vertical-center'>(I)</div></div></div>","E","$4","$14","0","4","14","SURE"
"html-keyboard-response","162","152713","0.0-5.0-3.52","63dd3dd2593c92be97d8dbde","bdp_rd","Mon Apr 10 2023 00:55:35 GMT-0700 (Pacific Daylight Time)","167005","","null","","","","offerFB","","<div class='trialBorder'><div class='vertical-center'><img style='vertical-align:center; align:center' src=img/fixation3.jpg></div><div class='cl'><div class='vertical-center'><font style='color:orange'>$4<br>for<br>sure</font></div></div><div class='cr'><div class='vertical-center'>$14<br>with a<br>50% chance</div></div><div class='respDivL'><div class='vertical-center'><font style='color:orange'>(E)</font></div></div><div class='respDivR'><div class='vertical-center'>(I)</div></div></div>","null","$4","$14","0","4","14",""
"html-keyboard-response","163","153215","0.0-5.0-1.53","63dd3dd2593c92be97d8dbde","bdp_rd","Mon Apr 10 2023 00:55:35 GMT-0700 (Pacific Daylight Time)","167005","","null","","","","FIX","","<div class='trialBorder'><div class='vertical-center'><img style='vertical-align:center; align:center' src=img/fixation3.jpg></div></div>","null","","","","","",""
"html-keyboard-response","164","154302","0.0-5.0-2.53","63dd3dd2593c92be97d8dbde","bdp_rd","Mon Apr 10 2023 00:55:35 GMT-0700 (Pacific Daylight Time)","167005","","1086","","","","offer","","<div class='trialBorder'><div class='vertical-center'><img style='vertical-align:center; align:center' src=img/fixation3.jpg></div><div class='cl'><div class='vertical-center'>$68<br>with a<br>50% chance</div></div><div class='cr'><div class='vertical-center'>$30<br>for<br>sure</div></div><div class='respDivL'><div class='vertical-center'>(E)</div></div><div class='respDivR'><div class='vertical-center'>(I)</div></div></div>","I","$30","$68","1","30","68","SURE"
"html-keyboard-response","165","154554","0.0-5.0-3.53","63dd3dd2593c92be97d8dbde","bdp_rd","Mon Apr 10 2023 00:55:35 GMT-0700 (Pacific Daylight Time)","167005","","null","","","","offerFB","","<div class='trialBorder'><div class='vertical-center'><img style='vertical-align:center; align:center' src=img/fixation3.jpg></div><div class='cl'><div class='vertical-center'>$68<br>with a<br>50% chance</div></div><div class='cr'><div class='vertical-center'><font style='color:orange'>$30<br>for<br>sure</font></div></div><div class='respDivL'><div class='vertical-center'>(E)</div></div><div class='respDivR'><div class='vertical-center'><font style='color:orange'>(I)</font></div></div></div>","null","$30","$68","1","30","68",""
"html-keyboard-response","166","155056","0.0-5.0-1.54","63dd3dd2593c92be97d8dbde","bdp_rd","Mon Apr 10 2023 00:55:35 GMT-0700 (Pacific Daylight Time)","167005","","null","","","","FIX","","<div class='trialBorder'><div class='vertical-center'><img style='vertical-align:center; align:center' src=img/fixation3.jpg></div></div>","null","","","","","",""
"html-keyboard-response","167","156367","0.0-5.0-2.54","63dd3dd2593c92be97d8dbde","bdp_rd","Mon Apr 10 2023 00:55:35 GMT-0700 (Pacific Daylight Time)","167005","","1311","","","","offer","","<div class='trialBorder'><div class='vertical-center'><img style='vertical-align:center; align:center' src=img/fixation3.jpg></div><div class='cl'><div class='vertical-center'>$26<br>with a<br>50% chance</div></div><div class='cr'><div class='vertical-center'>$11<br>for<br>sure</div></div><div class='respDivL'><div class='vertical-center'>(E)</div></div><div class='respDivR'><div class='vertical-center'>(I)</div></div></div>","I","$11","$26","1","11","26","SURE"
"html-keyboard-response","168","156617","0.0-5.0-3.54","63dd3dd2593c92be97d8dbde","bdp_rd","Mon Apr 10 2023 00:55:35 GMT-0700 (Pacific Daylight Time)","167005","","null","","","","offerFB","","<div class='trialBorder'><div class='vertical-center'><img style='vertical-align:center; align:center' src=img/fixation3.jpg></div><div class='cl'><div class='vertical-center'>$26<br>with a<br>50% chance</div></div><div class='cr'><div class='vertical-center'><font style='color:orange'>$11<br>for<br>sure</font></div></div><div class='respDivL'><div class='vertical-center'>(E)</div></div><div class='respDivR'><div class='vertical-center'><font style='color:orange'>(I)</font></div></div></div>","null","$11","$26","1","11","26",""
"html-keyboard-response","169","157119","0.0-5.0-1.55","63dd3dd2593c92be97d8dbde","bdp_rd","Mon Apr 10 2023 00:55:35 GMT-0700 (Pacific Daylight Time)","167005","","null","","","","FIX","","<div class='trialBorder'><div class='vertical-center'><img style='vertical-align:center; align:center' src=img/fixation3.jpg></div></div>","null","","","","","",""
"html-keyboard-response","170","158719","0.0-5.0-2.55","63dd3dd2593c92be97d8dbde","bdp_rd","Mon Apr 10 2023 00:55:35 GMT-0700 (Pacific Daylight Time)","167005","","1600","","","","offer","","<div class='trialBorder'><div class='vertical-center'><img style='vertical-align:center; align:center' src=img/fixation3.jpg></div><div class='cl'><div class='vertical-center'>$40<br>with a<br>50% chance</div></div><div class='cr'><div class='vertical-center'>$10<br>for<br>sure</div></div><div class='respDivL'><div class='vertical-center'>(E)</div></div><div class='respDivR'><div class='vertical-center'>(I)</div></div></div>","I","$10","$40","1","10","40","SURE"
"html-keyboard-response","171","158971","0.0-5.0-3.55","63dd3dd2593c92be97d8dbde","bdp_rd","Mon Apr 10 2023 00:55:35 GMT-0700 (Pacific Daylight Time)","167005","","null","","","","offerFB","","<div class='trialBorder'><div class='vertical-center'><img style='vertical-align:center; align:center' src=img/fixation3.jpg></div><div class='cl'><div class='vertical-center'>$40<br>with a<br>50% chance</div></div><div class='cr'><div class='vertical-center'><font style='color:orange'>$10<br>for<br>sure</font></div></div><div class='respDivL'><div class='vertical-center'>(E)</div></div><div class='respDivR'><div class='vertical-center'><font style='color:orange'>(I)</font></div></div></div>","null","$10","$40","1","10","40",""
"html-keyboard-response","172","159472","0.0-5.0-1.56","63dd3dd2593c92be97d8dbde","bdp_rd","Mon Apr 10 2023 00:55:35 GMT-0700 (Pacific Daylight Time)","167005","","null","","","","FIX","","<div class='trialBorder'><div class='vertical-center'><img style='vertical-align:center; align:center' src=img/fixation3.jpg></div></div>","null","","","","","",""
"html-keyboard-response","173","160383","0.0-5.0-2.56","63dd3dd2593c92be97d8dbde","bdp_rd","Mon Apr 10 2023 00:55:35 GMT-0700 (Pacific Daylight Time)","167005","","910","","","","offer","","<div class='trialBorder'><div class='vertical-center'><img style='vertical-align:center; align:center' src=img/fixation3.jpg></div><div class='cl'><div class='vertical-center'>$28<br>for<br>sure</div></div><div class='cr'><div class='vertical-center'>$89<br>with a<br>50% chance</div></div><div class='respDivL'><div class='vertical-center'>(E)</div></div><div class='respDivR'><div class='vertical-center'>(I)</div></div></div>","E","$28","$89","0","28","89","SURE"
