"trial_type","trial_index","time_elapsed","internal_node_id","subject_id","task","startTime","totalTime","view_history","rt","event","trial","time","trialtype","success","stimulus","key_press","sureOffer","riskyOffer","riskyLeft","sureAmt","riskyAmt","chosen"
"pavlovia","0","11","0.0-0.0","58016c9f551314000145af58","bdp_rd","Fri Mar 24 2023 19:44:03 GMT-0400 (Eastern Daylight Time)","231502","","","","","","","","","","","","","","",""
"instructions","1","1954","0.0-1.0","58016c9f551314000145af58","bdp_rd","Fri Mar 24 2023 19:44:03 GMT-0400 (Eastern Daylight Time)","231502","[{""page_index"":0,""viewing_time"":1941}]","1942","","","","","","","","","","","","",""
"","","","","58016c9f551314000145af58","bdp_rd","Fri Mar 24 2023 19:44:03 GMT-0400 (Eastern Daylight Time)","231502","","","fullscreenenter","2","3924","fullscreenenter","","","","","","","","",""
"fullscreen","2","4873","0.0-2.0","58016c9f551314000145af58","bdp_rd","Fri Mar 24 2023 19:44:03 GMT-0400 (Eastern Daylight Time)","231502","","","","","","","true","","","","","","","",""
"instructions","3","35179","0.0-4.0","58016c9f551314000145af58","bdp_rd","Fri Mar 24 2023 19:44:03 GMT-0400 (Eastern Daylight Time)","231502","[{""page_index"":0,""viewing_time"":17984},{""page_index"":1,""viewing_time"":7276},{""page_index"":2,""viewing_time"":5043}]","30304","","","","","","","","","","","","",""
"html-keyboard-response","4","35682","0.0-5.0-1.0","58016c9f551314000145af58","bdp_rd","Fri Mar 24 2023 19:44:03 GMT-0400 (Eastern Daylight Time)","231502","","null","","","","FIX","","<div class='trialBorder'><div class='vertical-center'><img style='vertical-align:center; align:center' src=img/fixation3.jpg></div></div>","null","","","","","",""
"html-keyboard-response","5","39224","0.0-5.0-2.0","58016c9f551314000145af58","bdp_rd","Fri Mar 24 2023 19:44:03 GMT-0400 (Eastern Daylight Time)","231502","","3539","","","","offer","","<div class='trialBorder'><div class='vertical-center'><img style='vertical-align:center; align:center' src=img/fixation3.jpg></div><div class='cl'><div class='vertical-center'>$36<br>with a<br>50% chance</div></div><div class='cr'><div class='vertical-center'>$18<br>for<br>sure</div></div><div class='respDivL'><div class='vertical-center'>(E)</div></div><div class='respDivR'><div class='vertical-center'>(I)</div></div></div>","E","$18","$36","1","18","36","RISKY"
"html-keyboard-response","6","39482","0.0-5.0-3.0","58016c9f551314000145af58","bdp_rd","Fri Mar 24 2023 19:44:03 GMT-0400 (Eastern Daylight Time)","231502","","null","","","","offerFB","","<div class='trialBorder'><div class='vertical-center'><img style='vertical-align:center; align:center' src=img/fixation3.jpg></div><div class='cl'><div class='vertical-center'><font style='color:orange'>$36<br>with a<br>50% chance</font></div></div><div class='cr'><div class='vertical-center'>$18<br>for<br>sure</div></div><div class='respDivL'><div class='vertical-center'><font style='color:orange'>(E)</font></div></div><div class='respDivR'><div class='vertical-center'>(I)</div></div></div>","null","$18","$36","1","18","36",""
"html-keyboard-response","7","39985","0.0-5.0-1.1","58016c9f551314000145af58","bdp_rd","Fri Mar 24 2023 19:44:03 GMT-0400 (Eastern Daylight Time)","231502","","null","","","","FIX","","<div class='trialBorder'><div class='vertical-center'><img style='vertical-align:center; align:center' src=img/fixation3.jpg></div></div>","null","","","","","",""
"html-keyboard-response","8","41991","0.0-5.0-2.1","58016c9f551314000145af58","bdp_rd","Fri Mar 24 2023 19:44:03 GMT-0400 (Eastern Daylight Time)","231502","","2005","","","","offer","","<div class='trialBorder'><div class='vertical-center'><img style='vertical-align:center; align:center' src=img/fixation3.jpg></div><div class='cl'><div class='vertical-center'>$14<br>with a<br>50% chance</div></div><div class='cr'><div class='vertical-center'>$4<br>for<br>sure</div></div><div class='respDivL'><div class='vertical-center'>(E)</div></div><div class='respDivR'><div class='vertical-center'>(I)</div></div></div>","E","$4","$14","1","4","14","RISKY"
"html-keyboard-response","9","42250","0.0-5.0-3.1","58016c9f551314000145af58","bdp_rd","Fri Mar 24 2023 19:44:03 GMT-0400 (Eastern Daylight Time)","231502","","null","","","","offerFB","","<div class='trialBorder'><div class='vertical-center'><img style='vertical-align:center; align:center' src=img/fixation3.jpg></div><div class='cl'><div class='vertical-center'><font style='color:orange'>$14<br>with a<br>50% chance</font></div></div><div class='cr'><div class='vertical-center'>$4<br>for<br>sure</div></div><div class='respDivL'><div class='vertical-center'><font style='color:orange'>(E)</font></div></div><div class='respDivR'><div class='vertical-center'>(I)</div></div></div>","null","$4","$14","1","4","14",""
"html-keyboard-response","10","42753","0.0-5.0-1.2","58016c9f551314000145af58","bdp_rd","Fri Mar 24 2023 19:44:03 GMT-0400 (Eastern Daylight Time)","231502","","null","","","","FIX","","<div class='trialBorder'><div class='vertical-center'><img style='vertical-align:center; align:center' src=img/fixation3.jpg></div></div>","null","","","","","",""
"html-keyboard-response","11","45151","0.0-5.0-2.2","58016c9f551314000145af58","bdp_rd","Fri Mar 24 2023 19:44:03 GMT-0400 (Eastern Daylight Time)","231502","","2397","","","","offer","","<div class='trialBorder'><div class='vertical-center'><img style='vertical-align:center; align:center' src=img/fixation3.jpg></div><div class='cl'><div class='vertical-center'>$43<br>with a<br>50% chance</div></div><div class='cr'><div class='vertical-center'>$17<br>for<br>sure</div></div><div class='respDivL'><div class='vertical-center'>(E)</div></div><div class='respDivR'><div class='vertical-center'>(I)</div></div></div>","E","$17","$43","1","17","43","RISKY"
"html-keyboard-response","12","45410","0.0-5.0-3.2","58016c9f551314000145af58","bdp_rd","Fri Mar 24 2023 19:44:03 GMT-0400 (Eastern Daylight Time)","231502","","null","","","","offerFB","","<div class='trialBorder'><div class='vertical-center'><img style='vertical-align:center; align:center' src=img/fixation3.jpg></div><div class='cl'><div class='vertical-center'><font style='color:orange'>$43<br>with a<br>50% chance</font></div></div><div class='cr'><div class='vertical-center'>$17<br>for<br>sure</div></div><div class='respDivL'><div class='vertical-center'><font style='color:orange'>(E)</font></div></div><div class='respDivR'><div class='vertical-center'>(I)</div></div></div>","null","$17","$43","1","17","43",""
"html-keyboard-response","13","45913","0.0-5.0-1.3","58016c9f551314000145af58","bdp_rd","Fri Mar 24 2023 19:44:03 GMT-0400 (Eastern Daylight Time)","231502","","null","","","","FIX","","<div class='trialBorder'><div class='vertical-center'><img style='vertical-align:center; align:center' src=img/fixation3.jpg></div></div>","null","","","","","",""
"html-keyboard-response","14","48275","0.0-5.0-2.3","58016c9f551314000145af58","bdp_rd","Fri Mar 24 2023 19:44:03 GMT-0400 (Eastern Daylight Time)","231502","","2360","","","","offer","","<div class='trialBorder'><div class='vertical-center'><img style='vertical-align:center; align:center' src=img/fixation3.jpg></div><div class='cl'><div class='vertical-center'>$13<br>for<br>sure</div></div><div class='cr'><div class='vertical-center'>$41<br>with a<br>50% chance</div></div><div class='respDivL'><div class='vertical-center'>(E)</div></div><div class='respDivR'><div class='vertical-center'>(I)</div></div></div>","I","$13","$41","0","13","41","RISKY"
"html-keyboard-response","15","48529","0.0-5.0-3.3","58016c9f551314000145af58","bdp_rd","Fri Mar 24 2023 19:44:03 GMT-0400 (Eastern Daylight Time)","231502","","null","","","","offerFB","","<div class='trialBorder'><div class='vertical-center'><img style='vertical-align:center; align:center' src=img/fixation3.jpg></div><div class='cl'><div class='vertical-center'>$13<br>for<br>sure</div></div><div class='cr'><div class='vertical-center'><font style='color:orange'>$41<br>with a<br>50% chance</font></div></div><div class='respDivL'><div class='vertical-center'>(E)</div></div><div class='respDivR'><div class='vertical-center'><font style='color:orange'>(I)</font></div></div></div>","null","$13","$41","0","13","41",""
"html-keyboard-response","16","49033","0.0-5.0-1.4","58016c9f551314000145af58","bdp_rd","Fri Mar 24 2023 19:44:03 GMT-0400 (Eastern Daylight Time)","231502","","null","","","","FIX","","<div class='trialBorder'><div class='vertical-center'><img style='vertical-align:center; align:center' src=img/fixation3.jpg></div></div>","null","","","","","",""
"html-keyboard-response","17","51167","0.0-5.0-2.4","58016c9f551314000145af58","bdp_rd","Fri Mar 24 2023 19:44:03 GMT-0400 (Eastern Daylight Time)","231502","","2133","","","","offer","","<div class='trialBorder'><div class='vertical-center'><img style='vertical-align:center; align:center' src=img/fixation3.jpg></div><div class='cl'><div class='vertical-center'>$3<br>for<br>sure</div></div><div class='cr'><div class='vertical-center'>$12<br>with a<br>50% chance</div></div><div class='respDivL'><div class='vertical-center'>(E)</div></div><div class='respDivR'><div class='vertical-center'>(I)</div></div></div>","I","$3","$12","0","3","12","RISKY"
"html-keyboard-response","18","51425","0.0-5.0-3.4","58016c9f551314000145af58","bdp_rd","Fri Mar 24 2023 19:44:03 GMT-0400 (Eastern Daylight Time)","231502","","null","","","","offerFB","","<div class='trialBorder'><div class='vertical-center'><img style='vertical-align:center; align:center' src=img/fixation3.jpg></div><div class='cl'><div class='vertical-center'>$3<br>for<br>sure</div></div><div class='cr'><div class='vertical-center'><font style='color:orange'>$12<br>with a<br>50% chance</font></div></div><div class='respDivL'><div class='vertical-center'>(E)</div></div><div class='respDivR'><div class='vertical-center'><font style='color:orange'>(I)</font></div></div></div>","null","$3","$12","0","3","12",""
"html-keyboard-response","19","51929","0.0-5.0-1.5","58016c9f551314000145af58","bdp_rd","Fri Mar 24 2023 19:44:03 GMT-0400 (Eastern Daylight Time)","231502","","null","","","","FIX","","<div class='trialBorder'><div class='vertical-center'><img style='vertical-align:center; align:center' src=img/fixation3.jpg></div></div>","null","","","","","",""
"html-keyboard-response","20","55135","0.0-5.0-2.5","58016c9f551314000145af58","bdp_rd","Fri Mar 24 2023 19:44:03 GMT-0400 (Eastern Daylight Time)","231502","","3205","","","","offer","","<div class='trialBorder'><div class='vertical-center'><img style='vertical-align:center; align:center' src=img/fixation3.jpg></div><div class='cl'><div class='vertical-center'>$95<br>with a<br>50% chance</div></div><div class='cr'><div class='vertical-center'>$40<br>for<br>sure</div></div><div class='respDivL'><div class='vertical-center'>(E)</div></div><div class='respDivR'><div class='vertical-center'>(I)</div></div></div>","I","$40","$95","1","40","95","SURE"
"html-keyboard-response","21","55393","0.0-5.0-3.5","58016c9f551314000145af58","bdp_rd","Fri Mar 24 2023 19:44:03 GMT-0400 (Eastern Daylight Time)","231502","","null","","","","offerFB","","<div class='trialBorder'><div class='vertical-center'><img style='vertical-align:center; align:center' src=img/fixation3.jpg></div><div class='cl'><div class='vertical-center'>$95<br>with a<br>50% chance</div></div><div class='cr'><div class='vertical-center'><font style='color:orange'>$40<br>for<br>sure</font></div></div><div class='respDivL'><div class='vertical-center'>(E)</div></div><div class='respDivR'><div class='vertical-center'><font style='color:orange'>(I)</font></div></div></div>","null","$40","$95","1","40","95",""
"html-keyboard-response","22","55897","0.0-5.0-1.6","58016c9f551314000145af58","bdp_rd","Fri Mar 24 2023 19:44:03 GMT-0400 (Eastern Daylight Time)","231502","","null","","","","FIX","","<div class='trialBorder'><div class='vertical-center'><img style='vertical-align:center; align:center' src=img/fixation3.jpg></div></div>","null","","","","","",""
"html-keyboard-response","23","58209","0.0-5.0-2.6","58016c9f551314000145af58","bdp_rd","Fri Mar 24 2023 19:44:03 GMT-0400 (Eastern Daylight Time)","231502","","2311","","","","offer","","<div class='trialBorder'><div class='vertical-center'><img style='vertical-align:center; align:center' src=img/fixation3.jpg></div><div class='cl'><div class='vertical-center'>$27<br>for<br>sure</div></div><div class='cr'><div class='vertical-center'>$47<br>with a<br>50% chance</div></div><div class='respDivL'><div class='vertical-center'>(E)</div></div><div class='respDivR'><div class='vertical-center'>(I)</div></div></div>","I","$27","$47","0","27","47","RISKY"
"html-keyboard-response","24","58467","0.0-5.0-3.6","58016c9f551314000145af58","bdp_rd","Fri Mar 24 2023 19:44:03 GMT-0400 (Eastern Daylight Time)","231502","","null","","","","offerFB","","<div class='trialBorder'><div class='vertical-center'><img style='vertical-align:center; align:center' src=img/fixation3.jpg></div><div class='cl'><div class='vertical-center'>$27<br>for<br>sure</div></div><div class='cr'><div class='vertical-center'><font style='color:orange'>$47<br>with a<br>50% chance</font></div></div><div class='respDivL'><div class='vertical-center'>(E)</div></div><div class='respDivR'><div class='vertical-center'><font style='color:orange'>(I)</font></div></div></div>","null","$27","$47","0","27","47",""
"html-keyboard-response","25","58971","0.0-5.0-1.7","58016c9f551314000145af58","bdp_rd","Fri Mar 24 2023 19:44:03 GMT-0400 (Eastern Daylight Time)","231502","","null","","","","FIX","","<div class='trialBorder'><div class='vertical-center'><img style='vertical-align:center; align:center' src=img/fixation3.jpg></div></div>","null","","","","","",""
"html-keyboard-response","26","61444","0.0-5.0-2.7","58016c9f551314000145af58","bdp_rd","Fri Mar 24 2023 19:44:03 GMT-0400 (Eastern Daylight Time)","231502","","2471","","","","offer","","<div class='trialBorder'><div class='vertical-center'><img style='vertical-align:center; align:center' src=img/fixation3.jpg></div><div class='cl'><div class='vertical-center'>$69<br>with a<br>50% chance</div></div><div class='cr'><div class='vertical-center'>$58<br>for<br>sure</div></div><div class='respDivL'><div class='vertical-center'>(E)</div></div><div class='respDivR'><div class='vertical-center'>(I)</div></div></div>","E","$58","$69","1","58","69","RISKY"
"html-keyboard-response","27","61699","0.0-5.0-3.7","58016c9f551314000145af58","bdp_rd","Fri Mar 24 2023 19:44:03 GMT-0400 (Eastern Daylight Time)","231502","","null","","","","offerFB","","<div class='trialBorder'><div class='vertical-center'><img style='vertical-align:center; align:center' src=img/fixation3.jpg></div><div class='cl'><div class='vertical-center'><font style='color:orange'>$69<br>with a<br>50% chance</font></div></div><div class='cr'><div class='vertical-center'>$58<br>for<br>sure</div></div><div class='respDivL'><div class='vertical-center'><font style='color:orange'>(E)</font></div></div><div class='respDivR'><div class='vertical-center'>(I)</div></div></div>","null","$58","$69","1","58","69",""
"html-keyboard-response","28","62203","0.0-5.0-1.8","58016c9f551314000145af58","bdp_rd","Fri Mar 24 2023 19:44:03 GMT-0400 (Eastern Daylight Time)","231502","","null","","","","FIX","","<div class='trialBorder'><div class='vertical-center'><img style='vertical-align:center; align:center' src=img/fixation3.jpg></div></div>","null","","","","","",""
"html-keyboard-response","29","64633","0.0-5.0-2.8","58016c9f551314000145af58","bdp_rd","Fri Mar 24 2023 19:44:03 GMT-0400 (Eastern Daylight Time)","231502","","2429","","","","offer","","<div class='trialBorder'><div class='vertical-center'><img style='vertical-align:center; align:center' src=img/fixation3.jpg></div><div class='cl'><div class='vertical-center'>$37<br>for<br>sure</div></div><div class='cr'><div class='vertical-center'>$44<br>with a<br>50% chance</div></div><div class='respDivL'><div class='vertical-center'>(E)</div></div><div class='respDivR'><div class='vertical-center'>(I)</div></div></div>","E","$37","$44","0","37","44","SURE"
"html-keyboard-response","30","64891","0.0-5.0-3.8","58016c9f551314000145af58","bdp_rd","Fri Mar 24 2023 19:44:03 GMT-0400 (Eastern Daylight Time)","231502","","null","","","","offerFB","","<div class='trialBorder'><div class='vertical-center'><img style='vertical-align:center; align:center' src=img/fixation3.jpg></div><div class='cl'><div class='vertical-center'><font style='color:orange'>$37<br>for<br>sure</font></div></div><div class='cr'><div class='vertical-center'>$44<br>with a<br>50% chance</div></div><div class='respDivL'><div class='vertical-center'><font style='color:orange'>(E)</font></div></div><div class='respDivR'><div class='vertical-center'>(I)</div></div></div>","null","$37","$44","0","37","44",""
"html-keyboard-response","31","65395","0.0-5.0-1.9","58016c9f551314000145af58","bdp_rd","Fri Mar 24 2023 19:44:03 GMT-0400 (Eastern Daylight Time)","231502","","null","","","","FIX","","<div class='trialBorder'><div class='vertical-center'><img style='vertical-align:center; align:center' src=img/fixation3.jpg></div></div>","null","","","","","",""
"html-keyboard-response","32","67713","0.0-5.0-2.9","58016c9f551314000145af58","bdp_rd","Fri Mar 24 2023 19:44:03 GMT-0400 (Eastern Daylight Time)","231502","","2317","","","","offer","","<div class='trialBorder'><div class='vertical-center'><img style='vertical-align:center; align:center' src=img/fixation3.jpg></div><div class='cl'><div class='vertical-center'>$1<br>for<br>sure</div></div><div class='cr'><div class='vertical-center'>$30<br>with a<br>50% chance</div></div><div class='respDivL'><div class='vertical-center'>(E)</div></div><div class='respDivR'><div class='vertical-center'>(I)</div></div></div>","I","$1","$30","0","1","30","RISKY"
"html-keyboard-response","33","67972","0.0-5.0-3.9","58016c9f551314000145af58","bdp_rd","Fri Mar 24 2023 19:44:03 GMT-0400 (Eastern Daylight Time)","231502","","null","","","","offerFB","","<div class='trialBorder'><div class='vertical-center'><img style='vertical-align:center; align:center' src=img/fixation3.jpg></div><div class='cl'><div class='vertical-center'>$1<br>for<br>sure</div></div><div class='cr'><div class='vertical-center'><font style='color:orange'>$30<br>with a<br>50% chance</font></div></div><div class='respDivL'><div class='vertical-center'>(E)</div></div><div class='respDivR'><div class='vertical-center'><font style='color:orange'>(I)</font></div></div></div>","null","$1","$30","0","1","30",""
"html-keyboard-response","34","68476","0.0-5.0-1.10","58016c9f551314000145af58","bdp_rd","Fri Mar 24 2023 19:44:03 GMT-0400 (Eastern Daylight Time)","231502","","null","","","","FIX","","<div class='trialBorder'><div class='vertical-center'><img style='vertical-align:center; align:center' src=img/fixation3.jpg></div></div>","null","","","","","",""
"html-keyboard-response","35","71105","0.0-5.0-2.10","58016c9f551314000145af58","bdp_rd","Fri Mar 24 2023 19:44:03 GMT-0400 (Eastern Daylight Time)","231502","","2627","","","","offer","","<div class='trialBorder'><div class='vertical-center'><img style='vertical-align:center; align:center' src=img/fixation3.jpg></div><div class='cl'><div class='vertical-center'>$86<br>with a<br>50% chance</div></div><div class='cr'><div class='vertical-center'>$45<br>for<br>sure</div></div><div class='respDivL'><div class='vertical-center'>(E)</div></div><div class='respDivR'><div class='vertical-center'>(I)</div></div></div>","I","$45","$86","1","45","86","SURE"
"html-keyboard-response","36","71364","0.0-5.0-3.10","58016c9f551314000145af58","bdp_rd","Fri Mar 24 2023 19:44:03 GMT-0400 (Eastern Daylight Time)","231502","","null","","","","offerFB","","<div class='trialBorder'><div class='vertical-center'><img style='vertical-align:center; align:center' src=img/fixation3.jpg></div><div class='cl'><div class='vertical-center'>$86<br>with a<br>50% chance</div></div><div class='cr'><div class='vertical-center'><font style='color:orange'>$45<br>for<br>sure</font></div></div><div class='respDivL'><div class='vertical-center'>(E)</div></div><div class='respDivR'><div class='vertical-center'><font style='color:orange'>(I)</font></div></div></div>","null","$45","$86","1","45","86",""
"html-keyboard-response","37","71868","0.0-5.0-1.11","58016c9f551314000145af58","bdp_rd","Fri Mar 24 2023 19:44:03 GMT-0400 (Eastern Daylight Time)","231502","","null","","","","FIX","","<div class='trialBorder'><div class='vertical-center'><img style='vertical-align:center; align:center' src=img/fixation3.jpg></div></div>","null","","","","","",""
"html-keyboard-response","38","74524","0.0-5.0-2.11","58016c9f551314000145af58","bdp_rd","Fri Mar 24 2023 19:44:03 GMT-0400 (Eastern Daylight Time)","231502","","2655","","","","offer","","<div class='trialBorder'><div class='vertical-center'><img style='vertical-align:center; align:center' src=img/fixation3.jpg></div><div class='cl'><div class='vertical-center'>$8<br>for<br>sure</div></div><div class='cr'><div class='vertical-center'>$45<br>with a<br>50% chance</div></div><div class='respDivL'><div class='vertical-center'>(E)</div></div><div class='respDivR'><div class='vertical-center'>(I)</div></div></div>","I","$8","$45","0","8","45","RISKY"
"html-keyboard-response","39","74780","0.0-5.0-3.11","58016c9f551314000145af58","bdp_rd","Fri Mar 24 2023 19:44:03 GMT-0400 (Eastern Daylight Time)","231502","","null","","","","offerFB","","<div class='trialBorder'><div class='vertical-center'><img style='vertical-align:center; align:center' src=img/fixation3.jpg></div><div class='cl'><div class='vertical-center'>$8<br>for<br>sure</div></div><div class='cr'><div class='vertical-center'><font style='color:orange'>$45<br>with a<br>50% chance</font></div></div><div class='respDivL'><div class='vertical-center'>(E)</div></div><div class='respDivR'><div class='vertical-center'><font style='color:orange'>(I)</font></div></div></div>","null","$8","$45","0","8","45",""
"html-keyboard-response","40","75284","0.0-5.0-1.12","58016c9f551314000145af58","bdp_rd","Fri Mar 24 2023 19:44:03 GMT-0400 (Eastern Daylight Time)","231502","","null","","","","FIX","","<div class='trialBorder'><div class='vertical-center'><img style='vertical-align:center; align:center' src=img/fixation3.jpg></div></div>","null","","","","","",""
"html-keyboard-response","41","76705","0.0-5.0-2.12","58016c9f551314000145af58","bdp_rd","Fri Mar 24 2023 19:44:03 GMT-0400 (Eastern Daylight Time)","231502","","1419","","","","offer","","<div class='trialBorder'><div class='vertical-center'><img style='vertical-align:center; align:center' src=img/fixation3.jpg></div><div class='cl'><div class='vertical-center'>$65<br>with a<br>50% chance</div></div><div class='cr'><div class='vertical-center'>$46<br>for<br>sure</div></div><div class='respDivL'><div class='vertical-center'>(E)</div></div><div class='respDivR'><div class='vertical-center'>(I)</div></div></div>","I","$46","$65","1","46","65","SURE"
"html-keyboard-response","42","76964","0.0-5.0-3.12","58016c9f551314000145af58","bdp_rd","Fri Mar 24 2023 19:44:03 GMT-0400 (Eastern Daylight Time)","231502","","null","","","","offerFB","","<div class='trialBorder'><div class='vertical-center'><img style='vertical-align:center; align:center' src=img/fixation3.jpg></div><div class='cl'><div class='vertical-center'>$65<br>with a<br>50% chance</div></div><div class='cr'><div class='vertical-center'><font style='color:orange'>$46<br>for<br>sure</font></div></div><div class='respDivL'><div class='vertical-center'>(E)</div></div><div class='respDivR'><div class='vertical-center'><font style='color:orange'>(I)</font></div></div></div>","null","$46","$65","1","46","65",""
"html-keyboard-response","43","77468","0.0-5.0-1.13","58016c9f551314000145af58","bdp_rd","Fri Mar 24 2023 19:44:03 GMT-0400 (Eastern Daylight Time)","231502","","null","","","","FIX","","<div class='trialBorder'><div class='vertical-center'><img style='vertical-align:center; align:center' src=img/fixation3.jpg></div></div>","null","","","","","",""
"html-keyboard-response","44","79280","0.0-5.0-2.13","58016c9f551314000145af58","bdp_rd","Fri Mar 24 2023 19:44:03 GMT-0400 (Eastern Daylight Time)","231502","","1811","","","","offer","","<div class='trialBorder'><div class='vertical-center'><img style='vertical-align:center; align:center' src=img/fixation3.jpg></div><div class='cl'><div class='vertical-center'>$32<br>with a<br>50% chance</div></div><div class='cr'><div class='vertical-center'>$9<br>for<br>sure</div></div><div class='respDivL'><div class='vertical-center'>(E)</div></div><div class='respDivR'><div class='vertical-center'>(I)</div></div></div>","E","$9","$32","1","9","32","RISKY"
"html-keyboard-response","45","79540","0.0-5.0-3.13","58016c9f551314000145af58","bdp_rd","Fri Mar 24 2023 19:44:03 GMT-0400 (Eastern Daylight Time)","231502","","null","","","","offerFB","","<div class='trialBorder'><div class='vertical-center'><img style='vertical-align:center; align:center' src=img/fixation3.jpg></div><div class='cl'><div class='vertical-center'><font style='color:orange'>$32<br>with a<br>50% chance</font></div></div><div class='cr'><div class='vertical-center'>$9<br>for<br>sure</div></div><div class='respDivL'><div class='vertical-center'><font style='color:orange'>(E)</font></div></div><div class='respDivR'><div class='vertical-center'>(I)</div></div></div>","null","$9","$32","1","9","32",""
"html-keyboard-response","46","80044","0.0-5.0-1.14","58016c9f551314000145af58","bdp_rd","Fri Mar 24 2023 19:44:03 GMT-0400 (Eastern Daylight Time)","231502","","null","","","","FIX","","<div class='trialBorder'><div class='vertical-center'><img style='vertical-align:center; align:center' src=img/fixation3.jpg></div></div>","null","","","","","",""
"html-keyboard-response","47","82041","0.0-5.0-2.14","58016c9f551314000145af58","bdp_rd","Fri Mar 24 2023 19:44:03 GMT-0400 (Eastern Daylight Time)","231502","","1996","","","","offer","","<div class='trialBorder'><div class='vertical-center'><img style='vertical-align:center; align:center' src=img/fixation3.jpg></div><div class='cl'><div class='vertical-center'>$16<br>with a<br>50% chance</div></div><div class='cr'><div class='vertical-center'>$5<br>for<br>sure</div></div><div class='respDivL'><div class='vertical-center'>(E)</div></div><div class='respDivR'><div class='vertical-center'>(I)</div></div></div>","E","$5","$16","1","5","16","RISKY"
"html-keyboard-response","48","82300","0.0-5.0-3.14","58016c9f551314000145af58","bdp_rd","Fri Mar 24 2023 19:44:03 GMT-0400 (Eastern Daylight Time)","231502","","null","","","","offerFB","","<div class='trialBorder'><div class='vertical-center'><img style='vertical-align:center; align:center' src=img/fixation3.jpg></div><div class='cl'><div class='vertical-center'><font style='color:orange'>$16<br>with a<br>50% chance</font></div></div><div class='cr'><div class='vertical-center'>$5<br>for<br>sure</div></div><div class='respDivL'><div class='vertical-center'><font style='color:orange'>(E)</font></div></div><div class='respDivR'><div class='vertical-center'>(I)</div></div></div>","null","$5","$16","1","5","16",""
"html-keyboard-response","49","82803","0.0-5.0-1.15","58016c9f551314000145af58","bdp_rd","Fri Mar 24 2023 19:44:03 GMT-0400 (Eastern Daylight Time)","231502","","null","","","","FIX","","<div class='trialBorder'><div class='vertical-center'><img style='vertical-align:center; align:center' src=img/fixation3.jpg></div></div>","null","","","","","",""
"html-keyboard-response","50","89723","0.0-5.0-2.15","58016c9f551314000145af58","bdp_rd","Fri Mar 24 2023 19:44:03 GMT-0400 (Eastern Daylight Time)","231502","","6919","","","","offer","","<div class='trialBorder'><div class='vertical-center'><img style='vertical-align:center; align:center' src=img/fixation3.jpg></div><div class='cl'><div class='vertical-center'>$16<br>for<br>sure</div></div><div class='cr'><div class='vertical-center'>$38<br>with a<br>50% chance</div></div><div class='respDivL'><div class='vertical-center'>(E)</div></div><div class='respDivR'><div class='vertical-center'>(I)</div></div></div>","I","$16","$38","0","16","38","RISKY"
"html-keyboard-response","51","89979","0.0-5.0-3.15","58016c9f551314000145af58","bdp_rd","Fri Mar 24 2023 19:44:03 GMT-0400 (Eastern Daylight Time)","231502","","null","","","","offerFB","","<div class='trialBorder'><div class='vertical-center'><img style='vertical-align:center; align:center' src=img/fixation3.jpg></div><div class='cl'><div class='vertical-center'>$16<br>for<br>sure</div></div><div class='cr'><div class='vertical-center'><font style='color:orange'>$38<br>with a<br>50% chance</font></div></div><div class='respDivL'><div class='vertical-center'>(E)</div></div><div class='respDivR'><div class='vertical-center'><font style='color:orange'>(I)</font></div></div></div>","null","$16","$38","0","16","38",""
"html-keyboard-response","52","90484","0.0-5.0-1.16","58016c9f551314000145af58","bdp_rd","Fri Mar 24 2023 19:44:03 GMT-0400 (Eastern Daylight Time)","231502","","null","","","","FIX","","<div class='trialBorder'><div class='vertical-center'><img style='vertical-align:center; align:center' src=img/fixation3.jpg></div></div>","null","","","","","",""
"html-keyboard-response","53","93456","0.0-5.0-2.16","58016c9f551314000145af58","bdp_rd","Fri Mar 24 2023 19:44:03 GMT-0400 (Eastern Daylight Time)","231502","","2971","","","","offer","","<div class='trialBorder'><div class='vertical-center'><img style='vertical-align:center; align:center' src=img/fixation3.jpg></div><div class='cl'><div class='vertical-center'>$22<br>with a<br>50% chance</div></div><div class='cr'><div class='vertical-center'>$14<br>for<br>sure</div></div><div class='respDivL'><div class='vertical-center'>(E)</div></div><div class='respDivR'><div class='vertical-center'>(I)</div></div></div>","E","$14","$22","1","14","22","RISKY"
"html-keyboard-response","54","93715","0.0-5.0-3.16","58016c9f551314000145af58","bdp_rd","Fri Mar 24 2023 19:44:03 GMT-0400 (Eastern Daylight Time)","231502","","null","","","","offerFB","","<div class='trialBorder'><div class='vertical-center'><img style='vertical-align:center; align:center' src=img/fixation3.jpg></div><div class='cl'><div class='vertical-center'><font style='color:orange'>$22<br>with a<br>50% chance</font></div></div><div class='cr'><div class='vertical-center'>$14<br>for<br>sure</div></div><div class='respDivL'><div class='vertical-center'><font style='color:orange'>(E)</font></div></div><div class='respDivR'><div class='vertical-center'>(I)</div></div></div>","null","$14","$22","1","14","22",""
"html-keyboard-response","55","94219","0.0-5.0-1.17","58016c9f551314000145af58","bdp_rd","Fri Mar 24 2023 19:44:03 GMT-0400 (Eastern Daylight Time)","231502","","null","","","","FIX","","<div class='trialBorder'><div class='vertical-center'><img style='vertical-align:center; align:center' src=img/fixation3.jpg></div></div>","null","","","","","",""
"html-keyboard-response","56","96832","0.0-5.0-2.17","58016c9f551314000145af58","bdp_rd","Fri Mar 24 2023 19:44:03 GMT-0400 (Eastern Daylight Time)","231502","","2612","","","","offer","","<div class='trialBorder'><div class='vertical-center'><img style='vertical-align:center; align:center' src=img/fixation3.jpg></div><div class='cl'><div class='vertical-center'>$28<br>with a<br>50% chance</div></div><div class='cr'><div class='vertical-center'>$16<br>for<br>sure</div></div><div class='respDivL'><div class='vertical-center'>(E)</div></div><div class='respDivR'><div class='vertical-center'>(I)</div></div></div>","E","$16","$28","1","16","28","RISKY"
"html-keyboard-response","57","97091","0.0-5.0-3.17","58016c9f551314000145af58","bdp_rd","Fri Mar 24 2023 19:44:03 GMT-0400 (Eastern Daylight Time)","231502","","null","","","","offerFB","","<div class='trialBorder'><div class='vertical-center'><img style='vertical-align:center; align:center' src=img/fixation3.jpg></div><div class='cl'><div class='vertical-center'><font style='color:orange'>$28<br>with a<br>50% chance</font></div></div><div class='cr'><div class='vertical-center'>$16<br>for<br>sure</div></div><div class='respDivL'><div class='vertical-center'><font style='color:orange'>(E)</font></div></div><div class='respDivR'><div class='vertical-center'>(I)</div></div></div>","null","$16","$28","1","16","28",""
"html-keyboard-response","58","97595","0.0-5.0-1.18","58016c9f551314000145af58","bdp_rd","Fri Mar 24 2023 19:44:03 GMT-0400 (Eastern Daylight Time)","231502","","null","","","","FIX","","<div class='trialBorder'><div class='vertical-center'><img style='vertical-align:center; align:center' src=img/fixation3.jpg></div></div>","null","","","","","",""
"html-keyboard-response","59","99032","0.0-5.0-2.18","58016c9f551314000145af58","bdp_rd","Fri Mar 24 2023 19:44:03 GMT-0400 (Eastern Daylight Time)","231502","","1436","","","","offer","","<div class='trialBorder'><div class='vertical-center'><img style='vertical-align:center; align:center' src=img/fixation3.jpg></div><div class='cl'><div class='vertical-center'>$35<br>with a<br>50% chance</div></div><div class='cr'><div class='vertical-center'>$12<br>for<br>sure</div></div><div class='respDivL'><div class='vertical-center'>(E)</div></div><div class='respDivR'><div class='vertical-center'>(I)</div></div></div>","E","$12","$35","1","12","35","RISKY"
"html-keyboard-response","60","99291","0.0-5.0-3.18","58016c9f551314000145af58","bdp_rd","Fri Mar 24 2023 19:44:03 GMT-0400 (Eastern Daylight Time)","231502","","null","","","","offerFB","","<div class='trialBorder'><div class='vertical-center'><img style='vertical-align:center; align:center' src=img/fixation3.jpg></div><div class='cl'><div class='vertical-center'><font style='color:orange'>$35<br>with a<br>50% chance</font></div></div><div class='cr'><div class='vertical-center'>$12<br>for<br>sure</div></div><div class='respDivL'><div class='vertical-center'><font style='color:orange'>(E)</font></div></div><div class='respDivR'><div class='vertical-center'>(I)</div></div></div>","null","$12","$35","1","12","35",""
"html-keyboard-response","61","99795","0.0-5.0-1.19","58016c9f551314000145af58","bdp_rd","Fri Mar 24 2023 19:44:03 GMT-0400 (Eastern Daylight Time)","231502","","null","","","","FIX","","<div class='trialBorder'><div class='vertical-center'><img style='vertical-align:center; align:center' src=img/fixation3.jpg></div></div>","null","","","","","",""
"html-keyboard-response","62","101291","0.0-5.0-2.19","58016c9f551314000145af58","bdp_rd","Fri Mar 24 2023 19:44:03 GMT-0400 (Eastern Daylight Time)","231502","","1495","","","","offer","","<div class='trialBorder'><div class='vertical-center'><img style='vertical-align:center; align:center' src=img/fixation3.jpg></div><div class='cl'><div class='vertical-center'>$92<br>with a<br>50% chance</div></div><div class='cr'><div class='vertical-center'>$26<br>for<br>sure</div></div><div class='respDivL'><div class='vertical-center'>(E)</div></div><div class='respDivR'><div class='vertical-center'>(I)</div></div></div>","E","$26","$92","1","26","92","RISKY"
"html-keyboard-response","63","101547","0.0-5.0-3.19","58016c9f551314000145af58","bdp_rd","Fri Mar 24 2023 19:44:03 GMT-0400 (Eastern Daylight Time)","231502","","null","","","","offerFB","","<div class='trialBorder'><div class='vertical-center'><img style='vertical-align:center; align:center' src=img/fixation3.jpg></div><div class='cl'><div class='vertical-center'><font style='color:orange'>$92<br>with a<br>50% chance</font></div></div><div class='cr'><div class='vertical-center'>$26<br>for<br>sure</div></div><div class='respDivL'><div class='vertical-center'><font style='color:orange'>(E)</font></div></div><div class='respDivR'><div class='vertical-center'>(I)</div></div></div>","null","$26","$92","1","26","92",""
"html-keyboard-response","64","102051","0.0-5.0-1.20","58016c9f551314000145af58","bdp_rd","Fri Mar 24 2023 19:44:03 GMT-0400 (Eastern Daylight Time)","231502","","null","","","","FIX","","<div class='trialBorder'><div class='vertical-center'><img style='vertical-align:center; align:center' src=img/fixation3.jpg></div></div>","null","","","","","",""
"html-keyboard-response","65","103936","0.0-5.0-2.20","58016c9f551314000145af58","bdp_rd","Fri Mar 24 2023 19:44:03 GMT-0400 (Eastern Daylight Time)","231502","","1884","","","","offer","","<div class='trialBorder'><div class='vertical-center'><img style='vertical-align:center; align:center' src=img/fixation3.jpg></div><div class='cl'><div class='vertical-center'>$66<br>with a<br>50% chance</div></div><div class='cr'><div class='vertical-center'>$33<br>for<br>sure</div></div><div class='respDivL'><div class='vertical-center'>(E)</div></div><div class='respDivR'><div class='vertical-center'>(I)</div></div></div>","I","$33","$66","1","33","66","SURE"
"html-keyboard-response","66","104195","0.0-5.0-3.20","58016c9f551314000145af58","bdp_rd","Fri Mar 24 2023 19:44:03 GMT-0400 (Eastern Daylight Time)","231502","","null","","","","offerFB","","<div class='trialBorder'><div class='vertical-center'><img style='vertical-align:center; align:center' src=img/fixation3.jpg></div><div class='cl'><div class='vertical-center'>$66<br>with a<br>50% chance</div></div><div class='cr'><div class='vertical-center'><font style='color:orange'>$33<br>for<br>sure</font></div></div><div class='respDivL'><div class='vertical-center'>(E)</div></div><div class='respDivR'><div class='vertical-center'><font style='color:orange'>(I)</font></div></div></div>","null","$33","$66","1","33","66",""
"html-keyboard-response","67","104699","0.0-5.0-1.21","58016c9f551314000145af58","bdp_rd","Fri Mar 24 2023 19:44:03 GMT-0400 (Eastern Daylight Time)","231502","","null","","","","FIX","","<div class='trialBorder'><div class='vertical-center'><img style='vertical-align:center; align:center' src=img/fixation3.jpg></div></div>","null","","","","","",""
"html-keyboard-response","68","106776","0.0-5.0-2.21","58016c9f551314000145af58","bdp_rd","Fri Mar 24 2023 19:44:03 GMT-0400 (Eastern Daylight Time)","231502","","2076","","","","offer","","<div class='trialBorder'><div class='vertical-center'><img style='vertical-align:center; align:center' src=img/fixation3.jpg></div><div class='cl'><div class='vertical-center'>$51<br>with a<br>50% chance</div></div><div class='cr'><div class='vertical-center'>$19<br>for<br>sure</div></div><div class='respDivL'><div class='vertical-center'>(E)</div></div><div class='respDivR'><div class='vertical-center'>(I)</div></div></div>","E","$19","$51","1","19","51","RISKY"
"html-keyboard-response","69","107035","0.0-5.0-3.21","58016c9f551314000145af58","bdp_rd","Fri Mar 24 2023 19:44:03 GMT-0400 (Eastern Daylight Time)","231502","","null","","","","offerFB","","<div class='trialBorder'><div class='vertical-center'><img style='vertical-align:center; align:center' src=img/fixation3.jpg></div><div class='cl'><div class='vertical-center'><font style='color:orange'>$51<br>with a<br>50% chance</font></div></div><div class='cr'><div class='vertical-center'>$19<br>for<br>sure</div></div><div class='respDivL'><div class='vertical-center'><font style='color:orange'>(E)</font></div></div><div class='respDivR'><div class='vertical-center'>(I)</div></div></div>","null","$19","$51","1","19","51",""
"html-keyboard-response","70","107539","0.0-5.0-1.22","58016c9f551314000145af58","bdp_rd","Fri Mar 24 2023 19:44:03 GMT-0400 (Eastern Daylight Time)","231502","","null","","","","FIX","","<div class='trialBorder'><div class='vertical-center'><img style='vertical-align:center; align:center' src=img/fixation3.jpg></div></div>","null","","","","","",""
"html-keyboard-response","71","114499","0.0-5.0-2.22","58016c9f551314000145af58","bdp_rd","Fri Mar 24 2023 19:44:03 GMT-0400 (Eastern Daylight Time)","231502","","6958","","","","offer","","<div class='trialBorder'><div class='vertical-center'><img style='vertical-align:center; align:center' src=img/fixation3.jpg></div><div class='cl'><div class='vertical-center'>$13<br>with a<br>50% chance</div></div><div class='cr'><div class='vertical-center'>$6<br>for<br>sure</div></div><div class='respDivL'><div class='vertical-center'>(E)</div></div><div class='respDivR'><div class='vertical-center'>(I)</div></div></div>","I","$6","$13","1","6","13","SURE"
"html-keyboard-response","72","114756","0.0-5.0-3.22","58016c9f551314000145af58","bdp_rd","Fri Mar 24 2023 19:44:03 GMT-0400 (Eastern Daylight Time)","231502","","null","","","","offerFB","","<div class='trialBorder'><div class='vertical-center'><img style='vertical-align:center; align:center' src=img/fixation3.jpg></div><div class='cl'><div class='vertical-center'>$13<br>with a<br>50% chance</div></div><div class='cr'><div class='vertical-center'><font style='color:orange'>$6<br>for<br>sure</font></div></div><div class='respDivL'><div class='vertical-center'>(E)</div></div><div class='respDivR'><div class='vertical-center'><font style='color:orange'>(I)</font></div></div></div>","null","$6","$13","1","6","13",""
"html-keyboard-response","73","115260","0.0-5.0-1.23","58016c9f551314000145af58","bdp_rd","Fri Mar 24 2023 19:44:03 GMT-0400 (Eastern Daylight Time)","231502","","null","","","","FIX","","<div class='trialBorder'><div class='vertical-center'><img style='vertical-align:center; align:center' src=img/fixation3.jpg></div></div>","null","","","","","",""
"html-keyboard-response","74","118553","0.0-5.0-2.23","58016c9f551314000145af58","bdp_rd","Fri Mar 24 2023 19:44:03 GMT-0400 (Eastern Daylight Time)","231502","","3292","","","","offer","","<div class='trialBorder'><div class='vertical-center'><img style='vertical-align:center; align:center' src=img/fixation3.jpg></div><div class='cl'><div class='vertical-center'>$31<br>with a<br>50% chance</div></div><div class='cr'><div class='vertical-center'>$15<br>for<br>sure</div></div><div class='respDivL'><div class='vertical-center'>(E)</div></div><div class='respDivR'><div class='vertical-center'>(I)</div></div></div>","I","$15","$31","1","15","31","SURE"
"html-keyboard-response","75","118813","0.0-5.0-3.23","58016c9f551314000145af58","bdp_rd","Fri Mar 24 2023 19:44:03 GMT-0400 (Eastern Daylight Time)","231502","","null","","","","offerFB","","<div class='trialBorder'><div class='vertical-center'><img style='vertical-align:center; align:center' src=img/fixation3.jpg></div><div class='cl'><div class='vertical-center'>$31<br>with a<br>50% chance</div></div><div class='cr'><div class='vertical-center'><font style='color:orange'>$15<br>for<br>sure</font></div></div><div class='respDivL'><div class='vertical-center'>(E)</div></div><div class='respDivR'><div class='vertical-center'><font style='color:orange'>(I)</font></div></div></div>","null","$15","$31","1","15","31",""
"html-keyboard-response","76","119317","0.0-5.0-1.24","58016c9f551314000145af58","bdp_rd","Fri Mar 24 2023 19:44:03 GMT-0400 (Eastern Daylight Time)","231502","","null","","","","FIX","","<div class='trialBorder'><div class='vertical-center'><img style='vertical-align:center; align:center' src=img/fixation3.jpg></div></div>","null","","","","","",""
"html-keyboard-response","77","122505","0.0-5.0-2.24","58016c9f551314000145af58","bdp_rd","Fri Mar 24 2023 19:44:03 GMT-0400 (Eastern Daylight Time)","231502","","3187","","","","offer","","<div class='trialBorder'><div class='vertical-center'><img style='vertical-align:center; align:center' src=img/fixation3.jpg></div><div class='cl'><div class='vertical-center'>$7<br>for<br>sure</div></div><div class='cr'><div class='vertical-center'>$71<br>with a<br>50% chance</div></div><div class='respDivL'><div class='vertical-center'>(E)</div></div><div class='respDivR'><div class='vertical-center'>(I)</div></div></div>","I","$7","$71","0","7","71","RISKY"
"html-keyboard-response","78","122765","0.0-5.0-3.24","58016c9f551314000145af58","bdp_rd","Fri Mar 24 2023 19:44:03 GMT-0400 (Eastern Daylight Time)","231502","","null","","","","offerFB","","<div class='trialBorder'><div class='vertical-center'><img style='vertical-align:center; align:center' src=img/fixation3.jpg></div><div class='cl'><div class='vertical-center'>$7<br>for<br>sure</div></div><div class='cr'><div class='vertical-center'><font style='color:orange'>$71<br>with a<br>50% chance</font></div></div><div class='respDivL'><div class='vertical-center'>(E)</div></div><div class='respDivR'><div class='vertical-center'><font style='color:orange'>(I)</font></div></div></div>","null","$7","$71","0","7","71",""
"html-keyboard-response","79","123269","0.0-5.0-1.25","58016c9f551314000145af58","bdp_rd","Fri Mar 24 2023 19:44:03 GMT-0400 (Eastern Daylight Time)","231502","","null","","","","FIX","","<div class='trialBorder'><div class='vertical-center'><img style='vertical-align:center; align:center' src=img/fixation3.jpg></div></div>","null","","","","","",""
"html-keyboard-response","80","126789","0.0-5.0-2.25","58016c9f551314000145af58","bdp_rd","Fri Mar 24 2023 19:44:03 GMT-0400 (Eastern Daylight Time)","231502","","3519","","","","offer","","<div class='trialBorder'><div class='vertical-center'><img style='vertical-align:center; align:center' src=img/fixation3.jpg></div><div class='cl'><div class='vertical-center'>$89<br>with a<br>50% chance</div></div><div class='cr'><div class='vertical-center'>$28<br>for<br>sure</div></div><div class='respDivL'><div class='vertical-center'>(E)</div></div><div class='respDivR'><div class='vertical-center'>(I)</div></div></div>","E","$28","$89","1","28","89","RISKY"
"html-keyboard-response","81","127045","0.0-5.0-3.25","58016c9f551314000145af58","bdp_rd","Fri Mar 24 2023 19:44:03 GMT-0400 (Eastern Daylight Time)","231502","","null","","","","offerFB","","<div class='trialBorder'><div class='vertical-center'><img style='vertical-align:center; align:center' src=img/fixation3.jpg></div><div class='cl'><div class='vertical-center'><font style='color:orange'>$89<br>with a<br>50% chance</font></div></div><div class='cr'><div class='vertical-center'>$28<br>for<br>sure</div></div><div class='respDivL'><div class='vertical-center'><font style='color:orange'>(E)</font></div></div><div class='respDivR'><div class='vertical-center'>(I)</div></div></div>","null","$28","$89","1","28","89",""
"html-keyboard-response","82","127549","0.0-5.0-1.26","58016c9f551314000145af58","bdp_rd","Fri Mar 24 2023 19:44:03 GMT-0400 (Eastern Daylight Time)","231502","","null","","","","FIX","","<div class='trialBorder'><div class='vertical-center'><img style='vertical-align:center; align:center' src=img/fixation3.jpg></div></div>","null","","","","","",""
"html-keyboard-response","83","129417","0.0-5.0-2.26","58016c9f551314000145af58","bdp_rd","Fri Mar 24 2023 19:44:03 GMT-0400 (Eastern Daylight Time)","231502","","1866","","","","offer","","<div class='trialBorder'><div class='vertical-center'><img style='vertical-align:center; align:center' src=img/fixation3.jpg></div><div class='cl'><div class='vertical-center'>$39<br>for<br>sure</div></div><div class='cr'><div class='vertical-center'>$81<br>with a<br>50% chance</div></div><div class='respDivL'><div class='vertical-center'>(E)</div></div><div class='respDivR'><div class='vertical-center'>(I)</div></div></div>","I","$39","$81","0","39","81","RISKY"
"html-keyboard-response","84","129669","0.0-5.0-3.26","58016c9f551314000145af58","bdp_rd","Fri Mar 24 2023 19:44:03 GMT-0400 (Eastern Daylight Time)","231502","","null","","","","offerFB","","<div class='trialBorder'><div class='vertical-center'><img style='vertical-align:center; align:center' src=img/fixation3.jpg></div><div class='cl'><div class='vertical-center'>$39<br>for<br>sure</div></div><div class='cr'><div class='vertical-center'><font style='color:orange'>$81<br>with a<br>50% chance</font></div></div><div class='respDivL'><div class='vertical-center'>(E)</div></div><div class='respDivR'><div class='vertical-center'><font style='color:orange'>(I)</font></div></div></div>","null","$39","$81","0","39","81",""
"html-keyboard-response","85","130173","0.0-5.0-1.27","58016c9f551314000145af58","bdp_rd","Fri Mar 24 2023 19:44:03 GMT-0400 (Eastern Daylight Time)","231502","","null","","","","FIX","","<div class='trialBorder'><div class='vertical-center'><img style='vertical-align:center; align:center' src=img/fixation3.jpg></div></div>","null","","","","","",""
"html-keyboard-response","86","132129","0.0-5.0-2.27","58016c9f551314000145af58","bdp_rd","Fri Mar 24 2023 19:44:03 GMT-0400 (Eastern Daylight Time)","231502","","1954","","","","offer","","<div class='trialBorder'><div class='vertical-center'><img style='vertical-align:center; align:center' src=img/fixation3.jpg></div><div class='cl'><div class='vertical-center'>$29<br>for<br>sure</div></div><div class='cr'><div class='vertical-center'>$46<br>with a<br>50% chance</div></div><div class='respDivL'><div class='vertical-center'>(E)</div></div><div class='respDivR'><div class='vertical-center'>(I)</div></div></div>","E","$29","$46","0","29","46","SURE"
"html-keyboard-response","87","132381","0.0-5.0-3.27","58016c9f551314000145af58","bdp_rd","Fri Mar 24 2023 19:44:03 GMT-0400 (Eastern Daylight Time)","231502","","null","","","","offerFB","","<div class='trialBorder'><div class='vertical-center'><img style='vertical-align:center; align:center' src=img/fixation3.jpg></div><div class='cl'><div class='vertical-center'><font style='color:orange'>$29<br>for<br>sure</font></div></div><div class='cr'><div class='vertical-center'>$46<br>with a<br>50% chance</div></div><div class='respDivL'><div class='vertical-center'><font style='color:orange'>(E)</font></div></div><div class='respDivR'><div class='vertical-center'>(I)</div></div></div>","null","$29","$46","0","29","46",""
"html-keyboard-response","88","132885","0.0-5.0-1.28","58016c9f551314000145af58","bdp_rd","Fri Mar 24 2023 19:44:03 GMT-0400 (Eastern Daylight Time)","231502","","null","","","","FIX","","<div class='trialBorder'><div class='vertical-center'><img style='vertical-align:center; align:center' src=img/fixation3.jpg></div></div>","null","","","","","",""
"html-keyboard-response","89","136056","0.0-5.0-2.28","58016c9f551314000145af58","bdp_rd","Fri Mar 24 2023 19:44:03 GMT-0400 (Eastern Daylight Time)","231502","","3170","","","","offer","","<div class='trialBorder'><div class='vertical-center'><img style='vertical-align:center; align:center' src=img/fixation3.jpg></div><div class='cl'><div class='vertical-center'>$62<br>with a<br>50% chance</div></div><div class='cr'><div class='vertical-center'>$11<br>for<br>sure</div></div><div class='respDivL'><div class='vertical-center'>(E)</div></div><div class='respDivR'><div class='vertical-center'>(I)</div></div></div>","E","$11","$62","1","11","62","RISKY"
"html-keyboard-response","90","136309","0.0-5.0-3.28","58016c9f551314000145af58","bdp_rd","Fri Mar 24 2023 19:44:03 GMT-0400 (Eastern Daylight Time)","231502","","null","","","","offerFB","","<div class='trialBorder'><div class='vertical-center'><img style='vertical-align:center; align:center' src=img/fixation3.jpg></div><div class='cl'><div class='vertical-center'><font style='color:orange'>$62<br>with a<br>50% chance</font></div></div><div class='cr'><div class='vertical-center'>$11<br>for<br>sure</div></div><div class='respDivL'><div class='vertical-center'><font style='color:orange'>(E)</font></div></div><div class='respDivR'><div class='vertical-center'>(I)</div></div></div>","null","$11","$62","1","11","62",""
"html-keyboard-response","91","136813","0.0-5.0-1.29","58016c9f551314000145af58","bdp_rd","Fri Mar 24 2023 19:44:03 GMT-0400 (Eastern Daylight Time)","231502","","null","","","","FIX","","<div class='trialBorder'><div class='vertical-center'><img style='vertical-align:center; align:center' src=img/fixation3.jpg></div></div>","null","","","","","",""
"html-keyboard-response","92","138876","0.0-5.0-2.29","58016c9f551314000145af58","bdp_rd","Fri Mar 24 2023 19:44:03 GMT-0400 (Eastern Daylight Time)","231502","","2061","","","","offer","","<div class='trialBorder'><div class='vertical-center'><img style='vertical-align:center; align:center' src=img/fixation3.jpg></div><div class='cl'><div class='vertical-center'>$34<br>for<br>sure</div></div><div class='cr'><div class='vertical-center'>$48<br>with a<br>50% chance</div></div><div class='respDivL'><div class='vertical-center'>(E)</div></div><div class='respDivR'><div class='vertical-center'>(I)</div></div></div>","I","$34","$48","0","34","48","RISKY"
"html-keyboard-response","93","139133","0.0-5.0-3.29","58016c9f551314000145af58","bdp_rd","Fri Mar 24 2023 19:44:03 GMT-0400 (Eastern Daylight Time)","231502","","null","","","","offerFB","","<div class='trialBorder'><div class='vertical-center'><img style='vertical-align:center; align:center' src=img/fixation3.jpg></div><div class='cl'><div class='vertical-center'>$34<br>for<br>sure</div></div><div class='cr'><div class='vertical-center'><font style='color:orange'>$48<br>with a<br>50% chance</font></div></div><div class='respDivL'><div class='vertical-center'>(E)</div></div><div class='respDivR'><div class='vertical-center'><font style='color:orange'>(I)</font></div></div></div>","null","$34","$48","0","34","48",""
"html-keyboard-response","94","139637","0.0-5.0-1.30","58016c9f551314000145af58","bdp_rd","Fri Mar 24 2023 19:44:03 GMT-0400 (Eastern Daylight Time)","231502","","null","","","","FIX","","<div class='trialBorder'><div class='vertical-center'><img style='vertical-align:center; align:center' src=img/fixation3.jpg></div></div>","null","","","","","",""
"html-keyboard-response","95","142024","0.0-5.0-2.30","58016c9f551314000145af58","bdp_rd","Fri Mar 24 2023 19:44:03 GMT-0400 (Eastern Daylight Time)","231502","","2386","","","","offer","","<div class='trialBorder'><div class='vertical-center'><img style='vertical-align:center; align:center' src=img/fixation3.jpg></div><div class='cl'><div class='vertical-center'>$40<br>with a<br>50% chance</div></div><div class='cr'><div class='vertical-center'>$10<br>for<br>sure</div></div><div class='respDivL'><div class='vertical-center'>(E)</div></div><div class='respDivR'><div class='vertical-center'>(I)</div></div></div>","E","$10","$40","1","10","40","RISKY"
"html-keyboard-response","96","142277","0.0-5.0-3.30","58016c9f551314000145af58","bdp_rd","Fri Mar 24 2023 19:44:03 GMT-0400 (Eastern Daylight Time)","231502","","null","","","","offerFB","","<div class='trialBorder'><div class='vertical-center'><img style='vertical-align:center; align:center' src=img/fixation3.jpg></div><div class='cl'><div class='vertical-center'><font style='color:orange'>$40<br>with a<br>50% chance</font></div></div><div class='cr'><div class='vertical-center'>$10<br>for<br>sure</div></div><div class='respDivL'><div class='vertical-center'><font style='color:orange'>(E)</font></div></div><div class='respDivR'><div class='vertical-center'>(I)</div></div></div>","null","$10","$40","1","10","40",""
"html-keyboard-response","97","142780","0.0-5.0-1.31","58016c9f551314000145af58","bdp_rd","Fri Mar 24 2023 19:44:03 GMT-0400 (Eastern Daylight Time)","231502","","null","","","","FIX","","<div class='trialBorder'><div class='vertical-center'><img style='vertical-align:center; align:center' src=img/fixation3.jpg></div></div>","null","","","","","",""
"html-keyboard-response","98","144393","0.0-5.0-2.31","58016c9f551314000145af58","bdp_rd","Fri Mar 24 2023 19:44:03 GMT-0400 (Eastern Daylight Time)","231502","","1611","","","","offer","","<div class='trialBorder'><div class='vertical-center'><img style='vertical-align:center; align:center' src=img/fixation3.jpg></div><div class='cl'><div class='vertical-center'>$53<br>for<br>sure</div></div><div class='cr'><div class='vertical-center'>$98<br>with a<br>50% chance</div></div><div class='respDivL'><div class='vertical-center'>(E)</div></div><div class='respDivR'><div class='vertical-center'>(I)</div></div></div>","I","$53","$98","0","53","98","RISKY"
"html-keyboard-response","99","144645","0.0-5.0-3.31","58016c9f551314000145af58","bdp_rd","Fri Mar 24 2023 19:44:03 GMT-0400 (Eastern Daylight Time)","231502","","null","","","","offerFB","","<div class='trialBorder'><div class='vertical-center'><img style='vertical-align:center; align:center' src=img/fixation3.jpg></div><div class='cl'><div class='vertical-center'>$53<br>for<br>sure</div></div><div class='cr'><div class='vertical-center'><font style='color:orange'>$98<br>with a<br>50% chance</font></div></div><div class='respDivL'><div class='vertical-center'>(E)</div></div><div class='respDivR'><div class='vertical-center'><font style='color:orange'>(I)</font></div></div></div>","null","$53","$98","0","53","98",""
"html-keyboard-response","100","145148","0.0-5.0-1.32","58016c9f551314000145af58","bdp_rd","Fri Mar 24 2023 19:44:03 GMT-0400 (Eastern Daylight Time)","231502","","null","","","","FIX","","<div class='trialBorder'><div class='vertical-center'><img style='vertical-align:center; align:center' src=img/fixation3.jpg></div></div>","null","","","","","",""
"html-keyboard-response","101","148192","0.0-5.0-2.32","58016c9f551314000145af58","bdp_rd","Fri Mar 24 2023 19:44:03 GMT-0400 (Eastern Daylight Time)","231502","","3043","","","","offer","","<div class='trialBorder'><div class='vertical-center'><img style='vertical-align:center; align:center' src=img/fixation3.jpg></div><div class='cl'><div class='vertical-center'>$80<br>with a<br>50% chance</div></div><div class='cr'><div class='vertical-center'>$20<br>for<br>sure</div></div><div class='respDivL'><div class='vertical-center'>(E)</div></div><div class='respDivR'><div class='vertical-center'>(I)</div></div></div>","E","$20","$80","1","20","80","RISKY"
"html-keyboard-response","102","148444","0.0-5.0-3.32","58016c9f551314000145af58","bdp_rd","Fri Mar 24 2023 19:44:03 GMT-0400 (Eastern Daylight Time)","231502","","null","","","","offerFB","","<div class='trialBorder'><div class='vertical-center'><img style='vertical-align:center; align:center' src=img/fixation3.jpg></div><div class='cl'><div class='vertical-center'><font style='color:orange'>$80<br>with a<br>50% chance</font></div></div><div class='cr'><div class='vertical-center'>$20<br>for<br>sure</div></div><div class='respDivL'><div class='vertical-center'><font style='color:orange'>(E)</font></div></div><div class='respDivR'><div class='vertical-center'>(I)</div></div></div>","null","$20","$80","1","20","80",""
"html-keyboard-response","103","148948","0.0-5.0-1.33","58016c9f551314000145af58","bdp_rd","Fri Mar 24 2023 19:44:03 GMT-0400 (Eastern Daylight Time)","231502","","null","","","","FIX","","<div class='trialBorder'><div class='vertical-center'><img style='vertical-align:center; align:center' src=img/fixation3.jpg></div></div>","null","","","","","",""
"html-keyboard-response","104","151403","0.0-5.0-2.33","58016c9f551314000145af58","bdp_rd","Fri Mar 24 2023 19:44:03 GMT-0400 (Eastern Daylight Time)","231502","","2454","","","","offer","","<div class='trialBorder'><div class='vertical-center'><img style='vertical-align:center; align:center' src=img/fixation3.jpg></div><div class='cl'><div class='vertical-center'>$12<br>for<br>sure</div></div><div class='cr'><div class='vertical-center'>$27<br>with a<br>50% chance</div></div><div class='respDivL'><div class='vertical-center'>(E)</div></div><div class='respDivR'><div class='vertical-center'>(I)</div></div></div>","I","$12","$27","0","12","27","RISKY"
"html-keyboard-response","105","151661","0.0-5.0-3.33","58016c9f551314000145af58","bdp_rd","Fri Mar 24 2023 19:44:03 GMT-0400 (Eastern Daylight Time)","231502","","null","","","","offerFB","","<div class='trialBorder'><div class='vertical-center'><img style='vertical-align:center; align:center' src=img/fixation3.jpg></div><div class='cl'><div class='vertical-center'>$12<br>for<br>sure</div></div><div class='cr'><div class='vertical-center'><font style='color:orange'>$27<br>with a<br>50% chance</font></div></div><div class='respDivL'><div class='vertical-center'>(E)</div></div><div class='respDivR'><div class='vertical-center'><font style='color:orange'>(I)</font></div></div></div>","null","$12","$27","0","12","27",""
"html-keyboard-response","106","152165","0.0-5.0-1.34","58016c9f551314000145af58","bdp_rd","Fri Mar 24 2023 19:44:03 GMT-0400 (Eastern Daylight Time)","231502","","null","","","","FIX","","<div class='trialBorder'><div class='vertical-center'><img style='vertical-align:center; align:center' src=img/fixation3.jpg></div></div>","null","","","","","",""
"html-keyboard-response","107","154184","0.0-5.0-2.34","58016c9f551314000145af58","bdp_rd","Fri Mar 24 2023 19:44:03 GMT-0400 (Eastern Daylight Time)","231502","","2018","","","","offer","","<div class='trialBorder'><div class='vertical-center'><img style='vertical-align:center; align:center' src=img/fixation3.jpg></div><div class='cl'><div class='vertical-center'>$17<br>with a<br>50% chance</div></div><div class='cr'><div class='vertical-center'>$3<br>for<br>sure</div></div><div class='respDivL'><div class='vertical-center'>(E)</div></div><div class='respDivR'><div class='vertical-center'>(I)</div></div></div>","E","$3","$17","1","3","17","RISKY"
"html-keyboard-response","108","154437","0.0-5.0-3.34","58016c9f551314000145af58","bdp_rd","Fri Mar 24 2023 19:44:03 GMT-0400 (Eastern Daylight Time)","231502","","null","","","","offerFB","","<div class='trialBorder'><div class='vertical-center'><img style='vertical-align:center; align:center' src=img/fixation3.jpg></div><div class='cl'><div class='vertical-center'><font style='color:orange'>$17<br>with a<br>50% chance</font></div></div><div class='cr'><div class='vertical-center'>$3<br>for<br>sure</div></div><div class='respDivL'><div class='vertical-center'><font style='color:orange'>(E)</font></div></div><div class='respDivR'><div class='vertical-center'>(I)</div></div></div>","null","$3","$17","1","3","17",""
"html-keyboard-response","109","154941","0.0-5.0-1.35","58016c9f551314000145af58","bdp_rd","Fri Mar 24 2023 19:44:03 GMT-0400 (Eastern Daylight Time)","231502","","null","","","","FIX","","<div class='trialBorder'><div class='vertical-center'><img style='vertical-align:center; align:center' src=img/fixation3.jpg></div></div>","null","","","","","",""
"html-keyboard-response","110","157088","0.0-5.0-2.35","58016c9f551314000145af58","bdp_rd","Fri Mar 24 2023 19:44:03 GMT-0400 (Eastern Daylight Time)","231502","","2146","","","","offer","","<div class='trialBorder'><div class='vertical-center'><img style='vertical-align:center; align:center' src=img/fixation3.jpg></div><div class='cl'><div class='vertical-center'>$6<br>for<br>sure</div></div><div class='cr'><div class='vertical-center'>$15<br>with a<br>50% chance</div></div><div class='respDivL'><div class='vertical-center'>(E)</div></div><div class='respDivR'><div class='vertical-center'>(I)</div></div></div>","E","$6","$15","0","6","15","SURE"
"html-keyboard-response","111","157341","0.0-5.0-3.35","58016c9f551314000145af58","bdp_rd","Fri Mar 24 2023 19:44:03 GMT-0400 (Eastern Daylight Time)","231502","","null","","","","offerFB","","<div class='trialBorder'><div class='vertical-center'><img style='vertical-align:center; align:center' src=img/fixation3.jpg></div><div class='cl'><div class='vertical-center'><font style='color:orange'>$6<br>for<br>sure</font></div></div><div class='cr'><div class='vertical-center'>$15<br>with a<br>50% chance</div></div><div class='respDivL'><div class='vertical-center'><font style='color:orange'>(E)</font></div></div><div class='respDivR'><div class='vertical-center'>(I)</div></div></div>","null","$6","$15","0","6","15",""
"html-keyboard-response","112","157845","0.0-5.0-1.36","58016c9f551314000145af58","bdp_rd","Fri Mar 24 2023 19:44:03 GMT-0400 (Eastern Daylight Time)","231502","","null","","","","FIX","","<div class='trialBorder'><div class='vertical-center'><img style='vertical-align:center; align:center' src=img/fixation3.jpg></div></div>","null","","","","","",""
"html-keyboard-response","113","159704","0.0-5.0-2.36","58016c9f551314000145af58","bdp_rd","Fri Mar 24 2023 19:44:03 GMT-0400 (Eastern Daylight Time)","231502","","1858","","","","offer","","<div class='trialBorder'><div class='vertical-center'><img style='vertical-align:center; align:center' src=img/fixation3.jpg></div><div class='cl'><div class='vertical-center'>$18<br>with a<br>50% chance</div></div><div class='cr'><div class='vertical-center'>$9<br>for<br>sure</div></div><div class='respDivL'><div class='vertical-center'>(E)</div></div><div class='respDivR'><div class='vertical-center'>(I)</div></div></div>","I","$9","$18","1","9","18","SURE"
"html-keyboard-response","114","159957","0.0-5.0-3.36","58016c9f551314000145af58","bdp_rd","Fri Mar 24 2023 19:44:03 GMT-0400 (Eastern Daylight Time)","231502","","null","","","","offerFB","","<div class='trialBorder'><div class='vertical-center'><img style='vertical-align:center; align:center' src=img/fixation3.jpg></div><div class='cl'><div class='vertical-center'>$18<br>with a<br>50% chance</div></div><div class='cr'><div class='vertical-center'><font style='color:orange'>$9<br>for<br>sure</font></div></div><div class='respDivL'><div class='vertical-center'>(E)</div></div><div class='respDivR'><div class='vertical-center'><font style='color:orange'>(I)</font></div></div></div>","null","$9","$18","1","9","18",""
"html-keyboard-response","115","160461","0.0-5.0-1.37","58016c9f551314000145af58","bdp_rd","Fri Mar 24 2023 19:44:03 GMT-0400 (Eastern Daylight Time)","231502","","null","","","","FIX","","<div class='trialBorder'><div class='vertical-center'><img style='vertical-align:center; align:center' src=img/fixation3.jpg></div></div>","null","","","","","",""
"html-keyboard-response","116","162603","0.0-5.0-2.37","58016c9f551314000145af58","bdp_rd","Fri Mar 24 2023 19:44:03 GMT-0400 (Eastern Daylight Time)","231502","","2141","","","","offer","","<div class='trialBorder'><div class='vertical-center'><img style='vertical-align:center; align:center' src=img/fixation3.jpg></div><div class='cl'><div class='vertical-center'>$2<br>for<br>sure</div></div><div class='cr'><div class='vertical-center'>$21<br>with a<br>50% chance</div></div><div class='respDivL'><div class='vertical-center'>(E)</div></div><div class='respDivR'><div class='vertical-center'>(I)</div></div></div>","I","$2","$21","0","2","21","RISKY"
"html-keyboard-response","117","162861","0.0-5.0-3.37","58016c9f551314000145af58","bdp_rd","Fri Mar 24 2023 19:44:03 GMT-0400 (Eastern Daylight Time)","231502","","null","","","","offerFB","","<div class='trialBorder'><div class='vertical-center'><img style='vertical-align:center; align:center' src=img/fixation3.jpg></div><div class='cl'><div class='vertical-center'>$2<br>for<br>sure</div></div><div class='cr'><div class='vertical-center'><font style='color:orange'>$21<br>with a<br>50% chance</font></div></div><div class='respDivL'><div class='vertical-center'>(E)</div></div><div class='respDivR'><div class='vertical-center'><font style='color:orange'>(I)</font></div></div></div>","null","$2","$21","0","2","21",""
"html-keyboard-response","118","163365","0.0-5.0-1.38","58016c9f551314000145af58","bdp_rd","Fri Mar 24 2023 19:44:03 GMT-0400 (Eastern Daylight Time)","231502","","null","","","","FIX","","<div class='trialBorder'><div class='vertical-center'><img style='vertical-align:center; align:center' src=img/fixation3.jpg></div></div>","null","","","","","",""
"html-keyboard-response","119","165488","0.0-5.0-2.38","58016c9f551314000145af58","bdp_rd","Fri Mar 24 2023 19:44:03 GMT-0400 (Eastern Daylight Time)","231502","","2122","","","","offer","","<div class='trialBorder'><div class='vertical-center'><img style='vertical-align:center; align:center' src=img/fixation3.jpg></div><div class='cl'><div class='vertical-center'>$42<br>for<br>sure</div></div><div class='cr'><div class='vertical-center'>$73<br>with a<br>50% chance</div></div><div class='respDivL'><div class='vertical-center'>(E)</div></div><div class='respDivR'><div class='vertical-center'>(I)</div></div></div>","E","$42","$73","0","42","73","SURE"
"html-keyboard-response","120","165741","0.0-5.0-3.38","58016c9f551314000145af58","bdp_rd","Fri Mar 24 2023 19:44:03 GMT-0400 (Eastern Daylight Time)","231502","","null","","","","offerFB","","<div class='trialBorder'><div class='vertical-center'><img style='vertical-align:center; align:center' src=img/fixation3.jpg></div><div class='cl'><div class='vertical-center'><font style='color:orange'>$42<br>for<br>sure</font></div></div><div class='cr'><div class='vertical-center'>$73<br>with a<br>50% chance</div></div><div class='respDivL'><div class='vertical-center'><font style='color:orange'>(E)</font></div></div><div class='respDivR'><div class='vertical-center'>(I)</div></div></div>","null","$42","$73","0","42","73",""
"html-keyboard-response","121","166245","0.0-5.0-1.39","58016c9f551314000145af58","bdp_rd","Fri Mar 24 2023 19:44:03 GMT-0400 (Eastern Daylight Time)","231502","","null","","","","FIX","","<div class='trialBorder'><div class='vertical-center'><img style='vertical-align:center; align:center' src=img/fixation3.jpg></div></div>","null","","","","","",""
"html-keyboard-response","122","167976","0.0-5.0-2.39","58016c9f551314000145af58","bdp_rd","Fri Mar 24 2023 19:44:03 GMT-0400 (Eastern Daylight Time)","231502","","1730","","","","offer","","<div class='trialBorder'><div class='vertical-center'><img style='vertical-align:center; align:center' src=img/fixation3.jpg></div><div class='cl'><div class='vertical-center'>$2<br>for<br>sure</div></div><div class='cr'><div class='vertical-center'>$64<br>with a<br>50% chance</div></div><div class='respDivL'><div class='vertical-center'>(E)</div></div><div class='respDivR'><div class='vertical-center'>(I)</div></div></div>","I","$2","$64","0","2","64","RISKY"
"html-keyboard-response","123","168229","0.0-5.0-3.39","58016c9f551314000145af58","bdp_rd","Fri Mar 24 2023 19:44:03 GMT-0400 (Eastern Daylight Time)","231502","","null","","","","offerFB","","<div class='trialBorder'><div class='vertical-center'><img style='vertical-align:center; align:center' src=img/fixation3.jpg></div><div class='cl'><div class='vertical-center'>$2<br>for<br>sure</div></div><div class='cr'><div class='vertical-center'><font style='color:orange'>$64<br>with a<br>50% chance</font></div></div><div class='respDivL'><div class='vertical-center'>(E)</div></div><div class='respDivR'><div class='vertical-center'><font style='color:orange'>(I)</font></div></div></div>","null","$2","$64","0","2","64",""
"html-keyboard-response","124","168733","0.0-5.0-1.40","58016c9f551314000145af58","bdp_rd","Fri Mar 24 2023 19:44:03 GMT-0400 (Eastern Daylight Time)","231502","","null","","","","FIX","","<div class='trialBorder'><div class='vertical-center'><img style='vertical-align:center; align:center' src=img/fixation3.jpg></div></div>","null","","","","","",""
"html-keyboard-response","125","170872","0.0-5.0-2.40","58016c9f551314000145af58","bdp_rd","Fri Mar 24 2023 19:44:03 GMT-0400 (Eastern Daylight Time)","231502","","2137","","","","offer","","<div class='trialBorder'><div class='vertical-center'><img style='vertical-align:center; align:center' src=img/fixation3.jpg></div><div class='cl'><div class='vertical-center'>$59<br>with a<br>50% chance</div></div><div class='cr'><div class='vertical-center'>$22<br>for<br>sure</div></div><div class='respDivL'><div class='vertical-center'>(E)</div></div><div class='respDivR'><div class='vertical-center'>(I)</div></div></div>","E","$22","$59","1","22","59","RISKY"
"html-keyboard-response","126","171125","0.0-5.0-3.40","58016c9f551314000145af58","bdp_rd","Fri Mar 24 2023 19:44:03 GMT-0400 (Eastern Daylight Time)","231502","","null","","","","offerFB","","<div class='trialBorder'><div class='vertical-center'><img style='vertical-align:center; align:center' src=img/fixation3.jpg></div><div class='cl'><div class='vertical-center'><font style='color:orange'>$59<br>with a<br>50% chance</font></div></div><div class='cr'><div class='vertical-center'>$22<br>for<br>sure</div></div><div class='respDivL'><div class='vertical-center'><font style='color:orange'>(E)</font></div></div><div class='respDivR'><div class='vertical-center'>(I)</div></div></div>","null","$22","$59","1","22","59",""
"html-keyboard-response","127","171629","0.0-5.0-1.41","58016c9f551314000145af58","bdp_rd","Fri Mar 24 2023 19:44:03 GMT-0400 (Eastern Daylight Time)","231502","","null","","","","FIX","","<div class='trialBorder'><div class='vertical-center'><img style='vertical-align:center; align:center' src=img/fixation3.jpg></div></div>","null","","","","","",""
"html-keyboard-response","128","173060","0.0-5.0-2.41","58016c9f551314000145af58","bdp_rd","Fri Mar 24 2023 19:44:03 GMT-0400 (Eastern Daylight Time)","231502","","1429","","","","offer","","<div class='trialBorder'><div class='vertical-center'><img style='vertical-align:center; align:center' src=img/fixation3.jpg></div><div class='cl'><div class='vertical-center'>$78<br>with a<br>50% chance</div></div><div class='cr'><div class='vertical-center'>$31<br>for<br>sure</div></div><div class='respDivL'><div class='vertical-center'>(E)</div></div><div class='respDivR'><div class='vertical-center'>(I)</div></div></div>","I","$31","$78","1","31","78","SURE"
"html-keyboard-response","129","173317","0.0-5.0-3.41","58016c9f551314000145af58","bdp_rd","Fri Mar 24 2023 19:44:03 GMT-0400 (Eastern Daylight Time)","231502","","null","","","","offerFB","","<div class='trialBorder'><div class='vertical-center'><img style='vertical-align:center; align:center' src=img/fixation3.jpg></div><div class='cl'><div class='vertical-center'>$78<br>with a<br>50% chance</div></div><div class='cr'><div class='vertical-center'><font style='color:orange'>$31<br>for<br>sure</font></div></div><div class='respDivL'><div class='vertical-center'>(E)</div></div><div class='respDivR'><div class='vertical-center'><font style='color:orange'>(I)</font></div></div></div>","null","$31","$78","1","31","78",""
"html-keyboard-response","130","173821","0.0-5.0-1.42","58016c9f551314000145af58","bdp_rd","Fri Mar 24 2023 19:44:03 GMT-0400 (Eastern Daylight Time)","231502","","null","","","","FIX","","<div class='trialBorder'><div class='vertical-center'><img style='vertical-align:center; align:center' src=img/fixation3.jpg></div></div>","null","","","","","",""
"html-keyboard-response","131","175848","0.0-5.0-2.42","58016c9f551314000145af58","bdp_rd","Fri Mar 24 2023 19:44:03 GMT-0400 (Eastern Daylight Time)","231502","","2025","","","","offer","","<div class='trialBorder'><div class='vertical-center'><img style='vertical-align:center; align:center' src=img/fixation3.jpg></div><div class='cl'><div class='vertical-center'>$7<br>for<br>sure</div></div><div class='cr'><div class='vertical-center'>$10<br>with a<br>50% chance</div></div><div class='respDivL'><div class='vertical-center'>(E)</div></div><div class='respDivR'><div class='vertical-center'>(I)</div></div></div>","E","$7","$10","0","7","10","SURE"
"html-keyboard-response","132","176101","0.0-5.0-3.42","58016c9f551314000145af58","bdp_rd","Fri Mar 24 2023 19:44:03 GMT-0400 (Eastern Daylight Time)","231502","","null","","","","offerFB","","<div class='trialBorder'><div class='vertical-center'><img style='vertical-align:center; align:center' src=img/fixation3.jpg></div><div class='cl'><div class='vertical-center'><font style='color:orange'>$7<br>for<br>sure</font></div></div><div class='cr'><div class='vertical-center'>$10<br>with a<br>50% chance</div></div><div class='respDivL'><div class='vertical-center'><font style='color:orange'>(E)</font></div></div><div class='respDivR'><div class='vertical-center'>(I)</div></div></div>","null","$7","$10","0","7","10",""
"html-keyboard-response","133","176605","0.0-5.0-1.43","58016c9f551314000145af58","bdp_rd","Fri Mar 24 2023 19:44:03 GMT-0400 (Eastern Daylight Time)","231502","","null","","","","FIX","","<div class='trialBorder'><div class='vertical-center'><img style='vertical-align:center; align:center' src=img/fixation3.jpg></div></div>","null","","","","","",""
"html-keyboard-response","134","178801","0.0-5.0-2.43","58016c9f551314000145af58","bdp_rd","Fri Mar 24 2023 19:44:03 GMT-0400 (Eastern Daylight Time)","231502","","2195","","","","offer","","<div class='trialBorder'><div class='vertical-center'><img style='vertical-align:center; align:center' src=img/fixation3.jpg></div><div class='cl'><div class='vertical-center'>$39<br>with a<br>50% chance</div></div><div class='cr'><div class='vertical-center'>$18<br>for<br>sure</div></div><div class='respDivL'><div class='vertical-center'>(E)</div></div><div class='respDivR'><div class='vertical-center'>(I)</div></div></div>","I","$18","$39","1","18","39","SURE"
"html-keyboard-response","135","179054","0.0-5.0-3.43","58016c9f551314000145af58","bdp_rd","Fri Mar 24 2023 19:44:03 GMT-0400 (Eastern Daylight Time)","231502","","null","","","","offerFB","","<div class='trialBorder'><div class='vertical-center'><img style='vertical-align:center; align:center' src=img/fixation3.jpg></div><div class='cl'><div class='vertical-center'>$39<br>with a<br>50% chance</div></div><div class='cr'><div class='vertical-center'><font style='color:orange'>$18<br>for<br>sure</font></div></div><div class='respDivL'><div class='vertical-center'>(E)</div></div><div class='respDivR'><div class='vertical-center'><font style='color:orange'>(I)</font></div></div></div>","null","$18","$39","1","18","39",""
"html-keyboard-response","136","179558","0.0-5.0-1.44","58016c9f551314000145af58","bdp_rd","Fri Mar 24 2023 19:44:03 GMT-0400 (Eastern Daylight Time)","231502","","null","","","","FIX","","<div class='trialBorder'><div class='vertical-center'><img style='vertical-align:center; align:center' src=img/fixation3.jpg></div></div>","null","","","","","",""
"html-keyboard-response","137","189125","0.0-5.0-2.44","58016c9f551314000145af58","bdp_rd","Fri Mar 24 2023 19:44:03 GMT-0400 (Eastern Daylight Time)","231502","","9565","","","","offer","","<div class='trialBorder'><div class='vertical-center'><img style='vertical-align:center; align:center' src=img/fixation3.jpg></div><div class='cl'><div class='vertical-center'>$25<br>with a<br>50% chance</div></div><div class='cr'><div class='vertical-center'>$21<br>for<br>sure</div></div><div class='respDivL'><div class='vertical-center'>(E)</div></div><div class='respDivR'><div class='vertical-center'>(I)</div></div></div>","I","$21","$25","1","21","25","SURE"
"html-keyboard-response","138","189382","0.0-5.0-3.44","58016c9f551314000145af58","bdp_rd","Fri Mar 24 2023 19:44:03 GMT-0400 (Eastern Daylight Time)","231502","","null","","","","offerFB","","<div class='trialBorder'><div class='vertical-center'><img style='vertical-align:center; align:center' src=img/fixation3.jpg></div><div class='cl'><div class='vertical-center'>$25<br>with a<br>50% chance</div></div><div class='cr'><div class='vertical-center'><font style='color:orange'>$21<br>for<br>sure</font></div></div><div class='respDivL'><div class='vertical-center'>(E)</div></div><div class='respDivR'><div class='vertical-center'><font style='color:orange'>(I)</font></div></div></div>","null","$21","$25","1","21","25",""
"html-keyboard-response","139","189886","0.0-5.0-1.45","58016c9f551314000145af58","bdp_rd","Fri Mar 24 2023 19:44:03 GMT-0400 (Eastern Daylight Time)","231502","","null","","","","FIX","","<div class='trialBorder'><div class='vertical-center'><img style='vertical-align:center; align:center' src=img/fixation3.jpg></div></div>","null","","","","","",""
"html-keyboard-response","140","191705","0.0-5.0-2.45","58016c9f551314000145af58","bdp_rd","Fri Mar 24 2023 19:44:03 GMT-0400 (Eastern Daylight Time)","231502","","1817","","","","offer","","<div class='trialBorder'><div class='vertical-center'><img style='vertical-align:center; align:center' src=img/fixation3.jpg></div><div class='cl'><div class='vertical-center'>$15<br>for<br>sure</div></div><div class='cr'><div class='vertical-center'>$34<br>with a<br>50% chance</div></div><div class='respDivL'><div class='vertical-center'>(E)</div></div><div class='respDivR'><div class='vertical-center'>(I)</div></div></div>","E","$15","$34","0","15","34","SURE"
"html-keyboard-response","141","191958","0.0-5.0-3.45","58016c9f551314000145af58","bdp_rd","Fri Mar 24 2023 19:44:03 GMT-0400 (Eastern Daylight Time)","231502","","null","","","","offerFB","","<div class='trialBorder'><div class='vertical-center'><img style='vertical-align:center; align:center' src=img/fixation3.jpg></div><div class='cl'><div class='vertical-center'><font style='color:orange'>$15<br>for<br>sure</font></div></div><div class='cr'><div class='vertical-center'>$34<br>with a<br>50% chance</div></div><div class='respDivL'><div class='vertical-center'><font style='color:orange'>(E)</font></div></div><div class='respDivR'><div class='vertical-center'>(I)</div></div></div>","null","$15","$34","0","15","34",""
"html-keyboard-response","142","192463","0.0-5.0-1.46","58016c9f551314000145af58","bdp_rd","Fri Mar 24 2023 19:44:03 GMT-0400 (Eastern Daylight Time)","231502","","null","","","","FIX","","<div class='trialBorder'><div class='vertical-center'><img style='vertical-align:center; align:center' src=img/fixation3.jpg></div></div>","null","","","","","",""
"html-keyboard-response","143","194753","0.0-5.0-2.46","58016c9f551314000145af58","bdp_rd","Fri Mar 24 2023 19:44:03 GMT-0400 (Eastern Daylight Time)","231502","","2288","","","","offer","","<div class='trialBorder'><div class='vertical-center'><img style='vertical-align:center; align:center' src=img/fixation3.jpg></div><div class='cl'><div class='vertical-center'>$13<br>for<br>sure</div></div><div class='cr'><div class='vertical-center'>$24<br>with a<br>50% chance</div></div><div class='respDivL'><div class='vertical-center'>(E)</div></div><div class='respDivR'><div class='vertical-center'>(I)</div></div></div>","E","$13","$24","0","13","24","SURE"
"html-keyboard-response","144","195007","0.0-5.0-3.46","58016c9f551314000145af58","bdp_rd","Fri Mar 24 2023 19:44:03 GMT-0400 (Eastern Daylight Time)","231502","","null","","","","offerFB","","<div class='trialBorder'><div class='vertical-center'><img style='vertical-align:center; align:center' src=img/fixation3.jpg></div><div class='cl'><div class='vertical-center'><font style='color:orange'>$13<br>for<br>sure</font></div></div><div class='cr'><div class='vertical-center'>$24<br>with a<br>50% chance</div></div><div class='respDivL'><div class='vertical-center'><font style='color:orange'>(E)</font></div></div><div class='respDivR'><div class='vertical-center'>(I)</div></div></div>","null","$13","$24","0","13","24",""
"html-keyboard-response","145","195511","0.0-5.0-1.47","58016c9f551314000145af58","bdp_rd","Fri Mar 24 2023 19:44:03 GMT-0400 (Eastern Daylight Time)","231502","","null","","","","FIX","","<div class='trialBorder'><div class='vertical-center'><img style='vertical-align:center; align:center' src=img/fixation3.jpg></div></div>","null","","","","","",""
"html-keyboard-response","146","197081","0.0-5.0-2.47","58016c9f551314000145af58","bdp_rd","Fri Mar 24 2023 19:44:03 GMT-0400 (Eastern Daylight Time)","231502","","1568","","","","offer","","<div class='trialBorder'><div class='vertical-center'><img style='vertical-align:center; align:center' src=img/fixation3.jpg></div><div class='cl'><div class='vertical-center'>$1<br>for<br>sure</div></div><div class='cr'><div class='vertical-center'>$33<br>with a<br>50% chance</div></div><div class='respDivL'><div class='vertical-center'>(E)</div></div><div class='respDivR'><div class='vertical-center'>(I)</div></div></div>","I","$1","$33","0","1","33","RISKY"
"html-keyboard-response","147","197335","0.0-5.0-3.47","58016c9f551314000145af58","bdp_rd","Fri Mar 24 2023 19:44:03 GMT-0400 (Eastern Daylight Time)","231502","","null","","","","offerFB","","<div class='trialBorder'><div class='vertical-center'><img style='vertical-align:center; align:center' src=img/fixation3.jpg></div><div class='cl'><div class='vertical-center'>$1<br>for<br>sure</div></div><div class='cr'><div class='vertical-center'><font style='color:orange'>$33<br>with a<br>50% chance</font></div></div><div class='respDivL'><div class='vertical-center'>(E)</div></div><div class='respDivR'><div class='vertical-center'><font style='color:orange'>(I)</font></div></div></div>","null","$1","$33","0","1","33",""
"html-keyboard-response","148","197839","0.0-5.0-1.48","58016c9f551314000145af58","bdp_rd","Fri Mar 24 2023 19:44:03 GMT-0400 (Eastern Daylight Time)","231502","","null","","","","FIX","","<div class='trialBorder'><div class='vertical-center'><img style='vertical-align:center; align:center' src=img/fixation3.jpg></div></div>","null","","","","","",""
"html-keyboard-response","149","199236","0.0-5.0-2.48","58016c9f551314000145af58","bdp_rd","Fri Mar 24 2023 19:44:03 GMT-0400 (Eastern Daylight Time)","231502","","1397","","","","offer","","<div class='trialBorder'><div class='vertical-center'><img style='vertical-align:center; align:center' src=img/fixation3.jpg></div><div class='cl'><div class='vertical-center'>$8<br>for<br>sure</div></div><div class='cr'><div class='vertical-center'>$23<br>with a<br>50% chance</div></div><div class='respDivL'><div class='vertical-center'>(E)</div></div><div class='respDivR'><div class='vertical-center'>(I)</div></div></div>","I","$8","$23","0","8","23","RISKY"
"html-keyboard-response","150","199495","0.0-5.0-3.48","58016c9f551314000145af58","bdp_rd","Fri Mar 24 2023 19:44:03 GMT-0400 (Eastern Daylight Time)","231502","","null","","","","offerFB","","<div class='trialBorder'><div class='vertical-center'><img style='vertical-align:center; align:center' src=img/fixation3.jpg></div><div class='cl'><div class='vertical-center'>$8<br>for<br>sure</div></div><div class='cr'><div class='vertical-center'><font style='color:orange'>$23<br>with a<br>50% chance</font></div></div><div class='respDivL'><div class='vertical-center'>(E)</div></div><div class='respDivR'><div class='vertical-center'><font style='color:orange'>(I)</font></div></div></div>","null","$8","$23","0","8","23",""
"html-keyboard-response","151","199999","0.0-5.0-1.49","58016c9f551314000145af58","bdp_rd","Fri Mar 24 2023 19:44:03 GMT-0400 (Eastern Daylight Time)","231502","","null","","","","FIX","","<div class='trialBorder'><div class='vertical-center'><img style='vertical-align:center; align:center' src=img/fixation3.jpg></div></div>","null","","","","","",""
"html-keyboard-response","152","201992","0.0-5.0-2.49","58016c9f551314000145af58","bdp_rd","Fri Mar 24 2023 19:44:03 GMT-0400 (Eastern Daylight Time)","231502","","1993","","","","offer","","<div class='trialBorder'><div class='vertical-center'><img style='vertical-align:center; align:center' src=img/fixation3.jpg></div><div class='cl'><div class='vertical-center'>$25<br>for<br>sure</div></div><div class='cr'><div class='vertical-center'>$54<br>with a<br>50% chance</div></div><div class='respDivL'><div class='vertical-center'>(E)</div></div><div class='respDivR'><div class='vertical-center'>(I)</div></div></div>","I","$25","$54","0","25","54","RISKY"
"html-keyboard-response","153","202247","0.0-5.0-3.49","58016c9f551314000145af58","bdp_rd","Fri Mar 24 2023 19:44:03 GMT-0400 (Eastern Daylight Time)","231502","","null","","","","offerFB","","<div class='trialBorder'><div class='vertical-center'><img style='vertical-align:center; align:center' src=img/fixation3.jpg></div><div class='cl'><div class='vertical-center'>$25<br>for<br>sure</div></div><div class='cr'><div class='vertical-center'><font style='color:orange'>$54<br>with a<br>50% chance</font></div></div><div class='respDivL'><div class='vertical-center'>(E)</div></div><div class='respDivR'><div class='vertical-center'><font style='color:orange'>(I)</font></div></div></div>","null","$25","$54","0","25","54",""
"html-keyboard-response","154","202750","0.0-5.0-1.50","58016c9f551314000145af58","bdp_rd","Fri Mar 24 2023 19:44:03 GMT-0400 (Eastern Daylight Time)","231502","","null","","","","FIX","","<div class='trialBorder'><div class='vertical-center'><img style='vertical-align:center; align:center' src=img/fixation3.jpg></div></div>","null","","","","","",""
"html-keyboard-response","155","204481","0.0-5.0-2.50","58016c9f551314000145af58","bdp_rd","Fri Mar 24 2023 19:44:03 GMT-0400 (Eastern Daylight Time)","231502","","1730","","","","offer","","<div class='trialBorder'><div class='vertical-center'><img style='vertical-align:center; align:center' src=img/fixation3.jpg></div><div class='cl'><div class='vertical-center'>$20<br>for<br>sure</div></div><div class='cr'><div class='vertical-center'>$37<br>with a<br>50% chance</div></div><div class='respDivL'><div class='vertical-center'>(E)</div></div><div class='respDivR'><div class='vertical-center'>(I)</div></div></div>","E","$20","$37","0","20","37","SURE"
"html-keyboard-response","156","204735","0.0-5.0-3.50","58016c9f551314000145af58","bdp_rd","Fri Mar 24 2023 19:44:03 GMT-0400 (Eastern Daylight Time)","231502","","null","","","","offerFB","","<div class='trialBorder'><div class='vertical-center'><img style='vertical-align:center; align:center' src=img/fixation3.jpg></div><div class='cl'><div class='vertical-center'><font style='color:orange'>$20<br>for<br>sure</font></div></div><div class='cr'><div class='vertical-center'>$37<br>with a<br>50% chance</div></div><div class='respDivL'><div class='vertical-center'><font style='color:orange'>(E)</font></div></div><div class='respDivR'><div class='vertical-center'>(I)</div></div></div>","null","$20","$37","0","20","37",""
"html-keyboard-response","157","205238","0.0-5.0-1.51","58016c9f551314000145af58","bdp_rd","Fri Mar 24 2023 19:44:03 GMT-0400 (Eastern Daylight Time)","231502","","null","","","","FIX","","<div class='trialBorder'><div class='vertical-center'><img style='vertical-align:center; align:center' src=img/fixation3.jpg></div></div>","null","","","","","",""
"html-keyboard-response","158","206952","0.0-5.0-2.51","58016c9f551314000145af58","bdp_rd","Fri Mar 24 2023 19:44:03 GMT-0400 (Eastern Daylight Time)","231502","","1713","","","","offer","","<div class='trialBorder'><div class='vertical-center'><img style='vertical-align:center; align:center' src=img/fixation3.jpg></div><div class='cl'><div class='vertical-center'>$10<br>for<br>sure</div></div><div class='cr'><div class='vertical-center'>$19<br>with a<br>50% chance</div></div><div class='respDivL'><div class='vertical-center'>(E)</div></div><div class='respDivR'><div class='vertical-center'>(I)</div></div></div>","E","$10","$19","0","10","19","SURE"
"html-keyboard-response","159","207207","0.0-5.0-3.51","58016c9f551314000145af58","bdp_rd","Fri Mar 24 2023 19:44:03 GMT-0400 (Eastern Daylight Time)","231502","","null","","","","offerFB","","<div class='trialBorder'><div class='vertical-center'><img style='vertical-align:center; align:center' src=img/fixation3.jpg></div><div class='cl'><div class='vertical-center'><font style='color:orange'>$10<br>for<br>sure</font></div></div><div class='cr'><div class='vertical-center'>$19<br>with a<br>50% chance</div></div><div class='respDivL'><div class='vertical-center'><font style='color:orange'>(E)</font></div></div><div class='respDivR'><div class='vertical-center'>(I)</div></div></div>","null","$10","$19","0","10","19",""
"html-keyboard-response","160","207710","0.0-5.0-1.52","58016c9f551314000145af58","bdp_rd","Fri Mar 24 2023 19:44:03 GMT-0400 (Eastern Daylight Time)","231502","","null","","","","FIX","","<div class='trialBorder'><div class='vertical-center'><img style='vertical-align:center; align:center' src=img/fixation3.jpg></div></div>","null","","","","","",""
"html-keyboard-response","161","211819","0.0-5.0-2.52","58016c9f551314000145af58","bdp_rd","Fri Mar 24 2023 19:44:03 GMT-0400 (Eastern Daylight Time)","231502","","4108","","","","offer","","<div class='trialBorder'><div class='vertical-center'><img style='vertical-align:center; align:center' src=img/fixation3.jpg></div><div class='cl'><div class='vertical-center'>$100<br>with a<br>50% chance</div></div><div class='cr'><div class='vertical-center'>$63<br>for<br>sure</div></div><div class='respDivL'><div class='vertical-center'>(E)</div></div><div class='respDivR'><div class='vertical-center'>(I)</div></div></div>","E","$63","$100","1","63","10","RISKY"
"html-keyboard-response","162","212078","0.0-5.0-3.52","58016c9f551314000145af58","bdp_rd","Fri Mar 24 2023 19:44:03 GMT-0400 (Eastern Daylight Time)","231502","","null","","","","offerFB","","<div class='trialBorder'><div class='vertical-center'><img style='vertical-align:center; align:center' src=img/fixation3.jpg></div><div class='cl'><div class='vertical-center'><font style='color:orange'>$100<br>with a<br>50% chance</font></div></div><div class='cr'><div class='vertical-center'>$63<br>for<br>sure</div></div><div class='respDivL'><div class='vertical-center'><font style='color:orange'>(E)</font></div></div><div class='respDivR'><div class='vertical-center'>(I)</div></div></div>","null","$63","$100","1","63","10",""
"html-keyboard-response","163","212582","0.0-5.0-1.53","58016c9f551314000145af58","bdp_rd","Fri Mar 24 2023 19:44:03 GMT-0400 (Eastern Daylight Time)","231502","","null","","","","FIX","","<div class='trialBorder'><div class='vertical-center'><img style='vertical-align:center; align:center' src=img/fixation3.jpg></div></div>","null","","","","","",""
"html-keyboard-response","164","214424","0.0-5.0-2.53","58016c9f551314000145af58","bdp_rd","Fri Mar 24 2023 19:44:03 GMT-0400 (Eastern Daylight Time)","231502","","1841","","","","offer","","<div class='trialBorder'><div class='vertical-center'><img style='vertical-align:center; align:center' src=img/fixation3.jpg></div><div class='cl'><div class='vertical-center'>$30<br>for<br>sure</div></div><div class='cr'><div class='vertical-center'>$68<br>with a<br>50% chance</div></div><div class='respDivL'><div class='vertical-center'>(E)</div></div><div class='respDivR'><div class='vertical-center'>(I)</div></div></div>","I","$30","$68","0","30","68","RISKY"
"html-keyboard-response","165","214678","0.0-5.0-3.53","58016c9f551314000145af58","bdp_rd","Fri Mar 24 2023 19:44:03 GMT-0400 (Eastern Daylight Time)","231502","","null","","","","offerFB","","<div class='trialBorder'><div class='vertical-center'><img style='vertical-align:center; align:center' src=img/fixation3.jpg></div><div class='cl'><div class='vertical-center'>$30<br>for<br>sure</div></div><div class='cr'><div class='vertical-center'><font style='color:orange'>$68<br>with a<br>50% chance</font></div></div><div class='respDivL'><div class='vertical-center'>(E)</div></div><div class='respDivR'><div class='vertical-center'><font style='color:orange'>(I)</font></div></div></div>","null","$30","$68","0","30","68",""
"html-keyboard-response","166","215182","0.0-5.0-1.54","58016c9f551314000145af58","bdp_rd","Fri Mar 24 2023 19:44:03 GMT-0400 (Eastern Daylight Time)","231502","","null","","","","FIX","","<div class='trialBorder'><div class='vertical-center'><img style='vertical-align:center; align:center' src=img/fixation3.jpg></div></div>","null","","","","","",""
"html-keyboard-response","167","217992","0.0-5.0-2.54","58016c9f551314000145af58","bdp_rd","Fri Mar 24 2023 19:44:03 GMT-0400 (Eastern Daylight Time)","231502","","2809","","","","offer","","<div class='trialBorder'><div class='vertical-center'><img style='vertical-align:center; align:center' src=img/fixation3.jpg></div><div class='cl'><div class='vertical-center'>$11<br>for<br>sure</div></div><div class='cr'><div class='vertical-center'>$26<br>with a<br>50% chance</div></div><div class='respDivL'><div class='vertical-center'>(E)</div></div><div class='respDivR'><div class='vertical-center'>(I)</div></div></div>","E","$11","$26","0","11","26","SURE"
"html-keyboard-response","168","218246","0.0-5.0-3.54","58016c9f551314000145af58","bdp_rd","Fri Mar 24 2023 19:44:03 GMT-0400 (Eastern Daylight Time)","231502","","null","","","","offerFB","","<div class='trialBorder'><div class='vertical-center'><img style='vertical-align:center; align:center' src=img/fixation3.jpg></div><div class='cl'><div class='vertical-center'><font style='color:orange'>$11<br>for<br>sure</font></div></div><div class='cr'><div class='vertical-center'>$26<br>with a<br>50% chance</div></div><div class='respDivL'><div class='vertical-center'><font style='color:orange'>(E)</font></div></div><div class='respDivR'><div class='vertical-center'>(I)</div></div></div>","null","$11","$26","0","11","26",""
"html-keyboard-response","169","218750","0.0-5.0-1.55","58016c9f551314000145af58","bdp_rd","Fri Mar 24 2023 19:44:03 GMT-0400 (Eastern Daylight Time)","231502","","null","","","","FIX","","<div class='trialBorder'><div class='vertical-center'><img style='vertical-align:center; align:center' src=img/fixation3.jpg></div></div>","null","","","","","",""
"html-keyboard-response","170","220800","0.0-5.0-2.55","58016c9f551314000145af58","bdp_rd","Fri Mar 24 2023 19:44:03 GMT-0400 (Eastern Daylight Time)","231502","","2049","","","","offer","","<div class='trialBorder'><div class='vertical-center'><img style='vertical-align:center; align:center' src=img/fixation3.jpg></div><div class='cl'><div class='vertical-center'>$14<br>for<br>sure</div></div><div class='cr'><div class='vertical-center'>$29<br>with a<br>50% chance</div></div><div class='respDivL'><div class='vertical-center'>(E)</div></div><div class='respDivR'><div class='vertical-center'>(I)</div></div></div>","E","$14","$29","0","14","29","SURE"
"html-keyboard-response","171","221054","0.0-5.0-3.55","58016c9f551314000145af58","bdp_rd","Fri Mar 24 2023 19:44:03 GMT-0400 (Eastern Daylight Time)","231502","","null","","","","offerFB","","<div class='trialBorder'><div class='vertical-center'><img style='vertical-align:center; align:center' src=img/fixation3.jpg></div><div class='cl'><div class='vertical-center'><font style='color:orange'>$14<br>for<br>sure</font></div></div><div class='cr'><div class='vertical-center'>$29<br>with a<br>50% chance</div></div><div class='respDivL'><div class='vertical-center'><font style='color:orange'>(E)</font></div></div><div class='respDivR'><div class='vertical-center'>(I)</div></div></div>","null","$14","$29","0","14","29",""
"html-keyboard-response","172","221558","0.0-5.0-1.56","58016c9f551314000145af58","bdp_rd","Fri Mar 24 2023 19:44:03 GMT-0400 (Eastern Daylight Time)","231502","","null","","","","FIX","","<div class='trialBorder'><div class='vertical-center'><img style='vertical-align:center; align:center' src=img/fixation3.jpg></div></div>","null","","","","","",""
"html-keyboard-response","173","223115","0.0-5.0-2.56","58016c9f551314000145af58","bdp_rd","Fri Mar 24 2023 19:44:03 GMT-0400 (Eastern Daylight Time)","231502","","1556","","","","offer","","<div class='trialBorder'><div class='vertical-center'><img style='vertical-align:center; align:center' src=img/fixation3.jpg></div><div class='cl'><div class='vertical-center'>$24<br>for<br>sure</div></div><div class='cr'><div class='vertical-center'>$70<br>with a<br>50% chance</div></div><div class='respDivL'><div class='vertical-center'>(E)</div></div><div class='respDivR'><div class='vertical-center'>(I)</div></div></div>","I","$24","$70","0","24","70","RISKY"
