"trial_type","trial_index","time_elapsed","internal_node_id","subject_id","task","startTime","totalTime","view_history","rt","event","trial","time","trialtype","success","stimulus","key_press","sureOffer","riskyOffer","riskyLeft","sureAmt","riskyAmt","chosen"
"pavlovia","0","2","0.0-0.0","5fb3d39a2ceaab00087faddb","bdp_rd","Sun Mar 26 2023 13:16:34 GMT-0500 (Central Daylight Time)","212587","","","","","","","","","","","","","","",""
"instructions","1","2325","0.0-1.0","5fb3d39a2ceaab00087faddb","bdp_rd","Sun Mar 26 2023 13:16:34 GMT-0500 (Central Daylight Time)","212587","[{""page_index"":0,""viewing_time"":2322}]","2322","","","","","","","","","","","","",""
"","","","","5fb3d39a2ceaab00087faddb","bdp_rd","Sun Mar 26 2023 13:16:34 GMT-0500 (Central Daylight Time)","212587","","","fullscreenenter","2","3514","fullscreenenter","","","","","","","","",""
"fullscreen","2","4505","0.0-2.0","5fb3d39a2ceaab00087faddb","bdp_rd","Sun Mar 26 2023 13:16:34 GMT-0500 (Central Daylight Time)","212587","","","","","","","true","","","","","","","",""
"instructions","3","59375","0.0-4.0","5fb3d39a2ceaab00087faddb","bdp_rd","Sun Mar 26 2023 13:16:34 GMT-0500 (Central Daylight Time)","212587","[{""page_index"":0,""viewing_time"":9645},{""page_index"":1,""viewing_time"":39144},{""page_index"":2,""viewing_time"":6079}]","54869","","","","","","","","","","","","",""
"html-keyboard-response","4","59878","0.0-5.0-1.0","5fb3d39a2ceaab00087faddb","bdp_rd","Sun Mar 26 2023 13:16:34 GMT-0500 (Central Daylight Time)","212587","","null","","","","FIX","","<div class='trialBorder'><div class='vertical-center'><img style='vertical-align:center; align:center' src=img/fixation3.jpg></div></div>","null","","","","","",""
"html-keyboard-response","5","62055","0.0-5.0-2.0","5fb3d39a2ceaab00087faddb","bdp_rd","Sun Mar 26 2023 13:16:34 GMT-0500 (Central Daylight Time)","212587","","2175","","","","offer","","<div class='trialBorder'><div class='vertical-center'><img style='vertical-align:center; align:center' src=img/fixation3.jpg></div><div class='cl'><div class='vertical-center'>$64<br>with a<br>50% chance</div></div><div class='cr'><div class='vertical-center'>$2<br>for<br>sure</div></div><div class='respDivL'><div class='vertical-center'>(E)</div></div><div class='respDivR'><div class='vertical-center'>(I)</div></div></div>","E","$2","$64","1","2","64","RISKY"
"html-keyboard-response","6","62308","0.0-5.0-3.0","5fb3d39a2ceaab00087faddb","bdp_rd","Sun Mar 26 2023 13:16:34 GMT-0500 (Central Daylight Time)","212587","","null","","","","offerFB","","<div class='trialBorder'><div class='vertical-center'><img style='vertical-align:center; align:center' src=img/fixation3.jpg></div><div class='cl'><div class='vertical-center'><font style='color:orange'>$64<br>with a<br>50% chance</font></div></div><div class='cr'><div class='vertical-center'>$2<br>for<br>sure</div></div><div class='respDivL'><div class='vertical-center'><font style='color:orange'>(E)</font></div></div><div class='respDivR'><div class='vertical-center'>(I)</div></div></div>","null","$2","$64","1","2","64",""
"html-keyboard-response","7","62811","0.0-5.0-1.1","5fb3d39a2ceaab00087faddb","bdp_rd","Sun Mar 26 2023 13:16:34 GMT-0500 (Central Daylight Time)","212587","","null","","","","FIX","","<div class='trialBorder'><div class='vertical-center'><img style='vertical-align:center; align:center' src=img/fixation3.jpg></div></div>","null","","","","","",""
"html-keyboard-response","8","64872","0.0-5.0-2.1","5fb3d39a2ceaab00087faddb","bdp_rd","Sun Mar 26 2023 13:16:34 GMT-0500 (Central Daylight Time)","212587","","2059","","","","offer","","<div class='trialBorder'><div class='vertical-center'><img style='vertical-align:center; align:center' src=img/fixation3.jpg></div><div class='cl'><div class='vertical-center'>$17<br>with a<br>50% chance</div></div><div class='cr'><div class='vertical-center'>$3<br>for<br>sure</div></div><div class='respDivL'><div class='vertical-center'>(E)</div></div><div class='respDivR'><div class='vertical-center'>(I)</div></div></div>","E","$3","$17","1","3","17","RISKY"
"html-keyboard-response","9","65124","0.0-5.0-3.1","5fb3d39a2ceaab00087faddb","bdp_rd","Sun Mar 26 2023 13:16:34 GMT-0500 (Central Daylight Time)","212587","","null","","","","offerFB","","<div class='trialBorder'><div class='vertical-center'><img style='vertical-align:center; align:center' src=img/fixation3.jpg></div><div class='cl'><div class='vertical-center'><font style='color:orange'>$17<br>with a<br>50% chance</font></div></div><div class='cr'><div class='vertical-center'>$3<br>for<br>sure</div></div><div class='respDivL'><div class='vertical-center'><font style='color:orange'>(E)</font></div></div><div class='respDivR'><div class='vertical-center'>(I)</div></div></div>","null","$3","$17","1","3","17",""
"html-keyboard-response","10","65626","0.0-5.0-1.2","5fb3d39a2ceaab00087faddb","bdp_rd","Sun Mar 26 2023 13:16:34 GMT-0500 (Central Daylight Time)","212587","","null","","","","FIX","","<div class='trialBorder'><div class='vertical-center'><img style='vertical-align:center; align:center' src=img/fixation3.jpg></div></div>","null","","","","","",""
"html-keyboard-response","11","67312","0.0-5.0-2.2","5fb3d39a2ceaab00087faddb","bdp_rd","Sun Mar 26 2023 13:16:34 GMT-0500 (Central Daylight Time)","212587","","1685","","","","offer","","<div class='trialBorder'><div class='vertical-center'><img style='vertical-align:center; align:center' src=img/fixation3.jpg></div><div class='cl'><div class='vertical-center'>$24<br>for<br>sure</div></div><div class='cr'><div class='vertical-center'>$70<br>with a<br>50% chance</div></div><div class='respDivL'><div class='vertical-center'>(E)</div></div><div class='respDivR'><div class='vertical-center'>(I)</div></div></div>","I","$24","$70","0","24","70","RISKY"
"html-keyboard-response","12","67564","0.0-5.0-3.2","5fb3d39a2ceaab00087faddb","bdp_rd","Sun Mar 26 2023 13:16:34 GMT-0500 (Central Daylight Time)","212587","","null","","","","offerFB","","<div class='trialBorder'><div class='vertical-center'><img style='vertical-align:center; align:center' src=img/fixation3.jpg></div><div class='cl'><div class='vertical-center'>$24<br>for<br>sure</div></div><div class='cr'><div class='vertical-center'><font style='color:orange'>$70<br>with a<br>50% chance</font></div></div><div class='respDivL'><div class='vertical-center'>(E)</div></div><div class='respDivR'><div class='vertical-center'><font style='color:orange'>(I)</font></div></div></div>","null","$24","$70","0","24","70",""
"html-keyboard-response","13","68067","0.0-5.0-1.3","5fb3d39a2ceaab00087faddb","bdp_rd","Sun Mar 26 2023 13:16:34 GMT-0500 (Central Daylight Time)","212587","","null","","","","FIX","","<div class='trialBorder'><div class='vertical-center'><img style='vertical-align:center; align:center' src=img/fixation3.jpg></div></div>","null","","","","","",""
"html-keyboard-response","14","70086","0.0-5.0-2.3","5fb3d39a2ceaab00087faddb","bdp_rd","Sun Mar 26 2023 13:16:34 GMT-0500 (Central Daylight Time)","212587","","2018","","","","offer","","<div class='trialBorder'><div class='vertical-center'><img style='vertical-align:center; align:center' src=img/fixation3.jpg></div><div class='cl'><div class='vertical-center'>$36<br>with a<br>50% chance</div></div><div class='cr'><div class='vertical-center'>$18<br>for<br>sure</div></div><div class='respDivL'><div class='vertical-center'>(E)</div></div><div class='respDivR'><div class='vertical-center'>(I)</div></div></div>","E","$18","$36","1","18","36","RISKY"
"html-keyboard-response","15","70339","0.0-5.0-3.3","5fb3d39a2ceaab00087faddb","bdp_rd","Sun Mar 26 2023 13:16:34 GMT-0500 (Central Daylight Time)","212587","","null","","","","offerFB","","<div class='trialBorder'><div class='vertical-center'><img style='vertical-align:center; align:center' src=img/fixation3.jpg></div><div class='cl'><div class='vertical-center'><font style='color:orange'>$36<br>with a<br>50% chance</font></div></div><div class='cr'><div class='vertical-center'>$18<br>for<br>sure</div></div><div class='respDivL'><div class='vertical-center'><font style='color:orange'>(E)</font></div></div><div class='respDivR'><div class='vertical-center'>(I)</div></div></div>","null","$18","$36","1","18","36",""
"html-keyboard-response","16","70841","0.0-5.0-1.4","5fb3d39a2ceaab00087faddb","bdp_rd","Sun Mar 26 2023 13:16:34 GMT-0500 (Central Daylight Time)","212587","","null","","","","FIX","","<div class='trialBorder'><div class='vertical-center'><img style='vertical-align:center; align:center' src=img/fixation3.jpg></div></div>","null","","","","","",""
"html-keyboard-response","17","72611","0.0-5.0-2.4","5fb3d39a2ceaab00087faddb","bdp_rd","Sun Mar 26 2023 13:16:34 GMT-0500 (Central Daylight Time)","212587","","1769","","","","offer","","<div class='trialBorder'><div class='vertical-center'><img style='vertical-align:center; align:center' src=img/fixation3.jpg></div><div class='cl'><div class='vertical-center'>$44<br>with a<br>50% chance</div></div><div class='cr'><div class='vertical-center'>$37<br>for<br>sure</div></div><div class='respDivL'><div class='vertical-center'>(E)</div></div><div class='respDivR'><div class='vertical-center'>(I)</div></div></div>","I","$37","$44","1","37","44","SURE"
"html-keyboard-response","18","72863","0.0-5.0-3.4","5fb3d39a2ceaab00087faddb","bdp_rd","Sun Mar 26 2023 13:16:34 GMT-0500 (Central Daylight Time)","212587","","null","","","","offerFB","","<div class='trialBorder'><div class='vertical-center'><img style='vertical-align:center; align:center' src=img/fixation3.jpg></div><div class='cl'><div class='vertical-center'>$44<br>with a<br>50% chance</div></div><div class='cr'><div class='vertical-center'><font style='color:orange'>$37<br>for<br>sure</font></div></div><div class='respDivL'><div class='vertical-center'>(E)</div></div><div class='respDivR'><div class='vertical-center'><font style='color:orange'>(I)</font></div></div></div>","null","$37","$44","1","37","44",""
"html-keyboard-response","19","73366","0.0-5.0-1.5","5fb3d39a2ceaab00087faddb","bdp_rd","Sun Mar 26 2023 13:16:34 GMT-0500 (Central Daylight Time)","212587","","null","","","","FIX","","<div class='trialBorder'><div class='vertical-center'><img style='vertical-align:center; align:center' src=img/fixation3.jpg></div></div>","null","","","","","",""
"html-keyboard-response","20","74950","0.0-5.0-2.5","5fb3d39a2ceaab00087faddb","bdp_rd","Sun Mar 26 2023 13:16:34 GMT-0500 (Central Daylight Time)","212587","","1584","","","","offer","","<div class='trialBorder'><div class='vertical-center'><img style='vertical-align:center; align:center' src=img/fixation3.jpg></div><div class='cl'><div class='vertical-center'>$15<br>with a<br>50% chance</div></div><div class='cr'><div class='vertical-center'>$6<br>for<br>sure</div></div><div class='respDivL'><div class='vertical-center'>(E)</div></div><div class='respDivR'><div class='vertical-center'>(I)</div></div></div>","E","$6","$15","1","6","15","RISKY"
"html-keyboard-response","21","75202","0.0-5.0-3.5","5fb3d39a2ceaab00087faddb","bdp_rd","Sun Mar 26 2023 13:16:34 GMT-0500 (Central Daylight Time)","212587","","null","","","","offerFB","","<div class='trialBorder'><div class='vertical-center'><img style='vertical-align:center; align:center' src=img/fixation3.jpg></div><div class='cl'><div class='vertical-center'><font style='color:orange'>$15<br>with a<br>50% chance</font></div></div><div class='cr'><div class='vertical-center'>$6<br>for<br>sure</div></div><div class='respDivL'><div class='vertical-center'><font style='color:orange'>(E)</font></div></div><div class='respDivR'><div class='vertical-center'>(I)</div></div></div>","null","$6","$15","1","6","15",""
"html-keyboard-response","22","75704","0.0-5.0-1.6","5fb3d39a2ceaab00087faddb","bdp_rd","Sun Mar 26 2023 13:16:34 GMT-0500 (Central Daylight Time)","212587","","null","","","","FIX","","<div class='trialBorder'><div class='vertical-center'><img style='vertical-align:center; align:center' src=img/fixation3.jpg></div></div>","null","","","","","",""
"html-keyboard-response","23","77118","0.0-5.0-2.6","5fb3d39a2ceaab00087faddb","bdp_rd","Sun Mar 26 2023 13:16:34 GMT-0500 (Central Daylight Time)","212587","","1413","","","","offer","","<div class='trialBorder'><div class='vertical-center'><img style='vertical-align:center; align:center' src=img/fixation3.jpg></div><div class='cl'><div class='vertical-center'>$18<br>for<br>sure</div></div><div class='cr'><div class='vertical-center'>$39<br>with a<br>50% chance</div></div><div class='respDivL'><div class='vertical-center'>(E)</div></div><div class='respDivR'><div class='vertical-center'>(I)</div></div></div>","I","$18","$39","0","18","39","RISKY"
"html-keyboard-response","24","77371","0.0-5.0-3.6","5fb3d39a2ceaab00087faddb","bdp_rd","Sun Mar 26 2023 13:16:34 GMT-0500 (Central Daylight Time)","212587","","null","","","","offerFB","","<div class='trialBorder'><div class='vertical-center'><img style='vertical-align:center; align:center' src=img/fixation3.jpg></div><div class='cl'><div class='vertical-center'>$18<br>for<br>sure</div></div><div class='cr'><div class='vertical-center'><font style='color:orange'>$39<br>with a<br>50% chance</font></div></div><div class='respDivL'><div class='vertical-center'>(E)</div></div><div class='respDivR'><div class='vertical-center'><font style='color:orange'>(I)</font></div></div></div>","null","$18","$39","0","18","39",""
"html-keyboard-response","25","77872","0.0-5.0-1.7","5fb3d39a2ceaab00087faddb","bdp_rd","Sun Mar 26 2023 13:16:34 GMT-0500 (Central Daylight Time)","212587","","null","","","","FIX","","<div class='trialBorder'><div class='vertical-center'><img style='vertical-align:center; align:center' src=img/fixation3.jpg></div></div>","null","","","","","",""
"html-keyboard-response","26","79347","0.0-5.0-2.7","5fb3d39a2ceaab00087faddb","bdp_rd","Sun Mar 26 2023 13:16:34 GMT-0500 (Central Daylight Time)","212587","","1474","","","","offer","","<div class='trialBorder'><div class='vertical-center'><img style='vertical-align:center; align:center' src=img/fixation3.jpg></div><div class='cl'><div class='vertical-center'>$81<br>with a<br>50% chance</div></div><div class='cr'><div class='vertical-center'>$39<br>for<br>sure</div></div><div class='respDivL'><div class='vertical-center'>(E)</div></div><div class='respDivR'><div class='vertical-center'>(I)</div></div></div>","E","$39","$81","1","39","81","RISKY"
"html-keyboard-response","27","79598","0.0-5.0-3.7","5fb3d39a2ceaab00087faddb","bdp_rd","Sun Mar 26 2023 13:16:34 GMT-0500 (Central Daylight Time)","212587","","null","","","","offerFB","","<div class='trialBorder'><div class='vertical-center'><img style='vertical-align:center; align:center' src=img/fixation3.jpg></div><div class='cl'><div class='vertical-center'><font style='color:orange'>$81<br>with a<br>50% chance</font></div></div><div class='cr'><div class='vertical-center'>$39<br>for<br>sure</div></div><div class='respDivL'><div class='vertical-center'><font style='color:orange'>(E)</font></div></div><div class='respDivR'><div class='vertical-center'>(I)</div></div></div>","null","$39","$81","1","39","81",""
"html-keyboard-response","28","80100","0.0-5.0-1.8","5fb3d39a2ceaab00087faddb","bdp_rd","Sun Mar 26 2023 13:16:34 GMT-0500 (Central Daylight Time)","212587","","null","","","","FIX","","<div class='trialBorder'><div class='vertical-center'><img style='vertical-align:center; align:center' src=img/fixation3.jpg></div></div>","null","","","","","",""
"html-keyboard-response","29","82954","0.0-5.0-2.8","5fb3d39a2ceaab00087faddb","bdp_rd","Sun Mar 26 2023 13:16:34 GMT-0500 (Central Daylight Time)","212587","","2854","","","","offer","","<div class='trialBorder'><div class='vertical-center'><img style='vertical-align:center; align:center' src=img/fixation3.jpg></div><div class='cl'><div class='vertical-center'>$11<br>for<br>sure</div></div><div class='cr'><div class='vertical-center'>$26<br>with a<br>50% chance</div></div><div class='respDivL'><div class='vertical-center'>(E)</div></div><div class='respDivR'><div class='vertical-center'>(I)</div></div></div>","E","$11","$26","0","11","26","SURE"
"html-keyboard-response","30","83205","0.0-5.0-3.8","5fb3d39a2ceaab00087faddb","bdp_rd","Sun Mar 26 2023 13:16:34 GMT-0500 (Central Daylight Time)","212587","","null","","","","offerFB","","<div class='trialBorder'><div class='vertical-center'><img style='vertical-align:center; align:center' src=img/fixation3.jpg></div><div class='cl'><div class='vertical-center'><font style='color:orange'>$11<br>for<br>sure</font></div></div><div class='cr'><div class='vertical-center'>$26<br>with a<br>50% chance</div></div><div class='respDivL'><div class='vertical-center'><font style='color:orange'>(E)</font></div></div><div class='respDivR'><div class='vertical-center'>(I)</div></div></div>","null","$11","$26","0","11","26",""
"html-keyboard-response","31","83707","0.0-5.0-1.9","5fb3d39a2ceaab00087faddb","bdp_rd","Sun Mar 26 2023 13:16:34 GMT-0500 (Central Daylight Time)","212587","","null","","","","FIX","","<div class='trialBorder'><div class='vertical-center'><img style='vertical-align:center; align:center' src=img/fixation3.jpg></div></div>","null","","","","","",""
"html-keyboard-response","32","85827","0.0-5.0-2.9","5fb3d39a2ceaab00087faddb","bdp_rd","Sun Mar 26 2023 13:16:34 GMT-0500 (Central Daylight Time)","212587","","2118","","","","offer","","<div class='trialBorder'><div class='vertical-center'><img style='vertical-align:center; align:center' src=img/fixation3.jpg></div><div class='cl'><div class='vertical-center'>$37<br>with a<br>50% chance</div></div><div class='cr'><div class='vertical-center'>$20<br>for<br>sure</div></div><div class='respDivL'><div class='vertical-center'>(E)</div></div><div class='respDivR'><div class='vertical-center'>(I)</div></div></div>","I","$20","$37","1","20","37","SURE"
"html-keyboard-response","33","86080","0.0-5.0-3.9","5fb3d39a2ceaab00087faddb","bdp_rd","Sun Mar 26 2023 13:16:34 GMT-0500 (Central Daylight Time)","212587","","null","","","","offerFB","","<div class='trialBorder'><div class='vertical-center'><img style='vertical-align:center; align:center' src=img/fixation3.jpg></div><div class='cl'><div class='vertical-center'>$37<br>with a<br>50% chance</div></div><div class='cr'><div class='vertical-center'><font style='color:orange'>$20<br>for<br>sure</font></div></div><div class='respDivL'><div class='vertical-center'>(E)</div></div><div class='respDivR'><div class='vertical-center'><font style='color:orange'>(I)</font></div></div></div>","null","$20","$37","1","20","37",""
"html-keyboard-response","34","86582","0.0-5.0-1.10","5fb3d39a2ceaab00087faddb","bdp_rd","Sun Mar 26 2023 13:16:34 GMT-0500 (Central Daylight Time)","212587","","null","","","","FIX","","<div class='trialBorder'><div class='vertical-center'><img style='vertical-align:center; align:center' src=img/fixation3.jpg></div></div>","null","","","","","",""
"html-keyboard-response","35","88150","0.0-5.0-2.10","5fb3d39a2ceaab00087faddb","bdp_rd","Sun Mar 26 2023 13:16:34 GMT-0500 (Central Daylight Time)","212587","","1568","","","","offer","","<div class='trialBorder'><div class='vertical-center'><img style='vertical-align:center; align:center' src=img/fixation3.jpg></div><div class='cl'><div class='vertical-center'>$45<br>for<br>sure</div></div><div class='cr'><div class='vertical-center'>$86<br>with a<br>50% chance</div></div><div class='respDivL'><div class='vertical-center'>(E)</div></div><div class='respDivR'><div class='vertical-center'>(I)</div></div></div>","I","$45","$86","0","45","86","RISKY"
"html-keyboard-response","36","88402","0.0-5.0-3.10","5fb3d39a2ceaab00087faddb","bdp_rd","Sun Mar 26 2023 13:16:34 GMT-0500 (Central Daylight Time)","212587","","null","","","","offerFB","","<div class='trialBorder'><div class='vertical-center'><img style='vertical-align:center; align:center' src=img/fixation3.jpg></div><div class='cl'><div class='vertical-center'>$45<br>for<br>sure</div></div><div class='cr'><div class='vertical-center'><font style='color:orange'>$86<br>with a<br>50% chance</font></div></div><div class='respDivL'><div class='vertical-center'>(E)</div></div><div class='respDivR'><div class='vertical-center'><font style='color:orange'>(I)</font></div></div></div>","null","$45","$86","0","45","86",""
"html-keyboard-response","37","88903","0.0-5.0-1.11","5fb3d39a2ceaab00087faddb","bdp_rd","Sun Mar 26 2023 13:16:34 GMT-0500 (Central Daylight Time)","212587","","null","","","","FIX","","<div class='trialBorder'><div class='vertical-center'><img style='vertical-align:center; align:center' src=img/fixation3.jpg></div></div>","null","","","","","",""
"html-keyboard-response","38","90011","0.0-5.0-2.11","5fb3d39a2ceaab00087faddb","bdp_rd","Sun Mar 26 2023 13:16:34 GMT-0500 (Central Daylight Time)","212587","","1107","","","","offer","","<div class='trialBorder'><div class='vertical-center'><img style='vertical-align:center; align:center' src=img/fixation3.jpg></div><div class='cl'><div class='vertical-center'>$80<br>with a<br>50% chance</div></div><div class='cr'><div class='vertical-center'>$20<br>for<br>sure</div></div><div class='respDivL'><div class='vertical-center'>(E)</div></div><div class='respDivR'><div class='vertical-center'>(I)</div></div></div>","E","$20","$80","1","20","80","RISKY"
"html-keyboard-response","39","90264","0.0-5.0-3.11","5fb3d39a2ceaab00087faddb","bdp_rd","Sun Mar 26 2023 13:16:34 GMT-0500 (Central Daylight Time)","212587","","null","","","","offerFB","","<div class='trialBorder'><div class='vertical-center'><img style='vertical-align:center; align:center' src=img/fixation3.jpg></div><div class='cl'><div class='vertical-center'><font style='color:orange'>$80<br>with a<br>50% chance</font></div></div><div class='cr'><div class='vertical-center'>$20<br>for<br>sure</div></div><div class='respDivL'><div class='vertical-center'><font style='color:orange'>(E)</font></div></div><div class='respDivR'><div class='vertical-center'>(I)</div></div></div>","null","$20","$80","1","20","80",""
"html-keyboard-response","40","90766","0.0-5.0-1.12","5fb3d39a2ceaab00087faddb","bdp_rd","Sun Mar 26 2023 13:16:34 GMT-0500 (Central Daylight Time)","212587","","null","","","","FIX","","<div class='trialBorder'><div class='vertical-center'><img style='vertical-align:center; align:center' src=img/fixation3.jpg></div></div>","null","","","","","",""
"html-keyboard-response","41","91963","0.0-5.0-2.12","5fb3d39a2ceaab00087faddb","bdp_rd","Sun Mar 26 2023 13:16:34 GMT-0500 (Central Daylight Time)","212587","","1197","","","","offer","","<div class='trialBorder'><div class='vertical-center'><img style='vertical-align:center; align:center' src=img/fixation3.jpg></div><div class='cl'><div class='vertical-center'>$100<br>with a<br>50% chance</div></div><div class='cr'><div class='vertical-center'>$63<br>for<br>sure</div></div><div class='respDivL'><div class='vertical-center'>(E)</div></div><div class='respDivR'><div class='vertical-center'>(I)</div></div></div>","E","$63","$100","1","63","10","RISKY"
"html-keyboard-response","42","92215","0.0-5.0-3.12","5fb3d39a2ceaab00087faddb","bdp_rd","Sun Mar 26 2023 13:16:34 GMT-0500 (Central Daylight Time)","212587","","null","","","","offerFB","","<div class='trialBorder'><div class='vertical-center'><img style='vertical-align:center; align:center' src=img/fixation3.jpg></div><div class='cl'><div class='vertical-center'><font style='color:orange'>$100<br>with a<br>50% chance</font></div></div><div class='cr'><div class='vertical-center'>$63<br>for<br>sure</div></div><div class='respDivL'><div class='vertical-center'><font style='color:orange'>(E)</font></div></div><div class='respDivR'><div class='vertical-center'>(I)</div></div></div>","null","$63","$100","1","63","10",""
"html-keyboard-response","43","92717","0.0-5.0-1.13","5fb3d39a2ceaab00087faddb","bdp_rd","Sun Mar 26 2023 13:16:34 GMT-0500 (Central Daylight Time)","212587","","null","","","","FIX","","<div class='trialBorder'><div class='vertical-center'><img style='vertical-align:center; align:center' src=img/fixation3.jpg></div></div>","null","","","","","",""
"html-keyboard-response","44","93907","0.0-5.0-2.13","5fb3d39a2ceaab00087faddb","bdp_rd","Sun Mar 26 2023 13:16:34 GMT-0500 (Central Daylight Time)","212587","","1190","","","","offer","","<div class='trialBorder'><div class='vertical-center'><img style='vertical-align:center; align:center' src=img/fixation3.jpg></div><div class='cl'><div class='vertical-center'>$34<br>for<br>sure</div></div><div class='cr'><div class='vertical-center'>$48<br>with a<br>50% chance</div></div><div class='respDivL'><div class='vertical-center'>(E)</div></div><div class='respDivR'><div class='vertical-center'>(I)</div></div></div>","E","$34","$48","0","34","48","SURE"
"html-keyboard-response","45","94157","0.0-5.0-3.13","5fb3d39a2ceaab00087faddb","bdp_rd","Sun Mar 26 2023 13:16:34 GMT-0500 (Central Daylight Time)","212587","","null","","","","offerFB","","<div class='trialBorder'><div class='vertical-center'><img style='vertical-align:center; align:center' src=img/fixation3.jpg></div><div class='cl'><div class='vertical-center'><font style='color:orange'>$34<br>for<br>sure</font></div></div><div class='cr'><div class='vertical-center'>$48<br>with a<br>50% chance</div></div><div class='respDivL'><div class='vertical-center'><font style='color:orange'>(E)</font></div></div><div class='respDivR'><div class='vertical-center'>(I)</div></div></div>","null","$34","$48","0","34","48",""
"html-keyboard-response","46","94659","0.0-5.0-1.14","5fb3d39a2ceaab00087faddb","bdp_rd","Sun Mar 26 2023 13:16:34 GMT-0500 (Central Daylight Time)","212587","","null","","","","FIX","","<div class='trialBorder'><div class='vertical-center'><img style='vertical-align:center; align:center' src=img/fixation3.jpg></div></div>","null","","","","","",""
"html-keyboard-response","47","96394","0.0-5.0-2.14","5fb3d39a2ceaab00087faddb","bdp_rd","Sun Mar 26 2023 13:16:34 GMT-0500 (Central Daylight Time)","212587","","1733","","","","offer","","<div class='trialBorder'><div class='vertical-center'><img style='vertical-align:center; align:center' src=img/fixation3.jpg></div><div class='cl'><div class='vertical-center'>$4<br>for<br>sure</div></div><div class='cr'><div class='vertical-center'>$11<br>with a<br>50% chance</div></div><div class='respDivL'><div class='vertical-center'>(E)</div></div><div class='respDivR'><div class='vertical-center'>(I)</div></div></div>","E","$4","$11","0","4","11","SURE"
"html-keyboard-response","48","96646","0.0-5.0-3.14","5fb3d39a2ceaab00087faddb","bdp_rd","Sun Mar 26 2023 13:16:34 GMT-0500 (Central Daylight Time)","212587","","null","","","","offerFB","","<div class='trialBorder'><div class='vertical-center'><img style='vertical-align:center; align:center' src=img/fixation3.jpg></div><div class='cl'><div class='vertical-center'><font style='color:orange'>$4<br>for<br>sure</font></div></div><div class='cr'><div class='vertical-center'>$11<br>with a<br>50% chance</div></div><div class='respDivL'><div class='vertical-center'><font style='color:orange'>(E)</font></div></div><div class='respDivR'><div class='vertical-center'>(I)</div></div></div>","null","$4","$11","0","4","11",""
"html-keyboard-response","49","97147","0.0-5.0-1.15","5fb3d39a2ceaab00087faddb","bdp_rd","Sun Mar 26 2023 13:16:34 GMT-0500 (Central Daylight Time)","212587","","null","","","","FIX","","<div class='trialBorder'><div class='vertical-center'><img style='vertical-align:center; align:center' src=img/fixation3.jpg></div></div>","null","","","","","",""
"html-keyboard-response","50","99925","0.0-5.0-2.15","5fb3d39a2ceaab00087faddb","bdp_rd","Sun Mar 26 2023 13:16:34 GMT-0500 (Central Daylight Time)","212587","","2778","","","","offer","","<div class='trialBorder'><div class='vertical-center'><img style='vertical-align:center; align:center' src=img/fixation3.jpg></div><div class='cl'><div class='vertical-center'>$71<br>with a<br>50% chance</div></div><div class='cr'><div class='vertical-center'>$7<br>for<br>sure</div></div><div class='respDivL'><div class='vertical-center'>(E)</div></div><div class='respDivR'><div class='vertical-center'>(I)</div></div></div>","E","$7","$71","1","7","71","RISKY"
"html-keyboard-response","51","100177","0.0-5.0-3.15","5fb3d39a2ceaab00087faddb","bdp_rd","Sun Mar 26 2023 13:16:34 GMT-0500 (Central Daylight Time)","212587","","null","","","","offerFB","","<div class='trialBorder'><div class='vertical-center'><img style='vertical-align:center; align:center' src=img/fixation3.jpg></div><div class='cl'><div class='vertical-center'><font style='color:orange'>$71<br>with a<br>50% chance</font></div></div><div class='cr'><div class='vertical-center'>$7<br>for<br>sure</div></div><div class='respDivL'><div class='vertical-center'><font style='color:orange'>(E)</font></div></div><div class='respDivR'><div class='vertical-center'>(I)</div></div></div>","null","$7","$71","1","7","71",""
"html-keyboard-response","52","100678","0.0-5.0-1.16","5fb3d39a2ceaab00087faddb","bdp_rd","Sun Mar 26 2023 13:16:34 GMT-0500 (Central Daylight Time)","212587","","null","","","","FIX","","<div class='trialBorder'><div class='vertical-center'><img style='vertical-align:center; align:center' src=img/fixation3.jpg></div></div>","null","","","","","",""
"html-keyboard-response","53","102098","0.0-5.0-2.16","5fb3d39a2ceaab00087faddb","bdp_rd","Sun Mar 26 2023 13:16:34 GMT-0500 (Central Daylight Time)","212587","","1418","","","","offer","","<div class='trialBorder'><div class='vertical-center'><img style='vertical-align:center; align:center' src=img/fixation3.jpg></div><div class='cl'><div class='vertical-center'>$42<br>for<br>sure</div></div><div class='cr'><div class='vertical-center'>$73<br>with a<br>50% chance</div></div><div class='respDivL'><div class='vertical-center'>(E)</div></div><div class='respDivR'><div class='vertical-center'>(I)</div></div></div>","I","$42","$73","0","42","73","RISKY"
"html-keyboard-response","54","102350","0.0-5.0-3.16","5fb3d39a2ceaab00087faddb","bdp_rd","Sun Mar 26 2023 13:16:34 GMT-0500 (Central Daylight Time)","212587","","null","","","","offerFB","","<div class='trialBorder'><div class='vertical-center'><img style='vertical-align:center; align:center' src=img/fixation3.jpg></div><div class='cl'><div class='vertical-center'>$42<br>for<br>sure</div></div><div class='cr'><div class='vertical-center'><font style='color:orange'>$73<br>with a<br>50% chance</font></div></div><div class='respDivL'><div class='vertical-center'>(E)</div></div><div class='respDivR'><div class='vertical-center'><font style='color:orange'>(I)</font></div></div></div>","null","$42","$73","0","42","73",""
"html-keyboard-response","55","102852","0.0-5.0-1.17","5fb3d39a2ceaab00087faddb","bdp_rd","Sun Mar 26 2023 13:16:34 GMT-0500 (Central Daylight Time)","212587","","null","","","","FIX","","<div class='trialBorder'><div class='vertical-center'><img style='vertical-align:center; align:center' src=img/fixation3.jpg></div></div>","null","","","","","",""
"html-keyboard-response","56","104624","0.0-5.0-2.17","5fb3d39a2ceaab00087faddb","bdp_rd","Sun Mar 26 2023 13:16:34 GMT-0500 (Central Daylight Time)","212587","","1771","","","","offer","","<div class='trialBorder'><div class='vertical-center'><img style='vertical-align:center; align:center' src=img/fixation3.jpg></div><div class='cl'><div class='vertical-center'>$31<br>with a<br>50% chance</div></div><div class='cr'><div class='vertical-center'>$15<br>for<br>sure</div></div><div class='respDivL'><div class='vertical-center'>(E)</div></div><div class='respDivR'><div class='vertical-center'>(I)</div></div></div>","E","$15","$31","1","15","31","RISKY"
"html-keyboard-response","57","104875","0.0-5.0-3.17","5fb3d39a2ceaab00087faddb","bdp_rd","Sun Mar 26 2023 13:16:34 GMT-0500 (Central Daylight Time)","212587","","null","","","","offerFB","","<div class='trialBorder'><div class='vertical-center'><img style='vertical-align:center; align:center' src=img/fixation3.jpg></div><div class='cl'><div class='vertical-center'><font style='color:orange'>$31<br>with a<br>50% chance</font></div></div><div class='cr'><div class='vertical-center'>$15<br>for<br>sure</div></div><div class='respDivL'><div class='vertical-center'><font style='color:orange'>(E)</font></div></div><div class='respDivR'><div class='vertical-center'>(I)</div></div></div>","null","$15","$31","1","15","31",""
"html-keyboard-response","58","105378","0.0-5.0-1.18","5fb3d39a2ceaab00087faddb","bdp_rd","Sun Mar 26 2023 13:16:34 GMT-0500 (Central Daylight Time)","212587","","null","","","","FIX","","<div class='trialBorder'><div class='vertical-center'><img style='vertical-align:center; align:center' src=img/fixation3.jpg></div></div>","null","","","","","",""
"html-keyboard-response","59","106940","0.0-5.0-2.18","5fb3d39a2ceaab00087faddb","bdp_rd","Sun Mar 26 2023 13:16:34 GMT-0500 (Central Daylight Time)","212587","","1561","","","","offer","","<div class='trialBorder'><div class='vertical-center'><img style='vertical-align:center; align:center' src=img/fixation3.jpg></div><div class='cl'><div class='vertical-center'>$40<br>for<br>sure</div></div><div class='cr'><div class='vertical-center'>$95<br>with a<br>50% chance</div></div><div class='respDivL'><div class='vertical-center'>(E)</div></div><div class='respDivR'><div class='vertical-center'>(I)</div></div></div>","I","$40","$95","0","40","95","RISKY"
"html-keyboard-response","60","107192","0.0-5.0-3.18","5fb3d39a2ceaab00087faddb","bdp_rd","Sun Mar 26 2023 13:16:34 GMT-0500 (Central Daylight Time)","212587","","null","","","","offerFB","","<div class='trialBorder'><div class='vertical-center'><img style='vertical-align:center; align:center' src=img/fixation3.jpg></div><div class='cl'><div class='vertical-center'>$40<br>for<br>sure</div></div><div class='cr'><div class='vertical-center'><font style='color:orange'>$95<br>with a<br>50% chance</font></div></div><div class='respDivL'><div class='vertical-center'>(E)</div></div><div class='respDivR'><div class='vertical-center'><font style='color:orange'>(I)</font></div></div></div>","null","$40","$95","0","40","95",""
"html-keyboard-response","61","107694","0.0-5.0-1.19","5fb3d39a2ceaab00087faddb","bdp_rd","Sun Mar 26 2023 13:16:34 GMT-0500 (Central Daylight Time)","212587","","null","","","","FIX","","<div class='trialBorder'><div class='vertical-center'><img style='vertical-align:center; align:center' src=img/fixation3.jpg></div></div>","null","","","","","",""
"html-keyboard-response","62","110505","0.0-5.0-2.19","5fb3d39a2ceaab00087faddb","bdp_rd","Sun Mar 26 2023 13:16:34 GMT-0500 (Central Daylight Time)","212587","","2810","","","","offer","","<div class='trialBorder'><div class='vertical-center'><img style='vertical-align:center; align:center' src=img/fixation3.jpg></div><div class='cl'><div class='vertical-center'>$12<br>for<br>sure</div></div><div class='cr'><div class='vertical-center'>$35<br>with a<br>50% chance</div></div><div class='respDivL'><div class='vertical-center'>(E)</div></div><div class='respDivR'><div class='vertical-center'>(I)</div></div></div>","I","$12","$35","0","12","35","RISKY"
"html-keyboard-response","63","110756","0.0-5.0-3.19","5fb3d39a2ceaab00087faddb","bdp_rd","Sun Mar 26 2023 13:16:34 GMT-0500 (Central Daylight Time)","212587","","null","","","","offerFB","","<div class='trialBorder'><div class='vertical-center'><img style='vertical-align:center; align:center' src=img/fixation3.jpg></div><div class='cl'><div class='vertical-center'>$12<br>for<br>sure</div></div><div class='cr'><div class='vertical-center'><font style='color:orange'>$35<br>with a<br>50% chance</font></div></div><div class='respDivL'><div class='vertical-center'>(E)</div></div><div class='respDivR'><div class='vertical-center'><font style='color:orange'>(I)</font></div></div></div>","null","$12","$35","0","12","35",""
"html-keyboard-response","64","111258","0.0-5.0-1.20","5fb3d39a2ceaab00087faddb","bdp_rd","Sun Mar 26 2023 13:16:34 GMT-0500 (Central Daylight Time)","212587","","null","","","","FIX","","<div class='trialBorder'><div class='vertical-center'><img style='vertical-align:center; align:center' src=img/fixation3.jpg></div></div>","null","","","","","",""
"html-keyboard-response","65","113890","0.0-5.0-2.20","5fb3d39a2ceaab00087faddb","bdp_rd","Sun Mar 26 2023 13:16:34 GMT-0500 (Central Daylight Time)","212587","","2631","","","","offer","","<div class='trialBorder'><div class='vertical-center'><img style='vertical-align:center; align:center' src=img/fixation3.jpg></div><div class='cl'><div class='vertical-center'>$12<br>with a<br>50% chance</div></div><div class='cr'><div class='vertical-center'>$3<br>for<br>sure</div></div><div class='respDivL'><div class='vertical-center'>(E)</div></div><div class='respDivR'><div class='vertical-center'>(I)</div></div></div>","E","$3","$12","1","3","12","RISKY"
"html-keyboard-response","66","114141","0.0-5.0-3.20","5fb3d39a2ceaab00087faddb","bdp_rd","Sun Mar 26 2023 13:16:34 GMT-0500 (Central Daylight Time)","212587","","null","","","","offerFB","","<div class='trialBorder'><div class='vertical-center'><img style='vertical-align:center; align:center' src=img/fixation3.jpg></div><div class='cl'><div class='vertical-center'><font style='color:orange'>$12<br>with a<br>50% chance</font></div></div><div class='cr'><div class='vertical-center'>$3<br>for<br>sure</div></div><div class='respDivL'><div class='vertical-center'><font style='color:orange'>(E)</font></div></div><div class='respDivR'><div class='vertical-center'>(I)</div></div></div>","null","$3","$12","1","3","12",""
"html-keyboard-response","67","114643","0.0-5.0-1.21","5fb3d39a2ceaab00087faddb","bdp_rd","Sun Mar 26 2023 13:16:34 GMT-0500 (Central Daylight Time)","212587","","null","","","","FIX","","<div class='trialBorder'><div class='vertical-center'><img style='vertical-align:center; align:center' src=img/fixation3.jpg></div></div>","null","","","","","",""
"html-keyboard-response","68","115931","0.0-5.0-2.21","5fb3d39a2ceaab00087faddb","bdp_rd","Sun Mar 26 2023 13:16:34 GMT-0500 (Central Daylight Time)","212587","","1288","","","","offer","","<div class='trialBorder'><div class='vertical-center'><img style='vertical-align:center; align:center' src=img/fixation3.jpg></div><div class='cl'><div class='vertical-center'>$16<br>for<br>sure</div></div><div class='cr'><div class='vertical-center'>$28<br>with a<br>50% chance</div></div><div class='respDivL'><div class='vertical-center'>(E)</div></div><div class='respDivR'><div class='vertical-center'>(I)</div></div></div>","E","$16","$28","0","16","28","SURE"
"html-keyboard-response","69","116183","0.0-5.0-3.21","5fb3d39a2ceaab00087faddb","bdp_rd","Sun Mar 26 2023 13:16:34 GMT-0500 (Central Daylight Time)","212587","","null","","","","offerFB","","<div class='trialBorder'><div class='vertical-center'><img style='vertical-align:center; align:center' src=img/fixation3.jpg></div><div class='cl'><div class='vertical-center'><font style='color:orange'>$16<br>for<br>sure</font></div></div><div class='cr'><div class='vertical-center'>$28<br>with a<br>50% chance</div></div><div class='respDivL'><div class='vertical-center'><font style='color:orange'>(E)</font></div></div><div class='respDivR'><div class='vertical-center'>(I)</div></div></div>","null","$16","$28","0","16","28",""
"html-keyboard-response","70","116684","0.0-5.0-1.22","5fb3d39a2ceaab00087faddb","bdp_rd","Sun Mar 26 2023 13:16:34 GMT-0500 (Central Daylight Time)","212587","","null","","","","FIX","","<div class='trialBorder'><div class='vertical-center'><img style='vertical-align:center; align:center' src=img/fixation3.jpg></div></div>","null","","","","","",""
"html-keyboard-response","71","118016","0.0-5.0-2.22","5fb3d39a2ceaab00087faddb","bdp_rd","Sun Mar 26 2023 13:16:34 GMT-0500 (Central Daylight Time)","212587","","1331","","","","offer","","<div class='trialBorder'><div class='vertical-center'><img style='vertical-align:center; align:center' src=img/fixation3.jpg></div><div class='cl'><div class='vertical-center'>$30<br>with a<br>50% chance</div></div><div class='cr'><div class='vertical-center'>$1<br>for<br>sure</div></div><div class='respDivL'><div class='vertical-center'>(E)</div></div><div class='respDivR'><div class='vertical-center'>(I)</div></div></div>","E","$1","$30","1","1","30","RISKY"
"html-keyboard-response","72","118268","0.0-5.0-3.22","5fb3d39a2ceaab00087faddb","bdp_rd","Sun Mar 26 2023 13:16:34 GMT-0500 (Central Daylight Time)","212587","","null","","","","offerFB","","<div class='trialBorder'><div class='vertical-center'><img style='vertical-align:center; align:center' src=img/fixation3.jpg></div><div class='cl'><div class='vertical-center'><font style='color:orange'>$30<br>with a<br>50% chance</font></div></div><div class='cr'><div class='vertical-center'>$1<br>for<br>sure</div></div><div class='respDivL'><div class='vertical-center'><font style='color:orange'>(E)</font></div></div><div class='respDivR'><div class='vertical-center'>(I)</div></div></div>","null","$1","$30","1","1","30",""
"html-keyboard-response","73","118770","0.0-5.0-1.23","5fb3d39a2ceaab00087faddb","bdp_rd","Sun Mar 26 2023 13:16:34 GMT-0500 (Central Daylight Time)","212587","","null","","","","FIX","","<div class='trialBorder'><div class='vertical-center'><img style='vertical-align:center; align:center' src=img/fixation3.jpg></div></div>","null","","","","","",""
"html-keyboard-response","74","120685","0.0-5.0-2.23","5fb3d39a2ceaab00087faddb","bdp_rd","Sun Mar 26 2023 13:16:34 GMT-0500 (Central Daylight Time)","212587","","1914","","","","offer","","<div class='trialBorder'><div class='vertical-center'><img style='vertical-align:center; align:center' src=img/fixation3.jpg></div><div class='cl'><div class='vertical-center'>$13<br>for<br>sure</div></div><div class='cr'><div class='vertical-center'>$24<br>with a<br>50% chance</div></div><div class='respDivL'><div class='vertical-center'>(E)</div></div><div class='respDivR'><div class='vertical-center'>(I)</div></div></div>","I","$13","$24","0","13","24","RISKY"
"html-keyboard-response","75","120936","0.0-5.0-3.23","5fb3d39a2ceaab00087faddb","bdp_rd","Sun Mar 26 2023 13:16:34 GMT-0500 (Central Daylight Time)","212587","","null","","","","offerFB","","<div class='trialBorder'><div class='vertical-center'><img style='vertical-align:center; align:center' src=img/fixation3.jpg></div><div class='cl'><div class='vertical-center'>$13<br>for<br>sure</div></div><div class='cr'><div class='vertical-center'><font style='color:orange'>$24<br>with a<br>50% chance</font></div></div><div class='respDivL'><div class='vertical-center'>(E)</div></div><div class='respDivR'><div class='vertical-center'><font style='color:orange'>(I)</font></div></div></div>","null","$13","$24","0","13","24",""
"html-keyboard-response","76","121437","0.0-5.0-1.24","5fb3d39a2ceaab00087faddb","bdp_rd","Sun Mar 26 2023 13:16:34 GMT-0500 (Central Daylight Time)","212587","","null","","","","FIX","","<div class='trialBorder'><div class='vertical-center'><img style='vertical-align:center; align:center' src=img/fixation3.jpg></div></div>","null","","","","","",""
"html-keyboard-response","77","123154","0.0-5.0-2.24","5fb3d39a2ceaab00087faddb","bdp_rd","Sun Mar 26 2023 13:16:34 GMT-0500 (Central Daylight Time)","212587","","1715","","","","offer","","<div class='trialBorder'><div class='vertical-center'><img style='vertical-align:center; align:center' src=img/fixation3.jpg></div><div class='cl'><div class='vertical-center'>$29<br>for<br>sure</div></div><div class='cr'><div class='vertical-center'>$46<br>with a<br>50% chance</div></div><div class='respDivL'><div class='vertical-center'>(E)</div></div><div class='respDivR'><div class='vertical-center'>(I)</div></div></div>","I","$29","$46","0","29","46","RISKY"
"html-keyboard-response","78","123406","0.0-5.0-3.24","5fb3d39a2ceaab00087faddb","bdp_rd","Sun Mar 26 2023 13:16:34 GMT-0500 (Central Daylight Time)","212587","","null","","","","offerFB","","<div class='trialBorder'><div class='vertical-center'><img style='vertical-align:center; align:center' src=img/fixation3.jpg></div><div class='cl'><div class='vertical-center'>$29<br>for<br>sure</div></div><div class='cr'><div class='vertical-center'><font style='color:orange'>$46<br>with a<br>50% chance</font></div></div><div class='respDivL'><div class='vertical-center'>(E)</div></div><div class='respDivR'><div class='vertical-center'><font style='color:orange'>(I)</font></div></div></div>","null","$29","$46","0","29","46",""
"html-keyboard-response","79","123908","0.0-5.0-1.25","5fb3d39a2ceaab00087faddb","bdp_rd","Sun Mar 26 2023 13:16:34 GMT-0500 (Central Daylight Time)","212587","","null","","","","FIX","","<div class='trialBorder'><div class='vertical-center'><img style='vertical-align:center; align:center' src=img/fixation3.jpg></div></div>","null","","","","","",""
"html-keyboard-response","80","126613","0.0-5.0-2.25","5fb3d39a2ceaab00087faddb","bdp_rd","Sun Mar 26 2023 13:16:34 GMT-0500 (Central Daylight Time)","212587","","2705","","","","offer","","<div class='trialBorder'><div class='vertical-center'><img style='vertical-align:center; align:center' src=img/fixation3.jpg></div><div class='cl'><div class='vertical-center'>$17<br>for<br>sure</div></div><div class='cr'><div class='vertical-center'>$43<br>with a<br>50% chance</div></div><div class='respDivL'><div class='vertical-center'>(E)</div></div><div class='respDivR'><div class='vertical-center'>(I)</div></div></div>","I","$17","$43","0","17","43","RISKY"
"html-keyboard-response","81","126866","0.0-5.0-3.25","5fb3d39a2ceaab00087faddb","bdp_rd","Sun Mar 26 2023 13:16:34 GMT-0500 (Central Daylight Time)","212587","","null","","","","offerFB","","<div class='trialBorder'><div class='vertical-center'><img style='vertical-align:center; align:center' src=img/fixation3.jpg></div><div class='cl'><div class='vertical-center'>$17<br>for<br>sure</div></div><div class='cr'><div class='vertical-center'><font style='color:orange'>$43<br>with a<br>50% chance</font></div></div><div class='respDivL'><div class='vertical-center'>(E)</div></div><div class='respDivR'><div class='vertical-center'><font style='color:orange'>(I)</font></div></div></div>","null","$17","$43","0","17","43",""
"html-keyboard-response","82","127367","0.0-5.0-1.26","5fb3d39a2ceaab00087faddb","bdp_rd","Sun Mar 26 2023 13:16:34 GMT-0500 (Central Daylight Time)","212587","","null","","","","FIX","","<div class='trialBorder'><div class='vertical-center'><img style='vertical-align:center; align:center' src=img/fixation3.jpg></div></div>","null","","","","","",""
"html-keyboard-response","83","128279","0.0-5.0-2.26","5fb3d39a2ceaab00087faddb","bdp_rd","Sun Mar 26 2023 13:16:34 GMT-0500 (Central Daylight Time)","212587","","911","","","","offer","","<div class='trialBorder'><div class='vertical-center'><img style='vertical-align:center; align:center' src=img/fixation3.jpg></div><div class='cl'><div class='vertical-center'>$9<br>for<br>sure</div></div><div class='cr'><div class='vertical-center'>$32<br>with a<br>50% chance</div></div><div class='respDivL'><div class='vertical-center'>(E)</div></div><div class='respDivR'><div class='vertical-center'>(I)</div></div></div>","I","$9","$32","0","9","32","RISKY"
"html-keyboard-response","84","128530","0.0-5.0-3.26","5fb3d39a2ceaab00087faddb","bdp_rd","Sun Mar 26 2023 13:16:34 GMT-0500 (Central Daylight Time)","212587","","null","","","","offerFB","","<div class='trialBorder'><div class='vertical-center'><img style='vertical-align:center; align:center' src=img/fixation3.jpg></div><div class='cl'><div class='vertical-center'>$9<br>for<br>sure</div></div><div class='cr'><div class='vertical-center'><font style='color:orange'>$32<br>with a<br>50% chance</font></div></div><div class='respDivL'><div class='vertical-center'>(E)</div></div><div class='respDivR'><div class='vertical-center'><font style='color:orange'>(I)</font></div></div></div>","null","$9","$32","0","9","32",""
"html-keyboard-response","85","129032","0.0-5.0-1.27","5fb3d39a2ceaab00087faddb","bdp_rd","Sun Mar 26 2023 13:16:34 GMT-0500 (Central Daylight Time)","212587","","null","","","","FIX","","<div class='trialBorder'><div class='vertical-center'><img style='vertical-align:center; align:center' src=img/fixation3.jpg></div></div>","null","","","","","",""
"html-keyboard-response","86","130096","0.0-5.0-2.27","5fb3d39a2ceaab00087faddb","bdp_rd","Sun Mar 26 2023 13:16:34 GMT-0500 (Central Daylight Time)","212587","","1064","","","","offer","","<div class='trialBorder'><div class='vertical-center'><img style='vertical-align:center; align:center' src=img/fixation3.jpg></div><div class='cl'><div class='vertical-center'>$50<br>with a<br>50% chance</div></div><div class='cr'><div class='vertical-center'>$5<br>for<br>sure</div></div><div class='respDivL'><div class='vertical-center'>(E)</div></div><div class='respDivR'><div class='vertical-center'>(I)</div></div></div>","E","$5","$50","1","5","50","RISKY"
"html-keyboard-response","87","130346","0.0-5.0-3.27","5fb3d39a2ceaab00087faddb","bdp_rd","Sun Mar 26 2023 13:16:34 GMT-0500 (Central Daylight Time)","212587","","null","","","","offerFB","","<div class='trialBorder'><div class='vertical-center'><img style='vertical-align:center; align:center' src=img/fixation3.jpg></div><div class='cl'><div class='vertical-center'><font style='color:orange'>$50<br>with a<br>50% chance</font></div></div><div class='cr'><div class='vertical-center'>$5<br>for<br>sure</div></div><div class='respDivL'><div class='vertical-center'><font style='color:orange'>(E)</font></div></div><div class='respDivR'><div class='vertical-center'>(I)</div></div></div>","null","$5","$50","1","5","50",""
"html-keyboard-response","88","130849","0.0-5.0-1.28","5fb3d39a2ceaab00087faddb","bdp_rd","Sun Mar 26 2023 13:16:34 GMT-0500 (Central Daylight Time)","212587","","null","","","","FIX","","<div class='trialBorder'><div class='vertical-center'><img style='vertical-align:center; align:center' src=img/fixation3.jpg></div></div>","null","","","","","",""
"html-keyboard-response","89","133305","0.0-5.0-2.28","5fb3d39a2ceaab00087faddb","bdp_rd","Sun Mar 26 2023 13:16:34 GMT-0500 (Central Daylight Time)","212587","","2456","","","","offer","","<div class='trialBorder'><div class='vertical-center'><img style='vertical-align:center; align:center' src=img/fixation3.jpg></div><div class='cl'><div class='vertical-center'>$65<br>with a<br>50% chance</div></div><div class='cr'><div class='vertical-center'>$46<br>for<br>sure</div></div><div class='respDivL'><div class='vertical-center'>(E)</div></div><div class='respDivR'><div class='vertical-center'>(I)</div></div></div>","E","$46","$65","1","46","65","RISKY"
"html-keyboard-response","90","133557","0.0-5.0-3.28","5fb3d39a2ceaab00087faddb","bdp_rd","Sun Mar 26 2023 13:16:34 GMT-0500 (Central Daylight Time)","212587","","null","","","","offerFB","","<div class='trialBorder'><div class='vertical-center'><img style='vertical-align:center; align:center' src=img/fixation3.jpg></div><div class='cl'><div class='vertical-center'><font style='color:orange'>$65<br>with a<br>50% chance</font></div></div><div class='cr'><div class='vertical-center'>$46<br>for<br>sure</div></div><div class='respDivL'><div class='vertical-center'><font style='color:orange'>(E)</font></div></div><div class='respDivR'><div class='vertical-center'>(I)</div></div></div>","null","$46","$65","1","46","65",""
"html-keyboard-response","91","134059","0.0-5.0-1.29","5fb3d39a2ceaab00087faddb","bdp_rd","Sun Mar 26 2023 13:16:34 GMT-0500 (Central Daylight Time)","212587","","null","","","","FIX","","<div class='trialBorder'><div class='vertical-center'><img style='vertical-align:center; align:center' src=img/fixation3.jpg></div></div>","null","","","","","",""
"html-keyboard-response","92","136186","0.0-5.0-2.29","5fb3d39a2ceaab00087faddb","bdp_rd","Sun Mar 26 2023 13:16:34 GMT-0500 (Central Daylight Time)","212587","","2125","","","","offer","","<div class='trialBorder'><div class='vertical-center'><img style='vertical-align:center; align:center' src=img/fixation3.jpg></div><div class='cl'><div class='vertical-center'>$5<br>for<br>sure</div></div><div class='cr'><div class='vertical-center'>$16<br>with a<br>50% chance</div></div><div class='respDivL'><div class='vertical-center'>(E)</div></div><div class='respDivR'><div class='vertical-center'>(I)</div></div></div>","I","$5","$16","0","5","16","RISKY"
"html-keyboard-response","93","136438","0.0-5.0-3.29","5fb3d39a2ceaab00087faddb","bdp_rd","Sun Mar 26 2023 13:16:34 GMT-0500 (Central Daylight Time)","212587","","null","","","","offerFB","","<div class='trialBorder'><div class='vertical-center'><img style='vertical-align:center; align:center' src=img/fixation3.jpg></div><div class='cl'><div class='vertical-center'>$5<br>for<br>sure</div></div><div class='cr'><div class='vertical-center'><font style='color:orange'>$16<br>with a<br>50% chance</font></div></div><div class='respDivL'><div class='vertical-center'>(E)</div></div><div class='respDivR'><div class='vertical-center'><font style='color:orange'>(I)</font></div></div></div>","null","$5","$16","0","5","16",""
"html-keyboard-response","94","136939","0.0-5.0-1.30","5fb3d39a2ceaab00087faddb","bdp_rd","Sun Mar 26 2023 13:16:34 GMT-0500 (Central Daylight Time)","212587","","null","","","","FIX","","<div class='trialBorder'><div class='vertical-center'><img style='vertical-align:center; align:center' src=img/fixation3.jpg></div></div>","null","","","","","",""
"html-keyboard-response","95","137986","0.0-5.0-2.30","5fb3d39a2ceaab00087faddb","bdp_rd","Sun Mar 26 2023 13:16:34 GMT-0500 (Central Daylight Time)","212587","","1046","","","","offer","","<div class='trialBorder'><div class='vertical-center'><img style='vertical-align:center; align:center' src=img/fixation3.jpg></div><div class='cl'><div class='vertical-center'>$28<br>for<br>sure</div></div><div class='cr'><div class='vertical-center'>$89<br>with a<br>50% chance</div></div><div class='respDivL'><div class='vertical-center'>(E)</div></div><div class='respDivR'><div class='vertical-center'>(I)</div></div></div>","I","$28","$89","0","28","89","RISKY"
"html-keyboard-response","96","138238","0.0-5.0-3.30","5fb3d39a2ceaab00087faddb","bdp_rd","Sun Mar 26 2023 13:16:34 GMT-0500 (Central Daylight Time)","212587","","null","","","","offerFB","","<div class='trialBorder'><div class='vertical-center'><img style='vertical-align:center; align:center' src=img/fixation3.jpg></div><div class='cl'><div class='vertical-center'>$28<br>for<br>sure</div></div><div class='cr'><div class='vertical-center'><font style='color:orange'>$89<br>with a<br>50% chance</font></div></div><div class='respDivL'><div class='vertical-center'>(E)</div></div><div class='respDivR'><div class='vertical-center'><font style='color:orange'>(I)</font></div></div></div>","null","$28","$89","0","28","89",""
"html-keyboard-response","97","138740","0.0-5.0-1.31","5fb3d39a2ceaab00087faddb","bdp_rd","Sun Mar 26 2023 13:16:34 GMT-0500 (Central Daylight Time)","212587","","null","","","","FIX","","<div class='trialBorder'><div class='vertical-center'><img style='vertical-align:center; align:center' src=img/fixation3.jpg></div></div>","null","","","","","",""
"html-keyboard-response","98","139724","0.0-5.0-2.31","5fb3d39a2ceaab00087faddb","bdp_rd","Sun Mar 26 2023 13:16:34 GMT-0500 (Central Daylight Time)","212587","","983","","","","offer","","<div class='trialBorder'><div class='vertical-center'><img style='vertical-align:center; align:center' src=img/fixation3.jpg></div><div class='cl'><div class='vertical-center'>$1<br>for<br>sure</div></div><div class='cr'><div class='vertical-center'>$33<br>with a<br>50% chance</div></div><div class='respDivL'><div class='vertical-center'>(E)</div></div><div class='respDivR'><div class='vertical-center'>(I)</div></div></div>","I","$1","$33","0","1","33","RISKY"
"html-keyboard-response","99","139975","0.0-5.0-3.31","5fb3d39a2ceaab00087faddb","bdp_rd","Sun Mar 26 2023 13:16:34 GMT-0500 (Central Daylight Time)","212587","","null","","","","offerFB","","<div class='trialBorder'><div class='vertical-center'><img style='vertical-align:center; align:center' src=img/fixation3.jpg></div><div class='cl'><div class='vertical-center'>$1<br>for<br>sure</div></div><div class='cr'><div class='vertical-center'><font style='color:orange'>$33<br>with a<br>50% chance</font></div></div><div class='respDivL'><div class='vertical-center'>(E)</div></div><div class='respDivR'><div class='vertical-center'><font style='color:orange'>(I)</font></div></div></div>","null","$1","$33","0","1","33",""
"html-keyboard-response","100","140476","0.0-5.0-1.32","5fb3d39a2ceaab00087faddb","bdp_rd","Sun Mar 26 2023 13:16:34 GMT-0500 (Central Daylight Time)","212587","","null","","","","FIX","","<div class='trialBorder'><div class='vertical-center'><img style='vertical-align:center; align:center' src=img/fixation3.jpg></div></div>","null","","","","","",""
"html-keyboard-response","101","142125","0.0-5.0-2.32","5fb3d39a2ceaab00087faddb","bdp_rd","Sun Mar 26 2023 13:16:34 GMT-0500 (Central Daylight Time)","212587","","1649","","","","offer","","<div class='trialBorder'><div class='vertical-center'><img style='vertical-align:center; align:center' src=img/fixation3.jpg></div><div class='cl'><div class='vertical-center'>$25<br>for<br>sure</div></div><div class='cr'><div class='vertical-center'>$54<br>with a<br>50% chance</div></div><div class='respDivL'><div class='vertical-center'>(E)</div></div><div class='respDivR'><div class='vertical-center'>(I)</div></div></div>","I","$25","$54","0","25","54","RISKY"
"html-keyboard-response","102","142377","0.0-5.0-3.32","5fb3d39a2ceaab00087faddb","bdp_rd","Sun Mar 26 2023 13:16:34 GMT-0500 (Central Daylight Time)","212587","","null","","","","offerFB","","<div class='trialBorder'><div class='vertical-center'><img style='vertical-align:center; align:center' src=img/fixation3.jpg></div><div class='cl'><div class='vertical-center'>$25<br>for<br>sure</div></div><div class='cr'><div class='vertical-center'><font style='color:orange'>$54<br>with a<br>50% chance</font></div></div><div class='respDivL'><div class='vertical-center'>(E)</div></div><div class='respDivR'><div class='vertical-center'><font style='color:orange'>(I)</font></div></div></div>","null","$25","$54","0","25","54",""
"html-keyboard-response","103","142878","0.0-5.0-1.33","5fb3d39a2ceaab00087faddb","bdp_rd","Sun Mar 26 2023 13:16:34 GMT-0500 (Central Daylight Time)","212587","","null","","","","FIX","","<div class='trialBorder'><div class='vertical-center'><img style='vertical-align:center; align:center' src=img/fixation3.jpg></div></div>","null","","","","","",""
"html-keyboard-response","104","144505","0.0-5.0-2.33","5fb3d39a2ceaab00087faddb","bdp_rd","Sun Mar 26 2023 13:16:34 GMT-0500 (Central Daylight Time)","212587","","1626","","","","offer","","<div class='trialBorder'><div class='vertical-center'><img style='vertical-align:center; align:center' src=img/fixation3.jpg></div><div class='cl'><div class='vertical-center'>$31<br>for<br>sure</div></div><div class='cr'><div class='vertical-center'>$78<br>with a<br>50% chance</div></div><div class='respDivL'><div class='vertical-center'>(E)</div></div><div class='respDivR'><div class='vertical-center'>(I)</div></div></div>","I","$31","$78","0","31","78","RISKY"
"html-keyboard-response","105","144756","0.0-5.0-3.33","5fb3d39a2ceaab00087faddb","bdp_rd","Sun Mar 26 2023 13:16:34 GMT-0500 (Central Daylight Time)","212587","","null","","","","offerFB","","<div class='trialBorder'><div class='vertical-center'><img style='vertical-align:center; align:center' src=img/fixation3.jpg></div><div class='cl'><div class='vertical-center'>$31<br>for<br>sure</div></div><div class='cr'><div class='vertical-center'><font style='color:orange'>$78<br>with a<br>50% chance</font></div></div><div class='respDivL'><div class='vertical-center'>(E)</div></div><div class='respDivR'><div class='vertical-center'><font style='color:orange'>(I)</font></div></div></div>","null","$31","$78","0","31","78",""
"html-keyboard-response","106","145258","0.0-5.0-1.34","5fb3d39a2ceaab00087faddb","bdp_rd","Sun Mar 26 2023 13:16:34 GMT-0500 (Central Daylight Time)","212587","","null","","","","FIX","","<div class='trialBorder'><div class='vertical-center'><img style='vertical-align:center; align:center' src=img/fixation3.jpg></div></div>","null","","","","","",""
"html-keyboard-response","107","148406","0.0-5.0-2.34","5fb3d39a2ceaab00087faddb","bdp_rd","Sun Mar 26 2023 13:16:34 GMT-0500 (Central Daylight Time)","212587","","3148","","","","offer","","<div class='trialBorder'><div class='vertical-center'><img style='vertical-align:center; align:center' src=img/fixation3.jpg></div><div class='cl'><div class='vertical-center'>$10<br>for<br>sure</div></div><div class='cr'><div class='vertical-center'>$19<br>with a<br>50% chance</div></div><div class='respDivL'><div class='vertical-center'>(E)</div></div><div class='respDivR'><div class='vertical-center'>(I)</div></div></div>","I","$10","$19","0","10","19","RISKY"
"html-keyboard-response","108","148658","0.0-5.0-3.34","5fb3d39a2ceaab00087faddb","bdp_rd","Sun Mar 26 2023 13:16:34 GMT-0500 (Central Daylight Time)","212587","","null","","","","offerFB","","<div class='trialBorder'><div class='vertical-center'><img style='vertical-align:center; align:center' src=img/fixation3.jpg></div><div class='cl'><div class='vertical-center'>$10<br>for<br>sure</div></div><div class='cr'><div class='vertical-center'><font style='color:orange'>$19<br>with a<br>50% chance</font></div></div><div class='respDivL'><div class='vertical-center'>(E)</div></div><div class='respDivR'><div class='vertical-center'><font style='color:orange'>(I)</font></div></div></div>","null","$10","$19","0","10","19",""
"html-keyboard-response","109","149161","0.0-5.0-1.35","5fb3d39a2ceaab00087faddb","bdp_rd","Sun Mar 26 2023 13:16:34 GMT-0500 (Central Daylight Time)","212587","","null","","","","FIX","","<div class='trialBorder'><div class='vertical-center'><img style='vertical-align:center; align:center' src=img/fixation3.jpg></div></div>","null","","","","","",""
"html-keyboard-response","110","151992","0.0-5.0-2.35","5fb3d39a2ceaab00087faddb","bdp_rd","Sun Mar 26 2023 13:16:34 GMT-0500 (Central Daylight Time)","212587","","2831","","","","offer","","<div class='trialBorder'><div class='vertical-center'><img style='vertical-align:center; align:center' src=img/fixation3.jpg></div><div class='cl'><div class='vertical-center'>$34<br>with a<br>50% chance</div></div><div class='cr'><div class='vertical-center'>$15<br>for<br>sure</div></div><div class='respDivL'><div class='vertical-center'>(E)</div></div><div class='respDivR'><div class='vertical-center'>(I)</div></div></div>","E","$15","$34","1","15","34","RISKY"
"html-keyboard-response","111","152244","0.0-5.0-3.35","5fb3d39a2ceaab00087faddb","bdp_rd","Sun Mar 26 2023 13:16:34 GMT-0500 (Central Daylight Time)","212587","","null","","","","offerFB","","<div class='trialBorder'><div class='vertical-center'><img style='vertical-align:center; align:center' src=img/fixation3.jpg></div><div class='cl'><div class='vertical-center'><font style='color:orange'>$34<br>with a<br>50% chance</font></div></div><div class='cr'><div class='vertical-center'>$15<br>for<br>sure</div></div><div class='respDivL'><div class='vertical-center'><font style='color:orange'>(E)</font></div></div><div class='respDivR'><div class='vertical-center'>(I)</div></div></div>","null","$15","$34","1","15","34",""
"html-keyboard-response","112","152745","0.0-5.0-1.36","5fb3d39a2ceaab00087faddb","bdp_rd","Sun Mar 26 2023 13:16:34 GMT-0500 (Central Daylight Time)","212587","","null","","","","FIX","","<div class='trialBorder'><div class='vertical-center'><img style='vertical-align:center; align:center' src=img/fixation3.jpg></div></div>","null","","","","","",""
"html-keyboard-response","113","154092","0.0-5.0-2.36","5fb3d39a2ceaab00087faddb","bdp_rd","Sun Mar 26 2023 13:16:34 GMT-0500 (Central Daylight Time)","212587","","1347","","","","offer","","<div class='trialBorder'><div class='vertical-center'><img style='vertical-align:center; align:center' src=img/fixation3.jpg></div><div class='cl'><div class='vertical-center'>$51<br>with a<br>50% chance</div></div><div class='cr'><div class='vertical-center'>$19<br>for<br>sure</div></div><div class='respDivL'><div class='vertical-center'>(E)</div></div><div class='respDivR'><div class='vertical-center'>(I)</div></div></div>","E","$19","$51","1","19","51","RISKY"
"html-keyboard-response","114","154344","0.0-5.0-3.36","5fb3d39a2ceaab00087faddb","bdp_rd","Sun Mar 26 2023 13:16:34 GMT-0500 (Central Daylight Time)","212587","","null","","","","offerFB","","<div class='trialBorder'><div class='vertical-center'><img style='vertical-align:center; align:center' src=img/fixation3.jpg></div><div class='cl'><div class='vertical-center'><font style='color:orange'>$51<br>with a<br>50% chance</font></div></div><div class='cr'><div class='vertical-center'>$19<br>for<br>sure</div></div><div class='respDivL'><div class='vertical-center'><font style='color:orange'>(E)</font></div></div><div class='respDivR'><div class='vertical-center'>(I)</div></div></div>","null","$19","$51","1","19","51",""
"html-keyboard-response","115","154846","0.0-5.0-1.37","5fb3d39a2ceaab00087faddb","bdp_rd","Sun Mar 26 2023 13:16:34 GMT-0500 (Central Daylight Time)","212587","","null","","","","FIX","","<div class='trialBorder'><div class='vertical-center'><img style='vertical-align:center; align:center' src=img/fixation3.jpg></div></div>","null","","","","","",""
"html-keyboard-response","116","157791","0.0-5.0-2.37","5fb3d39a2ceaab00087faddb","bdp_rd","Sun Mar 26 2023 13:16:34 GMT-0500 (Central Daylight Time)","212587","","2944","","","","offer","","<div class='trialBorder'><div class='vertical-center'><img style='vertical-align:center; align:center' src=img/fixation3.jpg></div><div class='cl'><div class='vertical-center'>$21<br>with a<br>50% chance</div></div><div class='cr'><div class='vertical-center'>$2<br>for<br>sure</div></div><div class='respDivL'><div class='vertical-center'>(E)</div></div><div class='respDivR'><div class='vertical-center'>(I)</div></div></div>","E","$2","$21","1","2","21","RISKY"
"html-keyboard-response","117","158042","0.0-5.0-3.37","5fb3d39a2ceaab00087faddb","bdp_rd","Sun Mar 26 2023 13:16:34 GMT-0500 (Central Daylight Time)","212587","","null","","","","offerFB","","<div class='trialBorder'><div class='vertical-center'><img style='vertical-align:center; align:center' src=img/fixation3.jpg></div><div class='cl'><div class='vertical-center'><font style='color:orange'>$21<br>with a<br>50% chance</font></div></div><div class='cr'><div class='vertical-center'>$2<br>for<br>sure</div></div><div class='respDivL'><div class='vertical-center'><font style='color:orange'>(E)</font></div></div><div class='respDivR'><div class='vertical-center'>(I)</div></div></div>","null","$2","$21","1","2","21",""
"html-keyboard-response","118","158544","0.0-5.0-1.38","5fb3d39a2ceaab00087faddb","bdp_rd","Sun Mar 26 2023 13:16:34 GMT-0500 (Central Daylight Time)","212587","","null","","","","FIX","","<div class='trialBorder'><div class='vertical-center'><img style='vertical-align:center; align:center' src=img/fixation3.jpg></div></div>","null","","","","","",""
"html-keyboard-response","119","160057","0.0-5.0-2.38","5fb3d39a2ceaab00087faddb","bdp_rd","Sun Mar 26 2023 13:16:34 GMT-0500 (Central Daylight Time)","212587","","1512","","","","offer","","<div class='trialBorder'><div class='vertical-center'><img style='vertical-align:center; align:center' src=img/fixation3.jpg></div><div class='cl'><div class='vertical-center'>$58<br>for<br>sure</div></div><div class='cr'><div class='vertical-center'>$69<br>with a<br>50% chance</div></div><div class='respDivL'><div class='vertical-center'>(E)</div></div><div class='respDivR'><div class='vertical-center'>(I)</div></div></div>","E","$58","$69","0","58","69","SURE"
"html-keyboard-response","120","160309","0.0-5.0-3.38","5fb3d39a2ceaab00087faddb","bdp_rd","Sun Mar 26 2023 13:16:34 GMT-0500 (Central Daylight Time)","212587","","null","","","","offerFB","","<div class='trialBorder'><div class='vertical-center'><img style='vertical-align:center; align:center' src=img/fixation3.jpg></div><div class='cl'><div class='vertical-center'><font style='color:orange'>$58<br>for<br>sure</font></div></div><div class='cr'><div class='vertical-center'>$69<br>with a<br>50% chance</div></div><div class='respDivL'><div class='vertical-center'><font style='color:orange'>(E)</font></div></div><div class='respDivR'><div class='vertical-center'>(I)</div></div></div>","null","$58","$69","0","58","69",""
"html-keyboard-response","121","160810","0.0-5.0-1.39","5fb3d39a2ceaab00087faddb","bdp_rd","Sun Mar 26 2023 13:16:34 GMT-0500 (Central Daylight Time)","212587","","null","","","","FIX","","<div class='trialBorder'><div class='vertical-center'><img style='vertical-align:center; align:center' src=img/fixation3.jpg></div></div>","null","","","","","",""
"html-keyboard-response","122","162622","0.0-5.0-2.39","5fb3d39a2ceaab00087faddb","bdp_rd","Sun Mar 26 2023 13:16:34 GMT-0500 (Central Daylight Time)","212587","","1809","","","","offer","","<div class='trialBorder'><div class='vertical-center'><img style='vertical-align:center; align:center' src=img/fixation3.jpg></div><div class='cl'><div class='vertical-center'>$14<br>for<br>sure</div></div><div class='cr'><div class='vertical-center'>$22<br>with a<br>50% chance</div></div><div class='respDivL'><div class='vertical-center'>(E)</div></div><div class='respDivR'><div class='vertical-center'>(I)</div></div></div>","I","$14","$22","0","14","22","RISKY"
"html-keyboard-response","123","162875","0.0-5.0-3.39","5fb3d39a2ceaab00087faddb","bdp_rd","Sun Mar 26 2023 13:16:34 GMT-0500 (Central Daylight Time)","212587","","null","","","","offerFB","","<div class='trialBorder'><div class='vertical-center'><img style='vertical-align:center; align:center' src=img/fixation3.jpg></div><div class='cl'><div class='vertical-center'>$14<br>for<br>sure</div></div><div class='cr'><div class='vertical-center'><font style='color:orange'>$22<br>with a<br>50% chance</font></div></div><div class='respDivL'><div class='vertical-center'>(E)</div></div><div class='respDivR'><div class='vertical-center'><font style='color:orange'>(I)</font></div></div></div>","null","$14","$22","0","14","22",""
"html-keyboard-response","124","163376","0.0-5.0-1.40","5fb3d39a2ceaab00087faddb","bdp_rd","Sun Mar 26 2023 13:16:34 GMT-0500 (Central Daylight Time)","212587","","null","","","","FIX","","<div class='trialBorder'><div class='vertical-center'><img style='vertical-align:center; align:center' src=img/fixation3.jpg></div></div>","null","","","","","",""
"html-keyboard-response","125","164783","0.0-5.0-2.40","5fb3d39a2ceaab00087faddb","bdp_rd","Sun Mar 26 2023 13:16:34 GMT-0500 (Central Daylight Time)","212587","","1407","","","","offer","","<div class='trialBorder'><div class='vertical-center'><img style='vertical-align:center; align:center' src=img/fixation3.jpg></div><div class='cl'><div class='vertical-center'>$18<br>with a<br>50% chance</div></div><div class='cr'><div class='vertical-center'>$9<br>for<br>sure</div></div><div class='respDivL'><div class='vertical-center'>(E)</div></div><div class='respDivR'><div class='vertical-center'>(I)</div></div></div>","E","$9","$18","1","9","18","RISKY"
"html-keyboard-response","126","165034","0.0-5.0-3.40","5fb3d39a2ceaab00087faddb","bdp_rd","Sun Mar 26 2023 13:16:34 GMT-0500 (Central Daylight Time)","212587","","null","","","","offerFB","","<div class='trialBorder'><div class='vertical-center'><img style='vertical-align:center; align:center' src=img/fixation3.jpg></div><div class='cl'><div class='vertical-center'><font style='color:orange'>$18<br>with a<br>50% chance</font></div></div><div class='cr'><div class='vertical-center'>$9<br>for<br>sure</div></div><div class='respDivL'><div class='vertical-center'><font style='color:orange'>(E)</font></div></div><div class='respDivR'><div class='vertical-center'>(I)</div></div></div>","null","$9","$18","1","9","18",""
"html-keyboard-response","127","165535","0.0-5.0-1.41","5fb3d39a2ceaab00087faddb","bdp_rd","Sun Mar 26 2023 13:16:34 GMT-0500 (Central Daylight Time)","212587","","null","","","","FIX","","<div class='trialBorder'><div class='vertical-center'><img style='vertical-align:center; align:center' src=img/fixation3.jpg></div></div>","null","","","","","",""
"html-keyboard-response","128","166841","0.0-5.0-2.41","5fb3d39a2ceaab00087faddb","bdp_rd","Sun Mar 26 2023 13:16:34 GMT-0500 (Central Daylight Time)","212587","","1305","","","","offer","","<div class='trialBorder'><div class='vertical-center'><img style='vertical-align:center; align:center' src=img/fixation3.jpg></div><div class='cl'><div class='vertical-center'>$23<br>with a<br>50% chance</div></div><div class='cr'><div class='vertical-center'>$8<br>for<br>sure</div></div><div class='respDivL'><div class='vertical-center'>(E)</div></div><div class='respDivR'><div class='vertical-center'>(I)</div></div></div>","E","$8","$23","1","8","23","RISKY"
"html-keyboard-response","129","167093","0.0-5.0-3.41","5fb3d39a2ceaab00087faddb","bdp_rd","Sun Mar 26 2023 13:16:34 GMT-0500 (Central Daylight Time)","212587","","null","","","","offerFB","","<div class='trialBorder'><div class='vertical-center'><img style='vertical-align:center; align:center' src=img/fixation3.jpg></div><div class='cl'><div class='vertical-center'><font style='color:orange'>$23<br>with a<br>50% chance</font></div></div><div class='cr'><div class='vertical-center'>$8<br>for<br>sure</div></div><div class='respDivL'><div class='vertical-center'><font style='color:orange'>(E)</font></div></div><div class='respDivR'><div class='vertical-center'>(I)</div></div></div>","null","$8","$23","1","8","23",""
"html-keyboard-response","130","167593","0.0-5.0-1.42","5fb3d39a2ceaab00087faddb","bdp_rd","Sun Mar 26 2023 13:16:34 GMT-0500 (Central Daylight Time)","212587","","null","","","","FIX","","<div class='trialBorder'><div class='vertical-center'><img style='vertical-align:center; align:center' src=img/fixation3.jpg></div></div>","null","","","","","",""
"html-keyboard-response","131","169023","0.0-5.0-2.42","5fb3d39a2ceaab00087faddb","bdp_rd","Sun Mar 26 2023 13:16:34 GMT-0500 (Central Daylight Time)","212587","","1429","","","","offer","","<div class='trialBorder'><div class='vertical-center'><img style='vertical-align:center; align:center' src=img/fixation3.jpg></div><div class='cl'><div class='vertical-center'>$66<br>with a<br>50% chance</div></div><div class='cr'><div class='vertical-center'>$33<br>for<br>sure</div></div><div class='respDivL'><div class='vertical-center'>(E)</div></div><div class='respDivR'><div class='vertical-center'>(I)</div></div></div>","E","$33","$66","1","33","66","RISKY"
"html-keyboard-response","132","169275","0.0-5.0-3.42","5fb3d39a2ceaab00087faddb","bdp_rd","Sun Mar 26 2023 13:16:34 GMT-0500 (Central Daylight Time)","212587","","null","","","","offerFB","","<div class='trialBorder'><div class='vertical-center'><img style='vertical-align:center; align:center' src=img/fixation3.jpg></div><div class='cl'><div class='vertical-center'><font style='color:orange'>$66<br>with a<br>50% chance</font></div></div><div class='cr'><div class='vertical-center'>$33<br>for<br>sure</div></div><div class='respDivL'><div class='vertical-center'><font style='color:orange'>(E)</font></div></div><div class='respDivR'><div class='vertical-center'>(I)</div></div></div>","null","$33","$66","1","33","66",""
"html-keyboard-response","133","169777","0.0-5.0-1.43","5fb3d39a2ceaab00087faddb","bdp_rd","Sun Mar 26 2023 13:16:34 GMT-0500 (Central Daylight Time)","212587","","null","","","","FIX","","<div class='trialBorder'><div class='vertical-center'><img style='vertical-align:center; align:center' src=img/fixation3.jpg></div></div>","null","","","","","",""
"html-keyboard-response","134","171139","0.0-5.0-2.43","5fb3d39a2ceaab00087faddb","bdp_rd","Sun Mar 26 2023 13:16:34 GMT-0500 (Central Daylight Time)","212587","","1360","","","","offer","","<div class='trialBorder'><div class='vertical-center'><img style='vertical-align:center; align:center' src=img/fixation3.jpg></div><div class='cl'><div class='vertical-center'>$40<br>with a<br>50% chance</div></div><div class='cr'><div class='vertical-center'>$10<br>for<br>sure</div></div><div class='respDivL'><div class='vertical-center'>(E)</div></div><div class='respDivR'><div class='vertical-center'>(I)</div></div></div>","E","$10","$40","1","10","40","RISKY"
"html-keyboard-response","135","171392","0.0-5.0-3.43","5fb3d39a2ceaab00087faddb","bdp_rd","Sun Mar 26 2023 13:16:34 GMT-0500 (Central Daylight Time)","212587","","null","","","","offerFB","","<div class='trialBorder'><div class='vertical-center'><img style='vertical-align:center; align:center' src=img/fixation3.jpg></div><div class='cl'><div class='vertical-center'><font style='color:orange'>$40<br>with a<br>50% chance</font></div></div><div class='cr'><div class='vertical-center'>$10<br>for<br>sure</div></div><div class='respDivL'><div class='vertical-center'><font style='color:orange'>(E)</font></div></div><div class='respDivR'><div class='vertical-center'>(I)</div></div></div>","null","$10","$40","1","10","40",""
"html-keyboard-response","136","171894","0.0-5.0-1.44","5fb3d39a2ceaab00087faddb","bdp_rd","Sun Mar 26 2023 13:16:34 GMT-0500 (Central Daylight Time)","212587","","null","","","","FIX","","<div class='trialBorder'><div class='vertical-center'><img style='vertical-align:center; align:center' src=img/fixation3.jpg></div></div>","null","","","","","",""
"html-keyboard-response","137","175141","0.0-5.0-2.44","5fb3d39a2ceaab00087faddb","bdp_rd","Sun Mar 26 2023 13:16:34 GMT-0500 (Central Daylight Time)","212587","","3247","","","","offer","","<div class='trialBorder'><div class='vertical-center'><img style='vertical-align:center; align:center' src=img/fixation3.jpg></div><div class='cl'><div class='vertical-center'>$6<br>for<br>sure</div></div><div class='cr'><div class='vertical-center'>$13<br>with a<br>50% chance</div></div><div class='respDivL'><div class='vertical-center'>(E)</div></div><div class='respDivR'><div class='vertical-center'>(I)</div></div></div>","I","$6","$13","0","6","13","RISKY"
"html-keyboard-response","138","175393","0.0-5.0-3.44","5fb3d39a2ceaab00087faddb","bdp_rd","Sun Mar 26 2023 13:16:34 GMT-0500 (Central Daylight Time)","212587","","null","","","","offerFB","","<div class='trialBorder'><div class='vertical-center'><img style='vertical-align:center; align:center' src=img/fixation3.jpg></div><div class='cl'><div class='vertical-center'>$6<br>for<br>sure</div></div><div class='cr'><div class='vertical-center'><font style='color:orange'>$13<br>with a<br>50% chance</font></div></div><div class='respDivL'><div class='vertical-center'>(E)</div></div><div class='respDivR'><div class='vertical-center'><font style='color:orange'>(I)</font></div></div></div>","null","$6","$13","0","6","13",""
"html-keyboard-response","139","175895","0.0-5.0-1.45","5fb3d39a2ceaab00087faddb","bdp_rd","Sun Mar 26 2023 13:16:34 GMT-0500 (Central Daylight Time)","212587","","null","","","","FIX","","<div class='trialBorder'><div class='vertical-center'><img style='vertical-align:center; align:center' src=img/fixation3.jpg></div></div>","null","","","","","",""
"html-keyboard-response","140","177226","0.0-5.0-2.45","5fb3d39a2ceaab00087faddb","bdp_rd","Sun Mar 26 2023 13:16:34 GMT-0500 (Central Daylight Time)","212587","","1329","","","","offer","","<div class='trialBorder'><div class='vertical-center'><img style='vertical-align:center; align:center' src=img/fixation3.jpg></div><div class='cl'><div class='vertical-center'>$62<br>with a<br>50% chance</div></div><div class='cr'><div class='vertical-center'>$11<br>for<br>sure</div></div><div class='respDivL'><div class='vertical-center'>(E)</div></div><div class='respDivR'><div class='vertical-center'>(I)</div></div></div>","E","$11","$62","1","11","62","RISKY"
"html-keyboard-response","141","177477","0.0-5.0-3.45","5fb3d39a2ceaab00087faddb","bdp_rd","Sun Mar 26 2023 13:16:34 GMT-0500 (Central Daylight Time)","212587","","null","","","","offerFB","","<div class='trialBorder'><div class='vertical-center'><img style='vertical-align:center; align:center' src=img/fixation3.jpg></div><div class='cl'><div class='vertical-center'><font style='color:orange'>$62<br>with a<br>50% chance</font></div></div><div class='cr'><div class='vertical-center'>$11<br>for<br>sure</div></div><div class='respDivL'><div class='vertical-center'><font style='color:orange'>(E)</font></div></div><div class='respDivR'><div class='vertical-center'>(I)</div></div></div>","null","$11","$62","1","11","62",""
"html-keyboard-response","142","177979","0.0-5.0-1.46","5fb3d39a2ceaab00087faddb","bdp_rd","Sun Mar 26 2023 13:16:34 GMT-0500 (Central Daylight Time)","212587","","null","","","","FIX","","<div class='trialBorder'><div class='vertical-center'><img style='vertical-align:center; align:center' src=img/fixation3.jpg></div></div>","null","","","","","",""
"html-keyboard-response","143","179443","0.0-5.0-2.46","5fb3d39a2ceaab00087faddb","bdp_rd","Sun Mar 26 2023 13:16:34 GMT-0500 (Central Daylight Time)","212587","","1464","","","","offer","","<div class='trialBorder'><div class='vertical-center'><img style='vertical-align:center; align:center' src=img/fixation3.jpg></div><div class='cl'><div class='vertical-center'>$27<br>with a<br>50% chance</div></div><div class='cr'><div class='vertical-center'>$12<br>for<br>sure</div></div><div class='respDivL'><div class='vertical-center'>(E)</div></div><div class='respDivR'><div class='vertical-center'>(I)</div></div></div>","E","$12","$27","1","12","27","RISKY"
"html-keyboard-response","144","179695","0.0-5.0-3.46","5fb3d39a2ceaab00087faddb","bdp_rd","Sun Mar 26 2023 13:16:34 GMT-0500 (Central Daylight Time)","212587","","null","","","","offerFB","","<div class='trialBorder'><div class='vertical-center'><img style='vertical-align:center; align:center' src=img/fixation3.jpg></div><div class='cl'><div class='vertical-center'><font style='color:orange'>$27<br>with a<br>50% chance</font></div></div><div class='cr'><div class='vertical-center'>$12<br>for<br>sure</div></div><div class='respDivL'><div class='vertical-center'><font style='color:orange'>(E)</font></div></div><div class='respDivR'><div class='vertical-center'>(I)</div></div></div>","null","$12","$27","1","12","27",""
"html-keyboard-response","145","180196","0.0-5.0-1.47","5fb3d39a2ceaab00087faddb","bdp_rd","Sun Mar 26 2023 13:16:34 GMT-0500 (Central Daylight Time)","212587","","null","","","","FIX","","<div class='trialBorder'><div class='vertical-center'><img style='vertical-align:center; align:center' src=img/fixation3.jpg></div></div>","null","","","","","",""
"html-keyboard-response","146","181061","0.0-5.0-2.47","5fb3d39a2ceaab00087faddb","bdp_rd","Sun Mar 26 2023 13:16:34 GMT-0500 (Central Daylight Time)","212587","","864","","","","offer","","<div class='trialBorder'><div class='vertical-center'><img style='vertical-align:center; align:center' src=img/fixation3.jpg></div><div class='cl'><div class='vertical-center'>$38<br>with a<br>50% chance</div></div><div class='cr'><div class='vertical-center'>$16<br>for<br>sure</div></div><div class='respDivL'><div class='vertical-center'>(E)</div></div><div class='respDivR'><div class='vertical-center'>(I)</div></div></div>","E","$16","$38","1","16","38","RISKY"
"html-keyboard-response","147","181313","0.0-5.0-3.47","5fb3d39a2ceaab00087faddb","bdp_rd","Sun Mar 26 2023 13:16:34 GMT-0500 (Central Daylight Time)","212587","","null","","","","offerFB","","<div class='trialBorder'><div class='vertical-center'><img style='vertical-align:center; align:center' src=img/fixation3.jpg></div><div class='cl'><div class='vertical-center'><font style='color:orange'>$38<br>with a<br>50% chance</font></div></div><div class='cr'><div class='vertical-center'>$16<br>for<br>sure</div></div><div class='respDivL'><div class='vertical-center'><font style='color:orange'>(E)</font></div></div><div class='respDivR'><div class='vertical-center'>(I)</div></div></div>","null","$16","$38","1","16","38",""
"html-keyboard-response","148","181815","0.0-5.0-1.48","5fb3d39a2ceaab00087faddb","bdp_rd","Sun Mar 26 2023 13:16:34 GMT-0500 (Central Daylight Time)","212587","","null","","","","FIX","","<div class='trialBorder'><div class='vertical-center'><img style='vertical-align:center; align:center' src=img/fixation3.jpg></div></div>","null","","","","","",""
"html-keyboard-response","149","183035","0.0-5.0-2.48","5fb3d39a2ceaab00087faddb","bdp_rd","Sun Mar 26 2023 13:16:34 GMT-0500 (Central Daylight Time)","212587","","1220","","","","offer","","<div class='trialBorder'><div class='vertical-center'><img style='vertical-align:center; align:center' src=img/fixation3.jpg></div><div class='cl'><div class='vertical-center'>$29<br>with a<br>50% chance</div></div><div class='cr'><div class='vertical-center'>$14<br>for<br>sure</div></div><div class='respDivL'><div class='vertical-center'>(E)</div></div><div class='respDivR'><div class='vertical-center'>(I)</div></div></div>","E","$14","$29","1","14","29","RISKY"
"html-keyboard-response","150","183286","0.0-5.0-3.48","5fb3d39a2ceaab00087faddb","bdp_rd","Sun Mar 26 2023 13:16:34 GMT-0500 (Central Daylight Time)","212587","","null","","","","offerFB","","<div class='trialBorder'><div class='vertical-center'><img style='vertical-align:center; align:center' src=img/fixation3.jpg></div><div class='cl'><div class='vertical-center'><font style='color:orange'>$29<br>with a<br>50% chance</font></div></div><div class='cr'><div class='vertical-center'>$14<br>for<br>sure</div></div><div class='respDivL'><div class='vertical-center'><font style='color:orange'>(E)</font></div></div><div class='respDivR'><div class='vertical-center'>(I)</div></div></div>","null","$14","$29","1","14","29",""
"html-keyboard-response","151","183788","0.0-5.0-1.49","5fb3d39a2ceaab00087faddb","bdp_rd","Sun Mar 26 2023 13:16:34 GMT-0500 (Central Daylight Time)","212587","","null","","","","FIX","","<div class='trialBorder'><div class='vertical-center'><img style='vertical-align:center; align:center' src=img/fixation3.jpg></div></div>","null","","","","","",""
"html-keyboard-response","152","185055","0.0-5.0-2.49","5fb3d39a2ceaab00087faddb","bdp_rd","Sun Mar 26 2023 13:16:34 GMT-0500 (Central Daylight Time)","212587","","1266","","","","offer","","<div class='trialBorder'><div class='vertical-center'><img style='vertical-align:center; align:center' src=img/fixation3.jpg></div><div class='cl'><div class='vertical-center'>$92<br>with a<br>50% chance</div></div><div class='cr'><div class='vertical-center'>$26<br>for<br>sure</div></div><div class='respDivL'><div class='vertical-center'>(E)</div></div><div class='respDivR'><div class='vertical-center'>(I)</div></div></div>","E","$26","$92","1","26","92","RISKY"
"html-keyboard-response","153","185308","0.0-5.0-3.49","5fb3d39a2ceaab00087faddb","bdp_rd","Sun Mar 26 2023 13:16:34 GMT-0500 (Central Daylight Time)","212587","","null","","","","offerFB","","<div class='trialBorder'><div class='vertical-center'><img style='vertical-align:center; align:center' src=img/fixation3.jpg></div><div class='cl'><div class='vertical-center'><font style='color:orange'>$92<br>with a<br>50% chance</font></div></div><div class='cr'><div class='vertical-center'>$26<br>for<br>sure</div></div><div class='respDivL'><div class='vertical-center'><font style='color:orange'>(E)</font></div></div><div class='respDivR'><div class='vertical-center'>(I)</div></div></div>","null","$26","$92","1","26","92",""
"html-keyboard-response","154","185809","0.0-5.0-1.50","5fb3d39a2ceaab00087faddb","bdp_rd","Sun Mar 26 2023 13:16:34 GMT-0500 (Central Daylight Time)","212587","","null","","","","FIX","","<div class='trialBorder'><div class='vertical-center'><img style='vertical-align:center; align:center' src=img/fixation3.jpg></div></div>","null","","","","","",""
"html-keyboard-response","155","187220","0.0-5.0-2.50","5fb3d39a2ceaab00087faddb","bdp_rd","Sun Mar 26 2023 13:16:34 GMT-0500 (Central Daylight Time)","212587","","1408","","","","offer","","<div class='trialBorder'><div class='vertical-center'><img style='vertical-align:center; align:center' src=img/fixation3.jpg></div><div class='cl'><div class='vertical-center'>$13<br>for<br>sure</div></div><div class='cr'><div class='vertical-center'>$41<br>with a<br>50% chance</div></div><div class='respDivL'><div class='vertical-center'>(E)</div></div><div class='respDivR'><div class='vertical-center'>(I)</div></div></div>","I","$13","$41","0","13","41","RISKY"
"html-keyboard-response","156","187471","0.0-5.0-3.50","5fb3d39a2ceaab00087faddb","bdp_rd","Sun Mar 26 2023 13:16:34 GMT-0500 (Central Daylight Time)","212587","","null","","","","offerFB","","<div class='trialBorder'><div class='vertical-center'><img style='vertical-align:center; align:center' src=img/fixation3.jpg></div><div class='cl'><div class='vertical-center'>$13<br>for<br>sure</div></div><div class='cr'><div class='vertical-center'><font style='color:orange'>$41<br>with a<br>50% chance</font></div></div><div class='respDivL'><div class='vertical-center'>(E)</div></div><div class='respDivR'><div class='vertical-center'><font style='color:orange'>(I)</font></div></div></div>","null","$13","$41","0","13","41",""
"html-keyboard-response","157","187973","0.0-5.0-1.51","5fb3d39a2ceaab00087faddb","bdp_rd","Sun Mar 26 2023 13:16:34 GMT-0500 (Central Daylight Time)","212587","","null","","","","FIX","","<div class='trialBorder'><div class='vertical-center'><img style='vertical-align:center; align:center' src=img/fixation3.jpg></div></div>","null","","","","","",""
"html-keyboard-response","158","189348","0.0-5.0-2.51","5fb3d39a2ceaab00087faddb","bdp_rd","Sun Mar 26 2023 13:16:34 GMT-0500 (Central Daylight Time)","212587","","1374","","","","offer","","<div class='trialBorder'><div class='vertical-center'><img style='vertical-align:center; align:center' src=img/fixation3.jpg></div><div class='cl'><div class='vertical-center'>$30<br>for<br>sure</div></div><div class='cr'><div class='vertical-center'>$68<br>with a<br>50% chance</div></div><div class='respDivL'><div class='vertical-center'>(E)</div></div><div class='respDivR'><div class='vertical-center'>(I)</div></div></div>","I","$30","$68","0","30","68","RISKY"
"html-keyboard-response","159","189600","0.0-5.0-3.51","5fb3d39a2ceaab00087faddb","bdp_rd","Sun Mar 26 2023 13:16:34 GMT-0500 (Central Daylight Time)","212587","","null","","","","offerFB","","<div class='trialBorder'><div class='vertical-center'><img style='vertical-align:center; align:center' src=img/fixation3.jpg></div><div class='cl'><div class='vertical-center'>$30<br>for<br>sure</div></div><div class='cr'><div class='vertical-center'><font style='color:orange'>$68<br>with a<br>50% chance</font></div></div><div class='respDivL'><div class='vertical-center'>(E)</div></div><div class='respDivR'><div class='vertical-center'><font style='color:orange'>(I)</font></div></div></div>","null","$30","$68","0","30","68",""
"html-keyboard-response","160","190102","0.0-5.0-1.52","5fb3d39a2ceaab00087faddb","bdp_rd","Sun Mar 26 2023 13:16:34 GMT-0500 (Central Daylight Time)","212587","","null","","","","FIX","","<div class='trialBorder'><div class='vertical-center'><img style='vertical-align:center; align:center' src=img/fixation3.jpg></div></div>","null","","","","","",""
"html-keyboard-response","161","191816","0.0-5.0-2.52","5fb3d39a2ceaab00087faddb","bdp_rd","Sun Mar 26 2023 13:16:34 GMT-0500 (Central Daylight Time)","212587","","1713","","","","offer","","<div class='trialBorder'><div class='vertical-center'><img style='vertical-align:center; align:center' src=img/fixation3.jpg></div><div class='cl'><div class='vertical-center'>$53<br>for<br>sure</div></div><div class='cr'><div class='vertical-center'>$98<br>with a<br>50% chance</div></div><div class='respDivL'><div class='vertical-center'>(E)</div></div><div class='respDivR'><div class='vertical-center'>(I)</div></div></div>","I","$53","$98","0","53","98","RISKY"
"html-keyboard-response","162","192066","0.0-5.0-3.52","5fb3d39a2ceaab00087faddb","bdp_rd","Sun Mar 26 2023 13:16:34 GMT-0500 (Central Daylight Time)","212587","","null","","","","offerFB","","<div class='trialBorder'><div class='vertical-center'><img style='vertical-align:center; align:center' src=img/fixation3.jpg></div><div class='cl'><div class='vertical-center'>$53<br>for<br>sure</div></div><div class='cr'><div class='vertical-center'><font style='color:orange'>$98<br>with a<br>50% chance</font></div></div><div class='respDivL'><div class='vertical-center'>(E)</div></div><div class='respDivR'><div class='vertical-center'><font style='color:orange'>(I)</font></div></div></div>","null","$53","$98","0","53","98",""
"html-keyboard-response","163","192569","0.0-5.0-1.53","5fb3d39a2ceaab00087faddb","bdp_rd","Sun Mar 26 2023 13:16:34 GMT-0500 (Central Daylight Time)","212587","","null","","","","FIX","","<div class='trialBorder'><div class='vertical-center'><img style='vertical-align:center; align:center' src=img/fixation3.jpg></div></div>","null","","","","","",""
"html-keyboard-response","164","196286","0.0-5.0-2.53","5fb3d39a2ceaab00087faddb","bdp_rd","Sun Mar 26 2023 13:16:34 GMT-0500 (Central Daylight Time)","212587","","3715","","","","offer","","<div class='trialBorder'><div class='vertical-center'><img style='vertical-align:center; align:center' src=img/fixation3.jpg></div><div class='cl'><div class='vertical-center'>$47<br>with a<br>50% chance</div></div><div class='cr'><div class='vertical-center'>$27<br>for<br>sure</div></div><div class='respDivL'><div class='vertical-center'>(E)</div></div><div class='respDivR'><div class='vertical-center'>(I)</div></div></div>","I","$27","$47","1","27","47","SURE"
"html-keyboard-response","165","196537","0.0-5.0-3.53","5fb3d39a2ceaab00087faddb","bdp_rd","Sun Mar 26 2023 13:16:34 GMT-0500 (Central Daylight Time)","212587","","null","","","","offerFB","","<div class='trialBorder'><div class='vertical-center'><img style='vertical-align:center; align:center' src=img/fixation3.jpg></div><div class='cl'><div class='vertical-center'>$47<br>with a<br>50% chance</div></div><div class='cr'><div class='vertical-center'><font style='color:orange'>$27<br>for<br>sure</font></div></div><div class='respDivL'><div class='vertical-center'>(E)</div></div><div class='respDivR'><div class='vertical-center'><font style='color:orange'>(I)</font></div></div></div>","null","$27","$47","1","27","47",""
"html-keyboard-response","166","197039","0.0-5.0-1.54","5fb3d39a2ceaab00087faddb","bdp_rd","Sun Mar 26 2023 13:16:34 GMT-0500 (Central Daylight Time)","212587","","null","","","","FIX","","<div class='trialBorder'><div class='vertical-center'><img style='vertical-align:center; align:center' src=img/fixation3.jpg></div></div>","null","","","","","",""
"html-keyboard-response","167","198658","0.0-5.0-2.54","5fb3d39a2ceaab00087faddb","bdp_rd","Sun Mar 26 2023 13:16:34 GMT-0500 (Central Daylight Time)","212587","","1618","","","","offer","","<div class='trialBorder'><div class='vertical-center'><img style='vertical-align:center; align:center' src=img/fixation3.jpg></div><div class='cl'><div class='vertical-center'>$4<br>for<br>sure</div></div><div class='cr'><div class='vertical-center'>$14<br>with a<br>50% chance</div></div><div class='respDivL'><div class='vertical-center'>(E)</div></div><div class='respDivR'><div class='vertical-center'>(I)</div></div></div>","I","$4","$14","0","4","14","RISKY"
"html-keyboard-response","168","198910","0.0-5.0-3.54","5fb3d39a2ceaab00087faddb","bdp_rd","Sun Mar 26 2023 13:16:34 GMT-0500 (Central Daylight Time)","212587","","null","","","","offerFB","","<div class='trialBorder'><div class='vertical-center'><img style='vertical-align:center; align:center' src=img/fixation3.jpg></div><div class='cl'><div class='vertical-center'>$4<br>for<br>sure</div></div><div class='cr'><div class='vertical-center'><font style='color:orange'>$14<br>with a<br>50% chance</font></div></div><div class='respDivL'><div class='vertical-center'>(E)</div></div><div class='respDivR'><div class='vertical-center'><font style='color:orange'>(I)</font></div></div></div>","null","$4","$14","0","4","14",""
"html-keyboard-response","169","199411","0.0-5.0-1.55","5fb3d39a2ceaab00087faddb","bdp_rd","Sun Mar 26 2023 13:16:34 GMT-0500 (Central Daylight Time)","212587","","null","","","","FIX","","<div class='trialBorder'><div class='vertical-center'><img style='vertical-align:center; align:center' src=img/fixation3.jpg></div></div>","null","","","","","",""
"html-keyboard-response","170","201057","0.0-5.0-2.55","5fb3d39a2ceaab00087faddb","bdp_rd","Sun Mar 26 2023 13:16:34 GMT-0500 (Central Daylight Time)","212587","","1645","","","","offer","","<div class='trialBorder'><div class='vertical-center'><img style='vertical-align:center; align:center' src=img/fixation3.jpg></div><div class='cl'><div class='vertical-center'>$21<br>for<br>sure</div></div><div class='cr'><div class='vertical-center'>$25<br>with a<br>50% chance</div></div><div class='respDivL'><div class='vertical-center'>(E)</div></div><div class='respDivR'><div class='vertical-center'>(I)</div></div></div>","E","$21","$25","0","21","25","SURE"
"html-keyboard-response","171","201308","0.0-5.0-3.55","5fb3d39a2ceaab00087faddb","bdp_rd","Sun Mar 26 2023 13:16:34 GMT-0500 (Central Daylight Time)","212587","","null","","","","offerFB","","<div class='trialBorder'><div class='vertical-center'><img style='vertical-align:center; align:center' src=img/fixation3.jpg></div><div class='cl'><div class='vertical-center'><font style='color:orange'>$21<br>for<br>sure</font></div></div><div class='cr'><div class='vertical-center'>$25<br>with a<br>50% chance</div></div><div class='respDivL'><div class='vertical-center'><font style='color:orange'>(E)</font></div></div><div class='respDivR'><div class='vertical-center'>(I)</div></div></div>","null","$21","$25","0","21","25",""
"html-keyboard-response","172","201810","0.0-5.0-1.56","5fb3d39a2ceaab00087faddb","bdp_rd","Sun Mar 26 2023 13:16:34 GMT-0500 (Central Daylight Time)","212587","","null","","","","FIX","","<div class='trialBorder'><div class='vertical-center'><img style='vertical-align:center; align:center' src=img/fixation3.jpg></div></div>","null","","","","","",""
"html-keyboard-response","173","204136","0.0-5.0-2.56","5fb3d39a2ceaab00087faddb","bdp_rd","Sun Mar 26 2023 13:16:34 GMT-0500 (Central Daylight Time)","212587","","2326","","","","offer","","<div class='trialBorder'><div class='vertical-center'><img style='vertical-align:center; align:center' src=img/fixation3.jpg></div><div class='cl'><div class='vertical-center'>$10<br>with a<br>50% chance</div></div><div class='cr'><div class='vertical-center'>$7<br>for<br>sure</div></div><div class='respDivL'><div class='vertical-center'>(E)</div></div><div class='respDivR'><div class='vertical-center'>(I)</div></div></div>","I","$7","$10","1","7","10","SURE"
