"trial_type","trial_index","time_elapsed","internal_node_id","subject_id","task","startTime","totalTime","view_history","rt","event","trial","time","trialtype","success","stimulus","key_press","sureOffer","riskyOffer","riskyLeft","sureAmt","riskyAmt","chosen"
"pavlovia","0","3","0.0-0.0","5f934f7fdc89a111b5712011","bdp_rd","Sun Mar 26 2023 14:34:36 GMT-0400 (Eastern Daylight Time)","200464","","","","","","","","","","","","","","",""
"instructions","1","1885","0.0-1.0","5f934f7fdc89a111b5712011","bdp_rd","Sun Mar 26 2023 14:34:36 GMT-0400 (Eastern Daylight Time)","200464","[{""page_index"":0,""viewing_time"":1881}]","1881","","","","","","","","","","","","",""
"","","","","5f934f7fdc89a111b5712011","bdp_rd","Sun Mar 26 2023 14:34:36 GMT-0400 (Eastern Daylight Time)","200464","","","fullscreenenter","2","12576","fullscreenenter","","","","","","","","",""
"fullscreen","2","13564","0.0-2.0","5f934f7fdc89a111b5712011","bdp_rd","Sun Mar 26 2023 14:34:36 GMT-0400 (Eastern Daylight Time)","200464","","","","","","","true","","","","","","","",""
"instructions","3","45697","0.0-4.0","5f934f7fdc89a111b5712011","bdp_rd","Sun Mar 26 2023 14:34:36 GMT-0400 (Eastern Daylight Time)","200464","[{""page_index"":0,""viewing_time"":28375},{""page_index"":1,""viewing_time"":1638},{""page_index"":2,""viewing_time"":2117}]","32131","","","","","","","","","","","","",""
"html-keyboard-response","4","46206","0.0-5.0-1.0","5f934f7fdc89a111b5712011","bdp_rd","Sun Mar 26 2023 14:34:36 GMT-0400 (Eastern Daylight Time)","200464","","null","","","","FIX","","<div class='trialBorder'><div class='vertical-center'><img style='vertical-align:center; align:center' src=img/fixation3.jpg></div></div>","null","","","","","",""
"html-keyboard-response","5","55006","0.0-5.0-2.0","5f934f7fdc89a111b5712011","bdp_rd","Sun Mar 26 2023 14:34:36 GMT-0400 (Eastern Daylight Time)","200464","","8798","","","","offer","","<div class='trialBorder'><div class='vertical-center'><img style='vertical-align:center; align:center' src=img/fixation3.jpg></div><div class='cl'><div class='vertical-center'>$9<br>for<br>sure</div></div><div class='cr'><div class='vertical-center'>$18<br>with a<br>50% chance</div></div><div class='respDivL'><div class='vertical-center'>(E)</div></div><div class='respDivR'><div class='vertical-center'>(I)</div></div></div>","I","$9","$18","0","9","18","RISKY"
"html-keyboard-response","6","55266","0.0-5.0-3.0","5f934f7fdc89a111b5712011","bdp_rd","Sun Mar 26 2023 14:34:36 GMT-0400 (Eastern Daylight Time)","200464","","null","","","","offerFB","","<div class='trialBorder'><div class='vertical-center'><img style='vertical-align:center; align:center' src=img/fixation3.jpg></div><div class='cl'><div class='vertical-center'>$9<br>for<br>sure</div></div><div class='cr'><div class='vertical-center'><font style='color:orange'>$18<br>with a<br>50% chance</font></div></div><div class='respDivL'><div class='vertical-center'>(E)</div></div><div class='respDivR'><div class='vertical-center'><font style='color:orange'>(I)</font></div></div></div>","null","$9","$18","0","9","18",""
"html-keyboard-response","7","55773","0.0-5.0-1.1","5f934f7fdc89a111b5712011","bdp_rd","Sun Mar 26 2023 14:34:36 GMT-0400 (Eastern Daylight Time)","200464","","null","","","","FIX","","<div class='trialBorder'><div class='vertical-center'><img style='vertical-align:center; align:center' src=img/fixation3.jpg></div></div>","null","","","","","",""
"html-keyboard-response","8","57364","0.0-5.0-2.1","5f934f7fdc89a111b5712011","bdp_rd","Sun Mar 26 2023 14:34:36 GMT-0400 (Eastern Daylight Time)","200464","","1590","","","","offer","","<div class='trialBorder'><div class='vertical-center'><img style='vertical-align:center; align:center' src=img/fixation3.jpg></div><div class='cl'><div class='vertical-center'>$22<br>with a<br>50% chance</div></div><div class='cr'><div class='vertical-center'>$14<br>for<br>sure</div></div><div class='respDivL'><div class='vertical-center'>(E)</div></div><div class='respDivR'><div class='vertical-center'>(I)</div></div></div>","I","$14","$22","1","14","22","SURE"
"html-keyboard-response","9","57619","0.0-5.0-3.1","5f934f7fdc89a111b5712011","bdp_rd","Sun Mar 26 2023 14:34:36 GMT-0400 (Eastern Daylight Time)","200464","","null","","","","offerFB","","<div class='trialBorder'><div class='vertical-center'><img style='vertical-align:center; align:center' src=img/fixation3.jpg></div><div class='cl'><div class='vertical-center'>$22<br>with a<br>50% chance</div></div><div class='cr'><div class='vertical-center'><font style='color:orange'>$14<br>for<br>sure</font></div></div><div class='respDivL'><div class='vertical-center'>(E)</div></div><div class='respDivR'><div class='vertical-center'><font style='color:orange'>(I)</font></div></div></div>","null","$14","$22","1","14","22",""
"html-keyboard-response","10","58125","0.0-5.0-1.2","5f934f7fdc89a111b5712011","bdp_rd","Sun Mar 26 2023 14:34:36 GMT-0400 (Eastern Daylight Time)","200464","","null","","","","FIX","","<div class='trialBorder'><div class='vertical-center'><img style='vertical-align:center; align:center' src=img/fixation3.jpg></div></div>","null","","","","","",""
"html-keyboard-response","11","59481","0.0-5.0-2.2","5f934f7fdc89a111b5712011","bdp_rd","Sun Mar 26 2023 14:34:36 GMT-0400 (Eastern Daylight Time)","200464","","1355","","","","offer","","<div class='trialBorder'><div class='vertical-center'><img style='vertical-align:center; align:center' src=img/fixation3.jpg></div><div class='cl'><div class='vertical-center'>$64<br>with a<br>50% chance</div></div><div class='cr'><div class='vertical-center'>$2<br>for<br>sure</div></div><div class='respDivL'><div class='vertical-center'>(E)</div></div><div class='respDivR'><div class='vertical-center'>(I)</div></div></div>","E","$2","$64","1","2","64","RISKY"
"html-keyboard-response","12","59741","0.0-5.0-3.2","5f934f7fdc89a111b5712011","bdp_rd","Sun Mar 26 2023 14:34:36 GMT-0400 (Eastern Daylight Time)","200464","","null","","","","offerFB","","<div class='trialBorder'><div class='vertical-center'><img style='vertical-align:center; align:center' src=img/fixation3.jpg></div><div class='cl'><div class='vertical-center'><font style='color:orange'>$64<br>with a<br>50% chance</font></div></div><div class='cr'><div class='vertical-center'>$2<br>for<br>sure</div></div><div class='respDivL'><div class='vertical-center'><font style='color:orange'>(E)</font></div></div><div class='respDivR'><div class='vertical-center'>(I)</div></div></div>","null","$2","$64","1","2","64",""
"html-keyboard-response","13","60253","0.0-5.0-1.3","5f934f7fdc89a111b5712011","bdp_rd","Sun Mar 26 2023 14:34:36 GMT-0400 (Eastern Daylight Time)","200464","","null","","","","FIX","","<div class='trialBorder'><div class='vertical-center'><img style='vertical-align:center; align:center' src=img/fixation3.jpg></div></div>","null","","","","","",""
"html-keyboard-response","14","61810","0.0-5.0-2.3","5f934f7fdc89a111b5712011","bdp_rd","Sun Mar 26 2023 14:34:36 GMT-0400 (Eastern Daylight Time)","200464","","1555","","","","offer","","<div class='trialBorder'><div class='vertical-center'><img style='vertical-align:center; align:center' src=img/fixation3.jpg></div><div class='cl'><div class='vertical-center'>$62<br>with a<br>50% chance</div></div><div class='cr'><div class='vertical-center'>$11<br>for<br>sure</div></div><div class='respDivL'><div class='vertical-center'>(E)</div></div><div class='respDivR'><div class='vertical-center'>(I)</div></div></div>","E","$11","$62","1","11","62","RISKY"
"html-keyboard-response","15","62066","0.0-5.0-3.3","5f934f7fdc89a111b5712011","bdp_rd","Sun Mar 26 2023 14:34:36 GMT-0400 (Eastern Daylight Time)","200464","","null","","","","offerFB","","<div class='trialBorder'><div class='vertical-center'><img style='vertical-align:center; align:center' src=img/fixation3.jpg></div><div class='cl'><div class='vertical-center'><font style='color:orange'>$62<br>with a<br>50% chance</font></div></div><div class='cr'><div class='vertical-center'>$11<br>for<br>sure</div></div><div class='respDivL'><div class='vertical-center'><font style='color:orange'>(E)</font></div></div><div class='respDivR'><div class='vertical-center'>(I)</div></div></div>","null","$11","$62","1","11","62",""
"html-keyboard-response","16","62572","0.0-5.0-1.4","5f934f7fdc89a111b5712011","bdp_rd","Sun Mar 26 2023 14:34:36 GMT-0400 (Eastern Daylight Time)","200464","","null","","","","FIX","","<div class='trialBorder'><div class='vertical-center'><img style='vertical-align:center; align:center' src=img/fixation3.jpg></div></div>","null","","","","","",""
"html-keyboard-response","17","63929","0.0-5.0-2.4","5f934f7fdc89a111b5712011","bdp_rd","Sun Mar 26 2023 14:34:36 GMT-0400 (Eastern Daylight Time)","200464","","1355","","","","offer","","<div class='trialBorder'><div class='vertical-center'><img style='vertical-align:center; align:center' src=img/fixation3.jpg></div><div class='cl'><div class='vertical-center'>$89<br>with a<br>50% chance</div></div><div class='cr'><div class='vertical-center'>$28<br>for<br>sure</div></div><div class='respDivL'><div class='vertical-center'>(E)</div></div><div class='respDivR'><div class='vertical-center'>(I)</div></div></div>","I","$28","$89","1","28","89","SURE"
"html-keyboard-response","18","64189","0.0-5.0-3.4","5f934f7fdc89a111b5712011","bdp_rd","Sun Mar 26 2023 14:34:36 GMT-0400 (Eastern Daylight Time)","200464","","null","","","","offerFB","","<div class='trialBorder'><div class='vertical-center'><img style='vertical-align:center; align:center' src=img/fixation3.jpg></div><div class='cl'><div class='vertical-center'>$89<br>with a<br>50% chance</div></div><div class='cr'><div class='vertical-center'><font style='color:orange'>$28<br>for<br>sure</font></div></div><div class='respDivL'><div class='vertical-center'>(E)</div></div><div class='respDivR'><div class='vertical-center'><font style='color:orange'>(I)</font></div></div></div>","null","$28","$89","1","28","89",""
"html-keyboard-response","19","64701","0.0-5.0-1.5","5f934f7fdc89a111b5712011","bdp_rd","Sun Mar 26 2023 14:34:36 GMT-0400 (Eastern Daylight Time)","200464","","null","","","","FIX","","<div class='trialBorder'><div class='vertical-center'><img style='vertical-align:center; align:center' src=img/fixation3.jpg></div></div>","null","","","","","",""
"html-keyboard-response","20","66543","0.0-5.0-2.5","5f934f7fdc89a111b5712011","bdp_rd","Sun Mar 26 2023 14:34:36 GMT-0400 (Eastern Daylight Time)","200464","","1841","","","","offer","","<div class='trialBorder'><div class='vertical-center'><img style='vertical-align:center; align:center' src=img/fixation3.jpg></div><div class='cl'><div class='vertical-center'>$12<br>with a<br>50% chance</div></div><div class='cr'><div class='vertical-center'>$3<br>for<br>sure</div></div><div class='respDivL'><div class='vertical-center'>(E)</div></div><div class='respDivR'><div class='vertical-center'>(I)</div></div></div>","E","$3","$12","1","3","12","RISKY"
"html-keyboard-response","21","66803","0.0-5.0-3.5","5f934f7fdc89a111b5712011","bdp_rd","Sun Mar 26 2023 14:34:36 GMT-0400 (Eastern Daylight Time)","200464","","null","","","","offerFB","","<div class='trialBorder'><div class='vertical-center'><img style='vertical-align:center; align:center' src=img/fixation3.jpg></div><div class='cl'><div class='vertical-center'><font style='color:orange'>$12<br>with a<br>50% chance</font></div></div><div class='cr'><div class='vertical-center'>$3<br>for<br>sure</div></div><div class='respDivL'><div class='vertical-center'><font style='color:orange'>(E)</font></div></div><div class='respDivR'><div class='vertical-center'>(I)</div></div></div>","null","$3","$12","1","3","12",""
"html-keyboard-response","22","67309","0.0-5.0-1.6","5f934f7fdc89a111b5712011","bdp_rd","Sun Mar 26 2023 14:34:36 GMT-0400 (Eastern Daylight Time)","200464","","null","","","","FIX","","<div class='trialBorder'><div class='vertical-center'><img style='vertical-align:center; align:center' src=img/fixation3.jpg></div></div>","null","","","","","",""
"html-keyboard-response","23","69812","0.0-5.0-2.6","5f934f7fdc89a111b5712011","bdp_rd","Sun Mar 26 2023 14:34:36 GMT-0400 (Eastern Daylight Time)","200464","","2501","","","","offer","","<div class='trialBorder'><div class='vertical-center'><img style='vertical-align:center; align:center' src=img/fixation3.jpg></div><div class='cl'><div class='vertical-center'>$66<br>with a<br>50% chance</div></div><div class='cr'><div class='vertical-center'>$33<br>for<br>sure</div></div><div class='respDivL'><div class='vertical-center'>(E)</div></div><div class='respDivR'><div class='vertical-center'>(I)</div></div></div>","E","$33","$66","1","33","66","RISKY"
"html-keyboard-response","24","70067","0.0-5.0-3.6","5f934f7fdc89a111b5712011","bdp_rd","Sun Mar 26 2023 14:34:36 GMT-0400 (Eastern Daylight Time)","200464","","null","","","","offerFB","","<div class='trialBorder'><div class='vertical-center'><img style='vertical-align:center; align:center' src=img/fixation3.jpg></div><div class='cl'><div class='vertical-center'><font style='color:orange'>$66<br>with a<br>50% chance</font></div></div><div class='cr'><div class='vertical-center'>$33<br>for<br>sure</div></div><div class='respDivL'><div class='vertical-center'><font style='color:orange'>(E)</font></div></div><div class='respDivR'><div class='vertical-center'>(I)</div></div></div>","null","$33","$66","1","33","66",""
"html-keyboard-response","25","70573","0.0-5.0-1.7","5f934f7fdc89a111b5712011","bdp_rd","Sun Mar 26 2023 14:34:36 GMT-0400 (Eastern Daylight Time)","200464","","null","","","","FIX","","<div class='trialBorder'><div class='vertical-center'><img style='vertical-align:center; align:center' src=img/fixation3.jpg></div></div>","null","","","","","",""
"html-keyboard-response","26","71873","0.0-5.0-2.7","5f934f7fdc89a111b5712011","bdp_rd","Sun Mar 26 2023 14:34:36 GMT-0400 (Eastern Daylight Time)","200464","","1298","","","","offer","","<div class='trialBorder'><div class='vertical-center'><img style='vertical-align:center; align:center' src=img/fixation3.jpg></div><div class='cl'><div class='vertical-center'>$29<br>for<br>sure</div></div><div class='cr'><div class='vertical-center'>$46<br>with a<br>50% chance</div></div><div class='respDivL'><div class='vertical-center'>(E)</div></div><div class='respDivR'><div class='vertical-center'>(I)</div></div></div>","E","$29","$46","0","29","46","SURE"
"html-keyboard-response","27","72131","0.0-5.0-3.7","5f934f7fdc89a111b5712011","bdp_rd","Sun Mar 26 2023 14:34:36 GMT-0400 (Eastern Daylight Time)","200464","","null","","","","offerFB","","<div class='trialBorder'><div class='vertical-center'><img style='vertical-align:center; align:center' src=img/fixation3.jpg></div><div class='cl'><div class='vertical-center'><font style='color:orange'>$29<br>for<br>sure</font></div></div><div class='cr'><div class='vertical-center'>$46<br>with a<br>50% chance</div></div><div class='respDivL'><div class='vertical-center'><font style='color:orange'>(E)</font></div></div><div class='respDivR'><div class='vertical-center'>(I)</div></div></div>","null","$29","$46","0","29","46",""
"html-keyboard-response","28","72637","0.0-5.0-1.8","5f934f7fdc89a111b5712011","bdp_rd","Sun Mar 26 2023 14:34:36 GMT-0400 (Eastern Daylight Time)","200464","","null","","","","FIX","","<div class='trialBorder'><div class='vertical-center'><img style='vertical-align:center; align:center' src=img/fixation3.jpg></div></div>","null","","","","","",""
"html-keyboard-response","29","73919","0.0-5.0-2.8","5f934f7fdc89a111b5712011","bdp_rd","Sun Mar 26 2023 14:34:36 GMT-0400 (Eastern Daylight Time)","200464","","1281","","","","offer","","<div class='trialBorder'><div class='vertical-center'><img style='vertical-align:center; align:center' src=img/fixation3.jpg></div><div class='cl'><div class='vertical-center'>$40<br>with a<br>50% chance</div></div><div class='cr'><div class='vertical-center'>$10<br>for<br>sure</div></div><div class='respDivL'><div class='vertical-center'>(E)</div></div><div class='respDivR'><div class='vertical-center'>(I)</div></div></div>","E","$10","$40","1","10","40","RISKY"
"html-keyboard-response","30","74179","0.0-5.0-3.8","5f934f7fdc89a111b5712011","bdp_rd","Sun Mar 26 2023 14:34:36 GMT-0400 (Eastern Daylight Time)","200464","","null","","","","offerFB","","<div class='trialBorder'><div class='vertical-center'><img style='vertical-align:center; align:center' src=img/fixation3.jpg></div><div class='cl'><div class='vertical-center'><font style='color:orange'>$40<br>with a<br>50% chance</font></div></div><div class='cr'><div class='vertical-center'>$10<br>for<br>sure</div></div><div class='respDivL'><div class='vertical-center'><font style='color:orange'>(E)</font></div></div><div class='respDivR'><div class='vertical-center'>(I)</div></div></div>","null","$10","$40","1","10","40",""
"html-keyboard-response","31","74685","0.0-5.0-1.9","5f934f7fdc89a111b5712011","bdp_rd","Sun Mar 26 2023 14:34:36 GMT-0400 (Eastern Daylight Time)","200464","","null","","","","FIX","","<div class='trialBorder'><div class='vertical-center'><img style='vertical-align:center; align:center' src=img/fixation3.jpg></div></div>","null","","","","","",""
"html-keyboard-response","32","77005","0.0-5.0-2.9","5f934f7fdc89a111b5712011","bdp_rd","Sun Mar 26 2023 14:34:36 GMT-0400 (Eastern Daylight Time)","200464","","2318","","","","offer","","<div class='trialBorder'><div class='vertical-center'><img style='vertical-align:center; align:center' src=img/fixation3.jpg></div><div class='cl'><div class='vertical-center'>$12<br>for<br>sure</div></div><div class='cr'><div class='vertical-center'>$27<br>with a<br>50% chance</div></div><div class='respDivL'><div class='vertical-center'>(E)</div></div><div class='respDivR'><div class='vertical-center'>(I)</div></div></div>","E","$12","$27","0","12","27","SURE"
"html-keyboard-response","33","77261","0.0-5.0-3.9","5f934f7fdc89a111b5712011","bdp_rd","Sun Mar 26 2023 14:34:36 GMT-0400 (Eastern Daylight Time)","200464","","null","","","","offerFB","","<div class='trialBorder'><div class='vertical-center'><img style='vertical-align:center; align:center' src=img/fixation3.jpg></div><div class='cl'><div class='vertical-center'><font style='color:orange'>$12<br>for<br>sure</font></div></div><div class='cr'><div class='vertical-center'>$27<br>with a<br>50% chance</div></div><div class='respDivL'><div class='vertical-center'><font style='color:orange'>(E)</font></div></div><div class='respDivR'><div class='vertical-center'>(I)</div></div></div>","null","$12","$27","0","12","27",""
"html-keyboard-response","34","77773","0.0-5.0-1.10","5f934f7fdc89a111b5712011","bdp_rd","Sun Mar 26 2023 14:34:36 GMT-0400 (Eastern Daylight Time)","200464","","null","","","","FIX","","<div class='trialBorder'><div class='vertical-center'><img style='vertical-align:center; align:center' src=img/fixation3.jpg></div></div>","null","","","","","",""
"html-keyboard-response","35","78959","0.0-5.0-2.10","5f934f7fdc89a111b5712011","bdp_rd","Sun Mar 26 2023 14:34:36 GMT-0400 (Eastern Daylight Time)","200464","","1183","","","","offer","","<div class='trialBorder'><div class='vertical-center'><img style='vertical-align:center; align:center' src=img/fixation3.jpg></div><div class='cl'><div class='vertical-center'>$16<br>with a<br>50% chance</div></div><div class='cr'><div class='vertical-center'>$5<br>for<br>sure</div></div><div class='respDivL'><div class='vertical-center'>(E)</div></div><div class='respDivR'><div class='vertical-center'>(I)</div></div></div>","E","$5","$16","1","5","16","RISKY"
"html-keyboard-response","36","79219","0.0-5.0-3.10","5f934f7fdc89a111b5712011","bdp_rd","Sun Mar 26 2023 14:34:36 GMT-0400 (Eastern Daylight Time)","200464","","null","","","","offerFB","","<div class='trialBorder'><div class='vertical-center'><img style='vertical-align:center; align:center' src=img/fixation3.jpg></div><div class='cl'><div class='vertical-center'><font style='color:orange'>$16<br>with a<br>50% chance</font></div></div><div class='cr'><div class='vertical-center'>$5<br>for<br>sure</div></div><div class='respDivL'><div class='vertical-center'><font style='color:orange'>(E)</font></div></div><div class='respDivR'><div class='vertical-center'>(I)</div></div></div>","null","$5","$16","1","5","16",""
"html-keyboard-response","37","79723","0.0-5.0-1.11","5f934f7fdc89a111b5712011","bdp_rd","Sun Mar 26 2023 14:34:36 GMT-0400 (Eastern Daylight Time)","200464","","null","","","","FIX","","<div class='trialBorder'><div class='vertical-center'><img style='vertical-align:center; align:center' src=img/fixation3.jpg></div></div>","null","","","","","",""
"html-keyboard-response","38","81129","0.0-5.0-2.11","5f934f7fdc89a111b5712011","bdp_rd","Sun Mar 26 2023 14:34:36 GMT-0400 (Eastern Daylight Time)","200464","","1404","","","","offer","","<div class='trialBorder'><div class='vertical-center'><img style='vertical-align:center; align:center' src=img/fixation3.jpg></div><div class='cl'><div class='vertical-center'>$42<br>for<br>sure</div></div><div class='cr'><div class='vertical-center'>$73<br>with a<br>50% chance</div></div><div class='respDivL'><div class='vertical-center'>(E)</div></div><div class='respDivR'><div class='vertical-center'>(I)</div></div></div>","E","$42","$73","0","42","73","SURE"
"html-keyboard-response","39","81389","0.0-5.0-3.11","5f934f7fdc89a111b5712011","bdp_rd","Sun Mar 26 2023 14:34:36 GMT-0400 (Eastern Daylight Time)","200464","","null","","","","offerFB","","<div class='trialBorder'><div class='vertical-center'><img style='vertical-align:center; align:center' src=img/fixation3.jpg></div><div class='cl'><div class='vertical-center'><font style='color:orange'>$42<br>for<br>sure</font></div></div><div class='cr'><div class='vertical-center'>$73<br>with a<br>50% chance</div></div><div class='respDivL'><div class='vertical-center'><font style='color:orange'>(E)</font></div></div><div class='respDivR'><div class='vertical-center'>(I)</div></div></div>","null","$42","$73","0","42","73",""
"html-keyboard-response","40","81901","0.0-5.0-1.12","5f934f7fdc89a111b5712011","bdp_rd","Sun Mar 26 2023 14:34:36 GMT-0400 (Eastern Daylight Time)","200464","","null","","","","FIX","","<div class='trialBorder'><div class='vertical-center'><img style='vertical-align:center; align:center' src=img/fixation3.jpg></div></div>","null","","","","","",""
"html-keyboard-response","41","84394","0.0-5.0-2.12","5f934f7fdc89a111b5712011","bdp_rd","Sun Mar 26 2023 14:34:36 GMT-0400 (Eastern Daylight Time)","200464","","2491","","","","offer","","<div class='trialBorder'><div class='vertical-center'><img style='vertical-align:center; align:center' src=img/fixation3.jpg></div><div class='cl'><div class='vertical-center'>$19<br>for<br>sure</div></div><div class='cr'><div class='vertical-center'>$51<br>with a<br>50% chance</div></div><div class='respDivL'><div class='vertical-center'>(E)</div></div><div class='respDivR'><div class='vertical-center'>(I)</div></div></div>","E","$19","$51","0","19","51","SURE"
"html-keyboard-response","42","84653","0.0-5.0-3.12","5f934f7fdc89a111b5712011","bdp_rd","Sun Mar 26 2023 14:34:36 GMT-0400 (Eastern Daylight Time)","200464","","null","","","","offerFB","","<div class='trialBorder'><div class='vertical-center'><img style='vertical-align:center; align:center' src=img/fixation3.jpg></div><div class='cl'><div class='vertical-center'><font style='color:orange'>$19<br>for<br>sure</font></div></div><div class='cr'><div class='vertical-center'>$51<br>with a<br>50% chance</div></div><div class='respDivL'><div class='vertical-center'><font style='color:orange'>(E)</font></div></div><div class='respDivR'><div class='vertical-center'>(I)</div></div></div>","null","$19","$51","0","19","51",""
"html-keyboard-response","43","85165","0.0-5.0-1.13","5f934f7fdc89a111b5712011","bdp_rd","Sun Mar 26 2023 14:34:36 GMT-0400 (Eastern Daylight Time)","200464","","null","","","","FIX","","<div class='trialBorder'><div class='vertical-center'><img style='vertical-align:center; align:center' src=img/fixation3.jpg></div></div>","null","","","","","",""
"html-keyboard-response","44","91484","0.0-5.0-2.13","5f934f7fdc89a111b5712011","bdp_rd","Sun Mar 26 2023 14:34:36 GMT-0400 (Eastern Daylight Time)","200464","","6317","","","","offer","","<div class='trialBorder'><div class='vertical-center'><img style='vertical-align:center; align:center' src=img/fixation3.jpg></div><div class='cl'><div class='vertical-center'>$17<br>with a<br>50% chance</div></div><div class='cr'><div class='vertical-center'>$3<br>for<br>sure</div></div><div class='respDivL'><div class='vertical-center'>(E)</div></div><div class='respDivR'><div class='vertical-center'>(I)</div></div></div>","E","$3","$17","1","3","17","RISKY"
"html-keyboard-response","45","91742","0.0-5.0-3.13","5f934f7fdc89a111b5712011","bdp_rd","Sun Mar 26 2023 14:34:36 GMT-0400 (Eastern Daylight Time)","200464","","null","","","","offerFB","","<div class='trialBorder'><div class='vertical-center'><img style='vertical-align:center; align:center' src=img/fixation3.jpg></div><div class='cl'><div class='vertical-center'><font style='color:orange'>$17<br>with a<br>50% chance</font></div></div><div class='cr'><div class='vertical-center'>$3<br>for<br>sure</div></div><div class='respDivL'><div class='vertical-center'><font style='color:orange'>(E)</font></div></div><div class='respDivR'><div class='vertical-center'>(I)</div></div></div>","null","$3","$17","1","3","17",""
"html-keyboard-response","46","92253","0.0-5.0-1.14","5f934f7fdc89a111b5712011","bdp_rd","Sun Mar 26 2023 14:34:36 GMT-0400 (Eastern Daylight Time)","200464","","null","","","","FIX","","<div class='trialBorder'><div class='vertical-center'><img style='vertical-align:center; align:center' src=img/fixation3.jpg></div></div>","null","","","","","",""
"html-keyboard-response","47","97204","0.0-5.0-2.14","5f934f7fdc89a111b5712011","bdp_rd","Sun Mar 26 2023 14:34:36 GMT-0400 (Eastern Daylight Time)","200464","","4950","","","","offer","","<div class='trialBorder'><div class='vertical-center'><img style='vertical-align:center; align:center' src=img/fixation3.jpg></div><div class='cl'><div class='vertical-center'>$59<br>with a<br>50% chance</div></div><div class='cr'><div class='vertical-center'>$22<br>for<br>sure</div></div><div class='respDivL'><div class='vertical-center'>(E)</div></div><div class='respDivR'><div class='vertical-center'>(I)</div></div></div>","I","$22","$59","1","22","59","SURE"
"html-keyboard-response","48","97459","0.0-5.0-3.14","5f934f7fdc89a111b5712011","bdp_rd","Sun Mar 26 2023 14:34:36 GMT-0400 (Eastern Daylight Time)","200464","","null","","","","offerFB","","<div class='trialBorder'><div class='vertical-center'><img style='vertical-align:center; align:center' src=img/fixation3.jpg></div><div class='cl'><div class='vertical-center'>$59<br>with a<br>50% chance</div></div><div class='cr'><div class='vertical-center'><font style='color:orange'>$22<br>for<br>sure</font></div></div><div class='respDivL'><div class='vertical-center'>(E)</div></div><div class='respDivR'><div class='vertical-center'><font style='color:orange'>(I)</font></div></div></div>","null","$22","$59","1","22","59",""
"html-keyboard-response","49","97966","0.0-5.0-1.15","5f934f7fdc89a111b5712011","bdp_rd","Sun Mar 26 2023 14:34:36 GMT-0400 (Eastern Daylight Time)","200464","","null","","","","FIX","","<div class='trialBorder'><div class='vertical-center'><img style='vertical-align:center; align:center' src=img/fixation3.jpg></div></div>","null","","","","","",""
"html-keyboard-response","50","103734","0.0-5.0-2.15","5f934f7fdc89a111b5712011","bdp_rd","Sun Mar 26 2023 14:34:36 GMT-0400 (Eastern Daylight Time)","200464","","5767","","","","offer","","<div class='trialBorder'><div class='vertical-center'><img style='vertical-align:center; align:center' src=img/fixation3.jpg></div><div class='cl'><div class='vertical-center'>$7<br>for<br>sure</div></div><div class='cr'><div class='vertical-center'>$71<br>with a<br>50% chance</div></div><div class='respDivL'><div class='vertical-center'>(E)</div></div><div class='respDivR'><div class='vertical-center'>(I)</div></div></div>","I","$7","$71","0","7","71","RISKY"
"html-keyboard-response","51","103987","0.0-5.0-3.15","5f934f7fdc89a111b5712011","bdp_rd","Sun Mar 26 2023 14:34:36 GMT-0400 (Eastern Daylight Time)","200464","","null","","","","offerFB","","<div class='trialBorder'><div class='vertical-center'><img style='vertical-align:center; align:center' src=img/fixation3.jpg></div><div class='cl'><div class='vertical-center'>$7<br>for<br>sure</div></div><div class='cr'><div class='vertical-center'><font style='color:orange'>$71<br>with a<br>50% chance</font></div></div><div class='respDivL'><div class='vertical-center'>(E)</div></div><div class='respDivR'><div class='vertical-center'><font style='color:orange'>(I)</font></div></div></div>","null","$7","$71","0","7","71",""
"html-keyboard-response","52","104494","0.0-5.0-1.16","5f934f7fdc89a111b5712011","bdp_rd","Sun Mar 26 2023 14:34:36 GMT-0400 (Eastern Daylight Time)","200464","","null","","","","FIX","","<div class='trialBorder'><div class='vertical-center'><img style='vertical-align:center; align:center' src=img/fixation3.jpg></div></div>","null","","","","","",""
"html-keyboard-response","53","105819","0.0-5.0-2.16","5f934f7fdc89a111b5712011","bdp_rd","Sun Mar 26 2023 14:34:36 GMT-0400 (Eastern Daylight Time)","200464","","1324","","","","offer","","<div class='trialBorder'><div class='vertical-center'><img style='vertical-align:center; align:center' src=img/fixation3.jpg></div><div class='cl'><div class='vertical-center'>$78<br>with a<br>50% chance</div></div><div class='cr'><div class='vertical-center'>$31<br>for<br>sure</div></div><div class='respDivL'><div class='vertical-center'>(E)</div></div><div class='respDivR'><div class='vertical-center'>(I)</div></div></div>","E","$31","$78","1","31","78","RISKY"
"html-keyboard-response","54","106078","0.0-5.0-3.16","5f934f7fdc89a111b5712011","bdp_rd","Sun Mar 26 2023 14:34:36 GMT-0400 (Eastern Daylight Time)","200464","","null","","","","offerFB","","<div class='trialBorder'><div class='vertical-center'><img style='vertical-align:center; align:center' src=img/fixation3.jpg></div><div class='cl'><div class='vertical-center'><font style='color:orange'>$78<br>with a<br>50% chance</font></div></div><div class='cr'><div class='vertical-center'>$31<br>for<br>sure</div></div><div class='respDivL'><div class='vertical-center'><font style='color:orange'>(E)</font></div></div><div class='respDivR'><div class='vertical-center'>(I)</div></div></div>","null","$31","$78","1","31","78",""
"html-keyboard-response","55","106590","0.0-5.0-1.17","5f934f7fdc89a111b5712011","bdp_rd","Sun Mar 26 2023 14:34:36 GMT-0400 (Eastern Daylight Time)","200464","","null","","","","FIX","","<div class='trialBorder'><div class='vertical-center'><img style='vertical-align:center; align:center' src=img/fixation3.jpg></div></div>","null","","","","","",""
"html-keyboard-response","56","107759","0.0-5.0-2.17","5f934f7fdc89a111b5712011","bdp_rd","Sun Mar 26 2023 14:34:36 GMT-0400 (Eastern Daylight Time)","200464","","1168","","","","offer","","<div class='trialBorder'><div class='vertical-center'><img style='vertical-align:center; align:center' src=img/fixation3.jpg></div><div class='cl'><div class='vertical-center'>$86<br>with a<br>50% chance</div></div><div class='cr'><div class='vertical-center'>$45<br>for<br>sure</div></div><div class='respDivL'><div class='vertical-center'>(E)</div></div><div class='respDivR'><div class='vertical-center'>(I)</div></div></div>","I","$45","$86","1","45","86","SURE"
"html-keyboard-response","57","108014","0.0-5.0-3.17","5f934f7fdc89a111b5712011","bdp_rd","Sun Mar 26 2023 14:34:36 GMT-0400 (Eastern Daylight Time)","200464","","null","","","","offerFB","","<div class='trialBorder'><div class='vertical-center'><img style='vertical-align:center; align:center' src=img/fixation3.jpg></div><div class='cl'><div class='vertical-center'>$86<br>with a<br>50% chance</div></div><div class='cr'><div class='vertical-center'><font style='color:orange'>$45<br>for<br>sure</font></div></div><div class='respDivL'><div class='vertical-center'>(E)</div></div><div class='respDivR'><div class='vertical-center'><font style='color:orange'>(I)</font></div></div></div>","null","$45","$86","1","45","86",""
"html-keyboard-response","58","108526","0.0-5.0-1.18","5f934f7fdc89a111b5712011","bdp_rd","Sun Mar 26 2023 14:34:36 GMT-0400 (Eastern Daylight Time)","200464","","null","","","","FIX","","<div class='trialBorder'><div class='vertical-center'><img style='vertical-align:center; align:center' src=img/fixation3.jpg></div></div>","null","","","","","",""
"html-keyboard-response","59","109544","0.0-5.0-2.18","5f934f7fdc89a111b5712011","bdp_rd","Sun Mar 26 2023 14:34:36 GMT-0400 (Eastern Daylight Time)","200464","","1017","","","","offer","","<div class='trialBorder'><div class='vertical-center'><img style='vertical-align:center; align:center' src=img/fixation3.jpg></div><div class='cl'><div class='vertical-center'>$10<br>with a<br>50% chance</div></div><div class='cr'><div class='vertical-center'>$7<br>for<br>sure</div></div><div class='respDivL'><div class='vertical-center'>(E)</div></div><div class='respDivR'><div class='vertical-center'>(I)</div></div></div>","E","$7","$10","1","7","10","RISKY"
"html-keyboard-response","60","109806","0.0-5.0-3.18","5f934f7fdc89a111b5712011","bdp_rd","Sun Mar 26 2023 14:34:36 GMT-0400 (Eastern Daylight Time)","200464","","null","","","","offerFB","","<div class='trialBorder'><div class='vertical-center'><img style='vertical-align:center; align:center' src=img/fixation3.jpg></div><div class='cl'><div class='vertical-center'><font style='color:orange'>$10<br>with a<br>50% chance</font></div></div><div class='cr'><div class='vertical-center'>$7<br>for<br>sure</div></div><div class='respDivL'><div class='vertical-center'><font style='color:orange'>(E)</font></div></div><div class='respDivR'><div class='vertical-center'>(I)</div></div></div>","null","$7","$10","1","7","10",""
"html-keyboard-response","61","110318","0.0-5.0-1.19","5f934f7fdc89a111b5712011","bdp_rd","Sun Mar 26 2023 14:34:36 GMT-0400 (Eastern Daylight Time)","200464","","null","","","","FIX","","<div class='trialBorder'><div class='vertical-center'><img style='vertical-align:center; align:center' src=img/fixation3.jpg></div></div>","null","","","","","",""
"html-keyboard-response","62","111876","0.0-5.0-2.19","5f934f7fdc89a111b5712011","bdp_rd","Sun Mar 26 2023 14:34:36 GMT-0400 (Eastern Daylight Time)","200464","","1557","","","","offer","","<div class='trialBorder'><div class='vertical-center'><img style='vertical-align:center; align:center' src=img/fixation3.jpg></div><div class='cl'><div class='vertical-center'>$95<br>with a<br>50% chance</div></div><div class='cr'><div class='vertical-center'>$40<br>for<br>sure</div></div><div class='respDivL'><div class='vertical-center'>(E)</div></div><div class='respDivR'><div class='vertical-center'>(I)</div></div></div>","I","$40","$95","1","40","95","SURE"
"html-keyboard-response","63","112131","0.0-5.0-3.19","5f934f7fdc89a111b5712011","bdp_rd","Sun Mar 26 2023 14:34:36 GMT-0400 (Eastern Daylight Time)","200464","","null","","","","offerFB","","<div class='trialBorder'><div class='vertical-center'><img style='vertical-align:center; align:center' src=img/fixation3.jpg></div><div class='cl'><div class='vertical-center'>$95<br>with a<br>50% chance</div></div><div class='cr'><div class='vertical-center'><font style='color:orange'>$40<br>for<br>sure</font></div></div><div class='respDivL'><div class='vertical-center'>(E)</div></div><div class='respDivR'><div class='vertical-center'><font style='color:orange'>(I)</font></div></div></div>","null","$40","$95","1","40","95",""
"html-keyboard-response","64","112637","0.0-5.0-1.20","5f934f7fdc89a111b5712011","bdp_rd","Sun Mar 26 2023 14:34:36 GMT-0400 (Eastern Daylight Time)","200464","","null","","","","FIX","","<div class='trialBorder'><div class='vertical-center'><img style='vertical-align:center; align:center' src=img/fixation3.jpg></div></div>","null","","","","","",""
"html-keyboard-response","65","113870","0.0-5.0-2.20","5f934f7fdc89a111b5712011","bdp_rd","Sun Mar 26 2023 14:34:36 GMT-0400 (Eastern Daylight Time)","200464","","1230","","","","offer","","<div class='trialBorder'><div class='vertical-center'><img style='vertical-align:center; align:center' src=img/fixation3.jpg></div><div class='cl'><div class='vertical-center'>$9<br>for<br>sure</div></div><div class='cr'><div class='vertical-center'>$32<br>with a<br>50% chance</div></div><div class='respDivL'><div class='vertical-center'>(E)</div></div><div class='respDivR'><div class='vertical-center'>(I)</div></div></div>","I","$9","$32","0","9","32","RISKY"
"html-keyboard-response","66","114126","0.0-5.0-3.20","5f934f7fdc89a111b5712011","bdp_rd","Sun Mar 26 2023 14:34:36 GMT-0400 (Eastern Daylight Time)","200464","","null","","","","offerFB","","<div class='trialBorder'><div class='vertical-center'><img style='vertical-align:center; align:center' src=img/fixation3.jpg></div><div class='cl'><div class='vertical-center'>$9<br>for<br>sure</div></div><div class='cr'><div class='vertical-center'><font style='color:orange'>$32<br>with a<br>50% chance</font></div></div><div class='respDivL'><div class='vertical-center'>(E)</div></div><div class='respDivR'><div class='vertical-center'><font style='color:orange'>(I)</font></div></div></div>","null","$9","$32","0","9","32",""
"html-keyboard-response","67","114638","0.0-5.0-1.21","5f934f7fdc89a111b5712011","bdp_rd","Sun Mar 26 2023 14:34:36 GMT-0400 (Eastern Daylight Time)","200464","","null","","","","FIX","","<div class='trialBorder'><div class='vertical-center'><img style='vertical-align:center; align:center' src=img/fixation3.jpg></div></div>","null","","","","","",""
"html-keyboard-response","68","116534","0.0-5.0-2.21","5f934f7fdc89a111b5712011","bdp_rd","Sun Mar 26 2023 14:34:36 GMT-0400 (Eastern Daylight Time)","200464","","1895","","","","offer","","<div class='trialBorder'><div class='vertical-center'><img style='vertical-align:center; align:center' src=img/fixation3.jpg></div><div class='cl'><div class='vertical-center'>$26<br>for<br>sure</div></div><div class='cr'><div class='vertical-center'>$92<br>with a<br>50% chance</div></div><div class='respDivL'><div class='vertical-center'>(E)</div></div><div class='respDivR'><div class='vertical-center'>(I)</div></div></div>","E","$26","$92","0","26","92","SURE"
"html-keyboard-response","69","116787","0.0-5.0-3.21","5f934f7fdc89a111b5712011","bdp_rd","Sun Mar 26 2023 14:34:36 GMT-0400 (Eastern Daylight Time)","200464","","null","","","","offerFB","","<div class='trialBorder'><div class='vertical-center'><img style='vertical-align:center; align:center' src=img/fixation3.jpg></div><div class='cl'><div class='vertical-center'><font style='color:orange'>$26<br>for<br>sure</font></div></div><div class='cr'><div class='vertical-center'>$92<br>with a<br>50% chance</div></div><div class='respDivL'><div class='vertical-center'><font style='color:orange'>(E)</font></div></div><div class='respDivR'><div class='vertical-center'>(I)</div></div></div>","null","$26","$92","0","26","92",""
"html-keyboard-response","70","117294","0.0-5.0-1.22","5f934f7fdc89a111b5712011","bdp_rd","Sun Mar 26 2023 14:34:36 GMT-0400 (Eastern Daylight Time)","200464","","null","","","","FIX","","<div class='trialBorder'><div class='vertical-center'><img style='vertical-align:center; align:center' src=img/fixation3.jpg></div></div>","null","","","","","",""
"html-keyboard-response","71","119300","0.0-5.0-2.22","5f934f7fdc89a111b5712011","bdp_rd","Sun Mar 26 2023 14:34:36 GMT-0400 (Eastern Daylight Time)","200464","","2004","","","","offer","","<div class='trialBorder'><div class='vertical-center'><img style='vertical-align:center; align:center' src=img/fixation3.jpg></div><div class='cl'><div class='vertical-center'>$20<br>for<br>sure</div></div><div class='cr'><div class='vertical-center'>$80<br>with a<br>50% chance</div></div><div class='respDivL'><div class='vertical-center'>(E)</div></div><div class='respDivR'><div class='vertical-center'>(I)</div></div></div>","I","$20","$80","0","20","80","RISKY"
"html-keyboard-response","72","119556","0.0-5.0-3.22","5f934f7fdc89a111b5712011","bdp_rd","Sun Mar 26 2023 14:34:36 GMT-0400 (Eastern Daylight Time)","200464","","null","","","","offerFB","","<div class='trialBorder'><div class='vertical-center'><img style='vertical-align:center; align:center' src=img/fixation3.jpg></div><div class='cl'><div class='vertical-center'>$20<br>for<br>sure</div></div><div class='cr'><div class='vertical-center'><font style='color:orange'>$80<br>with a<br>50% chance</font></div></div><div class='respDivL'><div class='vertical-center'>(E)</div></div><div class='respDivR'><div class='vertical-center'><font style='color:orange'>(I)</font></div></div></div>","null","$20","$80","0","20","80",""
"html-keyboard-response","73","120062","0.0-5.0-1.23","5f934f7fdc89a111b5712011","bdp_rd","Sun Mar 26 2023 14:34:36 GMT-0400 (Eastern Daylight Time)","200464","","null","","","","FIX","","<div class='trialBorder'><div class='vertical-center'><img style='vertical-align:center; align:center' src=img/fixation3.jpg></div></div>","null","","","","","",""
"html-keyboard-response","74","120951","0.0-5.0-2.23","5f934f7fdc89a111b5712011","bdp_rd","Sun Mar 26 2023 14:34:36 GMT-0400 (Eastern Daylight Time)","200464","","888","","","","offer","","<div class='trialBorder'><div class='vertical-center'><img style='vertical-align:center; align:center' src=img/fixation3.jpg></div><div class='cl'><div class='vertical-center'>$53<br>for<br>sure</div></div><div class='cr'><div class='vertical-center'>$98<br>with a<br>50% chance</div></div><div class='respDivL'><div class='vertical-center'>(E)</div></div><div class='respDivR'><div class='vertical-center'>(I)</div></div></div>","E","$53","$98","0","53","98","SURE"
"html-keyboard-response","75","121203","0.0-5.0-3.23","5f934f7fdc89a111b5712011","bdp_rd","Sun Mar 26 2023 14:34:36 GMT-0400 (Eastern Daylight Time)","200464","","null","","","","offerFB","","<div class='trialBorder'><div class='vertical-center'><img style='vertical-align:center; align:center' src=img/fixation3.jpg></div><div class='cl'><div class='vertical-center'><font style='color:orange'>$53<br>for<br>sure</font></div></div><div class='cr'><div class='vertical-center'>$98<br>with a<br>50% chance</div></div><div class='respDivL'><div class='vertical-center'><font style='color:orange'>(E)</font></div></div><div class='respDivR'><div class='vertical-center'>(I)</div></div></div>","null","$53","$98","0","53","98",""
"html-keyboard-response","76","121710","0.0-5.0-1.24","5f934f7fdc89a111b5712011","bdp_rd","Sun Mar 26 2023 14:34:36 GMT-0400 (Eastern Daylight Time)","200464","","null","","","","FIX","","<div class='trialBorder'><div class='vertical-center'><img style='vertical-align:center; align:center' src=img/fixation3.jpg></div></div>","null","","","","","",""
"html-keyboard-response","77","123125","0.0-5.0-2.24","5f934f7fdc89a111b5712011","bdp_rd","Sun Mar 26 2023 14:34:36 GMT-0400 (Eastern Daylight Time)","200464","","1414","","","","offer","","<div class='trialBorder'><div class='vertical-center'><img style='vertical-align:center; align:center' src=img/fixation3.jpg></div><div class='cl'><div class='vertical-center'>$42<br>with a<br>50% chance</div></div><div class='cr'><div class='vertical-center'>$22<br>for<br>sure</div></div><div class='respDivL'><div class='vertical-center'>(E)</div></div><div class='respDivR'><div class='vertical-center'>(I)</div></div></div>","E","$22","$42","1","22","42","RISKY"
"html-keyboard-response","78","123380","0.0-5.0-3.24","5f934f7fdc89a111b5712011","bdp_rd","Sun Mar 26 2023 14:34:36 GMT-0400 (Eastern Daylight Time)","200464","","null","","","","offerFB","","<div class='trialBorder'><div class='vertical-center'><img style='vertical-align:center; align:center' src=img/fixation3.jpg></div><div class='cl'><div class='vertical-center'><font style='color:orange'>$42<br>with a<br>50% chance</font></div></div><div class='cr'><div class='vertical-center'>$22<br>for<br>sure</div></div><div class='respDivL'><div class='vertical-center'><font style='color:orange'>(E)</font></div></div><div class='respDivR'><div class='vertical-center'>(I)</div></div></div>","null","$22","$42","1","22","42",""
"html-keyboard-response","79","123886","0.0-5.0-1.25","5f934f7fdc89a111b5712011","bdp_rd","Sun Mar 26 2023 14:34:36 GMT-0400 (Eastern Daylight Time)","200464","","null","","","","FIX","","<div class='trialBorder'><div class='vertical-center'><img style='vertical-align:center; align:center' src=img/fixation3.jpg></div></div>","null","","","","","",""
"html-keyboard-response","80","125132","0.0-5.0-2.25","5f934f7fdc89a111b5712011","bdp_rd","Sun Mar 26 2023 14:34:36 GMT-0400 (Eastern Daylight Time)","200464","","1245","","","","offer","","<div class='trialBorder'><div class='vertical-center'><img style='vertical-align:center; align:center' src=img/fixation3.jpg></div><div class='cl'><div class='vertical-center'>$34<br>for<br>sure</div></div><div class='cr'><div class='vertical-center'>$48<br>with a<br>50% chance</div></div><div class='respDivL'><div class='vertical-center'>(E)</div></div><div class='respDivR'><div class='vertical-center'>(I)</div></div></div>","I","$34","$48","0","34","48","RISKY"
"html-keyboard-response","81","125390","0.0-5.0-3.25","5f934f7fdc89a111b5712011","bdp_rd","Sun Mar 26 2023 14:34:36 GMT-0400 (Eastern Daylight Time)","200464","","null","","","","offerFB","","<div class='trialBorder'><div class='vertical-center'><img style='vertical-align:center; align:center' src=img/fixation3.jpg></div><div class='cl'><div class='vertical-center'>$34<br>for<br>sure</div></div><div class='cr'><div class='vertical-center'><font style='color:orange'>$48<br>with a<br>50% chance</font></div></div><div class='respDivL'><div class='vertical-center'>(E)</div></div><div class='respDivR'><div class='vertical-center'><font style='color:orange'>(I)</font></div></div></div>","null","$34","$48","0","34","48",""
"html-keyboard-response","82","125902","0.0-5.0-1.26","5f934f7fdc89a111b5712011","bdp_rd","Sun Mar 26 2023 14:34:36 GMT-0400 (Eastern Daylight Time)","200464","","null","","","","FIX","","<div class='trialBorder'><div class='vertical-center'><img style='vertical-align:center; align:center' src=img/fixation3.jpg></div></div>","null","","","","","",""
"html-keyboard-response","83","127773","0.0-5.0-2.26","5f934f7fdc89a111b5712011","bdp_rd","Sun Mar 26 2023 14:34:36 GMT-0400 (Eastern Daylight Time)","200464","","1870","","","","offer","","<div class='trialBorder'><div class='vertical-center'><img style='vertical-align:center; align:center' src=img/fixation3.jpg></div><div class='cl'><div class='vertical-center'>$13<br>for<br>sure</div></div><div class='cr'><div class='vertical-center'>$24<br>with a<br>50% chance</div></div><div class='respDivL'><div class='vertical-center'>(E)</div></div><div class='respDivR'><div class='vertical-center'>(I)</div></div></div>","I","$13","$24","0","13","24","RISKY"
"html-keyboard-response","84","128030","0.0-5.0-3.26","5f934f7fdc89a111b5712011","bdp_rd","Sun Mar 26 2023 14:34:36 GMT-0400 (Eastern Daylight Time)","200464","","null","","","","offerFB","","<div class='trialBorder'><div class='vertical-center'><img style='vertical-align:center; align:center' src=img/fixation3.jpg></div><div class='cl'><div class='vertical-center'>$13<br>for<br>sure</div></div><div class='cr'><div class='vertical-center'><font style='color:orange'>$24<br>with a<br>50% chance</font></div></div><div class='respDivL'><div class='vertical-center'>(E)</div></div><div class='respDivR'><div class='vertical-center'><font style='color:orange'>(I)</font></div></div></div>","null","$13","$24","0","13","24",""
"html-keyboard-response","85","128542","0.0-5.0-1.27","5f934f7fdc89a111b5712011","bdp_rd","Sun Mar 26 2023 14:34:36 GMT-0400 (Eastern Daylight Time)","200464","","null","","","","FIX","","<div class='trialBorder'><div class='vertical-center'><img style='vertical-align:center; align:center' src=img/fixation3.jpg></div></div>","null","","","","","",""
"html-keyboard-response","86","129619","0.0-5.0-2.27","5f934f7fdc89a111b5712011","bdp_rd","Sun Mar 26 2023 14:34:36 GMT-0400 (Eastern Daylight Time)","200464","","1074","","","","offer","","<div class='trialBorder'><div class='vertical-center'><img style='vertical-align:center; align:center' src=img/fixation3.jpg></div><div class='cl'><div class='vertical-center'>$47<br>with a<br>50% chance</div></div><div class='cr'><div class='vertical-center'>$27<br>for<br>sure</div></div><div class='respDivL'><div class='vertical-center'>(E)</div></div><div class='respDivR'><div class='vertical-center'>(I)</div></div></div>","E","$27","$47","1","27","47","RISKY"
"html-keyboard-response","87","129876","0.0-5.0-3.27","5f934f7fdc89a111b5712011","bdp_rd","Sun Mar 26 2023 14:34:36 GMT-0400 (Eastern Daylight Time)","200464","","null","","","","offerFB","","<div class='trialBorder'><div class='vertical-center'><img style='vertical-align:center; align:center' src=img/fixation3.jpg></div><div class='cl'><div class='vertical-center'><font style='color:orange'>$47<br>with a<br>50% chance</font></div></div><div class='cr'><div class='vertical-center'>$27<br>for<br>sure</div></div><div class='respDivL'><div class='vertical-center'><font style='color:orange'>(E)</font></div></div><div class='respDivR'><div class='vertical-center'>(I)</div></div></div>","null","$27","$47","1","27","47",""
"html-keyboard-response","88","130382","0.0-5.0-1.28","5f934f7fdc89a111b5712011","bdp_rd","Sun Mar 26 2023 14:34:36 GMT-0400 (Eastern Daylight Time)","200464","","null","","","","FIX","","<div class='trialBorder'><div class='vertical-center'><img style='vertical-align:center; align:center' src=img/fixation3.jpg></div></div>","null","","","","","",""
"html-keyboard-response","89","131186","0.0-5.0-2.28","5f934f7fdc89a111b5712011","bdp_rd","Sun Mar 26 2023 14:34:36 GMT-0400 (Eastern Daylight Time)","200464","","801","","","","offer","","<div class='trialBorder'><div class='vertical-center'><img style='vertical-align:center; align:center' src=img/fixation3.jpg></div><div class='cl'><div class='vertical-center'>$6<br>for<br>sure</div></div><div class='cr'><div class='vertical-center'>$15<br>with a<br>50% chance</div></div><div class='respDivL'><div class='vertical-center'>(E)</div></div><div class='respDivR'><div class='vertical-center'>(I)</div></div></div>","I","$6","$15","0","6","15","RISKY"
"html-keyboard-response","90","131444","0.0-5.0-3.28","5f934f7fdc89a111b5712011","bdp_rd","Sun Mar 26 2023 14:34:36 GMT-0400 (Eastern Daylight Time)","200464","","null","","","","offerFB","","<div class='trialBorder'><div class='vertical-center'><img style='vertical-align:center; align:center' src=img/fixation3.jpg></div><div class='cl'><div class='vertical-center'>$6<br>for<br>sure</div></div><div class='cr'><div class='vertical-center'><font style='color:orange'>$15<br>with a<br>50% chance</font></div></div><div class='respDivL'><div class='vertical-center'>(E)</div></div><div class='respDivR'><div class='vertical-center'><font style='color:orange'>(I)</font></div></div></div>","null","$6","$15","0","6","15",""
"html-keyboard-response","91","131950","0.0-5.0-1.29","5f934f7fdc89a111b5712011","bdp_rd","Sun Mar 26 2023 14:34:36 GMT-0400 (Eastern Daylight Time)","200464","","null","","","","FIX","","<div class='trialBorder'><div class='vertical-center'><img style='vertical-align:center; align:center' src=img/fixation3.jpg></div></div>","null","","","","","",""
"html-keyboard-response","92","133310","0.0-5.0-2.29","5f934f7fdc89a111b5712011","bdp_rd","Sun Mar 26 2023 14:34:36 GMT-0400 (Eastern Daylight Time)","200464","","1359","","","","offer","","<div class='trialBorder'><div class='vertical-center'><img style='vertical-align:center; align:center' src=img/fixation3.jpg></div><div class='cl'><div class='vertical-center'>$43<br>with a<br>50% chance</div></div><div class='cr'><div class='vertical-center'>$17<br>for<br>sure</div></div><div class='respDivL'><div class='vertical-center'>(E)</div></div><div class='respDivR'><div class='vertical-center'>(I)</div></div></div>","E","$17","$43","1","17","43","RISKY"
"html-keyboard-response","93","133566","0.0-5.0-3.29","5f934f7fdc89a111b5712011","bdp_rd","Sun Mar 26 2023 14:34:36 GMT-0400 (Eastern Daylight Time)","200464","","null","","","","offerFB","","<div class='trialBorder'><div class='vertical-center'><img style='vertical-align:center; align:center' src=img/fixation3.jpg></div><div class='cl'><div class='vertical-center'><font style='color:orange'>$43<br>with a<br>50% chance</font></div></div><div class='cr'><div class='vertical-center'>$17<br>for<br>sure</div></div><div class='respDivL'><div class='vertical-center'><font style='color:orange'>(E)</font></div></div><div class='respDivR'><div class='vertical-center'>(I)</div></div></div>","null","$17","$43","1","17","43",""
"html-keyboard-response","94","134078","0.0-5.0-1.30","5f934f7fdc89a111b5712011","bdp_rd","Sun Mar 26 2023 14:34:36 GMT-0400 (Eastern Daylight Time)","200464","","null","","","","FIX","","<div class='trialBorder'><div class='vertical-center'><img style='vertical-align:center; align:center' src=img/fixation3.jpg></div></div>","null","","","","","",""
"html-keyboard-response","95","135834","0.0-5.0-2.30","5f934f7fdc89a111b5712011","bdp_rd","Sun Mar 26 2023 14:34:36 GMT-0400 (Eastern Daylight Time)","200464","","1754","","","","offer","","<div class='trialBorder'><div class='vertical-center'><img style='vertical-align:center; align:center' src=img/fixation3.jpg></div><div class='cl'><div class='vertical-center'>$81<br>with a<br>50% chance</div></div><div class='cr'><div class='vertical-center'>$39<br>for<br>sure</div></div><div class='respDivL'><div class='vertical-center'>(E)</div></div><div class='respDivR'><div class='vertical-center'>(I)</div></div></div>","I","$39","$81","1","39","81","SURE"
"html-keyboard-response","96","136094","0.0-5.0-3.30","5f934f7fdc89a111b5712011","bdp_rd","Sun Mar 26 2023 14:34:36 GMT-0400 (Eastern Daylight Time)","200464","","null","","","","offerFB","","<div class='trialBorder'><div class='vertical-center'><img style='vertical-align:center; align:center' src=img/fixation3.jpg></div><div class='cl'><div class='vertical-center'>$81<br>with a<br>50% chance</div></div><div class='cr'><div class='vertical-center'><font style='color:orange'>$39<br>for<br>sure</font></div></div><div class='respDivL'><div class='vertical-center'>(E)</div></div><div class='respDivR'><div class='vertical-center'><font style='color:orange'>(I)</font></div></div></div>","null","$39","$81","1","39","81",""
"html-keyboard-response","97","136606","0.0-5.0-1.31","5f934f7fdc89a111b5712011","bdp_rd","Sun Mar 26 2023 14:34:36 GMT-0400 (Eastern Daylight Time)","200464","","null","","","","FIX","","<div class='trialBorder'><div class='vertical-center'><img style='vertical-align:center; align:center' src=img/fixation3.jpg></div></div>","null","","","","","",""
"html-keyboard-response","98","137550","0.0-5.0-2.31","5f934f7fdc89a111b5712011","bdp_rd","Sun Mar 26 2023 14:34:36 GMT-0400 (Eastern Daylight Time)","200464","","942","","","","offer","","<div class='trialBorder'><div class='vertical-center'><img style='vertical-align:center; align:center' src=img/fixation3.jpg></div><div class='cl'><div class='vertical-center'>$4<br>for<br>sure</div></div><div class='cr'><div class='vertical-center'>$14<br>with a<br>50% chance</div></div><div class='respDivL'><div class='vertical-center'>(E)</div></div><div class='respDivR'><div class='vertical-center'>(I)</div></div></div>","E","$4","$14","0","4","14","SURE"
"html-keyboard-response","99","137806","0.0-5.0-3.31","5f934f7fdc89a111b5712011","bdp_rd","Sun Mar 26 2023 14:34:36 GMT-0400 (Eastern Daylight Time)","200464","","null","","","","offerFB","","<div class='trialBorder'><div class='vertical-center'><img style='vertical-align:center; align:center' src=img/fixation3.jpg></div><div class='cl'><div class='vertical-center'><font style='color:orange'>$4<br>for<br>sure</font></div></div><div class='cr'><div class='vertical-center'>$14<br>with a<br>50% chance</div></div><div class='respDivL'><div class='vertical-center'><font style='color:orange'>(E)</font></div></div><div class='respDivR'><div class='vertical-center'>(I)</div></div></div>","null","$4","$14","0","4","14",""
"html-keyboard-response","100","138318","0.0-5.0-1.32","5f934f7fdc89a111b5712011","bdp_rd","Sun Mar 26 2023 14:34:36 GMT-0400 (Eastern Daylight Time)","200464","","null","","","","FIX","","<div class='trialBorder'><div class='vertical-center'><img style='vertical-align:center; align:center' src=img/fixation3.jpg></div></div>","null","","","","","",""
"html-keyboard-response","101","139414","0.0-5.0-2.32","5f934f7fdc89a111b5712011","bdp_rd","Sun Mar 26 2023 14:34:36 GMT-0400 (Eastern Daylight Time)","200464","","1094","","","","offer","","<div class='trialBorder'><div class='vertical-center'><img style='vertical-align:center; align:center' src=img/fixation3.jpg></div><div class='cl'><div class='vertical-center'>$46<br>for<br>sure</div></div><div class='cr'><div class='vertical-center'>$65<br>with a<br>50% chance</div></div><div class='respDivL'><div class='vertical-center'>(E)</div></div><div class='respDivR'><div class='vertical-center'>(I)</div></div></div>","I","$46","$65","0","46","65","RISKY"
"html-keyboard-response","102","139668","0.0-5.0-3.32","5f934f7fdc89a111b5712011","bdp_rd","Sun Mar 26 2023 14:34:36 GMT-0400 (Eastern Daylight Time)","200464","","null","","","","offerFB","","<div class='trialBorder'><div class='vertical-center'><img style='vertical-align:center; align:center' src=img/fixation3.jpg></div><div class='cl'><div class='vertical-center'>$46<br>for<br>sure</div></div><div class='cr'><div class='vertical-center'><font style='color:orange'>$65<br>with a<br>50% chance</font></div></div><div class='respDivL'><div class='vertical-center'>(E)</div></div><div class='respDivR'><div class='vertical-center'><font style='color:orange'>(I)</font></div></div></div>","null","$46","$65","0","46","65",""
"html-keyboard-response","103","140174","0.0-5.0-1.33","5f934f7fdc89a111b5712011","bdp_rd","Sun Mar 26 2023 14:34:36 GMT-0400 (Eastern Daylight Time)","200464","","null","","","","FIX","","<div class='trialBorder'><div class='vertical-center'><img style='vertical-align:center; align:center' src=img/fixation3.jpg></div></div>","null","","","","","",""
"html-keyboard-response","104","141258","0.0-5.0-2.33","5f934f7fdc89a111b5712011","bdp_rd","Sun Mar 26 2023 14:34:36 GMT-0400 (Eastern Daylight Time)","200464","","1082","","","","offer","","<div class='trialBorder'><div class='vertical-center'><img style='vertical-align:center; align:center' src=img/fixation3.jpg></div><div class='cl'><div class='vertical-center'>$28<br>with a<br>50% chance</div></div><div class='cr'><div class='vertical-center'>$16<br>for<br>sure</div></div><div class='respDivL'><div class='vertical-center'>(E)</div></div><div class='respDivR'><div class='vertical-center'>(I)</div></div></div>","I","$16","$28","1","16","28","SURE"
"html-keyboard-response","105","141519","0.0-5.0-3.33","5f934f7fdc89a111b5712011","bdp_rd","Sun Mar 26 2023 14:34:36 GMT-0400 (Eastern Daylight Time)","200464","","null","","","","offerFB","","<div class='trialBorder'><div class='vertical-center'><img style='vertical-align:center; align:center' src=img/fixation3.jpg></div><div class='cl'><div class='vertical-center'>$28<br>with a<br>50% chance</div></div><div class='cr'><div class='vertical-center'><font style='color:orange'>$16<br>for<br>sure</font></div></div><div class='respDivL'><div class='vertical-center'>(E)</div></div><div class='respDivR'><div class='vertical-center'><font style='color:orange'>(I)</font></div></div></div>","null","$16","$28","1","16","28",""
"html-keyboard-response","106","142030","0.0-5.0-1.34","5f934f7fdc89a111b5712011","bdp_rd","Sun Mar 26 2023 14:34:36 GMT-0400 (Eastern Daylight Time)","200464","","null","","","","FIX","","<div class='trialBorder'><div class='vertical-center'><img style='vertical-align:center; align:center' src=img/fixation3.jpg></div></div>","null","","","","","",""
"html-keyboard-response","107","143191","0.0-5.0-2.34","5f934f7fdc89a111b5712011","bdp_rd","Sun Mar 26 2023 14:34:36 GMT-0400 (Eastern Daylight Time)","200464","","1158","","","","offer","","<div class='trialBorder'><div class='vertical-center'><img style='vertical-align:center; align:center' src=img/fixation3.jpg></div><div class='cl'><div class='vertical-center'>$16<br>for<br>sure</div></div><div class='cr'><div class='vertical-center'>$38<br>with a<br>50% chance</div></div><div class='respDivL'><div class='vertical-center'>(E)</div></div><div class='respDivR'><div class='vertical-center'>(I)</div></div></div>","E","$16","$38","0","16","38","SURE"
"html-keyboard-response","108","143444","0.0-5.0-3.34","5f934f7fdc89a111b5712011","bdp_rd","Sun Mar 26 2023 14:34:36 GMT-0400 (Eastern Daylight Time)","200464","","null","","","","offerFB","","<div class='trialBorder'><div class='vertical-center'><img style='vertical-align:center; align:center' src=img/fixation3.jpg></div><div class='cl'><div class='vertical-center'><font style='color:orange'>$16<br>for<br>sure</font></div></div><div class='cr'><div class='vertical-center'>$38<br>with a<br>50% chance</div></div><div class='respDivL'><div class='vertical-center'><font style='color:orange'>(E)</font></div></div><div class='respDivR'><div class='vertical-center'>(I)</div></div></div>","null","$16","$38","0","16","38",""
"html-keyboard-response","109","143951","0.0-5.0-1.35","5f934f7fdc89a111b5712011","bdp_rd","Sun Mar 26 2023 14:34:36 GMT-0400 (Eastern Daylight Time)","200464","","null","","","","FIX","","<div class='trialBorder'><div class='vertical-center'><img style='vertical-align:center; align:center' src=img/fixation3.jpg></div></div>","null","","","","","",""
"html-keyboard-response","110","144794","0.0-5.0-2.35","5f934f7fdc89a111b5712011","bdp_rd","Sun Mar 26 2023 14:34:36 GMT-0400 (Eastern Daylight Time)","200464","","842","","","","offer","","<div class='trialBorder'><div class='vertical-center'><img style='vertical-align:center; align:center' src=img/fixation3.jpg></div><div class='cl'><div class='vertical-center'>$100<br>with a<br>50% chance</div></div><div class='cr'><div class='vertical-center'>$63<br>for<br>sure</div></div><div class='respDivL'><div class='vertical-center'>(E)</div></div><div class='respDivR'><div class='vertical-center'>(I)</div></div></div>","I","$63","$100","1","63","10","SURE"
"html-keyboard-response","111","145055","0.0-5.0-3.35","5f934f7fdc89a111b5712011","bdp_rd","Sun Mar 26 2023 14:34:36 GMT-0400 (Eastern Daylight Time)","200464","","null","","","","offerFB","","<div class='trialBorder'><div class='vertical-center'><img style='vertical-align:center; align:center' src=img/fixation3.jpg></div><div class='cl'><div class='vertical-center'>$100<br>with a<br>50% chance</div></div><div class='cr'><div class='vertical-center'><font style='color:orange'>$63<br>for<br>sure</font></div></div><div class='respDivL'><div class='vertical-center'>(E)</div></div><div class='respDivR'><div class='vertical-center'><font style='color:orange'>(I)</font></div></div></div>","null","$63","$100","1","63","10",""
"html-keyboard-response","112","145567","0.0-5.0-1.36","5f934f7fdc89a111b5712011","bdp_rd","Sun Mar 26 2023 14:34:36 GMT-0400 (Eastern Daylight Time)","200464","","null","","","","FIX","","<div class='trialBorder'><div class='vertical-center'><img style='vertical-align:center; align:center' src=img/fixation3.jpg></div></div>","null","","","","","",""
"html-keyboard-response","113","146745","0.0-5.0-2.36","5f934f7fdc89a111b5712011","bdp_rd","Sun Mar 26 2023 14:34:36 GMT-0400 (Eastern Daylight Time)","200464","","1177","","","","offer","","<div class='trialBorder'><div class='vertical-center'><img style='vertical-align:center; align:center' src=img/fixation3.jpg></div><div class='cl'><div class='vertical-center'>$15<br>for<br>sure</div></div><div class='cr'><div class='vertical-center'>$34<br>with a<br>50% chance</div></div><div class='respDivL'><div class='vertical-center'>(E)</div></div><div class='respDivR'><div class='vertical-center'>(I)</div></div></div>","E","$15","$34","0","15","34","SURE"
"html-keyboard-response","114","147007","0.0-5.0-3.36","5f934f7fdc89a111b5712011","bdp_rd","Sun Mar 26 2023 14:34:36 GMT-0400 (Eastern Daylight Time)","200464","","null","","","","offerFB","","<div class='trialBorder'><div class='vertical-center'><img style='vertical-align:center; align:center' src=img/fixation3.jpg></div><div class='cl'><div class='vertical-center'><font style='color:orange'>$15<br>for<br>sure</font></div></div><div class='cr'><div class='vertical-center'>$34<br>with a<br>50% chance</div></div><div class='respDivL'><div class='vertical-center'><font style='color:orange'>(E)</font></div></div><div class='respDivR'><div class='vertical-center'>(I)</div></div></div>","null","$15","$34","0","15","34",""
"html-keyboard-response","115","147519","0.0-5.0-1.37","5f934f7fdc89a111b5712011","bdp_rd","Sun Mar 26 2023 14:34:36 GMT-0400 (Eastern Daylight Time)","200464","","null","","","","FIX","","<div class='trialBorder'><div class='vertical-center'><img style='vertical-align:center; align:center' src=img/fixation3.jpg></div></div>","null","","","","","",""
"html-keyboard-response","116","148311","0.0-5.0-2.37","5f934f7fdc89a111b5712011","bdp_rd","Sun Mar 26 2023 14:34:36 GMT-0400 (Eastern Daylight Time)","200464","","791","","","","offer","","<div class='trialBorder'><div class='vertical-center'><img style='vertical-align:center; align:center' src=img/fixation3.jpg></div><div class='cl'><div class='vertical-center'>$54<br>with a<br>50% chance</div></div><div class='cr'><div class='vertical-center'>$25<br>for<br>sure</div></div><div class='respDivL'><div class='vertical-center'>(E)</div></div><div class='respDivR'><div class='vertical-center'>(I)</div></div></div>","I","$25","$54","1","25","54","SURE"
"html-keyboard-response","117","148575","0.0-5.0-3.37","5f934f7fdc89a111b5712011","bdp_rd","Sun Mar 26 2023 14:34:36 GMT-0400 (Eastern Daylight Time)","200464","","null","","","","offerFB","","<div class='trialBorder'><div class='vertical-center'><img style='vertical-align:center; align:center' src=img/fixation3.jpg></div><div class='cl'><div class='vertical-center'>$54<br>with a<br>50% chance</div></div><div class='cr'><div class='vertical-center'><font style='color:orange'>$25<br>for<br>sure</font></div></div><div class='respDivL'><div class='vertical-center'>(E)</div></div><div class='respDivR'><div class='vertical-center'><font style='color:orange'>(I)</font></div></div></div>","null","$25","$54","1","25","54",""
"html-keyboard-response","118","149088","0.0-5.0-1.38","5f934f7fdc89a111b5712011","bdp_rd","Sun Mar 26 2023 14:34:36 GMT-0400 (Eastern Daylight Time)","200464","","null","","","","FIX","","<div class='trialBorder'><div class='vertical-center'><img style='vertical-align:center; align:center' src=img/fixation3.jpg></div></div>","null","","","","","",""
"html-keyboard-response","119","149851","0.0-5.0-2.38","5f934f7fdc89a111b5712011","bdp_rd","Sun Mar 26 2023 14:34:36 GMT-0400 (Eastern Daylight Time)","200464","","762","","","","offer","","<div class='trialBorder'><div class='vertical-center'><img style='vertical-align:center; align:center' src=img/fixation3.jpg></div><div class='cl'><div class='vertical-center'>$23<br>with a<br>50% chance</div></div><div class='cr'><div class='vertical-center'>$8<br>for<br>sure</div></div><div class='respDivL'><div class='vertical-center'>(E)</div></div><div class='respDivR'><div class='vertical-center'>(I)</div></div></div>","E","$8","$23","1","8","23","RISKY"
"html-keyboard-response","120","150109","0.0-5.0-3.38","5f934f7fdc89a111b5712011","bdp_rd","Sun Mar 26 2023 14:34:36 GMT-0400 (Eastern Daylight Time)","200464","","null","","","","offerFB","","<div class='trialBorder'><div class='vertical-center'><img style='vertical-align:center; align:center' src=img/fixation3.jpg></div><div class='cl'><div class='vertical-center'><font style='color:orange'>$23<br>with a<br>50% chance</font></div></div><div class='cr'><div class='vertical-center'>$8<br>for<br>sure</div></div><div class='respDivL'><div class='vertical-center'><font style='color:orange'>(E)</font></div></div><div class='respDivR'><div class='vertical-center'>(I)</div></div></div>","null","$8","$23","1","8","23",""
"html-keyboard-response","121","150612","0.0-5.0-1.39","5f934f7fdc89a111b5712011","bdp_rd","Sun Mar 26 2023 14:34:36 GMT-0400 (Eastern Daylight Time)","200464","","null","","","","FIX","","<div class='trialBorder'><div class='vertical-center'><img style='vertical-align:center; align:center' src=img/fixation3.jpg></div></div>","null","","","","","",""
"html-keyboard-response","122","151697","0.0-5.0-2.39","5f934f7fdc89a111b5712011","bdp_rd","Sun Mar 26 2023 14:34:36 GMT-0400 (Eastern Daylight Time)","200464","","1083","","","","offer","","<div class='trialBorder'><div class='vertical-center'><img style='vertical-align:center; align:center' src=img/fixation3.jpg></div><div class='cl'><div class='vertical-center'>$18<br>for<br>sure</div></div><div class='cr'><div class='vertical-center'>$36<br>with a<br>50% chance</div></div><div class='respDivL'><div class='vertical-center'>(E)</div></div><div class='respDivR'><div class='vertical-center'>(I)</div></div></div>","I","$18","$36","0","18","36","RISKY"
"html-keyboard-response","123","151956","0.0-5.0-3.39","5f934f7fdc89a111b5712011","bdp_rd","Sun Mar 26 2023 14:34:36 GMT-0400 (Eastern Daylight Time)","200464","","null","","","","offerFB","","<div class='trialBorder'><div class='vertical-center'><img style='vertical-align:center; align:center' src=img/fixation3.jpg></div><div class='cl'><div class='vertical-center'>$18<br>for<br>sure</div></div><div class='cr'><div class='vertical-center'><font style='color:orange'>$36<br>with a<br>50% chance</font></div></div><div class='respDivL'><div class='vertical-center'>(E)</div></div><div class='respDivR'><div class='vertical-center'><font style='color:orange'>(I)</font></div></div></div>","null","$18","$36","0","18","36",""
"html-keyboard-response","124","152463","0.0-5.0-1.40","5f934f7fdc89a111b5712011","bdp_rd","Sun Mar 26 2023 14:34:36 GMT-0400 (Eastern Daylight Time)","200464","","null","","","","FIX","","<div class='trialBorder'><div class='vertical-center'><img style='vertical-align:center; align:center' src=img/fixation3.jpg></div></div>","null","","","","","",""
"html-keyboard-response","125","153491","0.0-5.0-2.40","5f934f7fdc89a111b5712011","bdp_rd","Sun Mar 26 2023 14:34:36 GMT-0400 (Eastern Daylight Time)","200464","","1027","","","","offer","","<div class='trialBorder'><div class='vertical-center'><img style='vertical-align:center; align:center' src=img/fixation3.jpg></div><div class='cl'><div class='vertical-center'>$24<br>for<br>sure</div></div><div class='cr'><div class='vertical-center'>$70<br>with a<br>50% chance</div></div><div class='respDivL'><div class='vertical-center'>(E)</div></div><div class='respDivR'><div class='vertical-center'>(I)</div></div></div>","I","$24","$70","0","24","70","RISKY"
"html-keyboard-response","126","153748","0.0-5.0-3.40","5f934f7fdc89a111b5712011","bdp_rd","Sun Mar 26 2023 14:34:36 GMT-0400 (Eastern Daylight Time)","200464","","null","","","","offerFB","","<div class='trialBorder'><div class='vertical-center'><img style='vertical-align:center; align:center' src=img/fixation3.jpg></div><div class='cl'><div class='vertical-center'>$24<br>for<br>sure</div></div><div class='cr'><div class='vertical-center'><font style='color:orange'>$70<br>with a<br>50% chance</font></div></div><div class='respDivL'><div class='vertical-center'>(E)</div></div><div class='respDivR'><div class='vertical-center'><font style='color:orange'>(I)</font></div></div></div>","null","$24","$70","0","24","70",""
"html-keyboard-response","127","154255","0.0-5.0-1.41","5f934f7fdc89a111b5712011","bdp_rd","Sun Mar 26 2023 14:34:36 GMT-0400 (Eastern Daylight Time)","200464","","null","","","","FIX","","<div class='trialBorder'><div class='vertical-center'><img style='vertical-align:center; align:center' src=img/fixation3.jpg></div></div>","null","","","","","",""
"html-keyboard-response","128","155208","0.0-5.0-2.41","5f934f7fdc89a111b5712011","bdp_rd","Sun Mar 26 2023 14:34:36 GMT-0400 (Eastern Daylight Time)","200464","","951","","","","offer","","<div class='trialBorder'><div class='vertical-center'><img style='vertical-align:center; align:center' src=img/fixation3.jpg></div><div class='cl'><div class='vertical-center'>$37<br>with a<br>50% chance</div></div><div class='cr'><div class='vertical-center'>$20<br>for<br>sure</div></div><div class='respDivL'><div class='vertical-center'>(E)</div></div><div class='respDivR'><div class='vertical-center'>(I)</div></div></div>","I","$20","$37","1","20","37","SURE"
"html-keyboard-response","129","155471","0.0-5.0-3.41","5f934f7fdc89a111b5712011","bdp_rd","Sun Mar 26 2023 14:34:36 GMT-0400 (Eastern Daylight Time)","200464","","null","","","","offerFB","","<div class='trialBorder'><div class='vertical-center'><img style='vertical-align:center; align:center' src=img/fixation3.jpg></div><div class='cl'><div class='vertical-center'>$37<br>with a<br>50% chance</div></div><div class='cr'><div class='vertical-center'><font style='color:orange'>$20<br>for<br>sure</font></div></div><div class='respDivL'><div class='vertical-center'>(E)</div></div><div class='respDivR'><div class='vertical-center'><font style='color:orange'>(I)</font></div></div></div>","null","$20","$37","1","20","37",""
"html-keyboard-response","130","155983","0.0-5.0-1.42","5f934f7fdc89a111b5712011","bdp_rd","Sun Mar 26 2023 14:34:36 GMT-0400 (Eastern Daylight Time)","200464","","null","","","","FIX","","<div class='trialBorder'><div class='vertical-center'><img style='vertical-align:center; align:center' src=img/fixation3.jpg></div></div>","null","","","","","",""
"html-keyboard-response","131","157560","0.0-5.0-2.42","5f934f7fdc89a111b5712011","bdp_rd","Sun Mar 26 2023 14:34:36 GMT-0400 (Eastern Daylight Time)","200464","","1576","","","","offer","","<div class='trialBorder'><div class='vertical-center'><img style='vertical-align:center; align:center' src=img/fixation3.jpg></div><div class='cl'><div class='vertical-center'>$6<br>for<br>sure</div></div><div class='cr'><div class='vertical-center'>$13<br>with a<br>50% chance</div></div><div class='respDivL'><div class='vertical-center'>(E)</div></div><div class='respDivR'><div class='vertical-center'>(I)</div></div></div>","I","$6","$13","0","6","13","RISKY"
"html-keyboard-response","132","157823","0.0-5.0-3.42","5f934f7fdc89a111b5712011","bdp_rd","Sun Mar 26 2023 14:34:36 GMT-0400 (Eastern Daylight Time)","200464","","null","","","","offerFB","","<div class='trialBorder'><div class='vertical-center'><img style='vertical-align:center; align:center' src=img/fixation3.jpg></div><div class='cl'><div class='vertical-center'>$6<br>for<br>sure</div></div><div class='cr'><div class='vertical-center'><font style='color:orange'>$13<br>with a<br>50% chance</font></div></div><div class='respDivL'><div class='vertical-center'>(E)</div></div><div class='respDivR'><div class='vertical-center'><font style='color:orange'>(I)</font></div></div></div>","null","$6","$13","0","6","13",""
"html-keyboard-response","133","158335","0.0-5.0-1.43","5f934f7fdc89a111b5712011","bdp_rd","Sun Mar 26 2023 14:34:36 GMT-0400 (Eastern Daylight Time)","200464","","null","","","","FIX","","<div class='trialBorder'><div class='vertical-center'><img style='vertical-align:center; align:center' src=img/fixation3.jpg></div></div>","null","","","","","",""
"html-keyboard-response","134","159311","0.0-5.0-2.43","5f934f7fdc89a111b5712011","bdp_rd","Sun Mar 26 2023 14:34:36 GMT-0400 (Eastern Daylight Time)","200464","","974","","","","offer","","<div class='trialBorder'><div class='vertical-center'><img style='vertical-align:center; align:center' src=img/fixation3.jpg></div><div class='cl'><div class='vertical-center'>$1<br>for<br>sure</div></div><div class='cr'><div class='vertical-center'>$30<br>with a<br>50% chance</div></div><div class='respDivL'><div class='vertical-center'>(E)</div></div><div class='respDivR'><div class='vertical-center'>(I)</div></div></div>","I","$1","$30","0","1","30","RISKY"
"html-keyboard-response","135","159567","0.0-5.0-3.43","5f934f7fdc89a111b5712011","bdp_rd","Sun Mar 26 2023 14:34:36 GMT-0400 (Eastern Daylight Time)","200464","","null","","","","offerFB","","<div class='trialBorder'><div class='vertical-center'><img style='vertical-align:center; align:center' src=img/fixation3.jpg></div><div class='cl'><div class='vertical-center'>$1<br>for<br>sure</div></div><div class='cr'><div class='vertical-center'><font style='color:orange'>$30<br>with a<br>50% chance</font></div></div><div class='respDivL'><div class='vertical-center'>(E)</div></div><div class='respDivR'><div class='vertical-center'><font style='color:orange'>(I)</font></div></div></div>","null","$1","$30","0","1","30",""
"html-keyboard-response","136","160079","0.0-5.0-1.44","5f934f7fdc89a111b5712011","bdp_rd","Sun Mar 26 2023 14:34:36 GMT-0400 (Eastern Daylight Time)","200464","","null","","","","FIX","","<div class='trialBorder'><div class='vertical-center'><img style='vertical-align:center; align:center' src=img/fixation3.jpg></div></div>","null","","","","","",""
"html-keyboard-response","137","161371","0.0-5.0-2.44","5f934f7fdc89a111b5712011","bdp_rd","Sun Mar 26 2023 14:34:36 GMT-0400 (Eastern Daylight Time)","200464","","1291","","","","offer","","<div class='trialBorder'><div class='vertical-center'><img style='vertical-align:center; align:center' src=img/fixation3.jpg></div><div class='cl'><div class='vertical-center'>$25<br>with a<br>50% chance</div></div><div class='cr'><div class='vertical-center'>$21<br>for<br>sure</div></div><div class='respDivL'><div class='vertical-center'>(E)</div></div><div class='respDivR'><div class='vertical-center'>(I)</div></div></div>","I","$21","$25","1","21","25","SURE"
"html-keyboard-response","138","161631","0.0-5.0-3.44","5f934f7fdc89a111b5712011","bdp_rd","Sun Mar 26 2023 14:34:36 GMT-0400 (Eastern Daylight Time)","200464","","null","","","","offerFB","","<div class='trialBorder'><div class='vertical-center'><img style='vertical-align:center; align:center' src=img/fixation3.jpg></div><div class='cl'><div class='vertical-center'>$25<br>with a<br>50% chance</div></div><div class='cr'><div class='vertical-center'><font style='color:orange'>$21<br>for<br>sure</font></div></div><div class='respDivL'><div class='vertical-center'>(E)</div></div><div class='respDivR'><div class='vertical-center'><font style='color:orange'>(I)</font></div></div></div>","null","$21","$25","1","21","25",""
"html-keyboard-response","139","162143","0.0-5.0-1.45","5f934f7fdc89a111b5712011","bdp_rd","Sun Mar 26 2023 14:34:36 GMT-0400 (Eastern Daylight Time)","200464","","null","","","","FIX","","<div class='trialBorder'><div class='vertical-center'><img style='vertical-align:center; align:center' src=img/fixation3.jpg></div></div>","null","","","","","",""
"html-keyboard-response","140","163614","0.0-5.0-2.45","5f934f7fdc89a111b5712011","bdp_rd","Sun Mar 26 2023 14:34:36 GMT-0400 (Eastern Daylight Time)","200464","","1470","","","","offer","","<div class='trialBorder'><div class='vertical-center'><img style='vertical-align:center; align:center' src=img/fixation3.jpg></div><div class='cl'><div class='vertical-center'>$45<br>with a<br>50% chance</div></div><div class='cr'><div class='vertical-center'>$8<br>for<br>sure</div></div><div class='respDivL'><div class='vertical-center'>(E)</div></div><div class='respDivR'><div class='vertical-center'>(I)</div></div></div>","I","$8","$45","1","8","45","SURE"
"html-keyboard-response","141","163871","0.0-5.0-3.45","5f934f7fdc89a111b5712011","bdp_rd","Sun Mar 26 2023 14:34:36 GMT-0400 (Eastern Daylight Time)","200464","","null","","","","offerFB","","<div class='trialBorder'><div class='vertical-center'><img style='vertical-align:center; align:center' src=img/fixation3.jpg></div><div class='cl'><div class='vertical-center'>$45<br>with a<br>50% chance</div></div><div class='cr'><div class='vertical-center'><font style='color:orange'>$8<br>for<br>sure</font></div></div><div class='respDivL'><div class='vertical-center'>(E)</div></div><div class='respDivR'><div class='vertical-center'><font style='color:orange'>(I)</font></div></div></div>","null","$8","$45","1","8","45",""
"html-keyboard-response","142","164383","0.0-5.0-1.46","5f934f7fdc89a111b5712011","bdp_rd","Sun Mar 26 2023 14:34:36 GMT-0400 (Eastern Daylight Time)","200464","","null","","","","FIX","","<div class='trialBorder'><div class='vertical-center'><img style='vertical-align:center; align:center' src=img/fixation3.jpg></div></div>","null","","","","","",""
"html-keyboard-response","143","165861","0.0-5.0-2.46","5f934f7fdc89a111b5712011","bdp_rd","Sun Mar 26 2023 14:34:36 GMT-0400 (Eastern Daylight Time)","200464","","1476","","","","offer","","<div class='trialBorder'><div class='vertical-center'><img style='vertical-align:center; align:center' src=img/fixation3.jpg></div><div class='cl'><div class='vertical-center'>$13<br>for<br>sure</div></div><div class='cr'><div class='vertical-center'>$41<br>with a<br>50% chance</div></div><div class='respDivL'><div class='vertical-center'>(E)</div></div><div class='respDivR'><div class='vertical-center'>(I)</div></div></div>","E","$13","$41","0","13","41","SURE"
"html-keyboard-response","144","166116","0.0-5.0-3.46","5f934f7fdc89a111b5712011","bdp_rd","Sun Mar 26 2023 14:34:36 GMT-0400 (Eastern Daylight Time)","200464","","null","","","","offerFB","","<div class='trialBorder'><div class='vertical-center'><img style='vertical-align:center; align:center' src=img/fixation3.jpg></div><div class='cl'><div class='vertical-center'><font style='color:orange'>$13<br>for<br>sure</font></div></div><div class='cr'><div class='vertical-center'>$41<br>with a<br>50% chance</div></div><div class='respDivL'><div class='vertical-center'><font style='color:orange'>(E)</font></div></div><div class='respDivR'><div class='vertical-center'>(I)</div></div></div>","null","$13","$41","0","13","41",""
"html-keyboard-response","145","166623","0.0-5.0-1.47","5f934f7fdc89a111b5712011","bdp_rd","Sun Mar 26 2023 14:34:36 GMT-0400 (Eastern Daylight Time)","200464","","null","","","","FIX","","<div class='trialBorder'><div class='vertical-center'><img style='vertical-align:center; align:center' src=img/fixation3.jpg></div></div>","null","","","","","",""
"html-keyboard-response","146","169842","0.0-5.0-2.47","5f934f7fdc89a111b5712011","bdp_rd","Sun Mar 26 2023 14:34:36 GMT-0400 (Eastern Daylight Time)","200464","","3218","","","","offer","","<div class='trialBorder'><div class='vertical-center'><img style='vertical-align:center; align:center' src=img/fixation3.jpg></div><div class='cl'><div class='vertical-center'>$11<br>for<br>sure</div></div><div class='cr'><div class='vertical-center'>$26<br>with a<br>50% chance</div></div><div class='respDivL'><div class='vertical-center'>(E)</div></div><div class='respDivR'><div class='vertical-center'>(I)</div></div></div>","I","$11","$26","0","11","26","RISKY"
"html-keyboard-response","147","170100","0.0-5.0-3.47","5f934f7fdc89a111b5712011","bdp_rd","Sun Mar 26 2023 14:34:36 GMT-0400 (Eastern Daylight Time)","200464","","null","","","","offerFB","","<div class='trialBorder'><div class='vertical-center'><img style='vertical-align:center; align:center' src=img/fixation3.jpg></div><div class='cl'><div class='vertical-center'>$11<br>for<br>sure</div></div><div class='cr'><div class='vertical-center'><font style='color:orange'>$26<br>with a<br>50% chance</font></div></div><div class='respDivL'><div class='vertical-center'>(E)</div></div><div class='respDivR'><div class='vertical-center'><font style='color:orange'>(I)</font></div></div></div>","null","$11","$26","0","11","26",""
"html-keyboard-response","148","170607","0.0-5.0-1.48","5f934f7fdc89a111b5712011","bdp_rd","Sun Mar 26 2023 14:34:36 GMT-0400 (Eastern Daylight Time)","200464","","null","","","","FIX","","<div class='trialBorder'><div class='vertical-center'><img style='vertical-align:center; align:center' src=img/fixation3.jpg></div></div>","null","","","","","",""
"html-keyboard-response","149","171489","0.0-5.0-2.48","5f934f7fdc89a111b5712011","bdp_rd","Sun Mar 26 2023 14:34:36 GMT-0400 (Eastern Daylight Time)","200464","","881","","","","offer","","<div class='trialBorder'><div class='vertical-center'><img style='vertical-align:center; align:center' src=img/fixation3.jpg></div><div class='cl'><div class='vertical-center'>$19<br>with a<br>50% chance</div></div><div class='cr'><div class='vertical-center'>$10<br>for<br>sure</div></div><div class='respDivL'><div class='vertical-center'>(E)</div></div><div class='respDivR'><div class='vertical-center'>(I)</div></div></div>","E","$10","$19","1","10","19","RISKY"
"html-keyboard-response","150","171748","0.0-5.0-3.48","5f934f7fdc89a111b5712011","bdp_rd","Sun Mar 26 2023 14:34:36 GMT-0400 (Eastern Daylight Time)","200464","","null","","","","offerFB","","<div class='trialBorder'><div class='vertical-center'><img style='vertical-align:center; align:center' src=img/fixation3.jpg></div><div class='cl'><div class='vertical-center'><font style='color:orange'>$19<br>with a<br>50% chance</font></div></div><div class='cr'><div class='vertical-center'>$10<br>for<br>sure</div></div><div class='respDivL'><div class='vertical-center'><font style='color:orange'>(E)</font></div></div><div class='respDivR'><div class='vertical-center'>(I)</div></div></div>","null","$10","$19","1","10","19",""
"html-keyboard-response","151","172255","0.0-5.0-1.49","5f934f7fdc89a111b5712011","bdp_rd","Sun Mar 26 2023 14:34:36 GMT-0400 (Eastern Daylight Time)","200464","","null","","","","FIX","","<div class='trialBorder'><div class='vertical-center'><img style='vertical-align:center; align:center' src=img/fixation3.jpg></div></div>","null","","","","","",""
"html-keyboard-response","152","176204","0.0-5.0-2.49","5f934f7fdc89a111b5712011","bdp_rd","Sun Mar 26 2023 14:34:36 GMT-0400 (Eastern Daylight Time)","200464","","3947","","","","offer","","<div class='trialBorder'><div class='vertical-center'><img style='vertical-align:center; align:center' src=img/fixation3.jpg></div><div class='cl'><div class='vertical-center'>$44<br>with a<br>50% chance</div></div><div class='cr'><div class='vertical-center'>$37<br>for<br>sure</div></div><div class='respDivL'><div class='vertical-center'>(E)</div></div><div class='respDivR'><div class='vertical-center'>(I)</div></div></div>","I","$37","$44","1","37","44","SURE"
"html-keyboard-response","153","176463","0.0-5.0-3.49","5f934f7fdc89a111b5712011","bdp_rd","Sun Mar 26 2023 14:34:36 GMT-0400 (Eastern Daylight Time)","200464","","null","","","","offerFB","","<div class='trialBorder'><div class='vertical-center'><img style='vertical-align:center; align:center' src=img/fixation3.jpg></div><div class='cl'><div class='vertical-center'>$44<br>with a<br>50% chance</div></div><div class='cr'><div class='vertical-center'><font style='color:orange'>$37<br>for<br>sure</font></div></div><div class='respDivL'><div class='vertical-center'>(E)</div></div><div class='respDivR'><div class='vertical-center'><font style='color:orange'>(I)</font></div></div></div>","null","$37","$44","1","37","44",""
"html-keyboard-response","154","176975","0.0-5.0-1.50","5f934f7fdc89a111b5712011","bdp_rd","Sun Mar 26 2023 14:34:36 GMT-0400 (Eastern Daylight Time)","200464","","null","","","","FIX","","<div class='trialBorder'><div class='vertical-center'><img style='vertical-align:center; align:center' src=img/fixation3.jpg></div></div>","null","","","","","",""
"html-keyboard-response","155","178236","0.0-5.0-2.50","5f934f7fdc89a111b5712011","bdp_rd","Sun Mar 26 2023 14:34:36 GMT-0400 (Eastern Daylight Time)","200464","","1260","","","","offer","","<div class='trialBorder'><div class='vertical-center'><img style='vertical-align:center; align:center' src=img/fixation3.jpg></div><div class='cl'><div class='vertical-center'>$1<br>for<br>sure</div></div><div class='cr'><div class='vertical-center'>$33<br>with a<br>50% chance</div></div><div class='respDivL'><div class='vertical-center'>(E)</div></div><div class='respDivR'><div class='vertical-center'>(I)</div></div></div>","I","$1","$33","0","1","33","RISKY"
"html-keyboard-response","156","178495","0.0-5.0-3.50","5f934f7fdc89a111b5712011","bdp_rd","Sun Mar 26 2023 14:34:36 GMT-0400 (Eastern Daylight Time)","200464","","null","","","","offerFB","","<div class='trialBorder'><div class='vertical-center'><img style='vertical-align:center; align:center' src=img/fixation3.jpg></div><div class='cl'><div class='vertical-center'>$1<br>for<br>sure</div></div><div class='cr'><div class='vertical-center'><font style='color:orange'>$33<br>with a<br>50% chance</font></div></div><div class='respDivL'><div class='vertical-center'>(E)</div></div><div class='respDivR'><div class='vertical-center'><font style='color:orange'>(I)</font></div></div></div>","null","$1","$33","0","1","33",""
"html-keyboard-response","157","179007","0.0-5.0-1.51","5f934f7fdc89a111b5712011","bdp_rd","Sun Mar 26 2023 14:34:36 GMT-0400 (Eastern Daylight Time)","200464","","null","","","","FIX","","<div class='trialBorder'><div class='vertical-center'><img style='vertical-align:center; align:center' src=img/fixation3.jpg></div></div>","null","","","","","",""
"html-keyboard-response","158","180544","0.0-5.0-2.51","5f934f7fdc89a111b5712011","bdp_rd","Sun Mar 26 2023 14:34:36 GMT-0400 (Eastern Daylight Time)","200464","","1535","","","","offer","","<div class='trialBorder'><div class='vertical-center'><img style='vertical-align:center; align:center' src=img/fixation3.jpg></div><div class='cl'><div class='vertical-center'>$4<br>for<br>sure</div></div><div class='cr'><div class='vertical-center'>$11<br>with a<br>50% chance</div></div><div class='respDivL'><div class='vertical-center'>(E)</div></div><div class='respDivR'><div class='vertical-center'>(I)</div></div></div>","I","$4","$11","0","4","11","RISKY"
"html-keyboard-response","159","180798","0.0-5.0-3.51","5f934f7fdc89a111b5712011","bdp_rd","Sun Mar 26 2023 14:34:36 GMT-0400 (Eastern Daylight Time)","200464","","null","","","","offerFB","","<div class='trialBorder'><div class='vertical-center'><img style='vertical-align:center; align:center' src=img/fixation3.jpg></div><div class='cl'><div class='vertical-center'>$4<br>for<br>sure</div></div><div class='cr'><div class='vertical-center'><font style='color:orange'>$11<br>with a<br>50% chance</font></div></div><div class='respDivL'><div class='vertical-center'>(E)</div></div><div class='respDivR'><div class='vertical-center'><font style='color:orange'>(I)</font></div></div></div>","null","$4","$11","0","4","11",""
"html-keyboard-response","160","181311","0.0-5.0-1.52","5f934f7fdc89a111b5712011","bdp_rd","Sun Mar 26 2023 14:34:36 GMT-0400 (Eastern Daylight Time)","200464","","null","","","","FIX","","<div class='trialBorder'><div class='vertical-center'><img style='vertical-align:center; align:center' src=img/fixation3.jpg></div></div>","null","","","","","",""
"html-keyboard-response","161","182981","0.0-5.0-2.52","5f934f7fdc89a111b5712011","bdp_rd","Sun Mar 26 2023 14:34:36 GMT-0400 (Eastern Daylight Time)","200464","","1668","","","","offer","","<div class='trialBorder'><div class='vertical-center'><img style='vertical-align:center; align:center' src=img/fixation3.jpg></div><div class='cl'><div class='vertical-center'>$50<br>with a<br>50% chance</div></div><div class='cr'><div class='vertical-center'>$5<br>for<br>sure</div></div><div class='respDivL'><div class='vertical-center'>(E)</div></div><div class='respDivR'><div class='vertical-center'>(I)</div></div></div>","E","$5","$50","1","5","50","RISKY"
"html-keyboard-response","162","183237","0.0-5.0-3.52","5f934f7fdc89a111b5712011","bdp_rd","Sun Mar 26 2023 14:34:36 GMT-0400 (Eastern Daylight Time)","200464","","null","","","","offerFB","","<div class='trialBorder'><div class='vertical-center'><img style='vertical-align:center; align:center' src=img/fixation3.jpg></div><div class='cl'><div class='vertical-center'><font style='color:orange'>$50<br>with a<br>50% chance</font></div></div><div class='cr'><div class='vertical-center'>$5<br>for<br>sure</div></div><div class='respDivL'><div class='vertical-center'><font style='color:orange'>(E)</font></div></div><div class='respDivR'><div class='vertical-center'>(I)</div></div></div>","null","$5","$50","1","5","50",""
"html-keyboard-response","163","183743","0.0-5.0-1.53","5f934f7fdc89a111b5712011","bdp_rd","Sun Mar 26 2023 14:34:36 GMT-0400 (Eastern Daylight Time)","200464","","null","","","","FIX","","<div class='trialBorder'><div class='vertical-center'><img style='vertical-align:center; align:center' src=img/fixation3.jpg></div></div>","null","","","","","",""
"html-keyboard-response","164","185249","0.0-5.0-2.53","5f934f7fdc89a111b5712011","bdp_rd","Sun Mar 26 2023 14:34:36 GMT-0400 (Eastern Daylight Time)","200464","","1503","","","","offer","","<div class='trialBorder'><div class='vertical-center'><img style='vertical-align:center; align:center' src=img/fixation3.jpg></div><div class='cl'><div class='vertical-center'>$21<br>with a<br>50% chance</div></div><div class='cr'><div class='vertical-center'>$2<br>for<br>sure</div></div><div class='respDivL'><div class='vertical-center'>(E)</div></div><div class='respDivR'><div class='vertical-center'>(I)</div></div></div>","E","$2","$21","1","2","21","RISKY"
"html-keyboard-response","165","185509","0.0-5.0-3.53","5f934f7fdc89a111b5712011","bdp_rd","Sun Mar 26 2023 14:34:36 GMT-0400 (Eastern Daylight Time)","200464","","null","","","","offerFB","","<div class='trialBorder'><div class='vertical-center'><img style='vertical-align:center; align:center' src=img/fixation3.jpg></div><div class='cl'><div class='vertical-center'><font style='color:orange'>$21<br>with a<br>50% chance</font></div></div><div class='cr'><div class='vertical-center'>$2<br>for<br>sure</div></div><div class='respDivL'><div class='vertical-center'><font style='color:orange'>(E)</font></div></div><div class='respDivR'><div class='vertical-center'>(I)</div></div></div>","null","$2","$21","1","2","21",""
"html-keyboard-response","166","186015","0.0-5.0-1.54","5f934f7fdc89a111b5712011","bdp_rd","Sun Mar 26 2023 14:34:36 GMT-0400 (Eastern Daylight Time)","200464","","null","","","","FIX","","<div class='trialBorder'><div class='vertical-center'><img style='vertical-align:center; align:center' src=img/fixation3.jpg></div></div>","null","","","","","",""
"html-keyboard-response","167","187658","0.0-5.0-2.54","5f934f7fdc89a111b5712011","bdp_rd","Sun Mar 26 2023 14:34:36 GMT-0400 (Eastern Daylight Time)","200464","","1641","","","","offer","","<div class='trialBorder'><div class='vertical-center'><img style='vertical-align:center; align:center' src=img/fixation3.jpg></div><div class='cl'><div class='vertical-center'>$69<br>with a<br>50% chance</div></div><div class='cr'><div class='vertical-center'>$58<br>for<br>sure</div></div><div class='respDivL'><div class='vertical-center'>(E)</div></div><div class='respDivR'><div class='vertical-center'>(I)</div></div></div>","I","$58","$69","1","58","69","SURE"
"html-keyboard-response","168","187919","0.0-5.0-3.54","5f934f7fdc89a111b5712011","bdp_rd","Sun Mar 26 2023 14:34:36 GMT-0400 (Eastern Daylight Time)","200464","","null","","","","offerFB","","<div class='trialBorder'><div class='vertical-center'><img style='vertical-align:center; align:center' src=img/fixation3.jpg></div><div class='cl'><div class='vertical-center'>$69<br>with a<br>50% chance</div></div><div class='cr'><div class='vertical-center'><font style='color:orange'>$58<br>for<br>sure</font></div></div><div class='respDivL'><div class='vertical-center'>(E)</div></div><div class='respDivR'><div class='vertical-center'><font style='color:orange'>(I)</font></div></div></div>","null","$58","$69","1","58","69",""
"html-keyboard-response","169","188421","0.0-5.0-1.55","5f934f7fdc89a111b5712011","bdp_rd","Sun Mar 26 2023 14:34:36 GMT-0400 (Eastern Daylight Time)","200464","","null","","","","FIX","","<div class='trialBorder'><div class='vertical-center'><img style='vertical-align:center; align:center' src=img/fixation3.jpg></div></div>","null","","","","","",""
"html-keyboard-response","170","189861","0.0-5.0-2.55","5f934f7fdc89a111b5712011","bdp_rd","Sun Mar 26 2023 14:34:36 GMT-0400 (Eastern Daylight Time)","200464","","1438","","","","offer","","<div class='trialBorder'><div class='vertical-center'><img style='vertical-align:center; align:center' src=img/fixation3.jpg></div><div class='cl'><div class='vertical-center'>$15<br>for<br>sure</div></div><div class='cr'><div class='vertical-center'>$31<br>with a<br>50% chance</div></div><div class='respDivL'><div class='vertical-center'>(E)</div></div><div class='respDivR'><div class='vertical-center'>(I)</div></div></div>","E","$15","$31","0","15","31","SURE"
"html-keyboard-response","171","190117","0.0-5.0-3.55","5f934f7fdc89a111b5712011","bdp_rd","Sun Mar 26 2023 14:34:36 GMT-0400 (Eastern Daylight Time)","200464","","null","","","","offerFB","","<div class='trialBorder'><div class='vertical-center'><img style='vertical-align:center; align:center' src=img/fixation3.jpg></div><div class='cl'><div class='vertical-center'><font style='color:orange'>$15<br>for<br>sure</font></div></div><div class='cr'><div class='vertical-center'>$31<br>with a<br>50% chance</div></div><div class='respDivL'><div class='vertical-center'><font style='color:orange'>(E)</font></div></div><div class='respDivR'><div class='vertical-center'>(I)</div></div></div>","null","$15","$31","0","15","31",""
"html-keyboard-response","172","190623","0.0-5.0-1.56","5f934f7fdc89a111b5712011","bdp_rd","Sun Mar 26 2023 14:34:36 GMT-0400 (Eastern Daylight Time)","200464","","null","","","","FIX","","<div class='trialBorder'><div class='vertical-center'><img style='vertical-align:center; align:center' src=img/fixation3.jpg></div></div>","null","","","","","",""
"html-keyboard-response","173","191761","0.0-5.0-2.56","5f934f7fdc89a111b5712011","bdp_rd","Sun Mar 26 2023 14:34:36 GMT-0400 (Eastern Daylight Time)","200464","","1136","","","","offer","","<div class='trialBorder'><div class='vertical-center'><img style='vertical-align:center; align:center' src=img/fixation3.jpg></div><div class='cl'><div class='vertical-center'>$18<br>for<br>sure</div></div><div class='cr'><div class='vertical-center'>$39<br>with a<br>50% chance</div></div><div class='respDivL'><div class='vertical-center'>(E)</div></div><div class='respDivR'><div class='vertical-center'>(I)</div></div></div>","E","$18","$39","0","18","39","SURE"
