"trial_type","trial_index","time_elapsed","internal_node_id","subject_id","task","startTime","totalTime","view_history","rt","event","trial","time","trialtype","success","stimulus","key_press","sureOffer","riskyOffer","riskyLeft","sureAmt","riskyAmt","chosen"
"pavlovia","0","5","0.0-0.0","6127e94c6abf253c484b38b7","bdp_rd","Mon Apr 10 2023 13:19:03 GMT-0500 (Central Daylight Time)","88046","","","","","","","","","","","","","","",""
"instructions","1","1082","0.0-1.0","6127e94c6abf253c484b38b7","bdp_rd","Mon Apr 10 2023 13:19:03 GMT-0500 (Central Daylight Time)","88046","[{""page_index"":0,""viewing_time"":1076}]","1076","","","","","","","","","","","","",""
"","","","","6127e94c6abf253c484b38b7","bdp_rd","Mon Apr 10 2023 13:19:03 GMT-0500 (Central Daylight Time)","88046","","","fullscreenenter","2","3388","fullscreenenter","","","","","","","","",""
"fullscreen","2","4390","0.0-2.0","6127e94c6abf253c484b38b7","bdp_rd","Mon Apr 10 2023 13:19:03 GMT-0500 (Central Daylight Time)","88046","","","","","","","true","","","","","","","",""
"instructions","3","11580","0.0-4.0","6127e94c6abf253c484b38b7","bdp_rd","Mon Apr 10 2023 13:19:03 GMT-0500 (Central Daylight Time)","88046","[{""page_index"":0,""viewing_time"":4836},{""page_index"":1,""viewing_time"":1455},{""page_index"":2,""viewing_time"":898}]","7189","","","","","","","","","","","","",""
"html-keyboard-response","4","12086","0.0-5.0-1.0","6127e94c6abf253c484b38b7","bdp_rd","Mon Apr 10 2023 13:19:03 GMT-0500 (Central Daylight Time)","88046","","null","","","","FIX","","<div class='trialBorder'><div class='vertical-center'><img style='vertical-align:center; align:center' src=img/fixation3.jpg></div></div>","null","","","","","",""
"html-keyboard-response","5","13899","0.0-5.0-2.0","6127e94c6abf253c484b38b7","bdp_rd","Mon Apr 10 2023 13:19:03 GMT-0500 (Central Daylight Time)","88046","","1810","","","","offer","","<div class='trialBorder'><div class='vertical-center'><img style='vertical-align:center; align:center' src=img/fixation3.jpg></div><div class='cl'><div class='vertical-center'>$12<br>for<br>sure</div></div><div class='cr'><div class='vertical-center'>$35<br>with a<br>50% chance</div></div><div class='respDivL'><div class='vertical-center'>(E)</div></div><div class='respDivR'><div class='vertical-center'>(I)</div></div></div>","E","$12","$35","0","12","35","SURE"
"html-keyboard-response","6","14158","0.0-5.0-3.0","6127e94c6abf253c484b38b7","bdp_rd","Mon Apr 10 2023 13:19:03 GMT-0500 (Central Daylight Time)","88046","","null","","","","offerFB","","<div class='trialBorder'><div class='vertical-center'><img style='vertical-align:center; align:center' src=img/fixation3.jpg></div><div class='cl'><div class='vertical-center'><font style='color:orange'>$12<br>for<br>sure</font></div></div><div class='cr'><div class='vertical-center'>$35<br>with a<br>50% chance</div></div><div class='respDivL'><div class='vertical-center'><font style='color:orange'>(E)</font></div></div><div class='respDivR'><div class='vertical-center'>(I)</div></div></div>","null","$12","$35","0","12","35",""
"html-keyboard-response","7","14662","0.0-5.0-1.1","6127e94c6abf253c484b38b7","bdp_rd","Mon Apr 10 2023 13:19:03 GMT-0500 (Central Daylight Time)","88046","","null","","","","FIX","","<div class='trialBorder'><div class='vertical-center'><img style='vertical-align:center; align:center' src=img/fixation3.jpg></div></div>","null","","","","","",""
"html-keyboard-response","8","15571","0.0-5.0-2.1","6127e94c6abf253c484b38b7","bdp_rd","Mon Apr 10 2023 13:19:03 GMT-0500 (Central Daylight Time)","88046","","909","","","","offer","","<div class='trialBorder'><div class='vertical-center'><img style='vertical-align:center; align:center' src=img/fixation3.jpg></div><div class='cl'><div class='vertical-center'>$17<br>with a<br>50% chance</div></div><div class='cr'><div class='vertical-center'>$3<br>for<br>sure</div></div><div class='respDivL'><div class='vertical-center'>(E)</div></div><div class='respDivR'><div class='vertical-center'>(I)</div></div></div>","E","$3","$17","1","3","17","RISKY"
"html-keyboard-response","9","15830","0.0-5.0-3.1","6127e94c6abf253c484b38b7","bdp_rd","Mon Apr 10 2023 13:19:03 GMT-0500 (Central Daylight Time)","88046","","null","","","","offerFB","","<div class='trialBorder'><div class='vertical-center'><img style='vertical-align:center; align:center' src=img/fixation3.jpg></div><div class='cl'><div class='vertical-center'><font style='color:orange'>$17<br>with a<br>50% chance</font></div></div><div class='cr'><div class='vertical-center'>$3<br>for<br>sure</div></div><div class='respDivL'><div class='vertical-center'><font style='color:orange'>(E)</font></div></div><div class='respDivR'><div class='vertical-center'>(I)</div></div></div>","null","$3","$17","1","3","17",""
"html-keyboard-response","10","16334","0.0-5.0-1.2","6127e94c6abf253c484b38b7","bdp_rd","Mon Apr 10 2023 13:19:03 GMT-0500 (Central Daylight Time)","88046","","null","","","","FIX","","<div class='trialBorder'><div class='vertical-center'><img style='vertical-align:center; align:center' src=img/fixation3.jpg></div></div>","null","","","","","",""
"html-keyboard-response","11","17262","0.0-5.0-2.2","6127e94c6abf253c484b38b7","bdp_rd","Mon Apr 10 2023 13:19:03 GMT-0500 (Central Daylight Time)","88046","","928","","","","offer","","<div class='trialBorder'><div class='vertical-center'><img style='vertical-align:center; align:center' src=img/fixation3.jpg></div><div class='cl'><div class='vertical-center'>$51<br>with a<br>50% chance</div></div><div class='cr'><div class='vertical-center'>$19<br>for<br>sure</div></div><div class='respDivL'><div class='vertical-center'>(E)</div></div><div class='respDivR'><div class='vertical-center'>(I)</div></div></div>","E","$19","$51","1","19","51","RISKY"
"html-keyboard-response","12","17518","0.0-5.0-3.2","6127e94c6abf253c484b38b7","bdp_rd","Mon Apr 10 2023 13:19:03 GMT-0500 (Central Daylight Time)","88046","","null","","","","offerFB","","<div class='trialBorder'><div class='vertical-center'><img style='vertical-align:center; align:center' src=img/fixation3.jpg></div><div class='cl'><div class='vertical-center'><font style='color:orange'>$51<br>with a<br>50% chance</font></div></div><div class='cr'><div class='vertical-center'>$19<br>for<br>sure</div></div><div class='respDivL'><div class='vertical-center'><font style='color:orange'>(E)</font></div></div><div class='respDivR'><div class='vertical-center'>(I)</div></div></div>","null","$19","$51","1","19","51",""
"html-keyboard-response","13","18022","0.0-5.0-1.3","6127e94c6abf253c484b38b7","bdp_rd","Mon Apr 10 2023 13:19:03 GMT-0500 (Central Daylight Time)","88046","","null","","","","FIX","","<div class='trialBorder'><div class='vertical-center'><img style='vertical-align:center; align:center' src=img/fixation3.jpg></div></div>","null","","","","","",""
"html-keyboard-response","14","18792","0.0-5.0-2.3","6127e94c6abf253c484b38b7","bdp_rd","Mon Apr 10 2023 13:19:03 GMT-0500 (Central Daylight Time)","88046","","768","","","","offer","","<div class='trialBorder'><div class='vertical-center'><img style='vertical-align:center; align:center' src=img/fixation3.jpg></div><div class='cl'><div class='vertical-center'>$34<br>with a<br>50% chance</div></div><div class='cr'><div class='vertical-center'>$15<br>for<br>sure</div></div><div class='respDivL'><div class='vertical-center'>(E)</div></div><div class='respDivR'><div class='vertical-center'>(I)</div></div></div>","E","$15","$34","1","15","34","RISKY"
"html-keyboard-response","15","19046","0.0-5.0-3.3","6127e94c6abf253c484b38b7","bdp_rd","Mon Apr 10 2023 13:19:03 GMT-0500 (Central Daylight Time)","88046","","null","","","","offerFB","","<div class='trialBorder'><div class='vertical-center'><img style='vertical-align:center; align:center' src=img/fixation3.jpg></div><div class='cl'><div class='vertical-center'><font style='color:orange'>$34<br>with a<br>50% chance</font></div></div><div class='cr'><div class='vertical-center'>$15<br>for<br>sure</div></div><div class='respDivL'><div class='vertical-center'><font style='color:orange'>(E)</font></div></div><div class='respDivR'><div class='vertical-center'>(I)</div></div></div>","null","$15","$34","1","15","34",""
"html-keyboard-response","16","19550","0.0-5.0-1.4","6127e94c6abf253c484b38b7","bdp_rd","Mon Apr 10 2023 13:19:03 GMT-0500 (Central Daylight Time)","88046","","null","","","","FIX","","<div class='trialBorder'><div class='vertical-center'><img style='vertical-align:center; align:center' src=img/fixation3.jpg></div></div>","null","","","","","",""
"html-keyboard-response","17","20135","0.0-5.0-2.4","6127e94c6abf253c484b38b7","bdp_rd","Mon Apr 10 2023 13:19:03 GMT-0500 (Central Daylight Time)","88046","","584","","","","offer","","<div class='trialBorder'><div class='vertical-center'><img style='vertical-align:center; align:center' src=img/fixation3.jpg></div><div class='cl'><div class='vertical-center'>$26<br>with a<br>50% chance</div></div><div class='cr'><div class='vertical-center'>$11<br>for<br>sure</div></div><div class='respDivL'><div class='vertical-center'>(E)</div></div><div class='respDivR'><div class='vertical-center'>(I)</div></div></div>","E","$11","$26","1","11","26","RISKY"
"html-keyboard-response","18","20390","0.0-5.0-3.4","6127e94c6abf253c484b38b7","bdp_rd","Mon Apr 10 2023 13:19:03 GMT-0500 (Central Daylight Time)","88046","","null","","","","offerFB","","<div class='trialBorder'><div class='vertical-center'><img style='vertical-align:center; align:center' src=img/fixation3.jpg></div><div class='cl'><div class='vertical-center'><font style='color:orange'>$26<br>with a<br>50% chance</font></div></div><div class='cr'><div class='vertical-center'>$11<br>for<br>sure</div></div><div class='respDivL'><div class='vertical-center'><font style='color:orange'>(E)</font></div></div><div class='respDivR'><div class='vertical-center'>(I)</div></div></div>","null","$11","$26","1","11","26",""
"html-keyboard-response","19","20894","0.0-5.0-1.5","6127e94c6abf253c484b38b7","bdp_rd","Mon Apr 10 2023 13:19:03 GMT-0500 (Central Daylight Time)","88046","","null","","","","FIX","","<div class='trialBorder'><div class='vertical-center'><img style='vertical-align:center; align:center' src=img/fixation3.jpg></div></div>","null","","","","","",""
"html-keyboard-response","20","21420","0.0-5.0-2.5","6127e94c6abf253c484b38b7","bdp_rd","Mon Apr 10 2023 13:19:03 GMT-0500 (Central Daylight Time)","88046","","525","","","","offer","","<div class='trialBorder'><div class='vertical-center'><img style='vertical-align:center; align:center' src=img/fixation3.jpg></div><div class='cl'><div class='vertical-center'>$16<br>for<br>sure</div></div><div class='cr'><div class='vertical-center'>$28<br>with a<br>50% chance</div></div><div class='respDivL'><div class='vertical-center'>(E)</div></div><div class='respDivR'><div class='vertical-center'>(I)</div></div></div>","I","$16","$28","0","16","28","RISKY"
"html-keyboard-response","21","21678","0.0-5.0-3.5","6127e94c6abf253c484b38b7","bdp_rd","Mon Apr 10 2023 13:19:03 GMT-0500 (Central Daylight Time)","88046","","null","","","","offerFB","","<div class='trialBorder'><div class='vertical-center'><img style='vertical-align:center; align:center' src=img/fixation3.jpg></div><div class='cl'><div class='vertical-center'>$16<br>for<br>sure</div></div><div class='cr'><div class='vertical-center'><font style='color:orange'>$28<br>with a<br>50% chance</font></div></div><div class='respDivL'><div class='vertical-center'>(E)</div></div><div class='respDivR'><div class='vertical-center'><font style='color:orange'>(I)</font></div></div></div>","null","$16","$28","0","16","28",""
"html-keyboard-response","22","22182","0.0-5.0-1.6","6127e94c6abf253c484b38b7","bdp_rd","Mon Apr 10 2023 13:19:03 GMT-0500 (Central Daylight Time)","88046","","null","","","","FIX","","<div class='trialBorder'><div class='vertical-center'><img style='vertical-align:center; align:center' src=img/fixation3.jpg></div></div>","null","","","","","",""
"html-keyboard-response","23","23467","0.0-5.0-2.6","6127e94c6abf253c484b38b7","bdp_rd","Mon Apr 10 2023 13:19:03 GMT-0500 (Central Daylight Time)","88046","","1284","","","","offer","","<div class='trialBorder'><div class='vertical-center'><img style='vertical-align:center; align:center' src=img/fixation3.jpg></div><div class='cl'><div class='vertical-center'>$42<br>for<br>sure</div></div><div class='cr'><div class='vertical-center'>$73<br>with a<br>50% chance</div></div><div class='respDivL'><div class='vertical-center'>(E)</div></div><div class='respDivR'><div class='vertical-center'>(I)</div></div></div>","I","$42","$73","0","42","73","RISKY"
"html-keyboard-response","24","23726","0.0-5.0-3.6","6127e94c6abf253c484b38b7","bdp_rd","Mon Apr 10 2023 13:19:03 GMT-0500 (Central Daylight Time)","88046","","null","","","","offerFB","","<div class='trialBorder'><div class='vertical-center'><img style='vertical-align:center; align:center' src=img/fixation3.jpg></div><div class='cl'><div class='vertical-center'>$42<br>for<br>sure</div></div><div class='cr'><div class='vertical-center'><font style='color:orange'>$73<br>with a<br>50% chance</font></div></div><div class='respDivL'><div class='vertical-center'>(E)</div></div><div class='respDivR'><div class='vertical-center'><font style='color:orange'>(I)</font></div></div></div>","null","$42","$73","0","42","73",""
"html-keyboard-response","25","24230","0.0-5.0-1.7","6127e94c6abf253c484b38b7","bdp_rd","Mon Apr 10 2023 13:19:03 GMT-0500 (Central Daylight Time)","88046","","null","","","","FIX","","<div class='trialBorder'><div class='vertical-center'><img style='vertical-align:center; align:center' src=img/fixation3.jpg></div></div>","null","","","","","",""
"html-keyboard-response","26","24951","0.0-5.0-2.7","6127e94c6abf253c484b38b7","bdp_rd","Mon Apr 10 2023 13:19:03 GMT-0500 (Central Daylight Time)","88046","","719","","","","offer","","<div class='trialBorder'><div class='vertical-center'><img style='vertical-align:center; align:center' src=img/fixation3.jpg></div><div class='cl'><div class='vertical-center'>$20<br>for<br>sure</div></div><div class='cr'><div class='vertical-center'>$80<br>with a<br>50% chance</div></div><div class='respDivL'><div class='vertical-center'>(E)</div></div><div class='respDivR'><div class='vertical-center'>(I)</div></div></div>","I","$20","$80","0","20","80","RISKY"
"html-keyboard-response","27","25206","0.0-5.0-3.7","6127e94c6abf253c484b38b7","bdp_rd","Mon Apr 10 2023 13:19:03 GMT-0500 (Central Daylight Time)","88046","","null","","","","offerFB","","<div class='trialBorder'><div class='vertical-center'><img style='vertical-align:center; align:center' src=img/fixation3.jpg></div><div class='cl'><div class='vertical-center'>$20<br>for<br>sure</div></div><div class='cr'><div class='vertical-center'><font style='color:orange'>$80<br>with a<br>50% chance</font></div></div><div class='respDivL'><div class='vertical-center'>(E)</div></div><div class='respDivR'><div class='vertical-center'><font style='color:orange'>(I)</font></div></div></div>","null","$20","$80","0","20","80",""
"html-keyboard-response","28","25710","0.0-5.0-1.8","6127e94c6abf253c484b38b7","bdp_rd","Mon Apr 10 2023 13:19:03 GMT-0500 (Central Daylight Time)","88046","","null","","","","FIX","","<div class='trialBorder'><div class='vertical-center'><img style='vertical-align:center; align:center' src=img/fixation3.jpg></div></div>","null","","","","","",""
"html-keyboard-response","29","27072","0.0-5.0-2.8","6127e94c6abf253c484b38b7","bdp_rd","Mon Apr 10 2023 13:19:03 GMT-0500 (Central Daylight Time)","88046","","1360","","","","offer","","<div class='trialBorder'><div class='vertical-center'><img style='vertical-align:center; align:center' src=img/fixation3.jpg></div><div class='cl'><div class='vertical-center'>$37<br>with a<br>50% chance</div></div><div class='cr'><div class='vertical-center'>$20<br>for<br>sure</div></div><div class='respDivL'><div class='vertical-center'>(E)</div></div><div class='respDivR'><div class='vertical-center'>(I)</div></div></div>","E","$20","$37","1","20","37","RISKY"
"html-keyboard-response","30","27325","0.0-5.0-3.8","6127e94c6abf253c484b38b7","bdp_rd","Mon Apr 10 2023 13:19:03 GMT-0500 (Central Daylight Time)","88046","","null","","","","offerFB","","<div class='trialBorder'><div class='vertical-center'><img style='vertical-align:center; align:center' src=img/fixation3.jpg></div><div class='cl'><div class='vertical-center'><font style='color:orange'>$37<br>with a<br>50% chance</font></div></div><div class='cr'><div class='vertical-center'>$20<br>for<br>sure</div></div><div class='respDivL'><div class='vertical-center'><font style='color:orange'>(E)</font></div></div><div class='respDivR'><div class='vertical-center'>(I)</div></div></div>","null","$20","$37","1","20","37",""
"html-keyboard-response","31","27830","0.0-5.0-1.9","6127e94c6abf253c484b38b7","bdp_rd","Mon Apr 10 2023 13:19:03 GMT-0500 (Central Daylight Time)","88046","","null","","","","FIX","","<div class='trialBorder'><div class='vertical-center'><img style='vertical-align:center; align:center' src=img/fixation3.jpg></div></div>","null","","","","","",""
"html-keyboard-response","32","28285","0.0-5.0-2.9","6127e94c6abf253c484b38b7","bdp_rd","Mon Apr 10 2023 13:19:03 GMT-0500 (Central Daylight Time)","88046","","453","","","","offer","","<div class='trialBorder'><div class='vertical-center'><img style='vertical-align:center; align:center' src=img/fixation3.jpg></div><div class='cl'><div class='vertical-center'>$42<br>with a<br>50% chance</div></div><div class='cr'><div class='vertical-center'>$22<br>for<br>sure</div></div><div class='respDivL'><div class='vertical-center'>(E)</div></div><div class='respDivR'><div class='vertical-center'>(I)</div></div></div>","E","$22","$42","1","22","42","RISKY"
"html-keyboard-response","33","28542","0.0-5.0-3.9","6127e94c6abf253c484b38b7","bdp_rd","Mon Apr 10 2023 13:19:03 GMT-0500 (Central Daylight Time)","88046","","null","","","","offerFB","","<div class='trialBorder'><div class='vertical-center'><img style='vertical-align:center; align:center' src=img/fixation3.jpg></div><div class='cl'><div class='vertical-center'><font style='color:orange'>$42<br>with a<br>50% chance</font></div></div><div class='cr'><div class='vertical-center'>$22<br>for<br>sure</div></div><div class='respDivL'><div class='vertical-center'><font style='color:orange'>(E)</font></div></div><div class='respDivR'><div class='vertical-center'>(I)</div></div></div>","null","$22","$42","1","22","42",""
"html-keyboard-response","34","29046","0.0-5.0-1.10","6127e94c6abf253c484b38b7","bdp_rd","Mon Apr 10 2023 13:19:03 GMT-0500 (Central Daylight Time)","88046","","null","","","","FIX","","<div class='trialBorder'><div class='vertical-center'><img style='vertical-align:center; align:center' src=img/fixation3.jpg></div></div>","null","","","","","",""
"html-keyboard-response","35","29579","0.0-5.0-2.10","6127e94c6abf253c484b38b7","bdp_rd","Mon Apr 10 2023 13:19:03 GMT-0500 (Central Daylight Time)","88046","","532","","","","offer","","<div class='trialBorder'><div class='vertical-center'><img style='vertical-align:center; align:center' src=img/fixation3.jpg></div><div class='cl'><div class='vertical-center'>$40<br>for<br>sure</div></div><div class='cr'><div class='vertical-center'>$95<br>with a<br>50% chance</div></div><div class='respDivL'><div class='vertical-center'>(E)</div></div><div class='respDivR'><div class='vertical-center'>(I)</div></div></div>","I","$40","$95","0","40","95","RISKY"
"html-keyboard-response","36","29838","0.0-5.0-3.10","6127e94c6abf253c484b38b7","bdp_rd","Mon Apr 10 2023 13:19:03 GMT-0500 (Central Daylight Time)","88046","","null","","","","offerFB","","<div class='trialBorder'><div class='vertical-center'><img style='vertical-align:center; align:center' src=img/fixation3.jpg></div><div class='cl'><div class='vertical-center'>$40<br>for<br>sure</div></div><div class='cr'><div class='vertical-center'><font style='color:orange'>$95<br>with a<br>50% chance</font></div></div><div class='respDivL'><div class='vertical-center'>(E)</div></div><div class='respDivR'><div class='vertical-center'><font style='color:orange'>(I)</font></div></div></div>","null","$40","$95","0","40","95",""
"html-keyboard-response","37","30342","0.0-5.0-1.11","6127e94c6abf253c484b38b7","bdp_rd","Mon Apr 10 2023 13:19:03 GMT-0500 (Central Daylight Time)","88046","","null","","","","FIX","","<div class='trialBorder'><div class='vertical-center'><img style='vertical-align:center; align:center' src=img/fixation3.jpg></div></div>","null","","","","","",""
"html-keyboard-response","38","30974","0.0-5.0-2.11","6127e94c6abf253c484b38b7","bdp_rd","Mon Apr 10 2023 13:19:03 GMT-0500 (Central Daylight Time)","88046","","630","","","","offer","","<div class='trialBorder'><div class='vertical-center'><img style='vertical-align:center; align:center' src=img/fixation3.jpg></div><div class='cl'><div class='vertical-center'>$30<br>for<br>sure</div></div><div class='cr'><div class='vertical-center'>$68<br>with a<br>50% chance</div></div><div class='respDivL'><div class='vertical-center'>(E)</div></div><div class='respDivR'><div class='vertical-center'>(I)</div></div></div>","I","$30","$68","0","30","68","RISKY"
"html-keyboard-response","39","31229","0.0-5.0-3.11","6127e94c6abf253c484b38b7","bdp_rd","Mon Apr 10 2023 13:19:03 GMT-0500 (Central Daylight Time)","88046","","null","","","","offerFB","","<div class='trialBorder'><div class='vertical-center'><img style='vertical-align:center; align:center' src=img/fixation3.jpg></div><div class='cl'><div class='vertical-center'>$30<br>for<br>sure</div></div><div class='cr'><div class='vertical-center'><font style='color:orange'>$68<br>with a<br>50% chance</font></div></div><div class='respDivL'><div class='vertical-center'>(E)</div></div><div class='respDivR'><div class='vertical-center'><font style='color:orange'>(I)</font></div></div></div>","null","$30","$68","0","30","68",""
"html-keyboard-response","40","31734","0.0-5.0-1.12","6127e94c6abf253c484b38b7","bdp_rd","Mon Apr 10 2023 13:19:03 GMT-0500 (Central Daylight Time)","88046","","null","","","","FIX","","<div class='trialBorder'><div class='vertical-center'><img style='vertical-align:center; align:center' src=img/fixation3.jpg></div></div>","null","","","","","",""
"html-keyboard-response","41","32371","0.0-5.0-2.12","6127e94c6abf253c484b38b7","bdp_rd","Mon Apr 10 2023 13:19:03 GMT-0500 (Central Daylight Time)","88046","","637","","","","offer","","<div class='trialBorder'><div class='vertical-center'><img style='vertical-align:center; align:center' src=img/fixation3.jpg></div><div class='cl'><div class='vertical-center'>$3<br>for<br>sure</div></div><div class='cr'><div class='vertical-center'>$12<br>with a<br>50% chance</div></div><div class='respDivL'><div class='vertical-center'>(E)</div></div><div class='respDivR'><div class='vertical-center'>(I)</div></div></div>","E","$3","$12","0","3","12","SURE"
"html-keyboard-response","42","32630","0.0-5.0-3.12","6127e94c6abf253c484b38b7","bdp_rd","Mon Apr 10 2023 13:19:03 GMT-0500 (Central Daylight Time)","88046","","null","","","","offerFB","","<div class='trialBorder'><div class='vertical-center'><img style='vertical-align:center; align:center' src=img/fixation3.jpg></div><div class='cl'><div class='vertical-center'><font style='color:orange'>$3<br>for<br>sure</font></div></div><div class='cr'><div class='vertical-center'>$12<br>with a<br>50% chance</div></div><div class='respDivL'><div class='vertical-center'><font style='color:orange'>(E)</font></div></div><div class='respDivR'><div class='vertical-center'>(I)</div></div></div>","null","$3","$12","0","3","12",""
"html-keyboard-response","43","33133","0.0-5.0-1.13","6127e94c6abf253c484b38b7","bdp_rd","Mon Apr 10 2023 13:19:03 GMT-0500 (Central Daylight Time)","88046","","null","","","","FIX","","<div class='trialBorder'><div class='vertical-center'><img style='vertical-align:center; align:center' src=img/fixation3.jpg></div></div>","null","","","","","",""
"html-keyboard-response","44","34021","0.0-5.0-2.13","6127e94c6abf253c484b38b7","bdp_rd","Mon Apr 10 2023 13:19:03 GMT-0500 (Central Daylight Time)","88046","","887","","","","offer","","<div class='trialBorder'><div class='vertical-center'><img style='vertical-align:center; align:center' src=img/fixation3.jpg></div><div class='cl'><div class='vertical-center'>$13<br>for<br>sure</div></div><div class='cr'><div class='vertical-center'>$24<br>with a<br>50% chance</div></div><div class='respDivL'><div class='vertical-center'>(E)</div></div><div class='respDivR'><div class='vertical-center'>(I)</div></div></div>","I","$13","$24","0","13","24","RISKY"
"html-keyboard-response","45","34278","0.0-5.0-3.13","6127e94c6abf253c484b38b7","bdp_rd","Mon Apr 10 2023 13:19:03 GMT-0500 (Central Daylight Time)","88046","","null","","","","offerFB","","<div class='trialBorder'><div class='vertical-center'><img style='vertical-align:center; align:center' src=img/fixation3.jpg></div><div class='cl'><div class='vertical-center'>$13<br>for<br>sure</div></div><div class='cr'><div class='vertical-center'><font style='color:orange'>$24<br>with a<br>50% chance</font></div></div><div class='respDivL'><div class='vertical-center'>(E)</div></div><div class='respDivR'><div class='vertical-center'><font style='color:orange'>(I)</font></div></div></div>","null","$13","$24","0","13","24",""
"html-keyboard-response","46","34782","0.0-5.0-1.14","6127e94c6abf253c484b38b7","bdp_rd","Mon Apr 10 2023 13:19:03 GMT-0500 (Central Daylight Time)","88046","","null","","","","FIX","","<div class='trialBorder'><div class='vertical-center'><img style='vertical-align:center; align:center' src=img/fixation3.jpg></div></div>","null","","","","","",""
"html-keyboard-response","47","35564","0.0-5.0-2.14","6127e94c6abf253c484b38b7","bdp_rd","Mon Apr 10 2023 13:19:03 GMT-0500 (Central Daylight Time)","88046","","781","","","","offer","","<div class='trialBorder'><div class='vertical-center'><img style='vertical-align:center; align:center' src=img/fixation3.jpg></div><div class='cl'><div class='vertical-center'>$25<br>for<br>sure</div></div><div class='cr'><div class='vertical-center'>$54<br>with a<br>50% chance</div></div><div class='respDivL'><div class='vertical-center'>(E)</div></div><div class='respDivR'><div class='vertical-center'>(I)</div></div></div>","I","$25","$54","0","25","54","RISKY"
"html-keyboard-response","48","35822","0.0-5.0-3.14","6127e94c6abf253c484b38b7","bdp_rd","Mon Apr 10 2023 13:19:03 GMT-0500 (Central Daylight Time)","88046","","null","","","","offerFB","","<div class='trialBorder'><div class='vertical-center'><img style='vertical-align:center; align:center' src=img/fixation3.jpg></div><div class='cl'><div class='vertical-center'>$25<br>for<br>sure</div></div><div class='cr'><div class='vertical-center'><font style='color:orange'>$54<br>with a<br>50% chance</font></div></div><div class='respDivL'><div class='vertical-center'>(E)</div></div><div class='respDivR'><div class='vertical-center'><font style='color:orange'>(I)</font></div></div></div>","null","$25","$54","0","25","54",""
"html-keyboard-response","49","36325","0.0-5.0-1.15","6127e94c6abf253c484b38b7","bdp_rd","Mon Apr 10 2023 13:19:03 GMT-0500 (Central Daylight Time)","88046","","null","","","","FIX","","<div class='trialBorder'><div class='vertical-center'><img style='vertical-align:center; align:center' src=img/fixation3.jpg></div></div>","null","","","","","",""
"html-keyboard-response","50","36822","0.0-5.0-2.15","6127e94c6abf253c484b38b7","bdp_rd","Mon Apr 10 2023 13:19:03 GMT-0500 (Central Daylight Time)","88046","","495","","","","offer","","<div class='trialBorder'><div class='vertical-center'><img style='vertical-align:center; align:center' src=img/fixation3.jpg></div><div class='cl'><div class='vertical-center'>$64<br>with a<br>50% chance</div></div><div class='cr'><div class='vertical-center'>$2<br>for<br>sure</div></div><div class='respDivL'><div class='vertical-center'>(E)</div></div><div class='respDivR'><div class='vertical-center'>(I)</div></div></div>","E","$2","$64","1","2","64","RISKY"
"html-keyboard-response","51","37078","0.0-5.0-3.15","6127e94c6abf253c484b38b7","bdp_rd","Mon Apr 10 2023 13:19:03 GMT-0500 (Central Daylight Time)","88046","","null","","","","offerFB","","<div class='trialBorder'><div class='vertical-center'><img style='vertical-align:center; align:center' src=img/fixation3.jpg></div><div class='cl'><div class='vertical-center'><font style='color:orange'>$64<br>with a<br>50% chance</font></div></div><div class='cr'><div class='vertical-center'>$2<br>for<br>sure</div></div><div class='respDivL'><div class='vertical-center'><font style='color:orange'>(E)</font></div></div><div class='respDivR'><div class='vertical-center'>(I)</div></div></div>","null","$2","$64","1","2","64",""
"html-keyboard-response","52","37582","0.0-5.0-1.16","6127e94c6abf253c484b38b7","bdp_rd","Mon Apr 10 2023 13:19:03 GMT-0500 (Central Daylight Time)","88046","","null","","","","FIX","","<div class='trialBorder'><div class='vertical-center'><img style='vertical-align:center; align:center' src=img/fixation3.jpg></div></div>","null","","","","","",""
"html-keyboard-response","53","38122","0.0-5.0-2.16","6127e94c6abf253c484b38b7","bdp_rd","Mon Apr 10 2023 13:19:03 GMT-0500 (Central Daylight Time)","88046","","539","","","","offer","","<div class='trialBorder'><div class='vertical-center'><img style='vertical-align:center; align:center' src=img/fixation3.jpg></div><div class='cl'><div class='vertical-center'>$59<br>with a<br>50% chance</div></div><div class='cr'><div class='vertical-center'>$22<br>for<br>sure</div></div><div class='respDivL'><div class='vertical-center'>(E)</div></div><div class='respDivR'><div class='vertical-center'>(I)</div></div></div>","E","$22","$59","1","22","59","RISKY"
"html-keyboard-response","54","38382","0.0-5.0-3.16","6127e94c6abf253c484b38b7","bdp_rd","Mon Apr 10 2023 13:19:03 GMT-0500 (Central Daylight Time)","88046","","null","","","","offerFB","","<div class='trialBorder'><div class='vertical-center'><img style='vertical-align:center; align:center' src=img/fixation3.jpg></div><div class='cl'><div class='vertical-center'><font style='color:orange'>$59<br>with a<br>50% chance</font></div></div><div class='cr'><div class='vertical-center'>$22<br>for<br>sure</div></div><div class='respDivL'><div class='vertical-center'><font style='color:orange'>(E)</font></div></div><div class='respDivR'><div class='vertical-center'>(I)</div></div></div>","null","$22","$59","1","22","59",""
"html-keyboard-response","55","38886","0.0-5.0-1.17","6127e94c6abf253c484b38b7","bdp_rd","Mon Apr 10 2023 13:19:03 GMT-0500 (Central Daylight Time)","88046","","null","","","","FIX","","<div class='trialBorder'><div class='vertical-center'><img style='vertical-align:center; align:center' src=img/fixation3.jpg></div></div>","null","","","","","",""
"html-keyboard-response","56","39341","0.0-5.0-2.17","6127e94c6abf253c484b38b7","bdp_rd","Mon Apr 10 2023 13:19:03 GMT-0500 (Central Daylight Time)","88046","","454","","","","offer","","<div class='trialBorder'><div class='vertical-center'><img style='vertical-align:center; align:center' src=img/fixation3.jpg></div><div class='cl'><div class='vertical-center'>$53<br>for<br>sure</div></div><div class='cr'><div class='vertical-center'>$98<br>with a<br>50% chance</div></div><div class='respDivL'><div class='vertical-center'>(E)</div></div><div class='respDivR'><div class='vertical-center'>(I)</div></div></div>","I","$53","$98","0","53","98","RISKY"
"html-keyboard-response","57","39598","0.0-5.0-3.17","6127e94c6abf253c484b38b7","bdp_rd","Mon Apr 10 2023 13:19:03 GMT-0500 (Central Daylight Time)","88046","","null","","","","offerFB","","<div class='trialBorder'><div class='vertical-center'><img style='vertical-align:center; align:center' src=img/fixation3.jpg></div><div class='cl'><div class='vertical-center'>$53<br>for<br>sure</div></div><div class='cr'><div class='vertical-center'><font style='color:orange'>$98<br>with a<br>50% chance</font></div></div><div class='respDivL'><div class='vertical-center'>(E)</div></div><div class='respDivR'><div class='vertical-center'><font style='color:orange'>(I)</font></div></div></div>","null","$53","$98","0","53","98",""
"html-keyboard-response","58","40102","0.0-5.0-1.18","6127e94c6abf253c484b38b7","bdp_rd","Mon Apr 10 2023 13:19:03 GMT-0500 (Central Daylight Time)","88046","","null","","","","FIX","","<div class='trialBorder'><div class='vertical-center'><img style='vertical-align:center; align:center' src=img/fixation3.jpg></div></div>","null","","","","","",""
"html-keyboard-response","59","40454","0.0-5.0-2.18","6127e94c6abf253c484b38b7","bdp_rd","Mon Apr 10 2023 13:19:03 GMT-0500 (Central Daylight Time)","88046","","350","","","","offer","","<div class='trialBorder'><div class='vertical-center'><img style='vertical-align:center; align:center' src=img/fixation3.jpg></div><div class='cl'><div class='vertical-center'>$6<br>for<br>sure</div></div><div class='cr'><div class='vertical-center'>$15<br>with a<br>50% chance</div></div><div class='respDivL'><div class='vertical-center'>(E)</div></div><div class='respDivR'><div class='vertical-center'>(I)</div></div></div>","I","$6","$15","0","6","15","RISKY"
"html-keyboard-response","60","40710","0.0-5.0-3.18","6127e94c6abf253c484b38b7","bdp_rd","Mon Apr 10 2023 13:19:03 GMT-0500 (Central Daylight Time)","88046","","null","","","","offerFB","","<div class='trialBorder'><div class='vertical-center'><img style='vertical-align:center; align:center' src=img/fixation3.jpg></div><div class='cl'><div class='vertical-center'>$6<br>for<br>sure</div></div><div class='cr'><div class='vertical-center'><font style='color:orange'>$15<br>with a<br>50% chance</font></div></div><div class='respDivL'><div class='vertical-center'>(E)</div></div><div class='respDivR'><div class='vertical-center'><font style='color:orange'>(I)</font></div></div></div>","null","$6","$15","0","6","15",""
"html-keyboard-response","61","41213","0.0-5.0-1.19","6127e94c6abf253c484b38b7","bdp_rd","Mon Apr 10 2023 13:19:03 GMT-0500 (Central Daylight Time)","88046","","null","","","","FIX","","<div class='trialBorder'><div class='vertical-center'><img style='vertical-align:center; align:center' src=img/fixation3.jpg></div></div>","null","","","","","",""
"html-keyboard-response","62","41570","0.0-5.0-2.19","6127e94c6abf253c484b38b7","bdp_rd","Mon Apr 10 2023 13:19:03 GMT-0500 (Central Daylight Time)","88046","","356","","","","offer","","<div class='trialBorder'><div class='vertical-center'><img style='vertical-align:center; align:center' src=img/fixation3.jpg></div><div class='cl'><div class='vertical-center'>$44<br>with a<br>50% chance</div></div><div class='cr'><div class='vertical-center'>$37<br>for<br>sure</div></div><div class='respDivL'><div class='vertical-center'>(E)</div></div><div class='respDivR'><div class='vertical-center'>(I)</div></div></div>","E","$37","$44","1","37","44","RISKY"
"html-keyboard-response","63","41830","0.0-5.0-3.19","6127e94c6abf253c484b38b7","bdp_rd","Mon Apr 10 2023 13:19:03 GMT-0500 (Central Daylight Time)","88046","","null","","","","offerFB","","<div class='trialBorder'><div class='vertical-center'><img style='vertical-align:center; align:center' src=img/fixation3.jpg></div><div class='cl'><div class='vertical-center'><font style='color:orange'>$44<br>with a<br>50% chance</font></div></div><div class='cr'><div class='vertical-center'>$37<br>for<br>sure</div></div><div class='respDivL'><div class='vertical-center'><font style='color:orange'>(E)</font></div></div><div class='respDivR'><div class='vertical-center'>(I)</div></div></div>","null","$37","$44","1","37","44",""
"html-keyboard-response","64","42334","0.0-5.0-1.20","6127e94c6abf253c484b38b7","bdp_rd","Mon Apr 10 2023 13:19:03 GMT-0500 (Central Daylight Time)","88046","","null","","","","FIX","","<div class='trialBorder'><div class='vertical-center'><img style='vertical-align:center; align:center' src=img/fixation3.jpg></div></div>","null","","","","","",""
"html-keyboard-response","65","42682","0.0-5.0-2.20","6127e94c6abf253c484b38b7","bdp_rd","Mon Apr 10 2023 13:19:03 GMT-0500 (Central Daylight Time)","88046","","347","","","","offer","","<div class='trialBorder'><div class='vertical-center'><img style='vertical-align:center; align:center' src=img/fixation3.jpg></div><div class='cl'><div class='vertical-center'>$86<br>with a<br>50% chance</div></div><div class='cr'><div class='vertical-center'>$45<br>for<br>sure</div></div><div class='respDivL'><div class='vertical-center'>(E)</div></div><div class='respDivR'><div class='vertical-center'>(I)</div></div></div>","E","$45","$86","1","45","86","RISKY"
"html-keyboard-response","66","42934","0.0-5.0-3.20","6127e94c6abf253c484b38b7","bdp_rd","Mon Apr 10 2023 13:19:03 GMT-0500 (Central Daylight Time)","88046","","null","","","","offerFB","","<div class='trialBorder'><div class='vertical-center'><img style='vertical-align:center; align:center' src=img/fixation3.jpg></div><div class='cl'><div class='vertical-center'><font style='color:orange'>$86<br>with a<br>50% chance</font></div></div><div class='cr'><div class='vertical-center'>$45<br>for<br>sure</div></div><div class='respDivL'><div class='vertical-center'><font style='color:orange'>(E)</font></div></div><div class='respDivR'><div class='vertical-center'>(I)</div></div></div>","null","$45","$86","1","45","86",""
"html-keyboard-response","67","43438","0.0-5.0-1.21","6127e94c6abf253c484b38b7","bdp_rd","Mon Apr 10 2023 13:19:03 GMT-0500 (Central Daylight Time)","88046","","null","","","","FIX","","<div class='trialBorder'><div class='vertical-center'><img style='vertical-align:center; align:center' src=img/fixation3.jpg></div></div>","null","","","","","",""
"html-keyboard-response","68","43782","0.0-5.0-2.21","6127e94c6abf253c484b38b7","bdp_rd","Mon Apr 10 2023 13:19:03 GMT-0500 (Central Daylight Time)","88046","","343","","","","offer","","<div class='trialBorder'><div class='vertical-center'><img style='vertical-align:center; align:center' src=img/fixation3.jpg></div><div class='cl'><div class='vertical-center'>$9<br>for<br>sure</div></div><div class='cr'><div class='vertical-center'>$18<br>with a<br>50% chance</div></div><div class='respDivL'><div class='vertical-center'>(E)</div></div><div class='respDivR'><div class='vertical-center'>(I)</div></div></div>","I","$9","$18","0","9","18","RISKY"
"html-keyboard-response","69","44038","0.0-5.0-3.21","6127e94c6abf253c484b38b7","bdp_rd","Mon Apr 10 2023 13:19:03 GMT-0500 (Central Daylight Time)","88046","","null","","","","offerFB","","<div class='trialBorder'><div class='vertical-center'><img style='vertical-align:center; align:center' src=img/fixation3.jpg></div><div class='cl'><div class='vertical-center'>$9<br>for<br>sure</div></div><div class='cr'><div class='vertical-center'><font style='color:orange'>$18<br>with a<br>50% chance</font></div></div><div class='respDivL'><div class='vertical-center'>(E)</div></div><div class='respDivR'><div class='vertical-center'><font style='color:orange'>(I)</font></div></div></div>","null","$9","$18","0","9","18",""
"html-keyboard-response","70","44541","0.0-5.0-1.22","6127e94c6abf253c484b38b7","bdp_rd","Mon Apr 10 2023 13:19:03 GMT-0500 (Central Daylight Time)","88046","","null","","","","FIX","","<div class='trialBorder'><div class='vertical-center'><img style='vertical-align:center; align:center' src=img/fixation3.jpg></div></div>","null","","","","","",""
"html-keyboard-response","71","44933","0.0-5.0-2.22","6127e94c6abf253c484b38b7","bdp_rd","Mon Apr 10 2023 13:19:03 GMT-0500 (Central Daylight Time)","88046","","391","","","","offer","","<div class='trialBorder'><div class='vertical-center'><img style='vertical-align:center; align:center' src=img/fixation3.jpg></div><div class='cl'><div class='vertical-center'>$81<br>with a<br>50% chance</div></div><div class='cr'><div class='vertical-center'>$39<br>for<br>sure</div></div><div class='respDivL'><div class='vertical-center'>(E)</div></div><div class='respDivR'><div class='vertical-center'>(I)</div></div></div>","E","$39","$81","1","39","81","RISKY"
"html-keyboard-response","72","45190","0.0-5.0-3.22","6127e94c6abf253c484b38b7","bdp_rd","Mon Apr 10 2023 13:19:03 GMT-0500 (Central Daylight Time)","88046","","null","","","","offerFB","","<div class='trialBorder'><div class='vertical-center'><img style='vertical-align:center; align:center' src=img/fixation3.jpg></div><div class='cl'><div class='vertical-center'><font style='color:orange'>$81<br>with a<br>50% chance</font></div></div><div class='cr'><div class='vertical-center'>$39<br>for<br>sure</div></div><div class='respDivL'><div class='vertical-center'><font style='color:orange'>(E)</font></div></div><div class='respDivR'><div class='vertical-center'>(I)</div></div></div>","null","$39","$81","1","39","81",""
"html-keyboard-response","73","45693","0.0-5.0-1.23","6127e94c6abf253c484b38b7","bdp_rd","Mon Apr 10 2023 13:19:03 GMT-0500 (Central Daylight Time)","88046","","null","","","","FIX","","<div class='trialBorder'><div class='vertical-center'><img style='vertical-align:center; align:center' src=img/fixation3.jpg></div></div>","null","","","","","",""
"html-keyboard-response","74","46092","0.0-5.0-2.23","6127e94c6abf253c484b38b7","bdp_rd","Mon Apr 10 2023 13:19:03 GMT-0500 (Central Daylight Time)","88046","","398","","","","offer","","<div class='trialBorder'><div class='vertical-center'><img style='vertical-align:center; align:center' src=img/fixation3.jpg></div><div class='cl'><div class='vertical-center'>$92<br>with a<br>50% chance</div></div><div class='cr'><div class='vertical-center'>$26<br>for<br>sure</div></div><div class='respDivL'><div class='vertical-center'>(E)</div></div><div class='respDivR'><div class='vertical-center'>(I)</div></div></div>","E","$26","$92","1","26","92","RISKY"
"html-keyboard-response","75","46350","0.0-5.0-3.23","6127e94c6abf253c484b38b7","bdp_rd","Mon Apr 10 2023 13:19:03 GMT-0500 (Central Daylight Time)","88046","","null","","","","offerFB","","<div class='trialBorder'><div class='vertical-center'><img style='vertical-align:center; align:center' src=img/fixation3.jpg></div><div class='cl'><div class='vertical-center'><font style='color:orange'>$92<br>with a<br>50% chance</font></div></div><div class='cr'><div class='vertical-center'>$26<br>for<br>sure</div></div><div class='respDivL'><div class='vertical-center'><font style='color:orange'>(E)</font></div></div><div class='respDivR'><div class='vertical-center'>(I)</div></div></div>","null","$26","$92","1","26","92",""
"html-keyboard-response","76","46854","0.0-5.0-1.24","6127e94c6abf253c484b38b7","bdp_rd","Mon Apr 10 2023 13:19:03 GMT-0500 (Central Daylight Time)","88046","","null","","","","FIX","","<div class='trialBorder'><div class='vertical-center'><img style='vertical-align:center; align:center' src=img/fixation3.jpg></div></div>","null","","","","","",""
"html-keyboard-response","77","47248","0.0-5.0-2.24","6127e94c6abf253c484b38b7","bdp_rd","Mon Apr 10 2023 13:19:03 GMT-0500 (Central Daylight Time)","88046","","393","","","","offer","","<div class='trialBorder'><div class='vertical-center'><img style='vertical-align:center; align:center' src=img/fixation3.jpg></div><div class='cl'><div class='vertical-center'>$4<br>for<br>sure</div></div><div class='cr'><div class='vertical-center'>$11<br>with a<br>50% chance</div></div><div class='respDivL'><div class='vertical-center'>(E)</div></div><div class='respDivR'><div class='vertical-center'>(I)</div></div></div>","I","$4","$11","0","4","11","RISKY"
"html-keyboard-response","78","47502","0.0-5.0-3.24","6127e94c6abf253c484b38b7","bdp_rd","Mon Apr 10 2023 13:19:03 GMT-0500 (Central Daylight Time)","88046","","null","","","","offerFB","","<div class='trialBorder'><div class='vertical-center'><img style='vertical-align:center; align:center' src=img/fixation3.jpg></div><div class='cl'><div class='vertical-center'>$4<br>for<br>sure</div></div><div class='cr'><div class='vertical-center'><font style='color:orange'>$11<br>with a<br>50% chance</font></div></div><div class='respDivL'><div class='vertical-center'>(E)</div></div><div class='respDivR'><div class='vertical-center'><font style='color:orange'>(I)</font></div></div></div>","null","$4","$11","0","4","11",""
"html-keyboard-response","79","48006","0.0-5.0-1.25","6127e94c6abf253c484b38b7","bdp_rd","Mon Apr 10 2023 13:19:03 GMT-0500 (Central Daylight Time)","88046","","null","","","","FIX","","<div class='trialBorder'><div class='vertical-center'><img style='vertical-align:center; align:center' src=img/fixation3.jpg></div></div>","null","","","","","",""
"html-keyboard-response","80","48499","0.0-5.0-2.25","6127e94c6abf253c484b38b7","bdp_rd","Mon Apr 10 2023 13:19:03 GMT-0500 (Central Daylight Time)","88046","","491","","","","offer","","<div class='trialBorder'><div class='vertical-center'><img style='vertical-align:center; align:center' src=img/fixation3.jpg></div><div class='cl'><div class='vertical-center'>$21<br>for<br>sure</div></div><div class='cr'><div class='vertical-center'>$25<br>with a<br>50% chance</div></div><div class='respDivL'><div class='vertical-center'>(E)</div></div><div class='respDivR'><div class='vertical-center'>(I)</div></div></div>","I","$21","$25","0","21","25","RISKY"
"html-keyboard-response","81","48757","0.0-5.0-3.25","6127e94c6abf253c484b38b7","bdp_rd","Mon Apr 10 2023 13:19:03 GMT-0500 (Central Daylight Time)","88046","","null","","","","offerFB","","<div class='trialBorder'><div class='vertical-center'><img style='vertical-align:center; align:center' src=img/fixation3.jpg></div><div class='cl'><div class='vertical-center'>$21<br>for<br>sure</div></div><div class='cr'><div class='vertical-center'><font style='color:orange'>$25<br>with a<br>50% chance</font></div></div><div class='respDivL'><div class='vertical-center'>(E)</div></div><div class='respDivR'><div class='vertical-center'><font style='color:orange'>(I)</font></div></div></div>","null","$21","$25","0","21","25",""
"html-keyboard-response","82","49262","0.0-5.0-1.26","6127e94c6abf253c484b38b7","bdp_rd","Mon Apr 10 2023 13:19:03 GMT-0500 (Central Daylight Time)","88046","","null","","","","FIX","","<div class='trialBorder'><div class='vertical-center'><img style='vertical-align:center; align:center' src=img/fixation3.jpg></div></div>","null","","","","","",""
"html-keyboard-response","83","49762","0.0-5.0-2.26","6127e94c6abf253c484b38b7","bdp_rd","Mon Apr 10 2023 13:19:03 GMT-0500 (Central Daylight Time)","88046","","499","","","","offer","","<div class='trialBorder'><div class='vertical-center'><img style='vertical-align:center; align:center' src=img/fixation3.jpg></div><div class='cl'><div class='vertical-center'>$33<br>for<br>sure</div></div><div class='cr'><div class='vertical-center'>$66<br>with a<br>50% chance</div></div><div class='respDivL'><div class='vertical-center'>(E)</div></div><div class='respDivR'><div class='vertical-center'>(I)</div></div></div>","I","$33","$66","0","33","66","RISKY"
"html-keyboard-response","84","50013","0.0-5.0-3.26","6127e94c6abf253c484b38b7","bdp_rd","Mon Apr 10 2023 13:19:03 GMT-0500 (Central Daylight Time)","88046","","null","","","","offerFB","","<div class='trialBorder'><div class='vertical-center'><img style='vertical-align:center; align:center' src=img/fixation3.jpg></div><div class='cl'><div class='vertical-center'>$33<br>for<br>sure</div></div><div class='cr'><div class='vertical-center'><font style='color:orange'>$66<br>with a<br>50% chance</font></div></div><div class='respDivL'><div class='vertical-center'>(E)</div></div><div class='respDivR'><div class='vertical-center'><font style='color:orange'>(I)</font></div></div></div>","null","$33","$66","0","33","66",""
"html-keyboard-response","85","50518","0.0-5.0-1.27","6127e94c6abf253c484b38b7","bdp_rd","Mon Apr 10 2023 13:19:03 GMT-0500 (Central Daylight Time)","88046","","null","","","","FIX","","<div class='trialBorder'><div class='vertical-center'><img style='vertical-align:center; align:center' src=img/fixation3.jpg></div></div>","null","","","","","",""
"html-keyboard-response","86","50906","0.0-5.0-2.27","6127e94c6abf253c484b38b7","bdp_rd","Mon Apr 10 2023 13:19:03 GMT-0500 (Central Daylight Time)","88046","","387","","","","offer","","<div class='trialBorder'><div class='vertical-center'><img style='vertical-align:center; align:center' src=img/fixation3.jpg></div><div class='cl'><div class='vertical-center'>$65<br>with a<br>50% chance</div></div><div class='cr'><div class='vertical-center'>$46<br>for<br>sure</div></div><div class='respDivL'><div class='vertical-center'>(E)</div></div><div class='respDivR'><div class='vertical-center'>(I)</div></div></div>","E","$46","$65","1","46","65","RISKY"
"html-keyboard-response","87","51166","0.0-5.0-3.27","6127e94c6abf253c484b38b7","bdp_rd","Mon Apr 10 2023 13:19:03 GMT-0500 (Central Daylight Time)","88046","","null","","","","offerFB","","<div class='trialBorder'><div class='vertical-center'><img style='vertical-align:center; align:center' src=img/fixation3.jpg></div><div class='cl'><div class='vertical-center'><font style='color:orange'>$65<br>with a<br>50% chance</font></div></div><div class='cr'><div class='vertical-center'>$46<br>for<br>sure</div></div><div class='respDivL'><div class='vertical-center'><font style='color:orange'>(E)</font></div></div><div class='respDivR'><div class='vertical-center'>(I)</div></div></div>","null","$46","$65","1","46","65",""
"html-keyboard-response","88","51670","0.0-5.0-1.28","6127e94c6abf253c484b38b7","bdp_rd","Mon Apr 10 2023 13:19:03 GMT-0500 (Central Daylight Time)","88046","","null","","","","FIX","","<div class='trialBorder'><div class='vertical-center'><img style='vertical-align:center; align:center' src=img/fixation3.jpg></div></div>","null","","","","","",""
"html-keyboard-response","89","52042","0.0-5.0-2.28","6127e94c6abf253c484b38b7","bdp_rd","Mon Apr 10 2023 13:19:03 GMT-0500 (Central Daylight Time)","88046","","371","","","","offer","","<div class='trialBorder'><div class='vertical-center'><img style='vertical-align:center; align:center' src=img/fixation3.jpg></div><div class='cl'><div class='vertical-center'>$10<br>for<br>sure</div></div><div class='cr'><div class='vertical-center'>$19<br>with a<br>50% chance</div></div><div class='respDivL'><div class='vertical-center'>(E)</div></div><div class='respDivR'><div class='vertical-center'>(I)</div></div></div>","I","$10","$19","0","10","19","RISKY"
"html-keyboard-response","90","52294","0.0-5.0-3.28","6127e94c6abf253c484b38b7","bdp_rd","Mon Apr 10 2023 13:19:03 GMT-0500 (Central Daylight Time)","88046","","null","","","","offerFB","","<div class='trialBorder'><div class='vertical-center'><img style='vertical-align:center; align:center' src=img/fixation3.jpg></div><div class='cl'><div class='vertical-center'>$10<br>for<br>sure</div></div><div class='cr'><div class='vertical-center'><font style='color:orange'>$19<br>with a<br>50% chance</font></div></div><div class='respDivL'><div class='vertical-center'>(E)</div></div><div class='respDivR'><div class='vertical-center'><font style='color:orange'>(I)</font></div></div></div>","null","$10","$19","0","10","19",""
"html-keyboard-response","91","52797","0.0-5.0-1.29","6127e94c6abf253c484b38b7","bdp_rd","Mon Apr 10 2023 13:19:03 GMT-0500 (Central Daylight Time)","88046","","null","","","","FIX","","<div class='trialBorder'><div class='vertical-center'><img style='vertical-align:center; align:center' src=img/fixation3.jpg></div></div>","null","","","","","",""
"html-keyboard-response","92","53131","0.0-5.0-2.29","6127e94c6abf253c484b38b7","bdp_rd","Mon Apr 10 2023 13:19:03 GMT-0500 (Central Daylight Time)","88046","","332","","","","offer","","<div class='trialBorder'><div class='vertical-center'><img style='vertical-align:center; align:center' src=img/fixation3.jpg></div><div class='cl'><div class='vertical-center'>$22<br>with a<br>50% chance</div></div><div class='cr'><div class='vertical-center'>$14<br>for<br>sure</div></div><div class='respDivL'><div class='vertical-center'>(E)</div></div><div class='respDivR'><div class='vertical-center'>(I)</div></div></div>","E","$14","$22","1","14","22","RISKY"
"html-keyboard-response","93","53390","0.0-5.0-3.29","6127e94c6abf253c484b38b7","bdp_rd","Mon Apr 10 2023 13:19:03 GMT-0500 (Central Daylight Time)","88046","","null","","","","offerFB","","<div class='trialBorder'><div class='vertical-center'><img style='vertical-align:center; align:center' src=img/fixation3.jpg></div><div class='cl'><div class='vertical-center'><font style='color:orange'>$22<br>with a<br>50% chance</font></div></div><div class='cr'><div class='vertical-center'>$14<br>for<br>sure</div></div><div class='respDivL'><div class='vertical-center'><font style='color:orange'>(E)</font></div></div><div class='respDivR'><div class='vertical-center'>(I)</div></div></div>","null","$14","$22","1","14","22",""
"html-keyboard-response","94","53894","0.0-5.0-1.30","6127e94c6abf253c484b38b7","bdp_rd","Mon Apr 10 2023 13:19:03 GMT-0500 (Central Daylight Time)","88046","","null","","","","FIX","","<div class='trialBorder'><div class='vertical-center'><img style='vertical-align:center; align:center' src=img/fixation3.jpg></div></div>","null","","","","","",""
"html-keyboard-response","95","54248","0.0-5.0-2.30","6127e94c6abf253c484b38b7","bdp_rd","Mon Apr 10 2023 13:19:03 GMT-0500 (Central Daylight Time)","88046","","353","","","","offer","","<div class='trialBorder'><div class='vertical-center'><img style='vertical-align:center; align:center' src=img/fixation3.jpg></div><div class='cl'><div class='vertical-center'>$27<br>for<br>sure</div></div><div class='cr'><div class='vertical-center'>$47<br>with a<br>50% chance</div></div><div class='respDivL'><div class='vertical-center'>(E)</div></div><div class='respDivR'><div class='vertical-center'>(I)</div></div></div>","I","$27","$47","0","27","47","RISKY"
"html-keyboard-response","96","54502","0.0-5.0-3.30","6127e94c6abf253c484b38b7","bdp_rd","Mon Apr 10 2023 13:19:03 GMT-0500 (Central Daylight Time)","88046","","null","","","","offerFB","","<div class='trialBorder'><div class='vertical-center'><img style='vertical-align:center; align:center' src=img/fixation3.jpg></div><div class='cl'><div class='vertical-center'>$27<br>for<br>sure</div></div><div class='cr'><div class='vertical-center'><font style='color:orange'>$47<br>with a<br>50% chance</font></div></div><div class='respDivL'><div class='vertical-center'>(E)</div></div><div class='respDivR'><div class='vertical-center'><font style='color:orange'>(I)</font></div></div></div>","null","$27","$47","0","27","47",""
"html-keyboard-response","97","55006","0.0-5.0-1.31","6127e94c6abf253c484b38b7","bdp_rd","Mon Apr 10 2023 13:19:03 GMT-0500 (Central Daylight Time)","88046","","null","","","","FIX","","<div class='trialBorder'><div class='vertical-center'><img style='vertical-align:center; align:center' src=img/fixation3.jpg></div></div>","null","","","","","",""
"html-keyboard-response","98","55314","0.0-5.0-2.31","6127e94c6abf253c484b38b7","bdp_rd","Mon Apr 10 2023 13:19:03 GMT-0500 (Central Daylight Time)","88046","","306","","","","offer","","<div class='trialBorder'><div class='vertical-center'><img style='vertical-align:center; align:center' src=img/fixation3.jpg></div><div class='cl'><div class='vertical-center'>$39<br>with a<br>50% chance</div></div><div class='cr'><div class='vertical-center'>$18<br>for<br>sure</div></div><div class='respDivL'><div class='vertical-center'>(E)</div></div><div class='respDivR'><div class='vertical-center'>(I)</div></div></div>","E","$18","$39","1","18","39","RISKY"
"html-keyboard-response","99","55566","0.0-5.0-3.31","6127e94c6abf253c484b38b7","bdp_rd","Mon Apr 10 2023 13:19:03 GMT-0500 (Central Daylight Time)","88046","","null","","","","offerFB","","<div class='trialBorder'><div class='vertical-center'><img style='vertical-align:center; align:center' src=img/fixation3.jpg></div><div class='cl'><div class='vertical-center'><font style='color:orange'>$39<br>with a<br>50% chance</font></div></div><div class='cr'><div class='vertical-center'>$18<br>for<br>sure</div></div><div class='respDivL'><div class='vertical-center'><font style='color:orange'>(E)</font></div></div><div class='respDivR'><div class='vertical-center'>(I)</div></div></div>","null","$18","$39","1","18","39",""
"html-keyboard-response","100","56070","0.0-5.0-1.32","6127e94c6abf253c484b38b7","bdp_rd","Mon Apr 10 2023 13:19:03 GMT-0500 (Central Daylight Time)","88046","","null","","","","FIX","","<div class='trialBorder'><div class='vertical-center'><img style='vertical-align:center; align:center' src=img/fixation3.jpg></div></div>","null","","","","","",""
"html-keyboard-response","101","56425","0.0-5.0-2.32","6127e94c6abf253c484b38b7","bdp_rd","Mon Apr 10 2023 13:19:03 GMT-0500 (Central Daylight Time)","88046","","354","","","","offer","","<div class='trialBorder'><div class='vertical-center'><img style='vertical-align:center; align:center' src=img/fixation3.jpg></div><div class='cl'><div class='vertical-center'>$63<br>for<br>sure</div></div><div class='cr'><div class='vertical-center'>$100<br>with a<br>50% chance</div></div><div class='respDivL'><div class='vertical-center'>(E)</div></div><div class='respDivR'><div class='vertical-center'>(I)</div></div></div>","I","$63","$100","0","63","10","RISKY"
"html-keyboard-response","102","56678","0.0-5.0-3.32","6127e94c6abf253c484b38b7","bdp_rd","Mon Apr 10 2023 13:19:03 GMT-0500 (Central Daylight Time)","88046","","null","","","","offerFB","","<div class='trialBorder'><div class='vertical-center'><img style='vertical-align:center; align:center' src=img/fixation3.jpg></div><div class='cl'><div class='vertical-center'>$63<br>for<br>sure</div></div><div class='cr'><div class='vertical-center'><font style='color:orange'>$100<br>with a<br>50% chance</font></div></div><div class='respDivL'><div class='vertical-center'>(E)</div></div><div class='respDivR'><div class='vertical-center'><font style='color:orange'>(I)</font></div></div></div>","null","$63","$100","0","63","10",""
"html-keyboard-response","103","57181","0.0-5.0-1.33","6127e94c6abf253c484b38b7","bdp_rd","Mon Apr 10 2023 13:19:03 GMT-0500 (Central Daylight Time)","88046","","null","","","","FIX","","<div class='trialBorder'><div class='vertical-center'><img style='vertical-align:center; align:center' src=img/fixation3.jpg></div></div>","null","","","","","",""
"html-keyboard-response","104","57645","0.0-5.0-2.33","6127e94c6abf253c484b38b7","bdp_rd","Mon Apr 10 2023 13:19:03 GMT-0500 (Central Daylight Time)","88046","","463","","","","offer","","<div class='trialBorder'><div class='vertical-center'><img style='vertical-align:center; align:center' src=img/fixation3.jpg></div><div class='cl'><div class='vertical-center'>$18<br>for<br>sure</div></div><div class='cr'><div class='vertical-center'>$36<br>with a<br>50% chance</div></div><div class='respDivL'><div class='vertical-center'>(E)</div></div><div class='respDivR'><div class='vertical-center'>(I)</div></div></div>","I","$18","$36","0","18","36","RISKY"
"html-keyboard-response","105","57902","0.0-5.0-3.33","6127e94c6abf253c484b38b7","bdp_rd","Mon Apr 10 2023 13:19:03 GMT-0500 (Central Daylight Time)","88046","","null","","","","offerFB","","<div class='trialBorder'><div class='vertical-center'><img style='vertical-align:center; align:center' src=img/fixation3.jpg></div><div class='cl'><div class='vertical-center'>$18<br>for<br>sure</div></div><div class='cr'><div class='vertical-center'><font style='color:orange'>$36<br>with a<br>50% chance</font></div></div><div class='respDivL'><div class='vertical-center'>(E)</div></div><div class='respDivR'><div class='vertical-center'><font style='color:orange'>(I)</font></div></div></div>","null","$18","$36","0","18","36",""
"html-keyboard-response","106","58406","0.0-5.0-1.34","6127e94c6abf253c484b38b7","bdp_rd","Mon Apr 10 2023 13:19:03 GMT-0500 (Central Daylight Time)","88046","","null","","","","FIX","","<div class='trialBorder'><div class='vertical-center'><img style='vertical-align:center; align:center' src=img/fixation3.jpg></div></div>","null","","","","","",""
"html-keyboard-response","107","58789","0.0-5.0-2.34","6127e94c6abf253c484b38b7","bdp_rd","Mon Apr 10 2023 13:19:03 GMT-0500 (Central Daylight Time)","88046","","382","","","","offer","","<div class='trialBorder'><div class='vertical-center'><img style='vertical-align:center; align:center' src=img/fixation3.jpg></div><div class='cl'><div class='vertical-center'>$13<br>with a<br>50% chance</div></div><div class='cr'><div class='vertical-center'>$6<br>for<br>sure</div></div><div class='respDivL'><div class='vertical-center'>(E)</div></div><div class='respDivR'><div class='vertical-center'>(I)</div></div></div>","E","$6","$13","1","6","13","RISKY"
"html-keyboard-response","108","59046","0.0-5.0-3.34","6127e94c6abf253c484b38b7","bdp_rd","Mon Apr 10 2023 13:19:03 GMT-0500 (Central Daylight Time)","88046","","null","","","","offerFB","","<div class='trialBorder'><div class='vertical-center'><img style='vertical-align:center; align:center' src=img/fixation3.jpg></div><div class='cl'><div class='vertical-center'><font style='color:orange'>$13<br>with a<br>50% chance</font></div></div><div class='cr'><div class='vertical-center'>$6<br>for<br>sure</div></div><div class='respDivL'><div class='vertical-center'><font style='color:orange'>(E)</font></div></div><div class='respDivR'><div class='vertical-center'>(I)</div></div></div>","null","$6","$13","1","6","13",""
"html-keyboard-response","109","59550","0.0-5.0-1.35","6127e94c6abf253c484b38b7","bdp_rd","Mon Apr 10 2023 13:19:03 GMT-0500 (Central Daylight Time)","88046","","null","","","","FIX","","<div class='trialBorder'><div class='vertical-center'><img style='vertical-align:center; align:center' src=img/fixation3.jpg></div></div>","null","","","","","",""
"html-keyboard-response","110","59950","0.0-5.0-2.35","6127e94c6abf253c484b38b7","bdp_rd","Mon Apr 10 2023 13:19:03 GMT-0500 (Central Daylight Time)","88046","","399","","","","offer","","<div class='trialBorder'><div class='vertical-center'><img style='vertical-align:center; align:center' src=img/fixation3.jpg></div><div class='cl'><div class='vertical-center'>$21<br>with a<br>50% chance</div></div><div class='cr'><div class='vertical-center'>$2<br>for<br>sure</div></div><div class='respDivL'><div class='vertical-center'>(E)</div></div><div class='respDivR'><div class='vertical-center'>(I)</div></div></div>","E","$2","$21","1","2","21","RISKY"
"html-keyboard-response","111","60206","0.0-5.0-3.35","6127e94c6abf253c484b38b7","bdp_rd","Mon Apr 10 2023 13:19:03 GMT-0500 (Central Daylight Time)","88046","","null","","","","offerFB","","<div class='trialBorder'><div class='vertical-center'><img style='vertical-align:center; align:center' src=img/fixation3.jpg></div><div class='cl'><div class='vertical-center'><font style='color:orange'>$21<br>with a<br>50% chance</font></div></div><div class='cr'><div class='vertical-center'>$2<br>for<br>sure</div></div><div class='respDivL'><div class='vertical-center'><font style='color:orange'>(E)</font></div></div><div class='respDivR'><div class='vertical-center'>(I)</div></div></div>","null","$2","$21","1","2","21",""
"html-keyboard-response","112","60710","0.0-5.0-1.36","6127e94c6abf253c484b38b7","bdp_rd","Mon Apr 10 2023 13:19:03 GMT-0500 (Central Daylight Time)","88046","","null","","","","FIX","","<div class='trialBorder'><div class='vertical-center'><img style='vertical-align:center; align:center' src=img/fixation3.jpg></div></div>","null","","","","","",""
"html-keyboard-response","113","61076","0.0-5.0-2.36","6127e94c6abf253c484b38b7","bdp_rd","Mon Apr 10 2023 13:19:03 GMT-0500 (Central Daylight Time)","88046","","365","","","","offer","","<div class='trialBorder'><div class='vertical-center'><img style='vertical-align:center; align:center' src=img/fixation3.jpg></div><div class='cl'><div class='vertical-center'>$12<br>for<br>sure</div></div><div class='cr'><div class='vertical-center'>$27<br>with a<br>50% chance</div></div><div class='respDivL'><div class='vertical-center'>(E)</div></div><div class='respDivR'><div class='vertical-center'>(I)</div></div></div>","I","$12","$27","0","12","27","RISKY"
"html-keyboard-response","114","61334","0.0-5.0-3.36","6127e94c6abf253c484b38b7","bdp_rd","Mon Apr 10 2023 13:19:03 GMT-0500 (Central Daylight Time)","88046","","null","","","","offerFB","","<div class='trialBorder'><div class='vertical-center'><img style='vertical-align:center; align:center' src=img/fixation3.jpg></div><div class='cl'><div class='vertical-center'>$12<br>for<br>sure</div></div><div class='cr'><div class='vertical-center'><font style='color:orange'>$27<br>with a<br>50% chance</font></div></div><div class='respDivL'><div class='vertical-center'>(E)</div></div><div class='respDivR'><div class='vertical-center'><font style='color:orange'>(I)</font></div></div></div>","null","$12","$27","0","12","27",""
"html-keyboard-response","115","61838","0.0-5.0-1.37","6127e94c6abf253c484b38b7","bdp_rd","Mon Apr 10 2023 13:19:03 GMT-0500 (Central Daylight Time)","88046","","null","","","","FIX","","<div class='trialBorder'><div class='vertical-center'><img style='vertical-align:center; align:center' src=img/fixation3.jpg></div></div>","null","","","","","",""
"html-keyboard-response","116","62146","0.0-5.0-2.37","6127e94c6abf253c484b38b7","bdp_rd","Mon Apr 10 2023 13:19:03 GMT-0500 (Central Daylight Time)","88046","","307","","","","offer","","<div class='trialBorder'><div class='vertical-center'><img style='vertical-align:center; align:center' src=img/fixation3.jpg></div><div class='cl'><div class='vertical-center'>$33<br>with a<br>50% chance</div></div><div class='cr'><div class='vertical-center'>$1<br>for<br>sure</div></div><div class='respDivL'><div class='vertical-center'>(E)</div></div><div class='respDivR'><div class='vertical-center'>(I)</div></div></div>","E","$1","$33","1","1","33","RISKY"
"html-keyboard-response","117","62406","0.0-5.0-3.37","6127e94c6abf253c484b38b7","bdp_rd","Mon Apr 10 2023 13:19:03 GMT-0500 (Central Daylight Time)","88046","","null","","","","offerFB","","<div class='trialBorder'><div class='vertical-center'><img style='vertical-align:center; align:center' src=img/fixation3.jpg></div><div class='cl'><div class='vertical-center'><font style='color:orange'>$33<br>with a<br>50% chance</font></div></div><div class='cr'><div class='vertical-center'>$1<br>for<br>sure</div></div><div class='respDivL'><div class='vertical-center'><font style='color:orange'>(E)</font></div></div><div class='respDivR'><div class='vertical-center'>(I)</div></div></div>","null","$1","$33","1","1","33",""
"html-keyboard-response","118","62910","0.0-5.0-1.38","6127e94c6abf253c484b38b7","bdp_rd","Mon Apr 10 2023 13:19:03 GMT-0500 (Central Daylight Time)","88046","","null","","","","FIX","","<div class='trialBorder'><div class='vertical-center'><img style='vertical-align:center; align:center' src=img/fixation3.jpg></div></div>","null","","","","","",""
"html-keyboard-response","119","63304","0.0-5.0-2.38","6127e94c6abf253c484b38b7","bdp_rd","Mon Apr 10 2023 13:19:03 GMT-0500 (Central Daylight Time)","88046","","393","","","","offer","","<div class='trialBorder'><div class='vertical-center'><img style='vertical-align:center; align:center' src=img/fixation3.jpg></div><div class='cl'><div class='vertical-center'>$14<br>with a<br>50% chance</div></div><div class='cr'><div class='vertical-center'>$4<br>for<br>sure</div></div><div class='respDivL'><div class='vertical-center'>(E)</div></div><div class='respDivR'><div class='vertical-center'>(I)</div></div></div>","E","$4","$14","1","4","14","RISKY"
"html-keyboard-response","120","63558","0.0-5.0-3.38","6127e94c6abf253c484b38b7","bdp_rd","Mon Apr 10 2023 13:19:03 GMT-0500 (Central Daylight Time)","88046","","null","","","","offerFB","","<div class='trialBorder'><div class='vertical-center'><img style='vertical-align:center; align:center' src=img/fixation3.jpg></div><div class='cl'><div class='vertical-center'><font style='color:orange'>$14<br>with a<br>50% chance</font></div></div><div class='cr'><div class='vertical-center'>$4<br>for<br>sure</div></div><div class='respDivL'><div class='vertical-center'><font style='color:orange'>(E)</font></div></div><div class='respDivR'><div class='vertical-center'>(I)</div></div></div>","null","$4","$14","1","4","14",""
"html-keyboard-response","121","64062","0.0-5.0-1.39","6127e94c6abf253c484b38b7","bdp_rd","Mon Apr 10 2023 13:19:03 GMT-0500 (Central Daylight Time)","88046","","null","","","","FIX","","<div class='trialBorder'><div class='vertical-center'><img style='vertical-align:center; align:center' src=img/fixation3.jpg></div></div>","null","","","","","",""
"html-keyboard-response","122","64418","0.0-5.0-2.39","6127e94c6abf253c484b38b7","bdp_rd","Mon Apr 10 2023 13:19:03 GMT-0500 (Central Daylight Time)","88046","","355","","","","offer","","<div class='trialBorder'><div class='vertical-center'><img style='vertical-align:center; align:center' src=img/fixation3.jpg></div><div class='cl'><div class='vertical-center'>$58<br>for<br>sure</div></div><div class='cr'><div class='vertical-center'>$69<br>with a<br>50% chance</div></div><div class='respDivL'><div class='vertical-center'>(E)</div></div><div class='respDivR'><div class='vertical-center'>(I)</div></div></div>","I","$58","$69","0","58","69","RISKY"
"html-keyboard-response","123","64670","0.0-5.0-3.39","6127e94c6abf253c484b38b7","bdp_rd","Mon Apr 10 2023 13:19:03 GMT-0500 (Central Daylight Time)","88046","","null","","","","offerFB","","<div class='trialBorder'><div class='vertical-center'><img style='vertical-align:center; align:center' src=img/fixation3.jpg></div><div class='cl'><div class='vertical-center'>$58<br>for<br>sure</div></div><div class='cr'><div class='vertical-center'><font style='color:orange'>$69<br>with a<br>50% chance</font></div></div><div class='respDivL'><div class='vertical-center'>(E)</div></div><div class='respDivR'><div class='vertical-center'><font style='color:orange'>(I)</font></div></div></div>","null","$58","$69","0","58","69",""
"html-keyboard-response","124","65177","0.0-5.0-1.40","6127e94c6abf253c484b38b7","bdp_rd","Mon Apr 10 2023 13:19:03 GMT-0500 (Central Daylight Time)","88046","","null","","","","FIX","","<div class='trialBorder'><div class='vertical-center'><img style='vertical-align:center; align:center' src=img/fixation3.jpg></div></div>","null","","","","","",""
"html-keyboard-response","125","65476","0.0-5.0-2.40","6127e94c6abf253c484b38b7","bdp_rd","Mon Apr 10 2023 13:19:03 GMT-0500 (Central Daylight Time)","88046","","298","","","","offer","","<div class='trialBorder'><div class='vertical-center'><img style='vertical-align:center; align:center' src=img/fixation3.jpg></div><div class='cl'><div class='vertical-center'>$48<br>with a<br>50% chance</div></div><div class='cr'><div class='vertical-center'>$34<br>for<br>sure</div></div><div class='respDivL'><div class='vertical-center'>(E)</div></div><div class='respDivR'><div class='vertical-center'>(I)</div></div></div>","E","$34","$48","1","34","48","RISKY"
"html-keyboard-response","126","65734","0.0-5.0-3.40","6127e94c6abf253c484b38b7","bdp_rd","Mon Apr 10 2023 13:19:03 GMT-0500 (Central Daylight Time)","88046","","null","","","","offerFB","","<div class='trialBorder'><div class='vertical-center'><img style='vertical-align:center; align:center' src=img/fixation3.jpg></div><div class='cl'><div class='vertical-center'><font style='color:orange'>$48<br>with a<br>50% chance</font></div></div><div class='cr'><div class='vertical-center'>$34<br>for<br>sure</div></div><div class='respDivL'><div class='vertical-center'><font style='color:orange'>(E)</font></div></div><div class='respDivR'><div class='vertical-center'>(I)</div></div></div>","null","$34","$48","1","34","48",""
"html-keyboard-response","127","66238","0.0-5.0-1.41","6127e94c6abf253c484b38b7","bdp_rd","Mon Apr 10 2023 13:19:03 GMT-0500 (Central Daylight Time)","88046","","null","","","","FIX","","<div class='trialBorder'><div class='vertical-center'><img style='vertical-align:center; align:center' src=img/fixation3.jpg></div></div>","null","","","","","",""
"html-keyboard-response","128","66574","0.0-5.0-2.41","6127e94c6abf253c484b38b7","bdp_rd","Mon Apr 10 2023 13:19:03 GMT-0500 (Central Daylight Time)","88046","","335","","","","offer","","<div class='trialBorder'><div class='vertical-center'><img style='vertical-align:center; align:center' src=img/fixation3.jpg></div><div class='cl'><div class='vertical-center'>$40<br>with a<br>50% chance</div></div><div class='cr'><div class='vertical-center'>$10<br>for<br>sure</div></div><div class='respDivL'><div class='vertical-center'>(E)</div></div><div class='respDivR'><div class='vertical-center'>(I)</div></div></div>","E","$10","$40","1","10","40","RISKY"
"html-keyboard-response","129","66830","0.0-5.0-3.41","6127e94c6abf253c484b38b7","bdp_rd","Mon Apr 10 2023 13:19:03 GMT-0500 (Central Daylight Time)","88046","","null","","","","offerFB","","<div class='trialBorder'><div class='vertical-center'><img style='vertical-align:center; align:center' src=img/fixation3.jpg></div><div class='cl'><div class='vertical-center'><font style='color:orange'>$40<br>with a<br>50% chance</font></div></div><div class='cr'><div class='vertical-center'>$10<br>for<br>sure</div></div><div class='respDivL'><div class='vertical-center'><font style='color:orange'>(E)</font></div></div><div class='respDivR'><div class='vertical-center'>(I)</div></div></div>","null","$10","$40","1","10","40",""
"html-keyboard-response","130","67334","0.0-5.0-1.42","6127e94c6abf253c484b38b7","bdp_rd","Mon Apr 10 2023 13:19:03 GMT-0500 (Central Daylight Time)","88046","","null","","","","FIX","","<div class='trialBorder'><div class='vertical-center'><img style='vertical-align:center; align:center' src=img/fixation3.jpg></div></div>","null","","","","","",""
"html-keyboard-response","131","67683","0.0-5.0-2.42","6127e94c6abf253c484b38b7","bdp_rd","Mon Apr 10 2023 13:19:03 GMT-0500 (Central Daylight Time)","88046","","348","","","","offer","","<div class='trialBorder'><div class='vertical-center'><img style='vertical-align:center; align:center' src=img/fixation3.jpg></div><div class='cl'><div class='vertical-center'>$9<br>for<br>sure</div></div><div class='cr'><div class='vertical-center'>$32<br>with a<br>50% chance</div></div><div class='respDivL'><div class='vertical-center'>(E)</div></div><div class='respDivR'><div class='vertical-center'>(I)</div></div></div>","I","$9","$32","0","9","32","RISKY"
"html-keyboard-response","132","67942","0.0-5.0-3.42","6127e94c6abf253c484b38b7","bdp_rd","Mon Apr 10 2023 13:19:03 GMT-0500 (Central Daylight Time)","88046","","null","","","","offerFB","","<div class='trialBorder'><div class='vertical-center'><img style='vertical-align:center; align:center' src=img/fixation3.jpg></div><div class='cl'><div class='vertical-center'>$9<br>for<br>sure</div></div><div class='cr'><div class='vertical-center'><font style='color:orange'>$32<br>with a<br>50% chance</font></div></div><div class='respDivL'><div class='vertical-center'>(E)</div></div><div class='respDivR'><div class='vertical-center'><font style='color:orange'>(I)</font></div></div></div>","null","$9","$32","0","9","32",""
"html-keyboard-response","133","68445","0.0-5.0-1.43","6127e94c6abf253c484b38b7","bdp_rd","Mon Apr 10 2023 13:19:03 GMT-0500 (Central Daylight Time)","88046","","null","","","","FIX","","<div class='trialBorder'><div class='vertical-center'><img style='vertical-align:center; align:center' src=img/fixation3.jpg></div></div>","null","","","","","",""
"html-keyboard-response","134","68840","0.0-5.0-2.43","6127e94c6abf253c484b38b7","bdp_rd","Mon Apr 10 2023 13:19:03 GMT-0500 (Central Daylight Time)","88046","","392","","","","offer","","<div class='trialBorder'><div class='vertical-center'><img style='vertical-align:center; align:center' src=img/fixation3.jpg></div><div class='cl'><div class='vertical-center'>$24<br>for<br>sure</div></div><div class='cr'><div class='vertical-center'>$70<br>with a<br>50% chance</div></div><div class='respDivL'><div class='vertical-center'>(E)</div></div><div class='respDivR'><div class='vertical-center'>(I)</div></div></div>","I","$24","$70","0","24","70","RISKY"
"html-keyboard-response","135","69094","0.0-5.0-3.43","6127e94c6abf253c484b38b7","bdp_rd","Mon Apr 10 2023 13:19:03 GMT-0500 (Central Daylight Time)","88046","","null","","","","offerFB","","<div class='trialBorder'><div class='vertical-center'><img style='vertical-align:center; align:center' src=img/fixation3.jpg></div><div class='cl'><div class='vertical-center'>$24<br>for<br>sure</div></div><div class='cr'><div class='vertical-center'><font style='color:orange'>$70<br>with a<br>50% chance</font></div></div><div class='respDivL'><div class='vertical-center'>(E)</div></div><div class='respDivR'><div class='vertical-center'><font style='color:orange'>(I)</font></div></div></div>","null","$24","$70","0","24","70",""
"html-keyboard-response","136","69597","0.0-5.0-1.44","6127e94c6abf253c484b38b7","bdp_rd","Mon Apr 10 2023 13:19:03 GMT-0500 (Central Daylight Time)","88046","","null","","","","FIX","","<div class='trialBorder'><div class='vertical-center'><img style='vertical-align:center; align:center' src=img/fixation3.jpg></div></div>","null","","","","","",""
"html-keyboard-response","137","69868","0.0-5.0-2.44","6127e94c6abf253c484b38b7","bdp_rd","Mon Apr 10 2023 13:19:03 GMT-0500 (Central Daylight Time)","88046","","269","","","","offer","","<div class='trialBorder'><div class='vertical-center'><img style='vertical-align:center; align:center' src=img/fixation3.jpg></div><div class='cl'><div class='vertical-center'>$10<br>with a<br>50% chance</div></div><div class='cr'><div class='vertical-center'>$7<br>for<br>sure</div></div><div class='respDivL'><div class='vertical-center'>(E)</div></div><div class='respDivR'><div class='vertical-center'>(I)</div></div></div>","E","$7","$10","1","7","10","RISKY"
"html-keyboard-response","138","70126","0.0-5.0-3.44","6127e94c6abf253c484b38b7","bdp_rd","Mon Apr 10 2023 13:19:03 GMT-0500 (Central Daylight Time)","88046","","null","","","","offerFB","","<div class='trialBorder'><div class='vertical-center'><img style='vertical-align:center; align:center' src=img/fixation3.jpg></div><div class='cl'><div class='vertical-center'><font style='color:orange'>$10<br>with a<br>50% chance</font></div></div><div class='cr'><div class='vertical-center'>$7<br>for<br>sure</div></div><div class='respDivL'><div class='vertical-center'><font style='color:orange'>(E)</font></div></div><div class='respDivR'><div class='vertical-center'>(I)</div></div></div>","null","$7","$10","1","7","10",""
"html-keyboard-response","139","70630","0.0-5.0-1.45","6127e94c6abf253c484b38b7","bdp_rd","Mon Apr 10 2023 13:19:03 GMT-0500 (Central Daylight Time)","88046","","null","","","","FIX","","<div class='trialBorder'><div class='vertical-center'><img style='vertical-align:center; align:center' src=img/fixation3.jpg></div></div>","null","","","","","",""
"html-keyboard-response","140","70968","0.0-5.0-2.45","6127e94c6abf253c484b38b7","bdp_rd","Mon Apr 10 2023 13:19:03 GMT-0500 (Central Daylight Time)","88046","","337","","","","offer","","<div class='trialBorder'><div class='vertical-center'><img style='vertical-align:center; align:center' src=img/fixation3.jpg></div><div class='cl'><div class='vertical-center'>$13<br>for<br>sure</div></div><div class='cr'><div class='vertical-center'>$41<br>with a<br>50% chance</div></div><div class='respDivL'><div class='vertical-center'>(E)</div></div><div class='respDivR'><div class='vertical-center'>(I)</div></div></div>","I","$13","$41","0","13","41","RISKY"
"html-keyboard-response","141","71222","0.0-5.0-3.45","6127e94c6abf253c484b38b7","bdp_rd","Mon Apr 10 2023 13:19:03 GMT-0500 (Central Daylight Time)","88046","","null","","","","offerFB","","<div class='trialBorder'><div class='vertical-center'><img style='vertical-align:center; align:center' src=img/fixation3.jpg></div><div class='cl'><div class='vertical-center'>$13<br>for<br>sure</div></div><div class='cr'><div class='vertical-center'><font style='color:orange'>$41<br>with a<br>50% chance</font></div></div><div class='respDivL'><div class='vertical-center'>(E)</div></div><div class='respDivR'><div class='vertical-center'><font style='color:orange'>(I)</font></div></div></div>","null","$13","$41","0","13","41",""
"html-keyboard-response","142","71726","0.0-5.0-1.46","6127e94c6abf253c484b38b7","bdp_rd","Mon Apr 10 2023 13:19:03 GMT-0500 (Central Daylight Time)","88046","","null","","","","FIX","","<div class='trialBorder'><div class='vertical-center'><img style='vertical-align:center; align:center' src=img/fixation3.jpg></div></div>","null","","","","","",""
"html-keyboard-response","143","72024","0.0-5.0-2.46","6127e94c6abf253c484b38b7","bdp_rd","Mon Apr 10 2023 13:19:03 GMT-0500 (Central Daylight Time)","88046","","296","","","","offer","","<div class='trialBorder'><div class='vertical-center'><img style='vertical-align:center; align:center' src=img/fixation3.jpg></div><div class='cl'><div class='vertical-center'>$31<br>with a<br>50% chance</div></div><div class='cr'><div class='vertical-center'>$15<br>for<br>sure</div></div><div class='respDivL'><div class='vertical-center'>(E)</div></div><div class='respDivR'><div class='vertical-center'>(I)</div></div></div>","E","$15","$31","1","15","31","RISKY"
"html-keyboard-response","144","72278","0.0-5.0-3.46","6127e94c6abf253c484b38b7","bdp_rd","Mon Apr 10 2023 13:19:03 GMT-0500 (Central Daylight Time)","88046","","null","","","","offerFB","","<div class='trialBorder'><div class='vertical-center'><img style='vertical-align:center; align:center' src=img/fixation3.jpg></div><div class='cl'><div class='vertical-center'><font style='color:orange'>$31<br>with a<br>50% chance</font></div></div><div class='cr'><div class='vertical-center'>$15<br>for<br>sure</div></div><div class='respDivL'><div class='vertical-center'><font style='color:orange'>(E)</font></div></div><div class='respDivR'><div class='vertical-center'>(I)</div></div></div>","null","$15","$31","1","15","31",""
"html-keyboard-response","145","72782","0.0-5.0-1.47","6127e94c6abf253c484b38b7","bdp_rd","Mon Apr 10 2023 13:19:03 GMT-0500 (Central Daylight Time)","88046","","null","","","","FIX","","<div class='trialBorder'><div class='vertical-center'><img style='vertical-align:center; align:center' src=img/fixation3.jpg></div></div>","null","","","","","",""
"html-keyboard-response","146","73116","0.0-5.0-2.47","6127e94c6abf253c484b38b7","bdp_rd","Mon Apr 10 2023 13:19:03 GMT-0500 (Central Daylight Time)","88046","","333","","","","offer","","<div class='trialBorder'><div class='vertical-center'><img style='vertical-align:center; align:center' src=img/fixation3.jpg></div><div class='cl'><div class='vertical-center'>$29<br>for<br>sure</div></div><div class='cr'><div class='vertical-center'>$46<br>with a<br>50% chance</div></div><div class='respDivL'><div class='vertical-center'>(E)</div></div><div class='respDivR'><div class='vertical-center'>(I)</div></div></div>","I","$29","$46","0","29","46","RISKY"
"html-keyboard-response","147","73373","0.0-5.0-3.47","6127e94c6abf253c484b38b7","bdp_rd","Mon Apr 10 2023 13:19:03 GMT-0500 (Central Daylight Time)","88046","","null","","","","offerFB","","<div class='trialBorder'><div class='vertical-center'><img style='vertical-align:center; align:center' src=img/fixation3.jpg></div><div class='cl'><div class='vertical-center'>$29<br>for<br>sure</div></div><div class='cr'><div class='vertical-center'><font style='color:orange'>$46<br>with a<br>50% chance</font></div></div><div class='respDivL'><div class='vertical-center'>(E)</div></div><div class='respDivR'><div class='vertical-center'><font style='color:orange'>(I)</font></div></div></div>","null","$29","$46","0","29","46",""
"html-keyboard-response","148","73878","0.0-5.0-1.48","6127e94c6abf253c484b38b7","bdp_rd","Mon Apr 10 2023 13:19:03 GMT-0500 (Central Daylight Time)","88046","","null","","","","FIX","","<div class='trialBorder'><div class='vertical-center'><img style='vertical-align:center; align:center' src=img/fixation3.jpg></div></div>","null","","","","","",""
"html-keyboard-response","149","74214","0.0-5.0-2.48","6127e94c6abf253c484b38b7","bdp_rd","Mon Apr 10 2023 13:19:03 GMT-0500 (Central Daylight Time)","88046","","335","","","","offer","","<div class='trialBorder'><div class='vertical-center'><img style='vertical-align:center; align:center' src=img/fixation3.jpg></div><div class='cl'><div class='vertical-center'>$71<br>with a<br>50% chance</div></div><div class='cr'><div class='vertical-center'>$7<br>for<br>sure</div></div><div class='respDivL'><div class='vertical-center'>(E)</div></div><div class='respDivR'><div class='vertical-center'>(I)</div></div></div>","E","$7","$71","1","7","71","RISKY"
"html-keyboard-response","150","74470","0.0-5.0-3.48","6127e94c6abf253c484b38b7","bdp_rd","Mon Apr 10 2023 13:19:03 GMT-0500 (Central Daylight Time)","88046","","null","","","","offerFB","","<div class='trialBorder'><div class='vertical-center'><img style='vertical-align:center; align:center' src=img/fixation3.jpg></div><div class='cl'><div class='vertical-center'><font style='color:orange'>$71<br>with a<br>50% chance</font></div></div><div class='cr'><div class='vertical-center'>$7<br>for<br>sure</div></div><div class='respDivL'><div class='vertical-center'><font style='color:orange'>(E)</font></div></div><div class='respDivR'><div class='vertical-center'>(I)</div></div></div>","null","$7","$71","1","7","71",""
"html-keyboard-response","151","74974","0.0-5.0-1.49","6127e94c6abf253c484b38b7","bdp_rd","Mon Apr 10 2023 13:19:03 GMT-0500 (Central Daylight Time)","88046","","null","","","","FIX","","<div class='trialBorder'><div class='vertical-center'><img style='vertical-align:center; align:center' src=img/fixation3.jpg></div></div>","null","","","","","",""
"html-keyboard-response","152","75330","0.0-5.0-2.49","6127e94c6abf253c484b38b7","bdp_rd","Mon Apr 10 2023 13:19:03 GMT-0500 (Central Daylight Time)","88046","","356","","","","offer","","<div class='trialBorder'><div class='vertical-center'><img style='vertical-align:center; align:center' src=img/fixation3.jpg></div><div class='cl'><div class='vertical-center'>$16<br>with a<br>50% chance</div></div><div class='cr'><div class='vertical-center'>$5<br>for<br>sure</div></div><div class='respDivL'><div class='vertical-center'>(E)</div></div><div class='respDivR'><div class='vertical-center'>(I)</div></div></div>","E","$5","$16","1","5","16","RISKY"
"html-keyboard-response","153","75581","0.0-5.0-3.49","6127e94c6abf253c484b38b7","bdp_rd","Mon Apr 10 2023 13:19:03 GMT-0500 (Central Daylight Time)","88046","","null","","","","offerFB","","<div class='trialBorder'><div class='vertical-center'><img style='vertical-align:center; align:center' src=img/fixation3.jpg></div><div class='cl'><div class='vertical-center'><font style='color:orange'>$16<br>with a<br>50% chance</font></div></div><div class='cr'><div class='vertical-center'>$5<br>for<br>sure</div></div><div class='respDivL'><div class='vertical-center'><font style='color:orange'>(E)</font></div></div><div class='respDivR'><div class='vertical-center'>(I)</div></div></div>","null","$5","$16","1","5","16",""
"html-keyboard-response","154","76085","0.0-5.0-1.50","6127e94c6abf253c484b38b7","bdp_rd","Mon Apr 10 2023 13:19:03 GMT-0500 (Central Daylight Time)","88046","","null","","","","FIX","","<div class='trialBorder'><div class='vertical-center'><img style='vertical-align:center; align:center' src=img/fixation3.jpg></div></div>","null","","","","","",""
"html-keyboard-response","155","76520","0.0-5.0-2.50","6127e94c6abf253c484b38b7","bdp_rd","Mon Apr 10 2023 13:19:03 GMT-0500 (Central Daylight Time)","88046","","434","","","","offer","","<div class='trialBorder'><div class='vertical-center'><img style='vertical-align:center; align:center' src=img/fixation3.jpg></div><div class='cl'><div class='vertical-center'>$1<br>for<br>sure</div></div><div class='cr'><div class='vertical-center'>$30<br>with a<br>50% chance</div></div><div class='respDivL'><div class='vertical-center'>(E)</div></div><div class='respDivR'><div class='vertical-center'>(I)</div></div></div>","I","$1","$30","0","1","30","RISKY"
"html-keyboard-response","156","76774","0.0-5.0-3.50","6127e94c6abf253c484b38b7","bdp_rd","Mon Apr 10 2023 13:19:03 GMT-0500 (Central Daylight Time)","88046","","null","","","","offerFB","","<div class='trialBorder'><div class='vertical-center'><img style='vertical-align:center; align:center' src=img/fixation3.jpg></div><div class='cl'><div class='vertical-center'>$1<br>for<br>sure</div></div><div class='cr'><div class='vertical-center'><font style='color:orange'>$30<br>with a<br>50% chance</font></div></div><div class='respDivL'><div class='vertical-center'>(E)</div></div><div class='respDivR'><div class='vertical-center'><font style='color:orange'>(I)</font></div></div></div>","null","$1","$30","0","1","30",""
"html-keyboard-response","157","77277","0.0-5.0-1.51","6127e94c6abf253c484b38b7","bdp_rd","Mon Apr 10 2023 13:19:03 GMT-0500 (Central Daylight Time)","88046","","null","","","","FIX","","<div class='trialBorder'><div class='vertical-center'><img style='vertical-align:center; align:center' src=img/fixation3.jpg></div></div>","null","","","","","",""
"html-keyboard-response","158","77948","0.0-5.0-2.51","6127e94c6abf253c484b38b7","bdp_rd","Mon Apr 10 2023 13:19:03 GMT-0500 (Central Daylight Time)","88046","","670","","","","offer","","<div class='trialBorder'><div class='vertical-center'><img style='vertical-align:center; align:center' src=img/fixation3.jpg></div><div class='cl'><div class='vertical-center'>$8<br>for<br>sure</div></div><div class='cr'><div class='vertical-center'>$45<br>with a<br>50% chance</div></div><div class='respDivL'><div class='vertical-center'>(E)</div></div><div class='respDivR'><div class='vertical-center'>(I)</div></div></div>","I","$8","$45","0","8","45","RISKY"
"html-keyboard-response","159","78206","0.0-5.0-3.51","6127e94c6abf253c484b38b7","bdp_rd","Mon Apr 10 2023 13:19:03 GMT-0500 (Central Daylight Time)","88046","","null","","","","offerFB","","<div class='trialBorder'><div class='vertical-center'><img style='vertical-align:center; align:center' src=img/fixation3.jpg></div><div class='cl'><div class='vertical-center'>$8<br>for<br>sure</div></div><div class='cr'><div class='vertical-center'><font style='color:orange'>$45<br>with a<br>50% chance</font></div></div><div class='respDivL'><div class='vertical-center'>(E)</div></div><div class='respDivR'><div class='vertical-center'><font style='color:orange'>(I)</font></div></div></div>","null","$8","$45","0","8","45",""
"html-keyboard-response","160","78709","0.0-5.0-1.52","6127e94c6abf253c484b38b7","bdp_rd","Mon Apr 10 2023 13:19:03 GMT-0500 (Central Daylight Time)","88046","","null","","","","FIX","","<div class='trialBorder'><div class='vertical-center'><img style='vertical-align:center; align:center' src=img/fixation3.jpg></div></div>","null","","","","","",""
"html-keyboard-response","161","79128","0.0-5.0-2.52","6127e94c6abf253c484b38b7","bdp_rd","Mon Apr 10 2023 13:19:03 GMT-0500 (Central Daylight Time)","88046","","418","","","","offer","","<div class='trialBorder'><div class='vertical-center'><img style='vertical-align:center; align:center' src=img/fixation3.jpg></div><div class='cl'><div class='vertical-center'>$16<br>for<br>sure</div></div><div class='cr'><div class='vertical-center'>$38<br>with a<br>50% chance</div></div><div class='respDivL'><div class='vertical-center'>(E)</div></div><div class='respDivR'><div class='vertical-center'>(I)</div></div></div>","I","$16","$38","0","16","38","RISKY"
"html-keyboard-response","162","79381","0.0-5.0-3.52","6127e94c6abf253c484b38b7","bdp_rd","Mon Apr 10 2023 13:19:03 GMT-0500 (Central Daylight Time)","88046","","null","","","","offerFB","","<div class='trialBorder'><div class='vertical-center'><img style='vertical-align:center; align:center' src=img/fixation3.jpg></div><div class='cl'><div class='vertical-center'>$16<br>for<br>sure</div></div><div class='cr'><div class='vertical-center'><font style='color:orange'>$38<br>with a<br>50% chance</font></div></div><div class='respDivL'><div class='vertical-center'>(E)</div></div><div class='respDivR'><div class='vertical-center'><font style='color:orange'>(I)</font></div></div></div>","null","$16","$38","0","16","38",""
"html-keyboard-response","163","79886","0.0-5.0-1.53","6127e94c6abf253c484b38b7","bdp_rd","Mon Apr 10 2023 13:19:03 GMT-0500 (Central Daylight Time)","88046","","null","","","","FIX","","<div class='trialBorder'><div class='vertical-center'><img style='vertical-align:center; align:center' src=img/fixation3.jpg></div></div>","null","","","","","",""
"html-keyboard-response","164","80145","0.0-5.0-2.53","6127e94c6abf253c484b38b7","bdp_rd","Mon Apr 10 2023 13:19:03 GMT-0500 (Central Daylight Time)","88046","","258","","","","offer","","<div class='trialBorder'><div class='vertical-center'><img style='vertical-align:center; align:center' src=img/fixation3.jpg></div><div class='cl'><div class='vertical-center'>$29<br>with a<br>50% chance</div></div><div class='cr'><div class='vertical-center'>$14<br>for<br>sure</div></div><div class='respDivL'><div class='vertical-center'>(E)</div></div><div class='respDivR'><div class='vertical-center'>(I)</div></div></div>","E","$14","$29","1","14","29","RISKY"
"html-keyboard-response","165","80398","0.0-5.0-3.53","6127e94c6abf253c484b38b7","bdp_rd","Mon Apr 10 2023 13:19:03 GMT-0500 (Central Daylight Time)","88046","","null","","","","offerFB","","<div class='trialBorder'><div class='vertical-center'><img style='vertical-align:center; align:center' src=img/fixation3.jpg></div><div class='cl'><div class='vertical-center'><font style='color:orange'>$29<br>with a<br>50% chance</font></div></div><div class='cr'><div class='vertical-center'>$14<br>for<br>sure</div></div><div class='respDivL'><div class='vertical-center'><font style='color:orange'>(E)</font></div></div><div class='respDivR'><div class='vertical-center'>(I)</div></div></div>","null","$14","$29","1","14","29",""
"html-keyboard-response","166","80902","0.0-5.0-1.54","6127e94c6abf253c484b38b7","bdp_rd","Mon Apr 10 2023 13:19:03 GMT-0500 (Central Daylight Time)","88046","","null","","","","FIX","","<div class='trialBorder'><div class='vertical-center'><img style='vertical-align:center; align:center' src=img/fixation3.jpg></div></div>","null","","","","","",""
"html-keyboard-response","167","81241","0.0-5.0-2.54","6127e94c6abf253c484b38b7","bdp_rd","Mon Apr 10 2023 13:19:03 GMT-0500 (Central Daylight Time)","88046","","337","","","","offer","","<div class='trialBorder'><div class='vertical-center'><img style='vertical-align:center; align:center' src=img/fixation3.jpg></div><div class='cl'><div class='vertical-center'>$89<br>with a<br>50% chance</div></div><div class='cr'><div class='vertical-center'>$28<br>for<br>sure</div></div><div class='respDivL'><div class='vertical-center'>(E)</div></div><div class='respDivR'><div class='vertical-center'>(I)</div></div></div>","E","$28","$89","1","28","89","RISKY"
"html-keyboard-response","168","81494","0.0-5.0-3.54","6127e94c6abf253c484b38b7","bdp_rd","Mon Apr 10 2023 13:19:03 GMT-0500 (Central Daylight Time)","88046","","null","","","","offerFB","","<div class='trialBorder'><div class='vertical-center'><img style='vertical-align:center; align:center' src=img/fixation3.jpg></div><div class='cl'><div class='vertical-center'><font style='color:orange'>$89<br>with a<br>50% chance</font></div></div><div class='cr'><div class='vertical-center'>$28<br>for<br>sure</div></div><div class='respDivL'><div class='vertical-center'><font style='color:orange'>(E)</font></div></div><div class='respDivR'><div class='vertical-center'>(I)</div></div></div>","null","$28","$89","1","28","89",""
"html-keyboard-response","169","81998","0.0-5.0-1.55","6127e94c6abf253c484b38b7","bdp_rd","Mon Apr 10 2023 13:19:03 GMT-0500 (Central Daylight Time)","88046","","null","","","","FIX","","<div class='trialBorder'><div class='vertical-center'><img style='vertical-align:center; align:center' src=img/fixation3.jpg></div></div>","null","","","","","",""
"html-keyboard-response","170","82342","0.0-5.0-2.55","6127e94c6abf253c484b38b7","bdp_rd","Mon Apr 10 2023 13:19:03 GMT-0500 (Central Daylight Time)","88046","","343","","","","offer","","<div class='trialBorder'><div class='vertical-center'><img style='vertical-align:center; align:center' src=img/fixation3.jpg></div><div class='cl'><div class='vertical-center'>$23<br>with a<br>50% chance</div></div><div class='cr'><div class='vertical-center'>$8<br>for<br>sure</div></div><div class='respDivL'><div class='vertical-center'>(E)</div></div><div class='respDivR'><div class='vertical-center'>(I)</div></div></div>","E","$8","$23","1","8","23","RISKY"
"html-keyboard-response","171","82598","0.0-5.0-3.55","6127e94c6abf253c484b38b7","bdp_rd","Mon Apr 10 2023 13:19:03 GMT-0500 (Central Daylight Time)","88046","","null","","","","offerFB","","<div class='trialBorder'><div class='vertical-center'><img style='vertical-align:center; align:center' src=img/fixation3.jpg></div><div class='cl'><div class='vertical-center'><font style='color:orange'>$23<br>with a<br>50% chance</font></div></div><div class='cr'><div class='vertical-center'>$8<br>for<br>sure</div></div><div class='respDivL'><div class='vertical-center'><font style='color:orange'>(E)</font></div></div><div class='respDivR'><div class='vertical-center'>(I)</div></div></div>","null","$8","$23","1","8","23",""
"html-keyboard-response","172","83101","0.0-5.0-1.56","6127e94c6abf253c484b38b7","bdp_rd","Mon Apr 10 2023 13:19:03 GMT-0500 (Central Daylight Time)","88046","","null","","","","FIX","","<div class='trialBorder'><div class='vertical-center'><img style='vertical-align:center; align:center' src=img/fixation3.jpg></div></div>","null","","","","","",""
"html-keyboard-response","173","83486","0.0-5.0-2.56","6127e94c6abf253c484b38b7","bdp_rd","Mon Apr 10 2023 13:19:03 GMT-0500 (Central Daylight Time)","88046","","383","","","","offer","","<div class='trialBorder'><div class='vertical-center'><img style='vertical-align:center; align:center' src=img/fixation3.jpg></div><div class='cl'><div class='vertical-center'>$5<br>for<br>sure</div></div><div class='cr'><div class='vertical-center'>$50<br>with a<br>50% chance</div></div><div class='respDivL'><div class='vertical-center'>(E)</div></div><div class='respDivR'><div class='vertical-center'>(I)</div></div></div>","I","$5","$50","0","5","50","RISKY"
"html-keyboard-response","174","83741","0.0-5.0-3.56","6127e94c6abf253c484b38b7","bdp_rd","Mon Apr 10 2023 13:19:03 GMT-0500 (Central Daylight Time)","88046","","null","","","","offerFB","","<div class='trialBorder'><div class='vertical-center'><img style='vertical-align:center; align:center' src=img/fixation3.jpg></div><div class='cl'><div class='vertical-center'>$5<br>for<br>sure</div></div><div class='cr'><div class='vertical-center'><font style='color:orange'>$50<br>with a<br>50% chance</font></div></div><div class='respDivL'><div class='vertical-center'>(E)</div></div><div class='respDivR'><div class='vertical-center'><font style='color:orange'>(I)</font></div></div></div>","null","$5","$50","0","5","50",""
