"trial_type","trial_index","time_elapsed","internal_node_id","subject_id","task","startTime","totalTime","view_history","rt","event","trial","time","trialtype","success","stimulus","key_press","sureOffer","riskyOffer","riskyLeft","sureAmt","riskyAmt","chosen"
"pavlovia","0","7","0.0-0.0","610c736500a4b33398fef94f","bdp_rd","Mon Apr 10 2023 18:33:18 GMT-0400 (Eastern Daylight Time)","128630","","","","","","","","","","","","","","",""
"instructions","1","1105","0.0-1.0","610c736500a4b33398fef94f","bdp_rd","Mon Apr 10 2023 18:33:18 GMT-0400 (Eastern Daylight Time)","128630","[{""page_index"":0,""viewing_time"":1097}]","1097","","","","","","","","","","","","",""
"","","","","610c736500a4b33398fef94f","bdp_rd","Mon Apr 10 2023 18:33:18 GMT-0400 (Eastern Daylight Time)","128630","","","fullscreenenter","2","2560","fullscreenenter","","","","","","","","",""
"fullscreen","2","3542","0.0-2.0","610c736500a4b33398fef94f","bdp_rd","Mon Apr 10 2023 18:33:18 GMT-0400 (Eastern Daylight Time)","128630","","","","","","","true","","","","","","","",""
"instructions","3","16337","0.0-4.0","610c736500a4b33398fef94f","bdp_rd","Mon Apr 10 2023 18:33:18 GMT-0400 (Eastern Daylight Time)","128630","[{""page_index"":0,""viewing_time"":7523},{""page_index"":1,""viewing_time"":3064},{""page_index"":2,""viewing_time"":2207}]","12794","","","","","","","","","","","","",""
"html-keyboard-response","4","16855","0.0-5.0-1.0","610c736500a4b33398fef94f","bdp_rd","Mon Apr 10 2023 18:33:18 GMT-0400 (Eastern Daylight Time)","128630","","null","","","","FIX","","<div class='trialBorder'><div class='vertical-center'><img style='vertical-align:center; align:center' src=img/fixation3.jpg></div></div>","null","","","","","",""
"html-keyboard-response","5","18806","0.0-5.0-2.0","610c736500a4b33398fef94f","bdp_rd","Mon Apr 10 2023 18:33:18 GMT-0400 (Eastern Daylight Time)","128630","","1948","","","","offer","","<div class='trialBorder'><div class='vertical-center'><img style='vertical-align:center; align:center' src=img/fixation3.jpg></div><div class='cl'><div class='vertical-center'>$13<br>with a<br>50% chance</div></div><div class='cr'><div class='vertical-center'>$6<br>for<br>sure</div></div><div class='respDivL'><div class='vertical-center'>(E)</div></div><div class='respDivR'><div class='vertical-center'>(I)</div></div></div>","E","$6","$13","1","6","13","RISKY"
"html-keyboard-response","6","19061","0.0-5.0-3.0","610c736500a4b33398fef94f","bdp_rd","Mon Apr 10 2023 18:33:18 GMT-0400 (Eastern Daylight Time)","128630","","null","","","","offerFB","","<div class='trialBorder'><div class='vertical-center'><img style='vertical-align:center; align:center' src=img/fixation3.jpg></div><div class='cl'><div class='vertical-center'><font style='color:orange'>$13<br>with a<br>50% chance</font></div></div><div class='cr'><div class='vertical-center'>$6<br>for<br>sure</div></div><div class='respDivL'><div class='vertical-center'><font style='color:orange'>(E)</font></div></div><div class='respDivR'><div class='vertical-center'>(I)</div></div></div>","null","$6","$13","1","6","13",""
"html-keyboard-response","7","19575","0.0-5.0-1.1","610c736500a4b33398fef94f","bdp_rd","Mon Apr 10 2023 18:33:18 GMT-0400 (Eastern Daylight Time)","128630","","null","","","","FIX","","<div class='trialBorder'><div class='vertical-center'><img style='vertical-align:center; align:center' src=img/fixation3.jpg></div></div>","null","","","","","",""
"html-keyboard-response","8","20700","0.0-5.0-2.1","610c736500a4b33398fef94f","bdp_rd","Mon Apr 10 2023 18:33:18 GMT-0400 (Eastern Daylight Time)","128630","","1124","","","","offer","","<div class='trialBorder'><div class='vertical-center'><img style='vertical-align:center; align:center' src=img/fixation3.jpg></div><div class='cl'><div class='vertical-center'>$64<br>with a<br>50% chance</div></div><div class='cr'><div class='vertical-center'>$2<br>for<br>sure</div></div><div class='respDivL'><div class='vertical-center'>(E)</div></div><div class='respDivR'><div class='vertical-center'>(I)</div></div></div>","E","$2","$64","1","2","64","RISKY"
"html-keyboard-response","9","20955","0.0-5.0-3.1","610c736500a4b33398fef94f","bdp_rd","Mon Apr 10 2023 18:33:18 GMT-0400 (Eastern Daylight Time)","128630","","null","","","","offerFB","","<div class='trialBorder'><div class='vertical-center'><img style='vertical-align:center; align:center' src=img/fixation3.jpg></div><div class='cl'><div class='vertical-center'><font style='color:orange'>$64<br>with a<br>50% chance</font></div></div><div class='cr'><div class='vertical-center'>$2<br>for<br>sure</div></div><div class='respDivL'><div class='vertical-center'><font style='color:orange'>(E)</font></div></div><div class='respDivR'><div class='vertical-center'>(I)</div></div></div>","null","$2","$64","1","2","64",""
"html-keyboard-response","10","21463","0.0-5.0-1.2","610c736500a4b33398fef94f","bdp_rd","Mon Apr 10 2023 18:33:18 GMT-0400 (Eastern Daylight Time)","128630","","null","","","","FIX","","<div class='trialBorder'><div class='vertical-center'><img style='vertical-align:center; align:center' src=img/fixation3.jpg></div></div>","null","","","","","",""
"html-keyboard-response","11","22320","0.0-5.0-2.2","610c736500a4b33398fef94f","bdp_rd","Mon Apr 10 2023 18:33:18 GMT-0400 (Eastern Daylight Time)","128630","","856","","","","offer","","<div class='trialBorder'><div class='vertical-center'><img style='vertical-align:center; align:center' src=img/fixation3.jpg></div><div class='cl'><div class='vertical-center'>$17<br>with a<br>50% chance</div></div><div class='cr'><div class='vertical-center'>$3<br>for<br>sure</div></div><div class='respDivL'><div class='vertical-center'>(E)</div></div><div class='respDivR'><div class='vertical-center'>(I)</div></div></div>","E","$3","$17","1","3","17","RISKY"
"html-keyboard-response","12","22576","0.0-5.0-3.2","610c736500a4b33398fef94f","bdp_rd","Mon Apr 10 2023 18:33:18 GMT-0400 (Eastern Daylight Time)","128630","","null","","","","offerFB","","<div class='trialBorder'><div class='vertical-center'><img style='vertical-align:center; align:center' src=img/fixation3.jpg></div><div class='cl'><div class='vertical-center'><font style='color:orange'>$17<br>with a<br>50% chance</font></div></div><div class='cr'><div class='vertical-center'>$3<br>for<br>sure</div></div><div class='respDivL'><div class='vertical-center'><font style='color:orange'>(E)</font></div></div><div class='respDivR'><div class='vertical-center'>(I)</div></div></div>","null","$3","$17","1","3","17",""
"html-keyboard-response","13","23085","0.0-5.0-1.3","610c736500a4b33398fef94f","bdp_rd","Mon Apr 10 2023 18:33:18 GMT-0400 (Eastern Daylight Time)","128630","","null","","","","FIX","","<div class='trialBorder'><div class='vertical-center'><img style='vertical-align:center; align:center' src=img/fixation3.jpg></div></div>","null","","","","","",""
"html-keyboard-response","14","25164","0.0-5.0-2.3","610c736500a4b33398fef94f","bdp_rd","Mon Apr 10 2023 18:33:18 GMT-0400 (Eastern Daylight Time)","128630","","2077","","","","offer","","<div class='trialBorder'><div class='vertical-center'><img style='vertical-align:center; align:center' src=img/fixation3.jpg></div><div class='cl'><div class='vertical-center'>$11<br>for<br>sure</div></div><div class='cr'><div class='vertical-center'>$26<br>with a<br>50% chance</div></div><div class='respDivL'><div class='vertical-center'>(E)</div></div><div class='respDivR'><div class='vertical-center'>(I)</div></div></div>","I","$11","$26","0","11","26","RISKY"
"html-keyboard-response","15","25424","0.0-5.0-3.3","610c736500a4b33398fef94f","bdp_rd","Mon Apr 10 2023 18:33:18 GMT-0400 (Eastern Daylight Time)","128630","","null","","","","offerFB","","<div class='trialBorder'><div class='vertical-center'><img style='vertical-align:center; align:center' src=img/fixation3.jpg></div><div class='cl'><div class='vertical-center'>$11<br>for<br>sure</div></div><div class='cr'><div class='vertical-center'><font style='color:orange'>$26<br>with a<br>50% chance</font></div></div><div class='respDivL'><div class='vertical-center'>(E)</div></div><div class='respDivR'><div class='vertical-center'><font style='color:orange'>(I)</font></div></div></div>","null","$11","$26","0","11","26",""
"html-keyboard-response","16","25931","0.0-5.0-1.4","610c736500a4b33398fef94f","bdp_rd","Mon Apr 10 2023 18:33:18 GMT-0400 (Eastern Daylight Time)","128630","","null","","","","FIX","","<div class='trialBorder'><div class='vertical-center'><img style='vertical-align:center; align:center' src=img/fixation3.jpg></div></div>","null","","","","","",""
"html-keyboard-response","17","26885","0.0-5.0-2.4","610c736500a4b33398fef94f","bdp_rd","Mon Apr 10 2023 18:33:18 GMT-0400 (Eastern Daylight Time)","128630","","953","","","","offer","","<div class='trialBorder'><div class='vertical-center'><img style='vertical-align:center; align:center' src=img/fixation3.jpg></div><div class='cl'><div class='vertical-center'>$31<br>for<br>sure</div></div><div class='cr'><div class='vertical-center'>$78<br>with a<br>50% chance</div></div><div class='respDivL'><div class='vertical-center'>(E)</div></div><div class='respDivR'><div class='vertical-center'>(I)</div></div></div>","I","$31","$78","0","31","78","RISKY"
"html-keyboard-response","18","27140","0.0-5.0-3.4","610c736500a4b33398fef94f","bdp_rd","Mon Apr 10 2023 18:33:18 GMT-0400 (Eastern Daylight Time)","128630","","null","","","","offerFB","","<div class='trialBorder'><div class='vertical-center'><img style='vertical-align:center; align:center' src=img/fixation3.jpg></div><div class='cl'><div class='vertical-center'>$31<br>for<br>sure</div></div><div class='cr'><div class='vertical-center'><font style='color:orange'>$78<br>with a<br>50% chance</font></div></div><div class='respDivL'><div class='vertical-center'>(E)</div></div><div class='respDivR'><div class='vertical-center'><font style='color:orange'>(I)</font></div></div></div>","null","$31","$78","0","31","78",""
"html-keyboard-response","19","27645","0.0-5.0-1.5","610c736500a4b33398fef94f","bdp_rd","Mon Apr 10 2023 18:33:18 GMT-0400 (Eastern Daylight Time)","128630","","null","","","","FIX","","<div class='trialBorder'><div class='vertical-center'><img style='vertical-align:center; align:center' src=img/fixation3.jpg></div></div>","null","","","","","",""
"html-keyboard-response","20","28404","0.0-5.0-2.5","610c736500a4b33398fef94f","bdp_rd","Mon Apr 10 2023 18:33:18 GMT-0400 (Eastern Daylight Time)","128630","","757","","","","offer","","<div class='trialBorder'><div class='vertical-center'><img style='vertical-align:center; align:center' src=img/fixation3.jpg></div><div class='cl'><div class='vertical-center'>$20<br>for<br>sure</div></div><div class='cr'><div class='vertical-center'>$80<br>with a<br>50% chance</div></div><div class='respDivL'><div class='vertical-center'>(E)</div></div><div class='respDivR'><div class='vertical-center'>(I)</div></div></div>","I","$20","$80","0","20","80","RISKY"
"html-keyboard-response","21","28661","0.0-5.0-3.5","610c736500a4b33398fef94f","bdp_rd","Mon Apr 10 2023 18:33:18 GMT-0400 (Eastern Daylight Time)","128630","","null","","","","offerFB","","<div class='trialBorder'><div class='vertical-center'><img style='vertical-align:center; align:center' src=img/fixation3.jpg></div><div class='cl'><div class='vertical-center'>$20<br>for<br>sure</div></div><div class='cr'><div class='vertical-center'><font style='color:orange'>$80<br>with a<br>50% chance</font></div></div><div class='respDivL'><div class='vertical-center'>(E)</div></div><div class='respDivR'><div class='vertical-center'><font style='color:orange'>(I)</font></div></div></div>","null","$20","$80","0","20","80",""
"html-keyboard-response","22","29169","0.0-5.0-1.6","610c736500a4b33398fef94f","bdp_rd","Mon Apr 10 2023 18:33:18 GMT-0400 (Eastern Daylight Time)","128630","","null","","","","FIX","","<div class='trialBorder'><div class='vertical-center'><img style='vertical-align:center; align:center' src=img/fixation3.jpg></div></div>","null","","","","","",""
"html-keyboard-response","23","31038","0.0-5.0-2.6","610c736500a4b33398fef94f","bdp_rd","Mon Apr 10 2023 18:33:18 GMT-0400 (Eastern Daylight Time)","128630","","1868","","","","offer","","<div class='trialBorder'><div class='vertical-center'><img style='vertical-align:center; align:center' src=img/fixation3.jpg></div><div class='cl'><div class='vertical-center'>$45<br>for<br>sure</div></div><div class='cr'><div class='vertical-center'>$86<br>with a<br>50% chance</div></div><div class='respDivL'><div class='vertical-center'>(E)</div></div><div class='respDivR'><div class='vertical-center'>(I)</div></div></div>","E","$45","$86","0","45","86","SURE"
"html-keyboard-response","24","31293","0.0-5.0-3.6","610c736500a4b33398fef94f","bdp_rd","Mon Apr 10 2023 18:33:18 GMT-0400 (Eastern Daylight Time)","128630","","null","","","","offerFB","","<div class='trialBorder'><div class='vertical-center'><img style='vertical-align:center; align:center' src=img/fixation3.jpg></div><div class='cl'><div class='vertical-center'><font style='color:orange'>$45<br>for<br>sure</font></div></div><div class='cr'><div class='vertical-center'>$86<br>with a<br>50% chance</div></div><div class='respDivL'><div class='vertical-center'><font style='color:orange'>(E)</font></div></div><div class='respDivR'><div class='vertical-center'>(I)</div></div></div>","null","$45","$86","0","45","86",""
"html-keyboard-response","25","31800","0.0-5.0-1.7","610c736500a4b33398fef94f","bdp_rd","Mon Apr 10 2023 18:33:18 GMT-0400 (Eastern Daylight Time)","128630","","null","","","","FIX","","<div class='trialBorder'><div class='vertical-center'><img style='vertical-align:center; align:center' src=img/fixation3.jpg></div></div>","null","","","","","",""
"html-keyboard-response","26","33042","0.0-5.0-2.7","610c736500a4b33398fef94f","bdp_rd","Mon Apr 10 2023 18:33:18 GMT-0400 (Eastern Daylight Time)","128630","","1241","","","","offer","","<div class='trialBorder'><div class='vertical-center'><img style='vertical-align:center; align:center' src=img/fixation3.jpg></div><div class='cl'><div class='vertical-center'>$58<br>for<br>sure</div></div><div class='cr'><div class='vertical-center'>$69<br>with a<br>50% chance</div></div><div class='respDivL'><div class='vertical-center'>(E)</div></div><div class='respDivR'><div class='vertical-center'>(I)</div></div></div>","E","$58","$69","0","58","69","SURE"
"html-keyboard-response","27","33303","0.0-5.0-3.7","610c736500a4b33398fef94f","bdp_rd","Mon Apr 10 2023 18:33:18 GMT-0400 (Eastern Daylight Time)","128630","","null","","","","offerFB","","<div class='trialBorder'><div class='vertical-center'><img style='vertical-align:center; align:center' src=img/fixation3.jpg></div><div class='cl'><div class='vertical-center'><font style='color:orange'>$58<br>for<br>sure</font></div></div><div class='cr'><div class='vertical-center'>$69<br>with a<br>50% chance</div></div><div class='respDivL'><div class='vertical-center'><font style='color:orange'>(E)</font></div></div><div class='respDivR'><div class='vertical-center'>(I)</div></div></div>","null","$58","$69","0","58","69",""
"html-keyboard-response","28","33810","0.0-5.0-1.8","610c736500a4b33398fef94f","bdp_rd","Mon Apr 10 2023 18:33:18 GMT-0400 (Eastern Daylight Time)","128630","","null","","","","FIX","","<div class='trialBorder'><div class='vertical-center'><img style='vertical-align:center; align:center' src=img/fixation3.jpg></div></div>","null","","","","","",""
"html-keyboard-response","29","35452","0.0-5.0-2.8","610c736500a4b33398fef94f","bdp_rd","Mon Apr 10 2023 18:33:18 GMT-0400 (Eastern Daylight Time)","128630","","1641","","","","offer","","<div class='trialBorder'><div class='vertical-center'><img style='vertical-align:center; align:center' src=img/fixation3.jpg></div><div class='cl'><div class='vertical-center'>$39<br>with a<br>50% chance</div></div><div class='cr'><div class='vertical-center'>$18<br>for<br>sure</div></div><div class='respDivL'><div class='vertical-center'>(E)</div></div><div class='respDivR'><div class='vertical-center'>(I)</div></div></div>","E","$18","$39","1","18","39","RISKY"
"html-keyboard-response","30","35709","0.0-5.0-3.8","610c736500a4b33398fef94f","bdp_rd","Mon Apr 10 2023 18:33:18 GMT-0400 (Eastern Daylight Time)","128630","","null","","","","offerFB","","<div class='trialBorder'><div class='vertical-center'><img style='vertical-align:center; align:center' src=img/fixation3.jpg></div><div class='cl'><div class='vertical-center'><font style='color:orange'>$39<br>with a<br>50% chance</font></div></div><div class='cr'><div class='vertical-center'>$18<br>for<br>sure</div></div><div class='respDivL'><div class='vertical-center'><font style='color:orange'>(E)</font></div></div><div class='respDivR'><div class='vertical-center'>(I)</div></div></div>","null","$18","$39","1","18","39",""
"html-keyboard-response","31","36213","0.0-5.0-1.9","610c736500a4b33398fef94f","bdp_rd","Mon Apr 10 2023 18:33:18 GMT-0400 (Eastern Daylight Time)","128630","","null","","","","FIX","","<div class='trialBorder'><div class='vertical-center'><img style='vertical-align:center; align:center' src=img/fixation3.jpg></div></div>","null","","","","","",""
"html-keyboard-response","32","37468","0.0-5.0-2.9","610c736500a4b33398fef94f","bdp_rd","Mon Apr 10 2023 18:33:18 GMT-0400 (Eastern Daylight Time)","128630","","1254","","","","offer","","<div class='trialBorder'><div class='vertical-center'><img style='vertical-align:center; align:center' src=img/fixation3.jpg></div><div class='cl'><div class='vertical-center'>$73<br>with a<br>50% chance</div></div><div class='cr'><div class='vertical-center'>$42<br>for<br>sure</div></div><div class='respDivL'><div class='vertical-center'>(E)</div></div><div class='respDivR'><div class='vertical-center'>(I)</div></div></div>","I","$42","$73","1","42","73","SURE"
"html-keyboard-response","33","37723","0.0-5.0-3.9","610c736500a4b33398fef94f","bdp_rd","Mon Apr 10 2023 18:33:18 GMT-0400 (Eastern Daylight Time)","128630","","null","","","","offerFB","","<div class='trialBorder'><div class='vertical-center'><img style='vertical-align:center; align:center' src=img/fixation3.jpg></div><div class='cl'><div class='vertical-center'>$73<br>with a<br>50% chance</div></div><div class='cr'><div class='vertical-center'><font style='color:orange'>$42<br>for<br>sure</font></div></div><div class='respDivL'><div class='vertical-center'>(E)</div></div><div class='respDivR'><div class='vertical-center'><font style='color:orange'>(I)</font></div></div></div>","null","$42","$73","1","42","73",""
"html-keyboard-response","34","38229","0.0-5.0-1.10","610c736500a4b33398fef94f","bdp_rd","Mon Apr 10 2023 18:33:18 GMT-0400 (Eastern Daylight Time)","128630","","null","","","","FIX","","<div class='trialBorder'><div class='vertical-center'><img style='vertical-align:center; align:center' src=img/fixation3.jpg></div></div>","null","","","","","",""
"html-keyboard-response","35","39411","0.0-5.0-2.10","610c736500a4b33398fef94f","bdp_rd","Mon Apr 10 2023 18:33:18 GMT-0400 (Eastern Daylight Time)","128630","","1180","","","","offer","","<div class='trialBorder'><div class='vertical-center'><img style='vertical-align:center; align:center' src=img/fixation3.jpg></div><div class='cl'><div class='vertical-center'>$100<br>with a<br>50% chance</div></div><div class='cr'><div class='vertical-center'>$63<br>for<br>sure</div></div><div class='respDivL'><div class='vertical-center'>(E)</div></div><div class='respDivR'><div class='vertical-center'>(I)</div></div></div>","I","$63","$100","1","63","10","SURE"
"html-keyboard-response","36","39670","0.0-5.0-3.10","610c736500a4b33398fef94f","bdp_rd","Mon Apr 10 2023 18:33:18 GMT-0400 (Eastern Daylight Time)","128630","","null","","","","offerFB","","<div class='trialBorder'><div class='vertical-center'><img style='vertical-align:center; align:center' src=img/fixation3.jpg></div><div class='cl'><div class='vertical-center'>$100<br>with a<br>50% chance</div></div><div class='cr'><div class='vertical-center'><font style='color:orange'>$63<br>for<br>sure</font></div></div><div class='respDivL'><div class='vertical-center'>(E)</div></div><div class='respDivR'><div class='vertical-center'><font style='color:orange'>(I)</font></div></div></div>","null","$63","$100","1","63","10",""
"html-keyboard-response","37","40175","0.0-5.0-1.11","610c736500a4b33398fef94f","bdp_rd","Mon Apr 10 2023 18:33:18 GMT-0400 (Eastern Daylight Time)","128630","","null","","","","FIX","","<div class='trialBorder'><div class='vertical-center'><img style='vertical-align:center; align:center' src=img/fixation3.jpg></div></div>","null","","","","","",""
"html-keyboard-response","38","41654","0.0-5.0-2.11","610c736500a4b33398fef94f","bdp_rd","Mon Apr 10 2023 18:33:18 GMT-0400 (Eastern Daylight Time)","128630","","1478","","","","offer","","<div class='trialBorder'><div class='vertical-center'><img style='vertical-align:center; align:center' src=img/fixation3.jpg></div><div class='cl'><div class='vertical-center'>$22<br>with a<br>50% chance</div></div><div class='cr'><div class='vertical-center'>$14<br>for<br>sure</div></div><div class='respDivL'><div class='vertical-center'>(E)</div></div><div class='respDivR'><div class='vertical-center'>(I)</div></div></div>","I","$14","$22","1","14","22","SURE"
"html-keyboard-response","39","41914","0.0-5.0-3.11","610c736500a4b33398fef94f","bdp_rd","Mon Apr 10 2023 18:33:18 GMT-0400 (Eastern Daylight Time)","128630","","null","","","","offerFB","","<div class='trialBorder'><div class='vertical-center'><img style='vertical-align:center; align:center' src=img/fixation3.jpg></div><div class='cl'><div class='vertical-center'>$22<br>with a<br>50% chance</div></div><div class='cr'><div class='vertical-center'><font style='color:orange'>$14<br>for<br>sure</font></div></div><div class='respDivL'><div class='vertical-center'>(E)</div></div><div class='respDivR'><div class='vertical-center'><font style='color:orange'>(I)</font></div></div></div>","null","$14","$22","1","14","22",""
"html-keyboard-response","40","42429","0.0-5.0-1.12","610c736500a4b33398fef94f","bdp_rd","Mon Apr 10 2023 18:33:18 GMT-0400 (Eastern Daylight Time)","128630","","null","","","","FIX","","<div class='trialBorder'><div class='vertical-center'><img style='vertical-align:center; align:center' src=img/fixation3.jpg></div></div>","null","","","","","",""
"html-keyboard-response","41","43447","0.0-5.0-2.12","610c736500a4b33398fef94f","bdp_rd","Mon Apr 10 2023 18:33:18 GMT-0400 (Eastern Daylight Time)","128630","","1016","","","","offer","","<div class='trialBorder'><div class='vertical-center'><img style='vertical-align:center; align:center' src=img/fixation3.jpg></div><div class='cl'><div class='vertical-center'>$1<br>for<br>sure</div></div><div class='cr'><div class='vertical-center'>$30<br>with a<br>50% chance</div></div><div class='respDivL'><div class='vertical-center'>(E)</div></div><div class='respDivR'><div class='vertical-center'>(I)</div></div></div>","I","$1","$30","0","1","30","RISKY"
"html-keyboard-response","42","43706","0.0-5.0-3.12","610c736500a4b33398fef94f","bdp_rd","Mon Apr 10 2023 18:33:18 GMT-0400 (Eastern Daylight Time)","128630","","null","","","","offerFB","","<div class='trialBorder'><div class='vertical-center'><img style='vertical-align:center; align:center' src=img/fixation3.jpg></div><div class='cl'><div class='vertical-center'>$1<br>for<br>sure</div></div><div class='cr'><div class='vertical-center'><font style='color:orange'>$30<br>with a<br>50% chance</font></div></div><div class='respDivL'><div class='vertical-center'>(E)</div></div><div class='respDivR'><div class='vertical-center'><font style='color:orange'>(I)</font></div></div></div>","null","$1","$30","0","1","30",""
"html-keyboard-response","43","44211","0.0-5.0-1.13","610c736500a4b33398fef94f","bdp_rd","Mon Apr 10 2023 18:33:18 GMT-0400 (Eastern Daylight Time)","128630","","null","","","","FIX","","<div class='trialBorder'><div class='vertical-center'><img style='vertical-align:center; align:center' src=img/fixation3.jpg></div></div>","null","","","","","",""
"html-keyboard-response","44","45506","0.0-5.0-2.13","610c736500a4b33398fef94f","bdp_rd","Mon Apr 10 2023 18:33:18 GMT-0400 (Eastern Daylight Time)","128630","","1294","","","","offer","","<div class='trialBorder'><div class='vertical-center'><img style='vertical-align:center; align:center' src=img/fixation3.jpg></div><div class='cl'><div class='vertical-center'>$16<br>for<br>sure</div></div><div class='cr'><div class='vertical-center'>$28<br>with a<br>50% chance</div></div><div class='respDivL'><div class='vertical-center'>(E)</div></div><div class='respDivR'><div class='vertical-center'>(I)</div></div></div>","E","$16","$28","0","16","28","SURE"
"html-keyboard-response","45","45758","0.0-5.0-3.13","610c736500a4b33398fef94f","bdp_rd","Mon Apr 10 2023 18:33:18 GMT-0400 (Eastern Daylight Time)","128630","","null","","","","offerFB","","<div class='trialBorder'><div class='vertical-center'><img style='vertical-align:center; align:center' src=img/fixation3.jpg></div><div class='cl'><div class='vertical-center'><font style='color:orange'>$16<br>for<br>sure</font></div></div><div class='cr'><div class='vertical-center'>$28<br>with a<br>50% chance</div></div><div class='respDivL'><div class='vertical-center'><font style='color:orange'>(E)</font></div></div><div class='respDivR'><div class='vertical-center'>(I)</div></div></div>","null","$16","$28","0","16","28",""
"html-keyboard-response","46","46262","0.0-5.0-1.14","610c736500a4b33398fef94f","bdp_rd","Mon Apr 10 2023 18:33:18 GMT-0400 (Eastern Daylight Time)","128630","","null","","","","FIX","","<div class='trialBorder'><div class='vertical-center'><img style='vertical-align:center; align:center' src=img/fixation3.jpg></div></div>","null","","","","","",""
"html-keyboard-response","47","47212","0.0-5.0-2.14","610c736500a4b33398fef94f","bdp_rd","Mon Apr 10 2023 18:33:18 GMT-0400 (Eastern Daylight Time)","128630","","949","","","","offer","","<div class='trialBorder'><div class='vertical-center'><img style='vertical-align:center; align:center' src=img/fixation3.jpg></div><div class='cl'><div class='vertical-center'>$5<br>for<br>sure</div></div><div class='cr'><div class='vertical-center'>$50<br>with a<br>50% chance</div></div><div class='respDivL'><div class='vertical-center'>(E)</div></div><div class='respDivR'><div class='vertical-center'>(I)</div></div></div>","I","$5","$50","0","5","50","RISKY"
"html-keyboard-response","48","47474","0.0-5.0-3.14","610c736500a4b33398fef94f","bdp_rd","Mon Apr 10 2023 18:33:18 GMT-0400 (Eastern Daylight Time)","128630","","null","","","","offerFB","","<div class='trialBorder'><div class='vertical-center'><img style='vertical-align:center; align:center' src=img/fixation3.jpg></div><div class='cl'><div class='vertical-center'>$5<br>for<br>sure</div></div><div class='cr'><div class='vertical-center'><font style='color:orange'>$50<br>with a<br>50% chance</font></div></div><div class='respDivL'><div class='vertical-center'>(E)</div></div><div class='respDivR'><div class='vertical-center'><font style='color:orange'>(I)</font></div></div></div>","null","$5","$50","0","5","50",""
"html-keyboard-response","49","47978","0.0-5.0-1.15","610c736500a4b33398fef94f","bdp_rd","Mon Apr 10 2023 18:33:18 GMT-0400 (Eastern Daylight Time)","128630","","null","","","","FIX","","<div class='trialBorder'><div class='vertical-center'><img style='vertical-align:center; align:center' src=img/fixation3.jpg></div></div>","null","","","","","",""
"html-keyboard-response","50","49151","0.0-5.0-2.15","610c736500a4b33398fef94f","bdp_rd","Mon Apr 10 2023 18:33:18 GMT-0400 (Eastern Daylight Time)","128630","","1172","","","","offer","","<div class='trialBorder'><div class='vertical-center'><img style='vertical-align:center; align:center' src=img/fixation3.jpg></div><div class='cl'><div class='vertical-center'>$29<br>for<br>sure</div></div><div class='cr'><div class='vertical-center'>$46<br>with a<br>50% chance</div></div><div class='respDivL'><div class='vertical-center'>(E)</div></div><div class='respDivR'><div class='vertical-center'>(I)</div></div></div>","I","$29","$46","0","29","46","RISKY"
"html-keyboard-response","51","49411","0.0-5.0-3.15","610c736500a4b33398fef94f","bdp_rd","Mon Apr 10 2023 18:33:18 GMT-0400 (Eastern Daylight Time)","128630","","null","","","","offerFB","","<div class='trialBorder'><div class='vertical-center'><img style='vertical-align:center; align:center' src=img/fixation3.jpg></div><div class='cl'><div class='vertical-center'>$29<br>for<br>sure</div></div><div class='cr'><div class='vertical-center'><font style='color:orange'>$46<br>with a<br>50% chance</font></div></div><div class='respDivL'><div class='vertical-center'>(E)</div></div><div class='respDivR'><div class='vertical-center'><font style='color:orange'>(I)</font></div></div></div>","null","$29","$46","0","29","46",""
"html-keyboard-response","52","49915","0.0-5.0-1.16","610c736500a4b33398fef94f","bdp_rd","Mon Apr 10 2023 18:33:18 GMT-0400 (Eastern Daylight Time)","128630","","null","","","","FIX","","<div class='trialBorder'><div class='vertical-center'><img style='vertical-align:center; align:center' src=img/fixation3.jpg></div></div>","null","","","","","",""
"html-keyboard-response","53","51809","0.0-5.0-2.16","610c736500a4b33398fef94f","bdp_rd","Mon Apr 10 2023 18:33:18 GMT-0400 (Eastern Daylight Time)","128630","","1892","","","","offer","","<div class='trialBorder'><div class='vertical-center'><img style='vertical-align:center; align:center' src=img/fixation3.jpg></div><div class='cl'><div class='vertical-center'>$21<br>with a<br>50% chance</div></div><div class='cr'><div class='vertical-center'>$2<br>for<br>sure</div></div><div class='respDivL'><div class='vertical-center'>(E)</div></div><div class='respDivR'><div class='vertical-center'>(I)</div></div></div>","E","$2","$21","1","2","21","RISKY"
"html-keyboard-response","54","52067","0.0-5.0-3.16","610c736500a4b33398fef94f","bdp_rd","Mon Apr 10 2023 18:33:18 GMT-0400 (Eastern Daylight Time)","128630","","null","","","","offerFB","","<div class='trialBorder'><div class='vertical-center'><img style='vertical-align:center; align:center' src=img/fixation3.jpg></div><div class='cl'><div class='vertical-center'><font style='color:orange'>$21<br>with a<br>50% chance</font></div></div><div class='cr'><div class='vertical-center'>$2<br>for<br>sure</div></div><div class='respDivL'><div class='vertical-center'><font style='color:orange'>(E)</font></div></div><div class='respDivR'><div class='vertical-center'>(I)</div></div></div>","null","$2","$21","1","2","21",""
"html-keyboard-response","55","52575","0.0-5.0-1.17","610c736500a4b33398fef94f","bdp_rd","Mon Apr 10 2023 18:33:18 GMT-0400 (Eastern Daylight Time)","128630","","null","","","","FIX","","<div class='trialBorder'><div class='vertical-center'><img style='vertical-align:center; align:center' src=img/fixation3.jpg></div></div>","null","","","","","",""
"html-keyboard-response","56","53516","0.0-5.0-2.17","610c736500a4b33398fef94f","bdp_rd","Mon Apr 10 2023 18:33:18 GMT-0400 (Eastern Daylight Time)","128630","","939","","","","offer","","<div class='trialBorder'><div class='vertical-center'><img style='vertical-align:center; align:center' src=img/fixation3.jpg></div><div class='cl'><div class='vertical-center'>$70<br>with a<br>50% chance</div></div><div class='cr'><div class='vertical-center'>$24<br>for<br>sure</div></div><div class='respDivL'><div class='vertical-center'>(E)</div></div><div class='respDivR'><div class='vertical-center'>(I)</div></div></div>","E","$24","$70","1","24","70","RISKY"
"html-keyboard-response","57","53781","0.0-5.0-3.17","610c736500a4b33398fef94f","bdp_rd","Mon Apr 10 2023 18:33:18 GMT-0400 (Eastern Daylight Time)","128630","","null","","","","offerFB","","<div class='trialBorder'><div class='vertical-center'><img style='vertical-align:center; align:center' src=img/fixation3.jpg></div><div class='cl'><div class='vertical-center'><font style='color:orange'>$70<br>with a<br>50% chance</font></div></div><div class='cr'><div class='vertical-center'>$24<br>for<br>sure</div></div><div class='respDivL'><div class='vertical-center'><font style='color:orange'>(E)</font></div></div><div class='respDivR'><div class='vertical-center'>(I)</div></div></div>","null","$24","$70","1","24","70",""
"html-keyboard-response","58","54287","0.0-5.0-1.18","610c736500a4b33398fef94f","bdp_rd","Mon Apr 10 2023 18:33:18 GMT-0400 (Eastern Daylight Time)","128630","","null","","","","FIX","","<div class='trialBorder'><div class='vertical-center'><img style='vertical-align:center; align:center' src=img/fixation3.jpg></div></div>","null","","","","","",""
"html-keyboard-response","59","55413","0.0-5.0-2.18","610c736500a4b33398fef94f","bdp_rd","Mon Apr 10 2023 18:33:18 GMT-0400 (Eastern Daylight Time)","128630","","1124","","","","offer","","<div class='trialBorder'><div class='vertical-center'><img style='vertical-align:center; align:center' src=img/fixation3.jpg></div><div class='cl'><div class='vertical-center'>$18<br>with a<br>50% chance</div></div><div class='cr'><div class='vertical-center'>$9<br>for<br>sure</div></div><div class='respDivL'><div class='vertical-center'>(E)</div></div><div class='respDivR'><div class='vertical-center'>(I)</div></div></div>","I","$9","$18","1","9","18","SURE"
"html-keyboard-response","60","55677","0.0-5.0-3.18","610c736500a4b33398fef94f","bdp_rd","Mon Apr 10 2023 18:33:18 GMT-0400 (Eastern Daylight Time)","128630","","null","","","","offerFB","","<div class='trialBorder'><div class='vertical-center'><img style='vertical-align:center; align:center' src=img/fixation3.jpg></div><div class='cl'><div class='vertical-center'>$18<br>with a<br>50% chance</div></div><div class='cr'><div class='vertical-center'><font style='color:orange'>$9<br>for<br>sure</font></div></div><div class='respDivL'><div class='vertical-center'>(E)</div></div><div class='respDivR'><div class='vertical-center'><font style='color:orange'>(I)</font></div></div></div>","null","$9","$18","1","9","18",""
"html-keyboard-response","61","56181","0.0-5.0-1.19","610c736500a4b33398fef94f","bdp_rd","Mon Apr 10 2023 18:33:18 GMT-0400 (Eastern Daylight Time)","128630","","null","","","","FIX","","<div class='trialBorder'><div class='vertical-center'><img style='vertical-align:center; align:center' src=img/fixation3.jpg></div></div>","null","","","","","",""
"html-keyboard-response","62","57145","0.0-5.0-2.19","610c736500a4b33398fef94f","bdp_rd","Mon Apr 10 2023 18:33:18 GMT-0400 (Eastern Daylight Time)","128630","","962","","","","offer","","<div class='trialBorder'><div class='vertical-center'><img style='vertical-align:center; align:center' src=img/fixation3.jpg></div><div class='cl'><div class='vertical-center'>$5<br>for<br>sure</div></div><div class='cr'><div class='vertical-center'>$16<br>with a<br>50% chance</div></div><div class='respDivL'><div class='vertical-center'>(E)</div></div><div class='respDivR'><div class='vertical-center'>(I)</div></div></div>","I","$5","$16","0","5","16","RISKY"
"html-keyboard-response","63","57403","0.0-5.0-3.19","610c736500a4b33398fef94f","bdp_rd","Mon Apr 10 2023 18:33:18 GMT-0400 (Eastern Daylight Time)","128630","","null","","","","offerFB","","<div class='trialBorder'><div class='vertical-center'><img style='vertical-align:center; align:center' src=img/fixation3.jpg></div><div class='cl'><div class='vertical-center'>$5<br>for<br>sure</div></div><div class='cr'><div class='vertical-center'><font style='color:orange'>$16<br>with a<br>50% chance</font></div></div><div class='respDivL'><div class='vertical-center'>(E)</div></div><div class='respDivR'><div class='vertical-center'><font style='color:orange'>(I)</font></div></div></div>","null","$5","$16","0","5","16",""
"html-keyboard-response","64","57915","0.0-5.0-1.20","610c736500a4b33398fef94f","bdp_rd","Mon Apr 10 2023 18:33:18 GMT-0400 (Eastern Daylight Time)","128630","","null","","","","FIX","","<div class='trialBorder'><div class='vertical-center'><img style='vertical-align:center; align:center' src=img/fixation3.jpg></div></div>","null","","","","","",""
"html-keyboard-response","65","59002","0.0-5.0-2.20","610c736500a4b33398fef94f","bdp_rd","Mon Apr 10 2023 18:33:18 GMT-0400 (Eastern Daylight Time)","128630","","1086","","","","offer","","<div class='trialBorder'><div class='vertical-center'><img style='vertical-align:center; align:center' src=img/fixation3.jpg></div><div class='cl'><div class='vertical-center'>$59<br>with a<br>50% chance</div></div><div class='cr'><div class='vertical-center'>$22<br>for<br>sure</div></div><div class='respDivL'><div class='vertical-center'>(E)</div></div><div class='respDivR'><div class='vertical-center'>(I)</div></div></div>","E","$22","$59","1","22","59","RISKY"
"html-keyboard-response","66","59268","0.0-5.0-3.20","610c736500a4b33398fef94f","bdp_rd","Mon Apr 10 2023 18:33:18 GMT-0400 (Eastern Daylight Time)","128630","","null","","","","offerFB","","<div class='trialBorder'><div class='vertical-center'><img style='vertical-align:center; align:center' src=img/fixation3.jpg></div><div class='cl'><div class='vertical-center'><font style='color:orange'>$59<br>with a<br>50% chance</font></div></div><div class='cr'><div class='vertical-center'>$22<br>for<br>sure</div></div><div class='respDivL'><div class='vertical-center'><font style='color:orange'>(E)</font></div></div><div class='respDivR'><div class='vertical-center'>(I)</div></div></div>","null","$22","$59","1","22","59",""
"html-keyboard-response","67","59780","0.0-5.0-1.21","610c736500a4b33398fef94f","bdp_rd","Mon Apr 10 2023 18:33:18 GMT-0400 (Eastern Daylight Time)","128630","","null","","","","FIX","","<div class='trialBorder'><div class='vertical-center'><img style='vertical-align:center; align:center' src=img/fixation3.jpg></div></div>","null","","","","","",""
"html-keyboard-response","68","60981","0.0-5.0-2.21","610c736500a4b33398fef94f","bdp_rd","Mon Apr 10 2023 18:33:18 GMT-0400 (Eastern Daylight Time)","128630","","1199","","","","offer","","<div class='trialBorder'><div class='vertical-center'><img style='vertical-align:center; align:center' src=img/fixation3.jpg></div><div class='cl'><div class='vertical-center'>$15<br>for<br>sure</div></div><div class='cr'><div class='vertical-center'>$31<br>with a<br>50% chance</div></div><div class='respDivL'><div class='vertical-center'>(E)</div></div><div class='respDivR'><div class='vertical-center'>(I)</div></div></div>","I","$15","$31","0","15","31","RISKY"
"html-keyboard-response","69","61240","0.0-5.0-3.21","610c736500a4b33398fef94f","bdp_rd","Mon Apr 10 2023 18:33:18 GMT-0400 (Eastern Daylight Time)","128630","","null","","","","offerFB","","<div class='trialBorder'><div class='vertical-center'><img style='vertical-align:center; align:center' src=img/fixation3.jpg></div><div class='cl'><div class='vertical-center'>$15<br>for<br>sure</div></div><div class='cr'><div class='vertical-center'><font style='color:orange'>$31<br>with a<br>50% chance</font></div></div><div class='respDivL'><div class='vertical-center'>(E)</div></div><div class='respDivR'><div class='vertical-center'><font style='color:orange'>(I)</font></div></div></div>","null","$15","$31","0","15","31",""
"html-keyboard-response","70","61744","0.0-5.0-1.22","610c736500a4b33398fef94f","bdp_rd","Mon Apr 10 2023 18:33:18 GMT-0400 (Eastern Daylight Time)","128630","","null","","","","FIX","","<div class='trialBorder'><div class='vertical-center'><img style='vertical-align:center; align:center' src=img/fixation3.jpg></div></div>","null","","","","","",""
"html-keyboard-response","71","62521","0.0-5.0-2.22","610c736500a4b33398fef94f","bdp_rd","Mon Apr 10 2023 18:33:18 GMT-0400 (Eastern Daylight Time)","128630","","775","","","","offer","","<div class='trialBorder'><div class='vertical-center'><img style='vertical-align:center; align:center' src=img/fixation3.jpg></div><div class='cl'><div class='vertical-center'>$33<br>with a<br>50% chance</div></div><div class='cr'><div class='vertical-center'>$1<br>for<br>sure</div></div><div class='respDivL'><div class='vertical-center'>(E)</div></div><div class='respDivR'><div class='vertical-center'>(I)</div></div></div>","E","$1","$33","1","1","33","RISKY"
"html-keyboard-response","72","62779","0.0-5.0-3.22","610c736500a4b33398fef94f","bdp_rd","Mon Apr 10 2023 18:33:18 GMT-0400 (Eastern Daylight Time)","128630","","null","","","","offerFB","","<div class='trialBorder'><div class='vertical-center'><img style='vertical-align:center; align:center' src=img/fixation3.jpg></div><div class='cl'><div class='vertical-center'><font style='color:orange'>$33<br>with a<br>50% chance</font></div></div><div class='cr'><div class='vertical-center'>$1<br>for<br>sure</div></div><div class='respDivL'><div class='vertical-center'><font style='color:orange'>(E)</font></div></div><div class='respDivR'><div class='vertical-center'>(I)</div></div></div>","null","$1","$33","1","1","33",""
"html-keyboard-response","73","63285","0.0-5.0-1.23","610c736500a4b33398fef94f","bdp_rd","Mon Apr 10 2023 18:33:18 GMT-0400 (Eastern Daylight Time)","128630","","null","","","","FIX","","<div class='trialBorder'><div class='vertical-center'><img style='vertical-align:center; align:center' src=img/fixation3.jpg></div></div>","null","","","","","",""
"html-keyboard-response","74","64061","0.0-5.0-2.23","610c736500a4b33398fef94f","bdp_rd","Mon Apr 10 2023 18:33:18 GMT-0400 (Eastern Daylight Time)","128630","","775","","","","offer","","<div class='trialBorder'><div class='vertical-center'><img style='vertical-align:center; align:center' src=img/fixation3.jpg></div><div class='cl'><div class='vertical-center'>$68<br>with a<br>50% chance</div></div><div class='cr'><div class='vertical-center'>$30<br>for<br>sure</div></div><div class='respDivL'><div class='vertical-center'>(E)</div></div><div class='respDivR'><div class='vertical-center'>(I)</div></div></div>","E","$30","$68","1","30","68","RISKY"
"html-keyboard-response","75","64319","0.0-5.0-3.23","610c736500a4b33398fef94f","bdp_rd","Mon Apr 10 2023 18:33:18 GMT-0400 (Eastern Daylight Time)","128630","","null","","","","offerFB","","<div class='trialBorder'><div class='vertical-center'><img style='vertical-align:center; align:center' src=img/fixation3.jpg></div><div class='cl'><div class='vertical-center'><font style='color:orange'>$68<br>with a<br>50% chance</font></div></div><div class='cr'><div class='vertical-center'>$30<br>for<br>sure</div></div><div class='respDivL'><div class='vertical-center'><font style='color:orange'>(E)</font></div></div><div class='respDivR'><div class='vertical-center'>(I)</div></div></div>","null","$30","$68","1","30","68",""
"html-keyboard-response","76","64827","0.0-5.0-1.24","610c736500a4b33398fef94f","bdp_rd","Mon Apr 10 2023 18:33:18 GMT-0400 (Eastern Daylight Time)","128630","","null","","","","FIX","","<div class='trialBorder'><div class='vertical-center'><img style='vertical-align:center; align:center' src=img/fixation3.jpg></div></div>","null","","","","","",""
"html-keyboard-response","77","66502","0.0-5.0-2.24","610c736500a4b33398fef94f","bdp_rd","Mon Apr 10 2023 18:33:18 GMT-0400 (Eastern Daylight Time)","128630","","1673","","","","offer","","<div class='trialBorder'><div class='vertical-center'><img style='vertical-align:center; align:center' src=img/fixation3.jpg></div><div class='cl'><div class='vertical-center'>$53<br>for<br>sure</div></div><div class='cr'><div class='vertical-center'>$98<br>with a<br>50% chance</div></div><div class='respDivL'><div class='vertical-center'>(E)</div></div><div class='respDivR'><div class='vertical-center'>(I)</div></div></div>","E","$53","$98","0","53","98","SURE"
"html-keyboard-response","78","66755","0.0-5.0-3.24","610c736500a4b33398fef94f","bdp_rd","Mon Apr 10 2023 18:33:18 GMT-0400 (Eastern Daylight Time)","128630","","null","","","","offerFB","","<div class='trialBorder'><div class='vertical-center'><img style='vertical-align:center; align:center' src=img/fixation3.jpg></div><div class='cl'><div class='vertical-center'><font style='color:orange'>$53<br>for<br>sure</font></div></div><div class='cr'><div class='vertical-center'>$98<br>with a<br>50% chance</div></div><div class='respDivL'><div class='vertical-center'><font style='color:orange'>(E)</font></div></div><div class='respDivR'><div class='vertical-center'>(I)</div></div></div>","null","$53","$98","0","53","98",""
"html-keyboard-response","79","67260","0.0-5.0-1.25","610c736500a4b33398fef94f","bdp_rd","Mon Apr 10 2023 18:33:18 GMT-0400 (Eastern Daylight Time)","128630","","null","","","","FIX","","<div class='trialBorder'><div class='vertical-center'><img style='vertical-align:center; align:center' src=img/fixation3.jpg></div></div>","null","","","","","",""
"html-keyboard-response","80","68160","0.0-5.0-2.25","610c736500a4b33398fef94f","bdp_rd","Mon Apr 10 2023 18:33:18 GMT-0400 (Eastern Daylight Time)","128630","","898","","","","offer","","<div class='trialBorder'><div class='vertical-center'><img style='vertical-align:center; align:center' src=img/fixation3.jpg></div><div class='cl'><div class='vertical-center'>$40<br>for<br>sure</div></div><div class='cr'><div class='vertical-center'>$95<br>with a<br>50% chance</div></div><div class='respDivL'><div class='vertical-center'>(E)</div></div><div class='respDivR'><div class='vertical-center'>(I)</div></div></div>","I","$40","$95","0","40","95","RISKY"
"html-keyboard-response","81","68419","0.0-5.0-3.25","610c736500a4b33398fef94f","bdp_rd","Mon Apr 10 2023 18:33:18 GMT-0400 (Eastern Daylight Time)","128630","","null","","","","offerFB","","<div class='trialBorder'><div class='vertical-center'><img style='vertical-align:center; align:center' src=img/fixation3.jpg></div><div class='cl'><div class='vertical-center'>$40<br>for<br>sure</div></div><div class='cr'><div class='vertical-center'><font style='color:orange'>$95<br>with a<br>50% chance</font></div></div><div class='respDivL'><div class='vertical-center'>(E)</div></div><div class='respDivR'><div class='vertical-center'><font style='color:orange'>(I)</font></div></div></div>","null","$40","$95","0","40","95",""
"html-keyboard-response","82","68934","0.0-5.0-1.26","610c736500a4b33398fef94f","bdp_rd","Mon Apr 10 2023 18:33:18 GMT-0400 (Eastern Daylight Time)","128630","","null","","","","FIX","","<div class='trialBorder'><div class='vertical-center'><img style='vertical-align:center; align:center' src=img/fixation3.jpg></div></div>","null","","","","","",""
"html-keyboard-response","83","70639","0.0-5.0-2.26","610c736500a4b33398fef94f","bdp_rd","Mon Apr 10 2023 18:33:18 GMT-0400 (Eastern Daylight Time)","128630","","1704","","","","offer","","<div class='trialBorder'><div class='vertical-center'><img style='vertical-align:center; align:center' src=img/fixation3.jpg></div><div class='cl'><div class='vertical-center'>$42<br>with a<br>50% chance</div></div><div class='cr'><div class='vertical-center'>$22<br>for<br>sure</div></div><div class='respDivL'><div class='vertical-center'>(E)</div></div><div class='respDivR'><div class='vertical-center'>(I)</div></div></div>","I","$22","$42","1","22","42","SURE"
"html-keyboard-response","84","70895","0.0-5.0-3.26","610c736500a4b33398fef94f","bdp_rd","Mon Apr 10 2023 18:33:18 GMT-0400 (Eastern Daylight Time)","128630","","null","","","","offerFB","","<div class='trialBorder'><div class='vertical-center'><img style='vertical-align:center; align:center' src=img/fixation3.jpg></div><div class='cl'><div class='vertical-center'>$42<br>with a<br>50% chance</div></div><div class='cr'><div class='vertical-center'><font style='color:orange'>$22<br>for<br>sure</font></div></div><div class='respDivL'><div class='vertical-center'>(E)</div></div><div class='respDivR'><div class='vertical-center'><font style='color:orange'>(I)</font></div></div></div>","null","$22","$42","1","22","42",""
"html-keyboard-response","85","71403","0.0-5.0-1.27","610c736500a4b33398fef94f","bdp_rd","Mon Apr 10 2023 18:33:18 GMT-0400 (Eastern Daylight Time)","128630","","null","","","","FIX","","<div class='trialBorder'><div class='vertical-center'><img style='vertical-align:center; align:center' src=img/fixation3.jpg></div></div>","null","","","","","",""
"html-keyboard-response","86","72457","0.0-5.0-2.27","610c736500a4b33398fef94f","bdp_rd","Mon Apr 10 2023 18:33:18 GMT-0400 (Eastern Daylight Time)","128630","","1053","","","","offer","","<div class='trialBorder'><div class='vertical-center'><img style='vertical-align:center; align:center' src=img/fixation3.jpg></div><div class='cl'><div class='vertical-center'>$29<br>with a<br>50% chance</div></div><div class='cr'><div class='vertical-center'>$14<br>for<br>sure</div></div><div class='respDivL'><div class='vertical-center'>(E)</div></div><div class='respDivR'><div class='vertical-center'>(I)</div></div></div>","E","$14","$29","1","14","29","RISKY"
"html-keyboard-response","87","72713","0.0-5.0-3.27","610c736500a4b33398fef94f","bdp_rd","Mon Apr 10 2023 18:33:18 GMT-0400 (Eastern Daylight Time)","128630","","null","","","","offerFB","","<div class='trialBorder'><div class='vertical-center'><img style='vertical-align:center; align:center' src=img/fixation3.jpg></div><div class='cl'><div class='vertical-center'><font style='color:orange'>$29<br>with a<br>50% chance</font></div></div><div class='cr'><div class='vertical-center'>$14<br>for<br>sure</div></div><div class='respDivL'><div class='vertical-center'><font style='color:orange'>(E)</font></div></div><div class='respDivR'><div class='vertical-center'>(I)</div></div></div>","null","$14","$29","1","14","29",""
"html-keyboard-response","88","73225","0.0-5.0-1.28","610c736500a4b33398fef94f","bdp_rd","Mon Apr 10 2023 18:33:18 GMT-0400 (Eastern Daylight Time)","128630","","null","","","","FIX","","<div class='trialBorder'><div class='vertical-center'><img style='vertical-align:center; align:center' src=img/fixation3.jpg></div></div>","null","","","","","",""
"html-keyboard-response","89","73987","0.0-5.0-2.28","610c736500a4b33398fef94f","bdp_rd","Mon Apr 10 2023 18:33:18 GMT-0400 (Eastern Daylight Time)","128630","","761","","","","offer","","<div class='trialBorder'><div class='vertical-center'><img style='vertical-align:center; align:center' src=img/fixation3.jpg></div><div class='cl'><div class='vertical-center'>$16<br>for<br>sure</div></div><div class='cr'><div class='vertical-center'>$38<br>with a<br>50% chance</div></div><div class='respDivL'><div class='vertical-center'>(E)</div></div><div class='respDivR'><div class='vertical-center'>(I)</div></div></div>","I","$16","$38","0","16","38","RISKY"
"html-keyboard-response","90","74244","0.0-5.0-3.28","610c736500a4b33398fef94f","bdp_rd","Mon Apr 10 2023 18:33:18 GMT-0400 (Eastern Daylight Time)","128630","","null","","","","offerFB","","<div class='trialBorder'><div class='vertical-center'><img style='vertical-align:center; align:center' src=img/fixation3.jpg></div><div class='cl'><div class='vertical-center'>$16<br>for<br>sure</div></div><div class='cr'><div class='vertical-center'><font style='color:orange'>$38<br>with a<br>50% chance</font></div></div><div class='respDivL'><div class='vertical-center'>(E)</div></div><div class='respDivR'><div class='vertical-center'><font style='color:orange'>(I)</font></div></div></div>","null","$16","$38","0","16","38",""
"html-keyboard-response","91","74747","0.0-5.0-1.29","610c736500a4b33398fef94f","bdp_rd","Mon Apr 10 2023 18:33:18 GMT-0400 (Eastern Daylight Time)","128630","","null","","","","FIX","","<div class='trialBorder'><div class='vertical-center'><img style='vertical-align:center; align:center' src=img/fixation3.jpg></div></div>","null","","","","","",""
"html-keyboard-response","92","75956","0.0-5.0-2.29","610c736500a4b33398fef94f","bdp_rd","Mon Apr 10 2023 18:33:18 GMT-0400 (Eastern Daylight Time)","128630","","1208","","","","offer","","<div class='trialBorder'><div class='vertical-center'><img style='vertical-align:center; align:center' src=img/fixation3.jpg></div><div class='cl'><div class='vertical-center'>$54<br>with a<br>50% chance</div></div><div class='cr'><div class='vertical-center'>$25<br>for<br>sure</div></div><div class='respDivL'><div class='vertical-center'>(E)</div></div><div class='respDivR'><div class='vertical-center'>(I)</div></div></div>","E","$25","$54","1","25","54","RISKY"
"html-keyboard-response","93","76216","0.0-5.0-3.29","610c736500a4b33398fef94f","bdp_rd","Mon Apr 10 2023 18:33:18 GMT-0400 (Eastern Daylight Time)","128630","","null","","","","offerFB","","<div class='trialBorder'><div class='vertical-center'><img style='vertical-align:center; align:center' src=img/fixation3.jpg></div><div class='cl'><div class='vertical-center'><font style='color:orange'>$54<br>with a<br>50% chance</font></div></div><div class='cr'><div class='vertical-center'>$25<br>for<br>sure</div></div><div class='respDivL'><div class='vertical-center'><font style='color:orange'>(E)</font></div></div><div class='respDivR'><div class='vertical-center'>(I)</div></div></div>","null","$25","$54","1","25","54",""
"html-keyboard-response","94","76727","0.0-5.0-1.30","610c736500a4b33398fef94f","bdp_rd","Mon Apr 10 2023 18:33:18 GMT-0400 (Eastern Daylight Time)","128630","","null","","","","FIX","","<div class='trialBorder'><div class='vertical-center'><img style='vertical-align:center; align:center' src=img/fixation3.jpg></div></div>","null","","","","","",""
"html-keyboard-response","95","77302","0.0-5.0-2.30","610c736500a4b33398fef94f","bdp_rd","Mon Apr 10 2023 18:33:18 GMT-0400 (Eastern Daylight Time)","128630","","574","","","","offer","","<div class='trialBorder'><div class='vertical-center'><img style='vertical-align:center; align:center' src=img/fixation3.jpg></div><div class='cl'><div class='vertical-center'>$71<br>with a<br>50% chance</div></div><div class='cr'><div class='vertical-center'>$7<br>for<br>sure</div></div><div class='respDivL'><div class='vertical-center'>(E)</div></div><div class='respDivR'><div class='vertical-center'>(I)</div></div></div>","E","$7","$71","1","7","71","RISKY"
"html-keyboard-response","96","77559","0.0-5.0-3.30","610c736500a4b33398fef94f","bdp_rd","Mon Apr 10 2023 18:33:18 GMT-0400 (Eastern Daylight Time)","128630","","null","","","","offerFB","","<div class='trialBorder'><div class='vertical-center'><img style='vertical-align:center; align:center' src=img/fixation3.jpg></div><div class='cl'><div class='vertical-center'><font style='color:orange'>$71<br>with a<br>50% chance</font></div></div><div class='cr'><div class='vertical-center'>$7<br>for<br>sure</div></div><div class='respDivL'><div class='vertical-center'><font style='color:orange'>(E)</font></div></div><div class='respDivR'><div class='vertical-center'>(I)</div></div></div>","null","$7","$71","1","7","71",""
"html-keyboard-response","97","78065","0.0-5.0-1.31","610c736500a4b33398fef94f","bdp_rd","Mon Apr 10 2023 18:33:18 GMT-0400 (Eastern Daylight Time)","128630","","null","","","","FIX","","<div class='trialBorder'><div class='vertical-center'><img style='vertical-align:center; align:center' src=img/fixation3.jpg></div></div>","null","","","","","",""
"html-keyboard-response","98","79246","0.0-5.0-2.31","610c736500a4b33398fef94f","bdp_rd","Mon Apr 10 2023 18:33:18 GMT-0400 (Eastern Daylight Time)","128630","","1180","","","","offer","","<div class='trialBorder'><div class='vertical-center'><img style='vertical-align:center; align:center' src=img/fixation3.jpg></div><div class='cl'><div class='vertical-center'>$36<br>with a<br>50% chance</div></div><div class='cr'><div class='vertical-center'>$18<br>for<br>sure</div></div><div class='respDivL'><div class='vertical-center'>(E)</div></div><div class='respDivR'><div class='vertical-center'>(I)</div></div></div>","I","$18","$36","1","18","36","SURE"
"html-keyboard-response","99","79498","0.0-5.0-3.31","610c736500a4b33398fef94f","bdp_rd","Mon Apr 10 2023 18:33:18 GMT-0400 (Eastern Daylight Time)","128630","","null","","","","offerFB","","<div class='trialBorder'><div class='vertical-center'><img style='vertical-align:center; align:center' src=img/fixation3.jpg></div><div class='cl'><div class='vertical-center'>$36<br>with a<br>50% chance</div></div><div class='cr'><div class='vertical-center'><font style='color:orange'>$18<br>for<br>sure</font></div></div><div class='respDivL'><div class='vertical-center'>(E)</div></div><div class='respDivR'><div class='vertical-center'><font style='color:orange'>(I)</font></div></div></div>","null","$18","$36","1","18","36",""
"html-keyboard-response","100","80004","0.0-5.0-1.32","610c736500a4b33398fef94f","bdp_rd","Mon Apr 10 2023 18:33:18 GMT-0400 (Eastern Daylight Time)","128630","","null","","","","FIX","","<div class='trialBorder'><div class='vertical-center'><img style='vertical-align:center; align:center' src=img/fixation3.jpg></div></div>","null","","","","","",""
"html-keyboard-response","101","80955","0.0-5.0-2.32","610c736500a4b33398fef94f","bdp_rd","Mon Apr 10 2023 18:33:18 GMT-0400 (Eastern Daylight Time)","128630","","949","","","","offer","","<div class='trialBorder'><div class='vertical-center'><img style='vertical-align:center; align:center' src=img/fixation3.jpg></div><div class='cl'><div class='vertical-center'>$28<br>for<br>sure</div></div><div class='cr'><div class='vertical-center'>$89<br>with a<br>50% chance</div></div><div class='respDivL'><div class='vertical-center'>(E)</div></div><div class='respDivR'><div class='vertical-center'>(I)</div></div></div>","I","$28","$89","0","28","89","RISKY"
"html-keyboard-response","102","81217","0.0-5.0-3.32","610c736500a4b33398fef94f","bdp_rd","Mon Apr 10 2023 18:33:18 GMT-0400 (Eastern Daylight Time)","128630","","null","","","","offerFB","","<div class='trialBorder'><div class='vertical-center'><img style='vertical-align:center; align:center' src=img/fixation3.jpg></div><div class='cl'><div class='vertical-center'>$28<br>for<br>sure</div></div><div class='cr'><div class='vertical-center'><font style='color:orange'>$89<br>with a<br>50% chance</font></div></div><div class='respDivL'><div class='vertical-center'>(E)</div></div><div class='respDivR'><div class='vertical-center'><font style='color:orange'>(I)</font></div></div></div>","null","$28","$89","0","28","89",""
"html-keyboard-response","103","81730","0.0-5.0-1.33","610c736500a4b33398fef94f","bdp_rd","Mon Apr 10 2023 18:33:18 GMT-0400 (Eastern Daylight Time)","128630","","null","","","","FIX","","<div class='trialBorder'><div class='vertical-center'><img style='vertical-align:center; align:center' src=img/fixation3.jpg></div></div>","null","","","","","",""
"html-keyboard-response","104","82642","0.0-5.0-2.33","610c736500a4b33398fef94f","bdp_rd","Mon Apr 10 2023 18:33:18 GMT-0400 (Eastern Daylight Time)","128630","","910","","","","offer","","<div class='trialBorder'><div class='vertical-center'><img style='vertical-align:center; align:center' src=img/fixation3.jpg></div><div class='cl'><div class='vertical-center'>$45<br>with a<br>50% chance</div></div><div class='cr'><div class='vertical-center'>$8<br>for<br>sure</div></div><div class='respDivL'><div class='vertical-center'>(E)</div></div><div class='respDivR'><div class='vertical-center'>(I)</div></div></div>","E","$8","$45","1","8","45","RISKY"
"html-keyboard-response","105","82894","0.0-5.0-3.33","610c736500a4b33398fef94f","bdp_rd","Mon Apr 10 2023 18:33:18 GMT-0400 (Eastern Daylight Time)","128630","","null","","","","offerFB","","<div class='trialBorder'><div class='vertical-center'><img style='vertical-align:center; align:center' src=img/fixation3.jpg></div><div class='cl'><div class='vertical-center'><font style='color:orange'>$45<br>with a<br>50% chance</font></div></div><div class='cr'><div class='vertical-center'>$8<br>for<br>sure</div></div><div class='respDivL'><div class='vertical-center'><font style='color:orange'>(E)</font></div></div><div class='respDivR'><div class='vertical-center'>(I)</div></div></div>","null","$8","$45","1","8","45",""
"html-keyboard-response","106","83399","0.0-5.0-1.34","610c736500a4b33398fef94f","bdp_rd","Mon Apr 10 2023 18:33:18 GMT-0400 (Eastern Daylight Time)","128630","","null","","","","FIX","","<div class='trialBorder'><div class='vertical-center'><img style='vertical-align:center; align:center' src=img/fixation3.jpg></div></div>","null","","","","","",""
"html-keyboard-response","107","84198","0.0-5.0-2.34","610c736500a4b33398fef94f","bdp_rd","Mon Apr 10 2023 18:33:18 GMT-0400 (Eastern Daylight Time)","128630","","798","","","","offer","","<div class='trialBorder'><div class='vertical-center'><img style='vertical-align:center; align:center' src=img/fixation3.jpg></div><div class='cl'><div class='vertical-center'>$17<br>for<br>sure</div></div><div class='cr'><div class='vertical-center'>$43<br>with a<br>50% chance</div></div><div class='respDivL'><div class='vertical-center'>(E)</div></div><div class='respDivR'><div class='vertical-center'>(I)</div></div></div>","I","$17","$43","0","17","43","RISKY"
"html-keyboard-response","108","84466","0.0-5.0-3.34","610c736500a4b33398fef94f","bdp_rd","Mon Apr 10 2023 18:33:18 GMT-0400 (Eastern Daylight Time)","128630","","null","","","","offerFB","","<div class='trialBorder'><div class='vertical-center'><img style='vertical-align:center; align:center' src=img/fixation3.jpg></div><div class='cl'><div class='vertical-center'>$17<br>for<br>sure</div></div><div class='cr'><div class='vertical-center'><font style='color:orange'>$43<br>with a<br>50% chance</font></div></div><div class='respDivL'><div class='vertical-center'>(E)</div></div><div class='respDivR'><div class='vertical-center'><font style='color:orange'>(I)</font></div></div></div>","null","$17","$43","0","17","43",""
"html-keyboard-response","109","84970","0.0-5.0-1.35","610c736500a4b33398fef94f","bdp_rd","Mon Apr 10 2023 18:33:18 GMT-0400 (Eastern Daylight Time)","128630","","null","","","","FIX","","<div class='trialBorder'><div class='vertical-center'><img style='vertical-align:center; align:center' src=img/fixation3.jpg></div></div>","null","","","","","",""
"html-keyboard-response","110","86069","0.0-5.0-2.35","610c736500a4b33398fef94f","bdp_rd","Mon Apr 10 2023 18:33:18 GMT-0400 (Eastern Daylight Time)","128630","","1098","","","","offer","","<div class='trialBorder'><div class='vertical-center'><img style='vertical-align:center; align:center' src=img/fixation3.jpg></div><div class='cl'><div class='vertical-center'>$10<br>for<br>sure</div></div><div class='cr'><div class='vertical-center'>$19<br>with a<br>50% chance</div></div><div class='respDivL'><div class='vertical-center'>(E)</div></div><div class='respDivR'><div class='vertical-center'>(I)</div></div></div>","E","$10","$19","0","10","19","SURE"
"html-keyboard-response","111","86321","0.0-5.0-3.35","610c736500a4b33398fef94f","bdp_rd","Mon Apr 10 2023 18:33:18 GMT-0400 (Eastern Daylight Time)","128630","","null","","","","offerFB","","<div class='trialBorder'><div class='vertical-center'><img style='vertical-align:center; align:center' src=img/fixation3.jpg></div><div class='cl'><div class='vertical-center'><font style='color:orange'>$10<br>for<br>sure</font></div></div><div class='cr'><div class='vertical-center'>$19<br>with a<br>50% chance</div></div><div class='respDivL'><div class='vertical-center'><font style='color:orange'>(E)</font></div></div><div class='respDivR'><div class='vertical-center'>(I)</div></div></div>","null","$10","$19","0","10","19",""
"html-keyboard-response","112","86829","0.0-5.0-1.36","610c736500a4b33398fef94f","bdp_rd","Mon Apr 10 2023 18:33:18 GMT-0400 (Eastern Daylight Time)","128630","","null","","","","FIX","","<div class='trialBorder'><div class='vertical-center'><img style='vertical-align:center; align:center' src=img/fixation3.jpg></div></div>","null","","","","","",""
"html-keyboard-response","113","87811","0.0-5.0-2.36","610c736500a4b33398fef94f","bdp_rd","Mon Apr 10 2023 18:33:18 GMT-0400 (Eastern Daylight Time)","128630","","981","","","","offer","","<div class='trialBorder'><div class='vertical-center'><img style='vertical-align:center; align:center' src=img/fixation3.jpg></div><div class='cl'><div class='vertical-center'>$4<br>for<br>sure</div></div><div class='cr'><div class='vertical-center'>$11<br>with a<br>50% chance</div></div><div class='respDivL'><div class='vertical-center'>(E)</div></div><div class='respDivR'><div class='vertical-center'>(I)</div></div></div>","I","$4","$11","0","4","11","RISKY"
"html-keyboard-response","114","88067","0.0-5.0-3.36","610c736500a4b33398fef94f","bdp_rd","Mon Apr 10 2023 18:33:18 GMT-0400 (Eastern Daylight Time)","128630","","null","","","","offerFB","","<div class='trialBorder'><div class='vertical-center'><img style='vertical-align:center; align:center' src=img/fixation3.jpg></div><div class='cl'><div class='vertical-center'>$4<br>for<br>sure</div></div><div class='cr'><div class='vertical-center'><font style='color:orange'>$11<br>with a<br>50% chance</font></div></div><div class='respDivL'><div class='vertical-center'>(E)</div></div><div class='respDivR'><div class='vertical-center'><font style='color:orange'>(I)</font></div></div></div>","null","$4","$11","0","4","11",""
"html-keyboard-response","115","88573","0.0-5.0-1.37","610c736500a4b33398fef94f","bdp_rd","Mon Apr 10 2023 18:33:18 GMT-0400 (Eastern Daylight Time)","128630","","null","","","","FIX","","<div class='trialBorder'><div class='vertical-center'><img style='vertical-align:center; align:center' src=img/fixation3.jpg></div></div>","null","","","","","",""
"html-keyboard-response","116","89506","0.0-5.0-2.37","610c736500a4b33398fef94f","bdp_rd","Mon Apr 10 2023 18:33:18 GMT-0400 (Eastern Daylight Time)","128630","","932","","","","offer","","<div class='trialBorder'><div class='vertical-center'><img style='vertical-align:center; align:center' src=img/fixation3.jpg></div><div class='cl'><div class='vertical-center'>$23<br>with a<br>50% chance</div></div><div class='cr'><div class='vertical-center'>$8<br>for<br>sure</div></div><div class='respDivL'><div class='vertical-center'>(E)</div></div><div class='respDivR'><div class='vertical-center'>(I)</div></div></div>","E","$8","$23","1","8","23","RISKY"
"html-keyboard-response","117","89763","0.0-5.0-3.37","610c736500a4b33398fef94f","bdp_rd","Mon Apr 10 2023 18:33:18 GMT-0400 (Eastern Daylight Time)","128630","","null","","","","offerFB","","<div class='trialBorder'><div class='vertical-center'><img style='vertical-align:center; align:center' src=img/fixation3.jpg></div><div class='cl'><div class='vertical-center'><font style='color:orange'>$23<br>with a<br>50% chance</font></div></div><div class='cr'><div class='vertical-center'>$8<br>for<br>sure</div></div><div class='respDivL'><div class='vertical-center'><font style='color:orange'>(E)</font></div></div><div class='respDivR'><div class='vertical-center'>(I)</div></div></div>","null","$8","$23","1","8","23",""
"html-keyboard-response","118","90270","0.0-5.0-1.38","610c736500a4b33398fef94f","bdp_rd","Mon Apr 10 2023 18:33:18 GMT-0400 (Eastern Daylight Time)","128630","","null","","","","FIX","","<div class='trialBorder'><div class='vertical-center'><img style='vertical-align:center; align:center' src=img/fixation3.jpg></div></div>","null","","","","","",""
"html-keyboard-response","119","90938","0.0-5.0-2.38","610c736500a4b33398fef94f","bdp_rd","Mon Apr 10 2023 18:33:18 GMT-0400 (Eastern Daylight Time)","128630","","667","","","","offer","","<div class='trialBorder'><div class='vertical-center'><img style='vertical-align:center; align:center' src=img/fixation3.jpg></div><div class='cl'><div class='vertical-center'>$4<br>for<br>sure</div></div><div class='cr'><div class='vertical-center'>$14<br>with a<br>50% chance</div></div><div class='respDivL'><div class='vertical-center'>(E)</div></div><div class='respDivR'><div class='vertical-center'>(I)</div></div></div>","I","$4","$14","0","4","14","RISKY"
"html-keyboard-response","120","91196","0.0-5.0-3.38","610c736500a4b33398fef94f","bdp_rd","Mon Apr 10 2023 18:33:18 GMT-0400 (Eastern Daylight Time)","128630","","null","","","","offerFB","","<div class='trialBorder'><div class='vertical-center'><img style='vertical-align:center; align:center' src=img/fixation3.jpg></div><div class='cl'><div class='vertical-center'>$4<br>for<br>sure</div></div><div class='cr'><div class='vertical-center'><font style='color:orange'>$14<br>with a<br>50% chance</font></div></div><div class='respDivL'><div class='vertical-center'>(E)</div></div><div class='respDivR'><div class='vertical-center'><font style='color:orange'>(I)</font></div></div></div>","null","$4","$14","0","4","14",""
"html-keyboard-response","121","91700","0.0-5.0-1.39","610c736500a4b33398fef94f","bdp_rd","Mon Apr 10 2023 18:33:18 GMT-0400 (Eastern Daylight Time)","128630","","null","","","","FIX","","<div class='trialBorder'><div class='vertical-center'><img style='vertical-align:center; align:center' src=img/fixation3.jpg></div></div>","null","","","","","",""
"html-keyboard-response","122","92938","0.0-5.0-2.39","610c736500a4b33398fef94f","bdp_rd","Mon Apr 10 2023 18:33:18 GMT-0400 (Eastern Daylight Time)","128630","","1236","","","","offer","","<div class='trialBorder'><div class='vertical-center'><img style='vertical-align:center; align:center' src=img/fixation3.jpg></div><div class='cl'><div class='vertical-center'>$33<br>for<br>sure</div></div><div class='cr'><div class='vertical-center'>$66<br>with a<br>50% chance</div></div><div class='respDivL'><div class='vertical-center'>(E)</div></div><div class='respDivR'><div class='vertical-center'>(I)</div></div></div>","E","$33","$66","0","33","66","SURE"
"html-keyboard-response","123","93196","0.0-5.0-3.39","610c736500a4b33398fef94f","bdp_rd","Mon Apr 10 2023 18:33:18 GMT-0400 (Eastern Daylight Time)","128630","","null","","","","offerFB","","<div class='trialBorder'><div class='vertical-center'><img style='vertical-align:center; align:center' src=img/fixation3.jpg></div><div class='cl'><div class='vertical-center'><font style='color:orange'>$33<br>for<br>sure</font></div></div><div class='cr'><div class='vertical-center'>$66<br>with a<br>50% chance</div></div><div class='respDivL'><div class='vertical-center'><font style='color:orange'>(E)</font></div></div><div class='respDivR'><div class='vertical-center'>(I)</div></div></div>","null","$33","$66","0","33","66",""
"html-keyboard-response","124","93701","0.0-5.0-1.40","610c736500a4b33398fef94f","bdp_rd","Mon Apr 10 2023 18:33:18 GMT-0400 (Eastern Daylight Time)","128630","","null","","","","FIX","","<div class='trialBorder'><div class='vertical-center'><img style='vertical-align:center; align:center' src=img/fixation3.jpg></div></div>","null","","","","","",""
"html-keyboard-response","125","94715","0.0-5.0-2.40","610c736500a4b33398fef94f","bdp_rd","Mon Apr 10 2023 18:33:18 GMT-0400 (Eastern Daylight Time)","128630","","1012","","","","offer","","<div class='trialBorder'><div class='vertical-center'><img style='vertical-align:center; align:center' src=img/fixation3.jpg></div><div class='cl'><div class='vertical-center'>$25<br>with a<br>50% chance</div></div><div class='cr'><div class='vertical-center'>$21<br>for<br>sure</div></div><div class='respDivL'><div class='vertical-center'>(E)</div></div><div class='respDivR'><div class='vertical-center'>(I)</div></div></div>","I","$21","$25","1","21","25","SURE"
"html-keyboard-response","126","94969","0.0-5.0-3.40","610c736500a4b33398fef94f","bdp_rd","Mon Apr 10 2023 18:33:18 GMT-0400 (Eastern Daylight Time)","128630","","null","","","","offerFB","","<div class='trialBorder'><div class='vertical-center'><img style='vertical-align:center; align:center' src=img/fixation3.jpg></div><div class='cl'><div class='vertical-center'>$25<br>with a<br>50% chance</div></div><div class='cr'><div class='vertical-center'><font style='color:orange'>$21<br>for<br>sure</font></div></div><div class='respDivL'><div class='vertical-center'>(E)</div></div><div class='respDivR'><div class='vertical-center'><font style='color:orange'>(I)</font></div></div></div>","null","$21","$25","1","21","25",""
"html-keyboard-response","127","95473","0.0-5.0-1.41","610c736500a4b33398fef94f","bdp_rd","Mon Apr 10 2023 18:33:18 GMT-0400 (Eastern Daylight Time)","128630","","null","","","","FIX","","<div class='trialBorder'><div class='vertical-center'><img style='vertical-align:center; align:center' src=img/fixation3.jpg></div></div>","null","","","","","",""
"html-keyboard-response","128","96882","0.0-5.0-2.41","610c736500a4b33398fef94f","bdp_rd","Mon Apr 10 2023 18:33:18 GMT-0400 (Eastern Daylight Time)","128630","","1406","","","","offer","","<div class='trialBorder'><div class='vertical-center'><img style='vertical-align:center; align:center' src=img/fixation3.jpg></div><div class='cl'><div class='vertical-center'>$40<br>with a<br>50% chance</div></div><div class='cr'><div class='vertical-center'>$10<br>for<br>sure</div></div><div class='respDivL'><div class='vertical-center'>(E)</div></div><div class='respDivR'><div class='vertical-center'>(I)</div></div></div>","E","$10","$40","1","10","40","RISKY"
"html-keyboard-response","129","97136","0.0-5.0-3.41","610c736500a4b33398fef94f","bdp_rd","Mon Apr 10 2023 18:33:18 GMT-0400 (Eastern Daylight Time)","128630","","null","","","","offerFB","","<div class='trialBorder'><div class='vertical-center'><img style='vertical-align:center; align:center' src=img/fixation3.jpg></div><div class='cl'><div class='vertical-center'><font style='color:orange'>$40<br>with a<br>50% chance</font></div></div><div class='cr'><div class='vertical-center'>$10<br>for<br>sure</div></div><div class='respDivL'><div class='vertical-center'><font style='color:orange'>(E)</font></div></div><div class='respDivR'><div class='vertical-center'>(I)</div></div></div>","null","$10","$40","1","10","40",""
"html-keyboard-response","130","97641","0.0-5.0-1.42","610c736500a4b33398fef94f","bdp_rd","Mon Apr 10 2023 18:33:18 GMT-0400 (Eastern Daylight Time)","128630","","null","","","","FIX","","<div class='trialBorder'><div class='vertical-center'><img style='vertical-align:center; align:center' src=img/fixation3.jpg></div></div>","null","","","","","",""
"html-keyboard-response","131","98447","0.0-5.0-2.42","610c736500a4b33398fef94f","bdp_rd","Mon Apr 10 2023 18:33:18 GMT-0400 (Eastern Daylight Time)","128630","","804","","","","offer","","<div class='trialBorder'><div class='vertical-center'><img style='vertical-align:center; align:center' src=img/fixation3.jpg></div><div class='cl'><div class='vertical-center'>$26<br>for<br>sure</div></div><div class='cr'><div class='vertical-center'>$92<br>with a<br>50% chance</div></div><div class='respDivL'><div class='vertical-center'>(E)</div></div><div class='respDivR'><div class='vertical-center'>(I)</div></div></div>","I","$26","$92","0","26","92","RISKY"
"html-keyboard-response","132","98701","0.0-5.0-3.42","610c736500a4b33398fef94f","bdp_rd","Mon Apr 10 2023 18:33:18 GMT-0400 (Eastern Daylight Time)","128630","","null","","","","offerFB","","<div class='trialBorder'><div class='vertical-center'><img style='vertical-align:center; align:center' src=img/fixation3.jpg></div><div class='cl'><div class='vertical-center'>$26<br>for<br>sure</div></div><div class='cr'><div class='vertical-center'><font style='color:orange'>$92<br>with a<br>50% chance</font></div></div><div class='respDivL'><div class='vertical-center'>(E)</div></div><div class='respDivR'><div class='vertical-center'><font style='color:orange'>(I)</font></div></div></div>","null","$26","$92","0","26","92",""
"html-keyboard-response","133","99205","0.0-5.0-1.43","610c736500a4b33398fef94f","bdp_rd","Mon Apr 10 2023 18:33:18 GMT-0400 (Eastern Daylight Time)","128630","","null","","","","FIX","","<div class='trialBorder'><div class='vertical-center'><img style='vertical-align:center; align:center' src=img/fixation3.jpg></div></div>","null","","","","","",""
"html-keyboard-response","134","100638","0.0-5.0-2.43","610c736500a4b33398fef94f","bdp_rd","Mon Apr 10 2023 18:33:18 GMT-0400 (Eastern Daylight Time)","128630","","1432","","","","offer","","<div class='trialBorder'><div class='vertical-center'><img style='vertical-align:center; align:center' src=img/fixation3.jpg></div><div class='cl'><div class='vertical-center'>$34<br>with a<br>50% chance</div></div><div class='cr'><div class='vertical-center'>$15<br>for<br>sure</div></div><div class='respDivL'><div class='vertical-center'>(E)</div></div><div class='respDivR'><div class='vertical-center'>(I)</div></div></div>","E","$15","$34","1","15","34","RISKY"
"html-keyboard-response","135","100897","0.0-5.0-3.43","610c736500a4b33398fef94f","bdp_rd","Mon Apr 10 2023 18:33:18 GMT-0400 (Eastern Daylight Time)","128630","","null","","","","offerFB","","<div class='trialBorder'><div class='vertical-center'><img style='vertical-align:center; align:center' src=img/fixation3.jpg></div><div class='cl'><div class='vertical-center'><font style='color:orange'>$34<br>with a<br>50% chance</font></div></div><div class='cr'><div class='vertical-center'>$15<br>for<br>sure</div></div><div class='respDivL'><div class='vertical-center'><font style='color:orange'>(E)</font></div></div><div class='respDivR'><div class='vertical-center'>(I)</div></div></div>","null","$15","$34","1","15","34",""
"html-keyboard-response","136","101402","0.0-5.0-1.44","610c736500a4b33398fef94f","bdp_rd","Mon Apr 10 2023 18:33:18 GMT-0400 (Eastern Daylight Time)","128630","","null","","","","FIX","","<div class='trialBorder'><div class='vertical-center'><img style='vertical-align:center; align:center' src=img/fixation3.jpg></div></div>","null","","","","","",""
"html-keyboard-response","137","102210","0.0-5.0-2.44","610c736500a4b33398fef94f","bdp_rd","Mon Apr 10 2023 18:33:18 GMT-0400 (Eastern Daylight Time)","128630","","807","","","","offer","","<div class='trialBorder'><div class='vertical-center'><img style='vertical-align:center; align:center' src=img/fixation3.jpg></div><div class='cl'><div class='vertical-center'>$46<br>for<br>sure</div></div><div class='cr'><div class='vertical-center'>$65<br>with a<br>50% chance</div></div><div class='respDivL'><div class='vertical-center'>(E)</div></div><div class='respDivR'><div class='vertical-center'>(I)</div></div></div>","I","$46","$65","0","46","65","RISKY"
"html-keyboard-response","138","102470","0.0-5.0-3.44","610c736500a4b33398fef94f","bdp_rd","Mon Apr 10 2023 18:33:18 GMT-0400 (Eastern Daylight Time)","128630","","null","","","","offerFB","","<div class='trialBorder'><div class='vertical-center'><img style='vertical-align:center; align:center' src=img/fixation3.jpg></div><div class='cl'><div class='vertical-center'>$46<br>for<br>sure</div></div><div class='cr'><div class='vertical-center'><font style='color:orange'>$65<br>with a<br>50% chance</font></div></div><div class='respDivL'><div class='vertical-center'>(E)</div></div><div class='respDivR'><div class='vertical-center'><font style='color:orange'>(I)</font></div></div></div>","null","$46","$65","0","46","65",""
"html-keyboard-response","139","102975","0.0-5.0-1.45","610c736500a4b33398fef94f","bdp_rd","Mon Apr 10 2023 18:33:18 GMT-0400 (Eastern Daylight Time)","128630","","null","","","","FIX","","<div class='trialBorder'><div class='vertical-center'><img style='vertical-align:center; align:center' src=img/fixation3.jpg></div></div>","null","","","","","",""
"html-keyboard-response","140","103728","0.0-5.0-2.45","610c736500a4b33398fef94f","bdp_rd","Mon Apr 10 2023 18:33:18 GMT-0400 (Eastern Daylight Time)","128630","","752","","","","offer","","<div class='trialBorder'><div class='vertical-center'><img style='vertical-align:center; align:center' src=img/fixation3.jpg></div><div class='cl'><div class='vertical-center'>$11<br>for<br>sure</div></div><div class='cr'><div class='vertical-center'>$62<br>with a<br>50% chance</div></div><div class='respDivL'><div class='vertical-center'>(E)</div></div><div class='respDivR'><div class='vertical-center'>(I)</div></div></div>","I","$11","$62","0","11","62","RISKY"
"html-keyboard-response","141","103987","0.0-5.0-3.45","610c736500a4b33398fef94f","bdp_rd","Mon Apr 10 2023 18:33:18 GMT-0400 (Eastern Daylight Time)","128630","","null","","","","offerFB","","<div class='trialBorder'><div class='vertical-center'><img style='vertical-align:center; align:center' src=img/fixation3.jpg></div><div class='cl'><div class='vertical-center'>$11<br>for<br>sure</div></div><div class='cr'><div class='vertical-center'><font style='color:orange'>$62<br>with a<br>50% chance</font></div></div><div class='respDivL'><div class='vertical-center'>(E)</div></div><div class='respDivR'><div class='vertical-center'><font style='color:orange'>(I)</font></div></div></div>","null","$11","$62","0","11","62",""
"html-keyboard-response","142","104491","0.0-5.0-1.46","610c736500a4b33398fef94f","bdp_rd","Mon Apr 10 2023 18:33:18 GMT-0400 (Eastern Daylight Time)","128630","","null","","","","FIX","","<div class='trialBorder'><div class='vertical-center'><img style='vertical-align:center; align:center' src=img/fixation3.jpg></div></div>","null","","","","","",""
"html-keyboard-response","143","105332","0.0-5.0-2.46","610c736500a4b33398fef94f","bdp_rd","Mon Apr 10 2023 18:33:18 GMT-0400 (Eastern Daylight Time)","128630","","839","","","","offer","","<div class='trialBorder'><div class='vertical-center'><img style='vertical-align:center; align:center' src=img/fixation3.jpg></div><div class='cl'><div class='vertical-center'>$7<br>for<br>sure</div></div><div class='cr'><div class='vertical-center'>$10<br>with a<br>50% chance</div></div><div class='respDivL'><div class='vertical-center'>(E)</div></div><div class='respDivR'><div class='vertical-center'>(I)</div></div></div>","E","$7","$10","0","7","10","SURE"
"html-keyboard-response","144","105599","0.0-5.0-3.46","610c736500a4b33398fef94f","bdp_rd","Mon Apr 10 2023 18:33:18 GMT-0400 (Eastern Daylight Time)","128630","","null","","","","offerFB","","<div class='trialBorder'><div class='vertical-center'><img style='vertical-align:center; align:center' src=img/fixation3.jpg></div><div class='cl'><div class='vertical-center'><font style='color:orange'>$7<br>for<br>sure</font></div></div><div class='cr'><div class='vertical-center'>$10<br>with a<br>50% chance</div></div><div class='respDivL'><div class='vertical-center'><font style='color:orange'>(E)</font></div></div><div class='respDivR'><div class='vertical-center'>(I)</div></div></div>","null","$7","$10","0","7","10",""
"html-keyboard-response","145","106106","0.0-5.0-1.47","610c736500a4b33398fef94f","bdp_rd","Mon Apr 10 2023 18:33:18 GMT-0400 (Eastern Daylight Time)","128630","","null","","","","FIX","","<div class='trialBorder'><div class='vertical-center'><img style='vertical-align:center; align:center' src=img/fixation3.jpg></div></div>","null","","","","","",""
"html-keyboard-response","146","107107","0.0-5.0-2.47","610c736500a4b33398fef94f","bdp_rd","Mon Apr 10 2023 18:33:18 GMT-0400 (Eastern Daylight Time)","128630","","1000","","","","offer","","<div class='trialBorder'><div class='vertical-center'><img style='vertical-align:center; align:center' src=img/fixation3.jpg></div><div class='cl'><div class='vertical-center'>$27<br>with a<br>50% chance</div></div><div class='cr'><div class='vertical-center'>$12<br>for<br>sure</div></div><div class='respDivL'><div class='vertical-center'>(E)</div></div><div class='respDivR'><div class='vertical-center'>(I)</div></div></div>","E","$12","$27","1","12","27","RISKY"
"html-keyboard-response","147","107365","0.0-5.0-3.47","610c736500a4b33398fef94f","bdp_rd","Mon Apr 10 2023 18:33:18 GMT-0400 (Eastern Daylight Time)","128630","","null","","","","offerFB","","<div class='trialBorder'><div class='vertical-center'><img style='vertical-align:center; align:center' src=img/fixation3.jpg></div><div class='cl'><div class='vertical-center'><font style='color:orange'>$27<br>with a<br>50% chance</font></div></div><div class='cr'><div class='vertical-center'>$12<br>for<br>sure</div></div><div class='respDivL'><div class='vertical-center'><font style='color:orange'>(E)</font></div></div><div class='respDivR'><div class='vertical-center'>(I)</div></div></div>","null","$12","$27","1","12","27",""
"html-keyboard-response","148","107873","0.0-5.0-1.48","610c736500a4b33398fef94f","bdp_rd","Mon Apr 10 2023 18:33:18 GMT-0400 (Eastern Daylight Time)","128630","","null","","","","FIX","","<div class='trialBorder'><div class='vertical-center'><img style='vertical-align:center; align:center' src=img/fixation3.jpg></div></div>","null","","","","","",""
"html-keyboard-response","149","108610","0.0-5.0-2.48","610c736500a4b33398fef94f","bdp_rd","Mon Apr 10 2023 18:33:18 GMT-0400 (Eastern Daylight Time)","128630","","736","","","","offer","","<div class='trialBorder'><div class='vertical-center'><img style='vertical-align:center; align:center' src=img/fixation3.jpg></div><div class='cl'><div class='vertical-center'>$51<br>with a<br>50% chance</div></div><div class='cr'><div class='vertical-center'>$19<br>for<br>sure</div></div><div class='respDivL'><div class='vertical-center'>(E)</div></div><div class='respDivR'><div class='vertical-center'>(I)</div></div></div>","E","$19","$51","1","19","51","RISKY"
"html-keyboard-response","150","108876","0.0-5.0-3.48","610c736500a4b33398fef94f","bdp_rd","Mon Apr 10 2023 18:33:18 GMT-0400 (Eastern Daylight Time)","128630","","null","","","","offerFB","","<div class='trialBorder'><div class='vertical-center'><img style='vertical-align:center; align:center' src=img/fixation3.jpg></div><div class='cl'><div class='vertical-center'><font style='color:orange'>$51<br>with a<br>50% chance</font></div></div><div class='cr'><div class='vertical-center'>$19<br>for<br>sure</div></div><div class='respDivL'><div class='vertical-center'><font style='color:orange'>(E)</font></div></div><div class='respDivR'><div class='vertical-center'>(I)</div></div></div>","null","$19","$51","1","19","51",""
"html-keyboard-response","151","109379","0.0-5.0-1.49","610c736500a4b33398fef94f","bdp_rd","Mon Apr 10 2023 18:33:18 GMT-0400 (Eastern Daylight Time)","128630","","null","","","","FIX","","<div class='trialBorder'><div class='vertical-center'><img style='vertical-align:center; align:center' src=img/fixation3.jpg></div></div>","null","","","","","",""
"html-keyboard-response","152","110273","0.0-5.0-2.49","610c736500a4b33398fef94f","bdp_rd","Mon Apr 10 2023 18:33:18 GMT-0400 (Eastern Daylight Time)","128630","","892","","","","offer","","<div class='trialBorder'><div class='vertical-center'><img style='vertical-align:center; align:center' src=img/fixation3.jpg></div><div class='cl'><div class='vertical-center'>$34<br>for<br>sure</div></div><div class='cr'><div class='vertical-center'>$48<br>with a<br>50% chance</div></div><div class='respDivL'><div class='vertical-center'>(E)</div></div><div class='respDivR'><div class='vertical-center'>(I)</div></div></div>","I","$34","$48","0","34","48","RISKY"
"html-keyboard-response","153","110526","0.0-5.0-3.49","610c736500a4b33398fef94f","bdp_rd","Mon Apr 10 2023 18:33:18 GMT-0400 (Eastern Daylight Time)","128630","","null","","","","offerFB","","<div class='trialBorder'><div class='vertical-center'><img style='vertical-align:center; align:center' src=img/fixation3.jpg></div><div class='cl'><div class='vertical-center'>$34<br>for<br>sure</div></div><div class='cr'><div class='vertical-center'><font style='color:orange'>$48<br>with a<br>50% chance</font></div></div><div class='respDivL'><div class='vertical-center'>(E)</div></div><div class='respDivR'><div class='vertical-center'><font style='color:orange'>(I)</font></div></div></div>","null","$34","$48","0","34","48",""
"html-keyboard-response","154","111033","0.0-5.0-1.50","610c736500a4b33398fef94f","bdp_rd","Mon Apr 10 2023 18:33:18 GMT-0400 (Eastern Daylight Time)","128630","","null","","","","FIX","","<div class='trialBorder'><div class='vertical-center'><img style='vertical-align:center; align:center' src=img/fixation3.jpg></div></div>","null","","","","","",""
"html-keyboard-response","155","112387","0.0-5.0-2.50","610c736500a4b33398fef94f","bdp_rd","Mon Apr 10 2023 18:33:18 GMT-0400 (Eastern Daylight Time)","128630","","1353","","","","offer","","<div class='trialBorder'><div class='vertical-center'><img style='vertical-align:center; align:center' src=img/fixation3.jpg></div><div class='cl'><div class='vertical-center'>$37<br>with a<br>50% chance</div></div><div class='cr'><div class='vertical-center'>$20<br>for<br>sure</div></div><div class='respDivL'><div class='vertical-center'>(E)</div></div><div class='respDivR'><div class='vertical-center'>(I)</div></div></div>","I","$20","$37","1","20","37","SURE"
"html-keyboard-response","156","112644","0.0-5.0-3.50","610c736500a4b33398fef94f","bdp_rd","Mon Apr 10 2023 18:33:18 GMT-0400 (Eastern Daylight Time)","128630","","null","","","","offerFB","","<div class='trialBorder'><div class='vertical-center'><img style='vertical-align:center; align:center' src=img/fixation3.jpg></div><div class='cl'><div class='vertical-center'>$37<br>with a<br>50% chance</div></div><div class='cr'><div class='vertical-center'><font style='color:orange'>$20<br>for<br>sure</font></div></div><div class='respDivL'><div class='vertical-center'>(E)</div></div><div class='respDivR'><div class='vertical-center'><font style='color:orange'>(I)</font></div></div></div>","null","$20","$37","1","20","37",""
"html-keyboard-response","157","113149","0.0-5.0-1.51","610c736500a4b33398fef94f","bdp_rd","Mon Apr 10 2023 18:33:18 GMT-0400 (Eastern Daylight Time)","128630","","null","","","","FIX","","<div class='trialBorder'><div class='vertical-center'><img style='vertical-align:center; align:center' src=img/fixation3.jpg></div></div>","null","","","","","",""
"html-keyboard-response","158","114366","0.0-5.0-2.51","610c736500a4b33398fef94f","bdp_rd","Mon Apr 10 2023 18:33:18 GMT-0400 (Eastern Daylight Time)","128630","","1216","","","","offer","","<div class='trialBorder'><div class='vertical-center'><img style='vertical-align:center; align:center' src=img/fixation3.jpg></div><div class='cl'><div class='vertical-center'>$13<br>for<br>sure</div></div><div class='cr'><div class='vertical-center'>$41<br>with a<br>50% chance</div></div><div class='respDivL'><div class='vertical-center'>(E)</div></div><div class='respDivR'><div class='vertical-center'>(I)</div></div></div>","I","$13","$41","0","13","41","RISKY"
"html-keyboard-response","159","114624","0.0-5.0-3.51","610c736500a4b33398fef94f","bdp_rd","Mon Apr 10 2023 18:33:18 GMT-0400 (Eastern Daylight Time)","128630","","null","","","","offerFB","","<div class='trialBorder'><div class='vertical-center'><img style='vertical-align:center; align:center' src=img/fixation3.jpg></div><div class='cl'><div class='vertical-center'>$13<br>for<br>sure</div></div><div class='cr'><div class='vertical-center'><font style='color:orange'>$41<br>with a<br>50% chance</font></div></div><div class='respDivL'><div class='vertical-center'>(E)</div></div><div class='respDivR'><div class='vertical-center'><font style='color:orange'>(I)</font></div></div></div>","null","$13","$41","0","13","41",""
"html-keyboard-response","160","115130","0.0-5.0-1.52","610c736500a4b33398fef94f","bdp_rd","Mon Apr 10 2023 18:33:18 GMT-0400 (Eastern Daylight Time)","128630","","null","","","","FIX","","<div class='trialBorder'><div class='vertical-center'><img style='vertical-align:center; align:center' src=img/fixation3.jpg></div></div>","null","","","","","",""
"html-keyboard-response","161","115921","0.0-5.0-2.52","610c736500a4b33398fef94f","bdp_rd","Mon Apr 10 2023 18:33:18 GMT-0400 (Eastern Daylight Time)","128630","","790","","","","offer","","<div class='trialBorder'><div class='vertical-center'><img style='vertical-align:center; align:center' src=img/fixation3.jpg></div><div class='cl'><div class='vertical-center'>$35<br>with a<br>50% chance</div></div><div class='cr'><div class='vertical-center'>$12<br>for<br>sure</div></div><div class='respDivL'><div class='vertical-center'>(E)</div></div><div class='respDivR'><div class='vertical-center'>(I)</div></div></div>","E","$12","$35","1","12","35","RISKY"
"html-keyboard-response","162","116174","0.0-5.0-3.52","610c736500a4b33398fef94f","bdp_rd","Mon Apr 10 2023 18:33:18 GMT-0400 (Eastern Daylight Time)","128630","","null","","","","offerFB","","<div class='trialBorder'><div class='vertical-center'><img style='vertical-align:center; align:center' src=img/fixation3.jpg></div><div class='cl'><div class='vertical-center'><font style='color:orange'>$35<br>with a<br>50% chance</font></div></div><div class='cr'><div class='vertical-center'>$12<br>for<br>sure</div></div><div class='respDivL'><div class='vertical-center'><font style='color:orange'>(E)</font></div></div><div class='respDivR'><div class='vertical-center'>(I)</div></div></div>","null","$12","$35","1","12","35",""
"html-keyboard-response","163","116678","0.0-5.0-1.53","610c736500a4b33398fef94f","bdp_rd","Mon Apr 10 2023 18:33:18 GMT-0400 (Eastern Daylight Time)","128630","","null","","","","FIX","","<div class='trialBorder'><div class='vertical-center'><img style='vertical-align:center; align:center' src=img/fixation3.jpg></div></div>","null","","","","","",""
"html-keyboard-response","164","117278","0.0-5.0-2.53","610c736500a4b33398fef94f","bdp_rd","Mon Apr 10 2023 18:33:18 GMT-0400 (Eastern Daylight Time)","128630","","599","","","","offer","","<div class='trialBorder'><div class='vertical-center'><img style='vertical-align:center; align:center' src=img/fixation3.jpg></div><div class='cl'><div class='vertical-center'>$6<br>for<br>sure</div></div><div class='cr'><div class='vertical-center'>$15<br>with a<br>50% chance</div></div><div class='respDivL'><div class='vertical-center'>(E)</div></div><div class='respDivR'><div class='vertical-center'>(I)</div></div></div>","I","$6","$15","0","6","15","RISKY"
"html-keyboard-response","165","117543","0.0-5.0-3.53","610c736500a4b33398fef94f","bdp_rd","Mon Apr 10 2023 18:33:18 GMT-0400 (Eastern Daylight Time)","128630","","null","","","","offerFB","","<div class='trialBorder'><div class='vertical-center'><img style='vertical-align:center; align:center' src=img/fixation3.jpg></div><div class='cl'><div class='vertical-center'>$6<br>for<br>sure</div></div><div class='cr'><div class='vertical-center'><font style='color:orange'>$15<br>with a<br>50% chance</font></div></div><div class='respDivL'><div class='vertical-center'>(E)</div></div><div class='respDivR'><div class='vertical-center'><font style='color:orange'>(I)</font></div></div></div>","null","$6","$15","0","6","15",""
"html-keyboard-response","166","118056","0.0-5.0-1.54","610c736500a4b33398fef94f","bdp_rd","Mon Apr 10 2023 18:33:18 GMT-0400 (Eastern Daylight Time)","128630","","null","","","","FIX","","<div class='trialBorder'><div class='vertical-center'><img style='vertical-align:center; align:center' src=img/fixation3.jpg></div></div>","null","","","","","",""
"html-keyboard-response","167","118705","0.0-5.0-2.54","610c736500a4b33398fef94f","bdp_rd","Mon Apr 10 2023 18:33:18 GMT-0400 (Eastern Daylight Time)","128630","","648","","","","offer","","<div class='trialBorder'><div class='vertical-center'><img style='vertical-align:center; align:center' src=img/fixation3.jpg></div><div class='cl'><div class='vertical-center'>$9<br>for<br>sure</div></div><div class='cr'><div class='vertical-center'>$32<br>with a<br>50% chance</div></div><div class='respDivL'><div class='vertical-center'>(E)</div></div><div class='respDivR'><div class='vertical-center'>(I)</div></div></div>","I","$9","$32","0","9","32","RISKY"
"html-keyboard-response","168","118963","0.0-5.0-3.54","610c736500a4b33398fef94f","bdp_rd","Mon Apr 10 2023 18:33:18 GMT-0400 (Eastern Daylight Time)","128630","","null","","","","offerFB","","<div class='trialBorder'><div class='vertical-center'><img style='vertical-align:center; align:center' src=img/fixation3.jpg></div><div class='cl'><div class='vertical-center'>$9<br>for<br>sure</div></div><div class='cr'><div class='vertical-center'><font style='color:orange'>$32<br>with a<br>50% chance</font></div></div><div class='respDivL'><div class='vertical-center'>(E)</div></div><div class='respDivR'><div class='vertical-center'><font style='color:orange'>(I)</font></div></div></div>","null","$9","$32","0","9","32",""
"html-keyboard-response","169","119467","0.0-5.0-1.55","610c736500a4b33398fef94f","bdp_rd","Mon Apr 10 2023 18:33:18 GMT-0400 (Eastern Daylight Time)","128630","","null","","","","FIX","","<div class='trialBorder'><div class='vertical-center'><img style='vertical-align:center; align:center' src=img/fixation3.jpg></div></div>","null","","","","","",""
"html-keyboard-response","170","120557","0.0-5.0-2.55","610c736500a4b33398fef94f","bdp_rd","Mon Apr 10 2023 18:33:18 GMT-0400 (Eastern Daylight Time)","128630","","1089","","","","offer","","<div class='trialBorder'><div class='vertical-center'><img style='vertical-align:center; align:center' src=img/fixation3.jpg></div><div class='cl'><div class='vertical-center'>$44<br>with a<br>50% chance</div></div><div class='cr'><div class='vertical-center'>$37<br>for<br>sure</div></div><div class='respDivL'><div class='vertical-center'>(E)</div></div><div class='respDivR'><div class='vertical-center'>(I)</div></div></div>","I","$37","$44","1","37","44","SURE"
"html-keyboard-response","171","120812","0.0-5.0-3.55","610c736500a4b33398fef94f","bdp_rd","Mon Apr 10 2023 18:33:18 GMT-0400 (Eastern Daylight Time)","128630","","null","","","","offerFB","","<div class='trialBorder'><div class='vertical-center'><img style='vertical-align:center; align:center' src=img/fixation3.jpg></div><div class='cl'><div class='vertical-center'>$44<br>with a<br>50% chance</div></div><div class='cr'><div class='vertical-center'><font style='color:orange'>$37<br>for<br>sure</font></div></div><div class='respDivL'><div class='vertical-center'>(E)</div></div><div class='respDivR'><div class='vertical-center'><font style='color:orange'>(I)</font></div></div></div>","null","$37","$44","1","37","44",""
"html-keyboard-response","172","121324","0.0-5.0-1.56","610c736500a4b33398fef94f","bdp_rd","Mon Apr 10 2023 18:33:18 GMT-0400 (Eastern Daylight Time)","128630","","null","","","","FIX","","<div class='trialBorder'><div class='vertical-center'><img style='vertical-align:center; align:center' src=img/fixation3.jpg></div></div>","null","","","","","",""
"html-keyboard-response","173","122340","0.0-5.0-2.56","610c736500a4b33398fef94f","bdp_rd","Mon Apr 10 2023 18:33:18 GMT-0400 (Eastern Daylight Time)","128630","","1014","","","","offer","","<div class='trialBorder'><div class='vertical-center'><img style='vertical-align:center; align:center' src=img/fixation3.jpg></div><div class='cl'><div class='vertical-center'>$47<br>with a<br>50% chance</div></div><div class='cr'><div class='vertical-center'>$27<br>for<br>sure</div></div><div class='respDivL'><div class='vertical-center'>(E)</div></div><div class='respDivR'><div class='vertical-center'>(I)</div></div></div>","I","$27","$47","1","27","47","SURE"
