"trial_type","trial_index","time_elapsed","internal_node_id","subject_id","task","startTime","totalTime","view_history","rt","event","trial","time","trialtype","success","stimulus","key_press","sureOffer","riskyOffer","riskyLeft","sureAmt","riskyAmt","chosen"
"pavlovia","0","5","0.0-0.0","63d81e2fb6c8f0da25fea602","bdp_rd","Sun Mar 26 2023 20:39:22 GMT-0500 (Central Daylight Time)","363393","","","","","","","","","","","","","","",""
"instructions","1","1551","0.0-1.0","63d81e2fb6c8f0da25fea602","bdp_rd","Sun Mar 26 2023 20:39:22 GMT-0500 (Central Daylight Time)","363393","[{""page_index"":0,""viewing_time"":1546}]","1546","","","","","","","","","","","","",""
"","","","","63d81e2fb6c8f0da25fea602","bdp_rd","Sun Mar 26 2023 20:39:22 GMT-0500 (Central Daylight Time)","363393","","","fullscreenenter","2","2819","fullscreenenter","","","","","","","","",""
"fullscreen","2","3779","0.0-2.0","63d81e2fb6c8f0da25fea602","bdp_rd","Sun Mar 26 2023 20:39:22 GMT-0500 (Central Daylight Time)","363393","","","","","","","true","","","","","","","",""
"instructions","3","241378","0.0-4.0","63d81e2fb6c8f0da25fea602","bdp_rd","Sun Mar 26 2023 20:39:22 GMT-0500 (Central Daylight Time)","363393","[{""page_index"":0,""viewing_time"":137875},{""page_index"":1,""viewing_time"":1779},{""page_index"":2,""viewing_time"":97944}]","237598","","","","","","","","","","","","",""
"html-keyboard-response","4","241880","0.0-5.0-1.0","63d81e2fb6c8f0da25fea602","bdp_rd","Sun Mar 26 2023 20:39:22 GMT-0500 (Central Daylight Time)","363393","","null","","","","FIX","","<div class='trialBorder'><div class='vertical-center'><img style='vertical-align:center; align:center' src=img/fixation3.jpg></div></div>","null","","","","","",""
"html-keyboard-response","5","244273","0.0-5.0-2.0","63d81e2fb6c8f0da25fea602","bdp_rd","Sun Mar 26 2023 20:39:22 GMT-0500 (Central Daylight Time)","363393","","2391","","","","offer","","<div class='trialBorder'><div class='vertical-center'><img style='vertical-align:center; align:center' src=img/fixation3.jpg></div><div class='cl'><div class='vertical-center'>$70<br>with a<br>50% chance</div></div><div class='cr'><div class='vertical-center'>$24<br>for<br>sure</div></div><div class='respDivL'><div class='vertical-center'>(E)</div></div><div class='respDivR'><div class='vertical-center'>(I)</div></div></div>","E","$24","$70","1","24","70","RISKY"
"html-keyboard-response","6","244525","0.0-5.0-3.0","63d81e2fb6c8f0da25fea602","bdp_rd","Sun Mar 26 2023 20:39:22 GMT-0500 (Central Daylight Time)","363393","","null","","","","offerFB","","<div class='trialBorder'><div class='vertical-center'><img style='vertical-align:center; align:center' src=img/fixation3.jpg></div><div class='cl'><div class='vertical-center'><font style='color:orange'>$70<br>with a<br>50% chance</font></div></div><div class='cr'><div class='vertical-center'>$24<br>for<br>sure</div></div><div class='respDivL'><div class='vertical-center'><font style='color:orange'>(E)</font></div></div><div class='respDivR'><div class='vertical-center'>(I)</div></div></div>","null","$24","$70","1","24","70",""
"html-keyboard-response","7","245027","0.0-5.0-1.1","63d81e2fb6c8f0da25fea602","bdp_rd","Sun Mar 26 2023 20:39:22 GMT-0500 (Central Daylight Time)","363393","","null","","","","FIX","","<div class='trialBorder'><div class='vertical-center'><img style='vertical-align:center; align:center' src=img/fixation3.jpg></div></div>","null","","","","","",""
"html-keyboard-response","8","247251","0.0-5.0-2.1","63d81e2fb6c8f0da25fea602","bdp_rd","Sun Mar 26 2023 20:39:22 GMT-0500 (Central Daylight Time)","363393","","2223","","","","offer","","<div class='trialBorder'><div class='vertical-center'><img style='vertical-align:center; align:center' src=img/fixation3.jpg></div><div class='cl'><div class='vertical-center'>$54<br>with a<br>50% chance</div></div><div class='cr'><div class='vertical-center'>$25<br>for<br>sure</div></div><div class='respDivL'><div class='vertical-center'>(E)</div></div><div class='respDivR'><div class='vertical-center'>(I)</div></div></div>","I","$25","$54","1","25","54","SURE"
"html-keyboard-response","9","247503","0.0-5.0-3.1","63d81e2fb6c8f0da25fea602","bdp_rd","Sun Mar 26 2023 20:39:22 GMT-0500 (Central Daylight Time)","363393","","null","","","","offerFB","","<div class='trialBorder'><div class='vertical-center'><img style='vertical-align:center; align:center' src=img/fixation3.jpg></div><div class='cl'><div class='vertical-center'>$54<br>with a<br>50% chance</div></div><div class='cr'><div class='vertical-center'><font style='color:orange'>$25<br>for<br>sure</font></div></div><div class='respDivL'><div class='vertical-center'>(E)</div></div><div class='respDivR'><div class='vertical-center'><font style='color:orange'>(I)</font></div></div></div>","null","$25","$54","1","25","54",""
"html-keyboard-response","10","248005","0.0-5.0-1.2","63d81e2fb6c8f0da25fea602","bdp_rd","Sun Mar 26 2023 20:39:22 GMT-0500 (Central Daylight Time)","363393","","null","","","","FIX","","<div class='trialBorder'><div class='vertical-center'><img style='vertical-align:center; align:center' src=img/fixation3.jpg></div></div>","null","","","","","",""
"html-keyboard-response","11","251131","0.0-5.0-2.2","63d81e2fb6c8f0da25fea602","bdp_rd","Sun Mar 26 2023 20:39:22 GMT-0500 (Central Daylight Time)","363393","","3125","","","","offer","","<div class='trialBorder'><div class='vertical-center'><img style='vertical-align:center; align:center' src=img/fixation3.jpg></div><div class='cl'><div class='vertical-center'>$100<br>with a<br>50% chance</div></div><div class='cr'><div class='vertical-center'>$63<br>for<br>sure</div></div><div class='respDivL'><div class='vertical-center'>(E)</div></div><div class='respDivR'><div class='vertical-center'>(I)</div></div></div>","I","$63","$100","1","63","10","SURE"
"html-keyboard-response","12","251384","0.0-5.0-3.2","63d81e2fb6c8f0da25fea602","bdp_rd","Sun Mar 26 2023 20:39:22 GMT-0500 (Central Daylight Time)","363393","","null","","","","offerFB","","<div class='trialBorder'><div class='vertical-center'><img style='vertical-align:center; align:center' src=img/fixation3.jpg></div><div class='cl'><div class='vertical-center'>$100<br>with a<br>50% chance</div></div><div class='cr'><div class='vertical-center'><font style='color:orange'>$63<br>for<br>sure</font></div></div><div class='respDivL'><div class='vertical-center'>(E)</div></div><div class='respDivR'><div class='vertical-center'><font style='color:orange'>(I)</font></div></div></div>","null","$63","$100","1","63","10",""
"html-keyboard-response","13","251887","0.0-5.0-1.3","63d81e2fb6c8f0da25fea602","bdp_rd","Sun Mar 26 2023 20:39:22 GMT-0500 (Central Daylight Time)","363393","","null","","","","FIX","","<div class='trialBorder'><div class='vertical-center'><img style='vertical-align:center; align:center' src=img/fixation3.jpg></div></div>","null","","","","","",""
"html-keyboard-response","14","254842","0.0-5.0-2.3","63d81e2fb6c8f0da25fea602","bdp_rd","Sun Mar 26 2023 20:39:22 GMT-0500 (Central Daylight Time)","363393","","2954","","","","offer","","<div class='trialBorder'><div class='vertical-center'><img style='vertical-align:center; align:center' src=img/fixation3.jpg></div><div class='cl'><div class='vertical-center'>$22<br>for<br>sure</div></div><div class='cr'><div class='vertical-center'>$59<br>with a<br>50% chance</div></div><div class='respDivL'><div class='vertical-center'>(E)</div></div><div class='respDivR'><div class='vertical-center'>(I)</div></div></div>","E","$22","$59","0","22","59","SURE"
"html-keyboard-response","15","255095","0.0-5.0-3.3","63d81e2fb6c8f0da25fea602","bdp_rd","Sun Mar 26 2023 20:39:22 GMT-0500 (Central Daylight Time)","363393","","null","","","","offerFB","","<div class='trialBorder'><div class='vertical-center'><img style='vertical-align:center; align:center' src=img/fixation3.jpg></div><div class='cl'><div class='vertical-center'><font style='color:orange'>$22<br>for<br>sure</font></div></div><div class='cr'><div class='vertical-center'>$59<br>with a<br>50% chance</div></div><div class='respDivL'><div class='vertical-center'><font style='color:orange'>(E)</font></div></div><div class='respDivR'><div class='vertical-center'>(I)</div></div></div>","null","$22","$59","0","22","59",""
"html-keyboard-response","16","255597","0.0-5.0-1.4","63d81e2fb6c8f0da25fea602","bdp_rd","Sun Mar 26 2023 20:39:22 GMT-0500 (Central Daylight Time)","363393","","null","","","","FIX","","<div class='trialBorder'><div class='vertical-center'><img style='vertical-align:center; align:center' src=img/fixation3.jpg></div></div>","null","","","","","",""
"html-keyboard-response","17","256985","0.0-5.0-2.4","63d81e2fb6c8f0da25fea602","bdp_rd","Sun Mar 26 2023 20:39:22 GMT-0500 (Central Daylight Time)","363393","","1387","","","","offer","","<div class='trialBorder'><div class='vertical-center'><img style='vertical-align:center; align:center' src=img/fixation3.jpg></div><div class='cl'><div class='vertical-center'>$16<br>for<br>sure</div></div><div class='cr'><div class='vertical-center'>$38<br>with a<br>50% chance</div></div><div class='respDivL'><div class='vertical-center'>(E)</div></div><div class='respDivR'><div class='vertical-center'>(I)</div></div></div>","E","$16","$38","0","16","38","SURE"
"html-keyboard-response","18","257236","0.0-5.0-3.4","63d81e2fb6c8f0da25fea602","bdp_rd","Sun Mar 26 2023 20:39:22 GMT-0500 (Central Daylight Time)","363393","","null","","","","offerFB","","<div class='trialBorder'><div class='vertical-center'><img style='vertical-align:center; align:center' src=img/fixation3.jpg></div><div class='cl'><div class='vertical-center'><font style='color:orange'>$16<br>for<br>sure</font></div></div><div class='cr'><div class='vertical-center'>$38<br>with a<br>50% chance</div></div><div class='respDivL'><div class='vertical-center'><font style='color:orange'>(E)</font></div></div><div class='respDivR'><div class='vertical-center'>(I)</div></div></div>","null","$16","$38","0","16","38",""
"html-keyboard-response","19","257737","0.0-5.0-1.5","63d81e2fb6c8f0da25fea602","bdp_rd","Sun Mar 26 2023 20:39:22 GMT-0500 (Central Daylight Time)","363393","","null","","","","FIX","","<div class='trialBorder'><div class='vertical-center'><img style='vertical-align:center; align:center' src=img/fixation3.jpg></div></div>","null","","","","","",""
"html-keyboard-response","20","260281","0.0-5.0-2.5","63d81e2fb6c8f0da25fea602","bdp_rd","Sun Mar 26 2023 20:39:22 GMT-0500 (Central Daylight Time)","363393","","2542","","","","offer","","<div class='trialBorder'><div class='vertical-center'><img style='vertical-align:center; align:center' src=img/fixation3.jpg></div><div class='cl'><div class='vertical-center'>$33<br>for<br>sure</div></div><div class='cr'><div class='vertical-center'>$66<br>with a<br>50% chance</div></div><div class='respDivL'><div class='vertical-center'>(E)</div></div><div class='respDivR'><div class='vertical-center'>(I)</div></div></div>","E","$33","$66","0","33","66","SURE"
"html-keyboard-response","21","260533","0.0-5.0-3.5","63d81e2fb6c8f0da25fea602","bdp_rd","Sun Mar 26 2023 20:39:22 GMT-0500 (Central Daylight Time)","363393","","null","","","","offerFB","","<div class='trialBorder'><div class='vertical-center'><img style='vertical-align:center; align:center' src=img/fixation3.jpg></div><div class='cl'><div class='vertical-center'><font style='color:orange'>$33<br>for<br>sure</font></div></div><div class='cr'><div class='vertical-center'>$66<br>with a<br>50% chance</div></div><div class='respDivL'><div class='vertical-center'><font style='color:orange'>(E)</font></div></div><div class='respDivR'><div class='vertical-center'>(I)</div></div></div>","null","$33","$66","0","33","66",""
"html-keyboard-response","22","261035","0.0-5.0-1.6","63d81e2fb6c8f0da25fea602","bdp_rd","Sun Mar 26 2023 20:39:22 GMT-0500 (Central Daylight Time)","363393","","null","","","","FIX","","<div class='trialBorder'><div class='vertical-center'><img style='vertical-align:center; align:center' src=img/fixation3.jpg></div></div>","null","","","","","",""
"html-keyboard-response","23","262884","0.0-5.0-2.6","63d81e2fb6c8f0da25fea602","bdp_rd","Sun Mar 26 2023 20:39:22 GMT-0500 (Central Daylight Time)","363393","","1848","","","","offer","","<div class='trialBorder'><div class='vertical-center'><img style='vertical-align:center; align:center' src=img/fixation3.jpg></div><div class='cl'><div class='vertical-center'>$31<br>for<br>sure</div></div><div class='cr'><div class='vertical-center'>$78<br>with a<br>50% chance</div></div><div class='respDivL'><div class='vertical-center'>(E)</div></div><div class='respDivR'><div class='vertical-center'>(I)</div></div></div>","I","$31","$78","0","31","78","RISKY"
"html-keyboard-response","24","263136","0.0-5.0-3.6","63d81e2fb6c8f0da25fea602","bdp_rd","Sun Mar 26 2023 20:39:22 GMT-0500 (Central Daylight Time)","363393","","null","","","","offerFB","","<div class='trialBorder'><div class='vertical-center'><img style='vertical-align:center; align:center' src=img/fixation3.jpg></div><div class='cl'><div class='vertical-center'>$31<br>for<br>sure</div></div><div class='cr'><div class='vertical-center'><font style='color:orange'>$78<br>with a<br>50% chance</font></div></div><div class='respDivL'><div class='vertical-center'>(E)</div></div><div class='respDivR'><div class='vertical-center'><font style='color:orange'>(I)</font></div></div></div>","null","$31","$78","0","31","78",""
"html-keyboard-response","25","263638","0.0-5.0-1.7","63d81e2fb6c8f0da25fea602","bdp_rd","Sun Mar 26 2023 20:39:22 GMT-0500 (Central Daylight Time)","363393","","null","","","","FIX","","<div class='trialBorder'><div class='vertical-center'><img style='vertical-align:center; align:center' src=img/fixation3.jpg></div></div>","null","","","","","",""
"html-keyboard-response","26","265695","0.0-5.0-2.7","63d81e2fb6c8f0da25fea602","bdp_rd","Sun Mar 26 2023 20:39:22 GMT-0500 (Central Daylight Time)","363393","","2056","","","","offer","","<div class='trialBorder'><div class='vertical-center'><img style='vertical-align:center; align:center' src=img/fixation3.jpg></div><div class='cl'><div class='vertical-center'>$17<br>for<br>sure</div></div><div class='cr'><div class='vertical-center'>$43<br>with a<br>50% chance</div></div><div class='respDivL'><div class='vertical-center'>(E)</div></div><div class='respDivR'><div class='vertical-center'>(I)</div></div></div>","E","$17","$43","0","17","43","SURE"
"html-keyboard-response","27","265946","0.0-5.0-3.7","63d81e2fb6c8f0da25fea602","bdp_rd","Sun Mar 26 2023 20:39:22 GMT-0500 (Central Daylight Time)","363393","","null","","","","offerFB","","<div class='trialBorder'><div class='vertical-center'><img style='vertical-align:center; align:center' src=img/fixation3.jpg></div><div class='cl'><div class='vertical-center'><font style='color:orange'>$17<br>for<br>sure</font></div></div><div class='cr'><div class='vertical-center'>$43<br>with a<br>50% chance</div></div><div class='respDivL'><div class='vertical-center'><font style='color:orange'>(E)</font></div></div><div class='respDivR'><div class='vertical-center'>(I)</div></div></div>","null","$17","$43","0","17","43",""
"html-keyboard-response","28","266449","0.0-5.0-1.8","63d81e2fb6c8f0da25fea602","bdp_rd","Sun Mar 26 2023 20:39:22 GMT-0500 (Central Daylight Time)","363393","","null","","","","FIX","","<div class='trialBorder'><div class='vertical-center'><img style='vertical-align:center; align:center' src=img/fixation3.jpg></div></div>","null","","","","","",""
"html-keyboard-response","29","269412","0.0-5.0-2.8","63d81e2fb6c8f0da25fea602","bdp_rd","Sun Mar 26 2023 20:39:22 GMT-0500 (Central Daylight Time)","363393","","2961","","","","offer","","<div class='trialBorder'><div class='vertical-center'><img style='vertical-align:center; align:center' src=img/fixation3.jpg></div><div class='cl'><div class='vertical-center'>$2<br>for<br>sure</div></div><div class='cr'><div class='vertical-center'>$21<br>with a<br>50% chance</div></div><div class='respDivL'><div class='vertical-center'>(E)</div></div><div class='respDivR'><div class='vertical-center'>(I)</div></div></div>","I","$2","$21","0","2","21","RISKY"
"html-keyboard-response","30","269664","0.0-5.0-3.8","63d81e2fb6c8f0da25fea602","bdp_rd","Sun Mar 26 2023 20:39:22 GMT-0500 (Central Daylight Time)","363393","","null","","","","offerFB","","<div class='trialBorder'><div class='vertical-center'><img style='vertical-align:center; align:center' src=img/fixation3.jpg></div><div class='cl'><div class='vertical-center'>$2<br>for<br>sure</div></div><div class='cr'><div class='vertical-center'><font style='color:orange'>$21<br>with a<br>50% chance</font></div></div><div class='respDivL'><div class='vertical-center'>(E)</div></div><div class='respDivR'><div class='vertical-center'><font style='color:orange'>(I)</font></div></div></div>","null","$2","$21","0","2","21",""
"html-keyboard-response","31","270166","0.0-5.0-1.9","63d81e2fb6c8f0da25fea602","bdp_rd","Sun Mar 26 2023 20:39:22 GMT-0500 (Central Daylight Time)","363393","","null","","","","FIX","","<div class='trialBorder'><div class='vertical-center'><img style='vertical-align:center; align:center' src=img/fixation3.jpg></div></div>","null","","","","","",""
"html-keyboard-response","32","271727","0.0-5.0-2.9","63d81e2fb6c8f0da25fea602","bdp_rd","Sun Mar 26 2023 20:39:22 GMT-0500 (Central Daylight Time)","363393","","1560","","","","offer","","<div class='trialBorder'><div class='vertical-center'><img style='vertical-align:center; align:center' src=img/fixation3.jpg></div><div class='cl'><div class='vertical-center'>$28<br>with a<br>50% chance</div></div><div class='cr'><div class='vertical-center'>$16<br>for<br>sure</div></div><div class='respDivL'><div class='vertical-center'>(E)</div></div><div class='respDivR'><div class='vertical-center'>(I)</div></div></div>","I","$16","$28","1","16","28","SURE"
"html-keyboard-response","33","271979","0.0-5.0-3.9","63d81e2fb6c8f0da25fea602","bdp_rd","Sun Mar 26 2023 20:39:22 GMT-0500 (Central Daylight Time)","363393","","null","","","","offerFB","","<div class='trialBorder'><div class='vertical-center'><img style='vertical-align:center; align:center' src=img/fixation3.jpg></div><div class='cl'><div class='vertical-center'>$28<br>with a<br>50% chance</div></div><div class='cr'><div class='vertical-center'><font style='color:orange'>$16<br>for<br>sure</font></div></div><div class='respDivL'><div class='vertical-center'>(E)</div></div><div class='respDivR'><div class='vertical-center'><font style='color:orange'>(I)</font></div></div></div>","null","$16","$28","1","16","28",""
"html-keyboard-response","34","272481","0.0-5.0-1.10","63d81e2fb6c8f0da25fea602","bdp_rd","Sun Mar 26 2023 20:39:22 GMT-0500 (Central Daylight Time)","363393","","null","","","","FIX","","<div class='trialBorder'><div class='vertical-center'><img style='vertical-align:center; align:center' src=img/fixation3.jpg></div></div>","null","","","","","",""
"html-keyboard-response","35","273475","0.0-5.0-2.10","63d81e2fb6c8f0da25fea602","bdp_rd","Sun Mar 26 2023 20:39:22 GMT-0500 (Central Daylight Time)","363393","","994","","","","offer","","<div class='trialBorder'><div class='vertical-center'><img style='vertical-align:center; align:center' src=img/fixation3.jpg></div><div class='cl'><div class='vertical-center'>$8<br>for<br>sure</div></div><div class='cr'><div class='vertical-center'>$23<br>with a<br>50% chance</div></div><div class='respDivL'><div class='vertical-center'>(E)</div></div><div class='respDivR'><div class='vertical-center'>(I)</div></div></div>","I","$8","$23","0","8","23","RISKY"
"html-keyboard-response","36","273727","0.0-5.0-3.10","63d81e2fb6c8f0da25fea602","bdp_rd","Sun Mar 26 2023 20:39:22 GMT-0500 (Central Daylight Time)","363393","","null","","","","offerFB","","<div class='trialBorder'><div class='vertical-center'><img style='vertical-align:center; align:center' src=img/fixation3.jpg></div><div class='cl'><div class='vertical-center'>$8<br>for<br>sure</div></div><div class='cr'><div class='vertical-center'><font style='color:orange'>$23<br>with a<br>50% chance</font></div></div><div class='respDivL'><div class='vertical-center'>(E)</div></div><div class='respDivR'><div class='vertical-center'><font style='color:orange'>(I)</font></div></div></div>","null","$8","$23","0","8","23",""
"html-keyboard-response","37","274229","0.0-5.0-1.11","63d81e2fb6c8f0da25fea602","bdp_rd","Sun Mar 26 2023 20:39:22 GMT-0500 (Central Daylight Time)","363393","","null","","","","FIX","","<div class='trialBorder'><div class='vertical-center'><img style='vertical-align:center; align:center' src=img/fixation3.jpg></div></div>","null","","","","","",""
"html-keyboard-response","38","275673","0.0-5.0-2.11","63d81e2fb6c8f0da25fea602","bdp_rd","Sun Mar 26 2023 20:39:22 GMT-0500 (Central Daylight Time)","363393","","1443","","","","offer","","<div class='trialBorder'><div class='vertical-center'><img style='vertical-align:center; align:center' src=img/fixation3.jpg></div><div class='cl'><div class='vertical-center'>$7<br>for<br>sure</div></div><div class='cr'><div class='vertical-center'>$71<br>with a<br>50% chance</div></div><div class='respDivL'><div class='vertical-center'>(E)</div></div><div class='respDivR'><div class='vertical-center'>(I)</div></div></div>","I","$7","$71","0","7","71","RISKY"
"html-keyboard-response","39","275925","0.0-5.0-3.11","63d81e2fb6c8f0da25fea602","bdp_rd","Sun Mar 26 2023 20:39:22 GMT-0500 (Central Daylight Time)","363393","","null","","","","offerFB","","<div class='trialBorder'><div class='vertical-center'><img style='vertical-align:center; align:center' src=img/fixation3.jpg></div><div class='cl'><div class='vertical-center'>$7<br>for<br>sure</div></div><div class='cr'><div class='vertical-center'><font style='color:orange'>$71<br>with a<br>50% chance</font></div></div><div class='respDivL'><div class='vertical-center'>(E)</div></div><div class='respDivR'><div class='vertical-center'><font style='color:orange'>(I)</font></div></div></div>","null","$7","$71","0","7","71",""
"html-keyboard-response","40","276427","0.0-5.0-1.12","63d81e2fb6c8f0da25fea602","bdp_rd","Sun Mar 26 2023 20:39:22 GMT-0500 (Central Daylight Time)","363393","","null","","","","FIX","","<div class='trialBorder'><div class='vertical-center'><img style='vertical-align:center; align:center' src=img/fixation3.jpg></div></div>","null","","","","","",""
"html-keyboard-response","41","278138","0.0-5.0-2.12","63d81e2fb6c8f0da25fea602","bdp_rd","Sun Mar 26 2023 20:39:22 GMT-0500 (Central Daylight Time)","363393","","1710","","","","offer","","<div class='trialBorder'><div class='vertical-center'><img style='vertical-align:center; align:center' src=img/fixation3.jpg></div><div class='cl'><div class='vertical-center'>$37<br>with a<br>50% chance</div></div><div class='cr'><div class='vertical-center'>$20<br>for<br>sure</div></div><div class='respDivL'><div class='vertical-center'>(E)</div></div><div class='respDivR'><div class='vertical-center'>(I)</div></div></div>","I","$20","$37","1","20","37","SURE"
"html-keyboard-response","42","278390","0.0-5.0-3.12","63d81e2fb6c8f0da25fea602","bdp_rd","Sun Mar 26 2023 20:39:22 GMT-0500 (Central Daylight Time)","363393","","null","","","","offerFB","","<div class='trialBorder'><div class='vertical-center'><img style='vertical-align:center; align:center' src=img/fixation3.jpg></div><div class='cl'><div class='vertical-center'>$37<br>with a<br>50% chance</div></div><div class='cr'><div class='vertical-center'><font style='color:orange'>$20<br>for<br>sure</font></div></div><div class='respDivL'><div class='vertical-center'>(E)</div></div><div class='respDivR'><div class='vertical-center'><font style='color:orange'>(I)</font></div></div></div>","null","$20","$37","1","20","37",""
"html-keyboard-response","43","278892","0.0-5.0-1.13","63d81e2fb6c8f0da25fea602","bdp_rd","Sun Mar 26 2023 20:39:22 GMT-0500 (Central Daylight Time)","363393","","null","","","","FIX","","<div class='trialBorder'><div class='vertical-center'><img style='vertical-align:center; align:center' src=img/fixation3.jpg></div></div>","null","","","","","",""
"html-keyboard-response","44","281672","0.0-5.0-2.13","63d81e2fb6c8f0da25fea602","bdp_rd","Sun Mar 26 2023 20:39:22 GMT-0500 (Central Daylight Time)","363393","","2779","","","","offer","","<div class='trialBorder'><div class='vertical-center'><img style='vertical-align:center; align:center' src=img/fixation3.jpg></div><div class='cl'><div class='vertical-center'>$13<br>for<br>sure</div></div><div class='cr'><div class='vertical-center'>$41<br>with a<br>50% chance</div></div><div class='respDivL'><div class='vertical-center'>(E)</div></div><div class='respDivR'><div class='vertical-center'>(I)</div></div></div>","E","$13","$41","0","13","41","SURE"
"html-keyboard-response","45","281923","0.0-5.0-3.13","63d81e2fb6c8f0da25fea602","bdp_rd","Sun Mar 26 2023 20:39:22 GMT-0500 (Central Daylight Time)","363393","","null","","","","offerFB","","<div class='trialBorder'><div class='vertical-center'><img style='vertical-align:center; align:center' src=img/fixation3.jpg></div><div class='cl'><div class='vertical-center'><font style='color:orange'>$13<br>for<br>sure</font></div></div><div class='cr'><div class='vertical-center'>$41<br>with a<br>50% chance</div></div><div class='respDivL'><div class='vertical-center'><font style='color:orange'>(E)</font></div></div><div class='respDivR'><div class='vertical-center'>(I)</div></div></div>","null","$13","$41","0","13","41",""
"html-keyboard-response","46","282425","0.0-5.0-1.14","63d81e2fb6c8f0da25fea602","bdp_rd","Sun Mar 26 2023 20:39:22 GMT-0500 (Central Daylight Time)","363393","","null","","","","FIX","","<div class='trialBorder'><div class='vertical-center'><img style='vertical-align:center; align:center' src=img/fixation3.jpg></div></div>","null","","","","","",""
"html-keyboard-response","47","285368","0.0-5.0-2.14","63d81e2fb6c8f0da25fea602","bdp_rd","Sun Mar 26 2023 20:39:22 GMT-0500 (Central Daylight Time)","363393","","2941","","","","offer","","<div class='trialBorder'><div class='vertical-center'><img style='vertical-align:center; align:center' src=img/fixation3.jpg></div><div class='cl'><div class='vertical-center'>$30<br>with a<br>50% chance</div></div><div class='cr'><div class='vertical-center'>$1<br>for<br>sure</div></div><div class='respDivL'><div class='vertical-center'>(E)</div></div><div class='respDivR'><div class='vertical-center'>(I)</div></div></div>","I","$1","$30","1","1","30","SURE"
"html-keyboard-response","48","285619","0.0-5.0-3.14","63d81e2fb6c8f0da25fea602","bdp_rd","Sun Mar 26 2023 20:39:22 GMT-0500 (Central Daylight Time)","363393","","null","","","","offerFB","","<div class='trialBorder'><div class='vertical-center'><img style='vertical-align:center; align:center' src=img/fixation3.jpg></div><div class='cl'><div class='vertical-center'>$30<br>with a<br>50% chance</div></div><div class='cr'><div class='vertical-center'><font style='color:orange'>$1<br>for<br>sure</font></div></div><div class='respDivL'><div class='vertical-center'>(E)</div></div><div class='respDivR'><div class='vertical-center'><font style='color:orange'>(I)</font></div></div></div>","null","$1","$30","1","1","30",""
"html-keyboard-response","49","286121","0.0-5.0-1.15","63d81e2fb6c8f0da25fea602","bdp_rd","Sun Mar 26 2023 20:39:22 GMT-0500 (Central Daylight Time)","363393","","null","","","","FIX","","<div class='trialBorder'><div class='vertical-center'><img style='vertical-align:center; align:center' src=img/fixation3.jpg></div></div>","null","","","","","",""
"html-keyboard-response","50","287469","0.0-5.0-2.15","63d81e2fb6c8f0da25fea602","bdp_rd","Sun Mar 26 2023 20:39:22 GMT-0500 (Central Daylight Time)","363393","","1346","","","","offer","","<div class='trialBorder'><div class='vertical-center'><img style='vertical-align:center; align:center' src=img/fixation3.jpg></div><div class='cl'><div class='vertical-center'>$9<br>for<br>sure</div></div><div class='cr'><div class='vertical-center'>$32<br>with a<br>50% chance</div></div><div class='respDivL'><div class='vertical-center'>(E)</div></div><div class='respDivR'><div class='vertical-center'>(I)</div></div></div>","I","$9","$32","0","9","32","RISKY"
"html-keyboard-response","51","287721","0.0-5.0-3.15","63d81e2fb6c8f0da25fea602","bdp_rd","Sun Mar 26 2023 20:39:22 GMT-0500 (Central Daylight Time)","363393","","null","","","","offerFB","","<div class='trialBorder'><div class='vertical-center'><img style='vertical-align:center; align:center' src=img/fixation3.jpg></div><div class='cl'><div class='vertical-center'>$9<br>for<br>sure</div></div><div class='cr'><div class='vertical-center'><font style='color:orange'>$32<br>with a<br>50% chance</font></div></div><div class='respDivL'><div class='vertical-center'>(E)</div></div><div class='respDivR'><div class='vertical-center'><font style='color:orange'>(I)</font></div></div></div>","null","$9","$32","0","9","32",""
"html-keyboard-response","52","288222","0.0-5.0-1.16","63d81e2fb6c8f0da25fea602","bdp_rd","Sun Mar 26 2023 20:39:22 GMT-0500 (Central Daylight Time)","363393","","null","","","","FIX","","<div class='trialBorder'><div class='vertical-center'><img style='vertical-align:center; align:center' src=img/fixation3.jpg></div></div>","null","","","","","",""
"html-keyboard-response","53","290290","0.0-5.0-2.16","63d81e2fb6c8f0da25fea602","bdp_rd","Sun Mar 26 2023 20:39:22 GMT-0500 (Central Daylight Time)","363393","","2067","","","","offer","","<div class='trialBorder'><div class='vertical-center'><img style='vertical-align:center; align:center' src=img/fixation3.jpg></div><div class='cl'><div class='vertical-center'>$64<br>with a<br>50% chance</div></div><div class='cr'><div class='vertical-center'>$2<br>for<br>sure</div></div><div class='respDivL'><div class='vertical-center'>(E)</div></div><div class='respDivR'><div class='vertical-center'>(I)</div></div></div>","E","$2","$64","1","2","64","RISKY"
"html-keyboard-response","54","290543","0.0-5.0-3.16","63d81e2fb6c8f0da25fea602","bdp_rd","Sun Mar 26 2023 20:39:22 GMT-0500 (Central Daylight Time)","363393","","null","","","","offerFB","","<div class='trialBorder'><div class='vertical-center'><img style='vertical-align:center; align:center' src=img/fixation3.jpg></div><div class='cl'><div class='vertical-center'><font style='color:orange'>$64<br>with a<br>50% chance</font></div></div><div class='cr'><div class='vertical-center'>$2<br>for<br>sure</div></div><div class='respDivL'><div class='vertical-center'><font style='color:orange'>(E)</font></div></div><div class='respDivR'><div class='vertical-center'>(I)</div></div></div>","null","$2","$64","1","2","64",""
"html-keyboard-response","55","291044","0.0-5.0-1.17","63d81e2fb6c8f0da25fea602","bdp_rd","Sun Mar 26 2023 20:39:22 GMT-0500 (Central Daylight Time)","363393","","null","","","","FIX","","<div class='trialBorder'><div class='vertical-center'><img style='vertical-align:center; align:center' src=img/fixation3.jpg></div></div>","null","","","","","",""
"html-keyboard-response","56","293812","0.0-5.0-2.17","63d81e2fb6c8f0da25fea602","bdp_rd","Sun Mar 26 2023 20:39:22 GMT-0500 (Central Daylight Time)","363393","","2767","","","","offer","","<div class='trialBorder'><div class='vertical-center'><img style='vertical-align:center; align:center' src=img/fixation3.jpg></div><div class='cl'><div class='vertical-center'>$7<br>for<br>sure</div></div><div class='cr'><div class='vertical-center'>$10<br>with a<br>50% chance</div></div><div class='respDivL'><div class='vertical-center'>(E)</div></div><div class='respDivR'><div class='vertical-center'>(I)</div></div></div>","I","$7","$10","0","7","10","RISKY"
"html-keyboard-response","57","294064","0.0-5.0-3.17","63d81e2fb6c8f0da25fea602","bdp_rd","Sun Mar 26 2023 20:39:22 GMT-0500 (Central Daylight Time)","363393","","null","","","","offerFB","","<div class='trialBorder'><div class='vertical-center'><img style='vertical-align:center; align:center' src=img/fixation3.jpg></div><div class='cl'><div class='vertical-center'>$7<br>for<br>sure</div></div><div class='cr'><div class='vertical-center'><font style='color:orange'>$10<br>with a<br>50% chance</font></div></div><div class='respDivL'><div class='vertical-center'>(E)</div></div><div class='respDivR'><div class='vertical-center'><font style='color:orange'>(I)</font></div></div></div>","null","$7","$10","0","7","10",""
"html-keyboard-response","58","294567","0.0-5.0-1.18","63d81e2fb6c8f0da25fea602","bdp_rd","Sun Mar 26 2023 20:39:22 GMT-0500 (Central Daylight Time)","363393","","null","","","","FIX","","<div class='trialBorder'><div class='vertical-center'><img style='vertical-align:center; align:center' src=img/fixation3.jpg></div></div>","null","","","","","",""
"html-keyboard-response","59","297386","0.0-5.0-2.18","63d81e2fb6c8f0da25fea602","bdp_rd","Sun Mar 26 2023 20:39:22 GMT-0500 (Central Daylight Time)","363393","","2819","","","","offer","","<div class='trialBorder'><div class='vertical-center'><img style='vertical-align:center; align:center' src=img/fixation3.jpg></div><div class='cl'><div class='vertical-center'>$18<br>with a<br>50% chance</div></div><div class='cr'><div class='vertical-center'>$9<br>for<br>sure</div></div><div class='respDivL'><div class='vertical-center'>(E)</div></div><div class='respDivR'><div class='vertical-center'>(I)</div></div></div>","I","$9","$18","1","9","18","SURE"
"html-keyboard-response","60","297638","0.0-5.0-3.18","63d81e2fb6c8f0da25fea602","bdp_rd","Sun Mar 26 2023 20:39:22 GMT-0500 (Central Daylight Time)","363393","","null","","","","offerFB","","<div class='trialBorder'><div class='vertical-center'><img style='vertical-align:center; align:center' src=img/fixation3.jpg></div><div class='cl'><div class='vertical-center'>$18<br>with a<br>50% chance</div></div><div class='cr'><div class='vertical-center'><font style='color:orange'>$9<br>for<br>sure</font></div></div><div class='respDivL'><div class='vertical-center'>(E)</div></div><div class='respDivR'><div class='vertical-center'><font style='color:orange'>(I)</font></div></div></div>","null","$9","$18","1","9","18",""
"html-keyboard-response","61","298139","0.0-5.0-1.19","63d81e2fb6c8f0da25fea602","bdp_rd","Sun Mar 26 2023 20:39:22 GMT-0500 (Central Daylight Time)","363393","","null","","","","FIX","","<div class='trialBorder'><div class='vertical-center'><img style='vertical-align:center; align:center' src=img/fixation3.jpg></div></div>","null","","","","","",""
"html-keyboard-response","62","300117","0.0-5.0-2.19","63d81e2fb6c8f0da25fea602","bdp_rd","Sun Mar 26 2023 20:39:22 GMT-0500 (Central Daylight Time)","363393","","1977","","","","offer","","<div class='trialBorder'><div class='vertical-center'><img style='vertical-align:center; align:center' src=img/fixation3.jpg></div><div class='cl'><div class='vertical-center'>$15<br>with a<br>50% chance</div></div><div class='cr'><div class='vertical-center'>$6<br>for<br>sure</div></div><div class='respDivL'><div class='vertical-center'>(E)</div></div><div class='respDivR'><div class='vertical-center'>(I)</div></div></div>","I","$6","$15","1","6","15","SURE"
"html-keyboard-response","63","300369","0.0-5.0-3.19","63d81e2fb6c8f0da25fea602","bdp_rd","Sun Mar 26 2023 20:39:22 GMT-0500 (Central Daylight Time)","363393","","null","","","","offerFB","","<div class='trialBorder'><div class='vertical-center'><img style='vertical-align:center; align:center' src=img/fixation3.jpg></div><div class='cl'><div class='vertical-center'>$15<br>with a<br>50% chance</div></div><div class='cr'><div class='vertical-center'><font style='color:orange'>$6<br>for<br>sure</font></div></div><div class='respDivL'><div class='vertical-center'>(E)</div></div><div class='respDivR'><div class='vertical-center'><font style='color:orange'>(I)</font></div></div></div>","null","$6","$15","1","6","15",""
"html-keyboard-response","64","300871","0.0-5.0-1.20","63d81e2fb6c8f0da25fea602","bdp_rd","Sun Mar 26 2023 20:39:22 GMT-0500 (Central Daylight Time)","363393","","null","","","","FIX","","<div class='trialBorder'><div class='vertical-center'><img style='vertical-align:center; align:center' src=img/fixation3.jpg></div></div>","null","","","","","",""
"html-keyboard-response","65","301777","0.0-5.0-2.20","63d81e2fb6c8f0da25fea602","bdp_rd","Sun Mar 26 2023 20:39:22 GMT-0500 (Central Daylight Time)","363393","","905","","","","offer","","<div class='trialBorder'><div class='vertical-center'><img style='vertical-align:center; align:center' src=img/fixation3.jpg></div><div class='cl'><div class='vertical-center'>$11<br>for<br>sure</div></div><div class='cr'><div class='vertical-center'>$62<br>with a<br>50% chance</div></div><div class='respDivL'><div class='vertical-center'>(E)</div></div><div class='respDivR'><div class='vertical-center'>(I)</div></div></div>","I","$11","$62","0","11","62","RISKY"
"html-keyboard-response","66","302028","0.0-5.0-3.20","63d81e2fb6c8f0da25fea602","bdp_rd","Sun Mar 26 2023 20:39:22 GMT-0500 (Central Daylight Time)","363393","","null","","","","offerFB","","<div class='trialBorder'><div class='vertical-center'><img style='vertical-align:center; align:center' src=img/fixation3.jpg></div><div class='cl'><div class='vertical-center'>$11<br>for<br>sure</div></div><div class='cr'><div class='vertical-center'><font style='color:orange'>$62<br>with a<br>50% chance</font></div></div><div class='respDivL'><div class='vertical-center'>(E)</div></div><div class='respDivR'><div class='vertical-center'><font style='color:orange'>(I)</font></div></div></div>","null","$11","$62","0","11","62",""
"html-keyboard-response","67","302531","0.0-5.0-1.21","63d81e2fb6c8f0da25fea602","bdp_rd","Sun Mar 26 2023 20:39:22 GMT-0500 (Central Daylight Time)","363393","","null","","","","FIX","","<div class='trialBorder'><div class='vertical-center'><img style='vertical-align:center; align:center' src=img/fixation3.jpg></div></div>","null","","","","","",""
"html-keyboard-response","68","303874","0.0-5.0-2.21","63d81e2fb6c8f0da25fea602","bdp_rd","Sun Mar 26 2023 20:39:22 GMT-0500 (Central Daylight Time)","363393","","1342","","","","offer","","<div class='trialBorder'><div class='vertical-center'><img style='vertical-align:center; align:center' src=img/fixation3.jpg></div><div class='cl'><div class='vertical-center'>$14<br>for<br>sure</div></div><div class='cr'><div class='vertical-center'>$29<br>with a<br>50% chance</div></div><div class='respDivL'><div class='vertical-center'>(E)</div></div><div class='respDivR'><div class='vertical-center'>(I)</div></div></div>","E","$14","$29","0","14","29","SURE"
"html-keyboard-response","69","304125","0.0-5.0-3.21","63d81e2fb6c8f0da25fea602","bdp_rd","Sun Mar 26 2023 20:39:22 GMT-0500 (Central Daylight Time)","363393","","null","","","","offerFB","","<div class='trialBorder'><div class='vertical-center'><img style='vertical-align:center; align:center' src=img/fixation3.jpg></div><div class='cl'><div class='vertical-center'><font style='color:orange'>$14<br>for<br>sure</font></div></div><div class='cr'><div class='vertical-center'>$29<br>with a<br>50% chance</div></div><div class='respDivL'><div class='vertical-center'><font style='color:orange'>(E)</font></div></div><div class='respDivR'><div class='vertical-center'>(I)</div></div></div>","null","$14","$29","0","14","29",""
"html-keyboard-response","70","304626","0.0-5.0-1.22","63d81e2fb6c8f0da25fea602","bdp_rd","Sun Mar 26 2023 20:39:22 GMT-0500 (Central Daylight Time)","363393","","null","","","","FIX","","<div class='trialBorder'><div class='vertical-center'><img style='vertical-align:center; align:center' src=img/fixation3.jpg></div></div>","null","","","","","",""
"html-keyboard-response","71","305756","0.0-5.0-2.22","63d81e2fb6c8f0da25fea602","bdp_rd","Sun Mar 26 2023 20:39:22 GMT-0500 (Central Daylight Time)","363393","","1129","","","","offer","","<div class='trialBorder'><div class='vertical-center'><img style='vertical-align:center; align:center' src=img/fixation3.jpg></div><div class='cl'><div class='vertical-center'>$46<br>with a<br>50% chance</div></div><div class='cr'><div class='vertical-center'>$29<br>for<br>sure</div></div><div class='respDivL'><div class='vertical-center'>(E)</div></div><div class='respDivR'><div class='vertical-center'>(I)</div></div></div>","I","$29","$46","1","29","46","SURE"
"html-keyboard-response","72","306007","0.0-5.0-3.22","63d81e2fb6c8f0da25fea602","bdp_rd","Sun Mar 26 2023 20:39:22 GMT-0500 (Central Daylight Time)","363393","","null","","","","offerFB","","<div class='trialBorder'><div class='vertical-center'><img style='vertical-align:center; align:center' src=img/fixation3.jpg></div><div class='cl'><div class='vertical-center'>$46<br>with a<br>50% chance</div></div><div class='cr'><div class='vertical-center'><font style='color:orange'>$29<br>for<br>sure</font></div></div><div class='respDivL'><div class='vertical-center'>(E)</div></div><div class='respDivR'><div class='vertical-center'><font style='color:orange'>(I)</font></div></div></div>","null","$29","$46","1","29","46",""
"html-keyboard-response","73","306509","0.0-5.0-1.23","63d81e2fb6c8f0da25fea602","bdp_rd","Sun Mar 26 2023 20:39:22 GMT-0500 (Central Daylight Time)","363393","","null","","","","FIX","","<div class='trialBorder'><div class='vertical-center'><img style='vertical-align:center; align:center' src=img/fixation3.jpg></div></div>","null","","","","","",""
"html-keyboard-response","74","308001","0.0-5.0-2.23","63d81e2fb6c8f0da25fea602","bdp_rd","Sun Mar 26 2023 20:39:22 GMT-0500 (Central Daylight Time)","363393","","1491","","","","offer","","<div class='trialBorder'><div class='vertical-center'><img style='vertical-align:center; align:center' src=img/fixation3.jpg></div><div class='cl'><div class='vertical-center'>$80<br>with a<br>50% chance</div></div><div class='cr'><div class='vertical-center'>$20<br>for<br>sure</div></div><div class='respDivL'><div class='vertical-center'>(E)</div></div><div class='respDivR'><div class='vertical-center'>(I)</div></div></div>","E","$20","$80","1","20","80","RISKY"
"html-keyboard-response","75","308253","0.0-5.0-3.23","63d81e2fb6c8f0da25fea602","bdp_rd","Sun Mar 26 2023 20:39:22 GMT-0500 (Central Daylight Time)","363393","","null","","","","offerFB","","<div class='trialBorder'><div class='vertical-center'><img style='vertical-align:center; align:center' src=img/fixation3.jpg></div><div class='cl'><div class='vertical-center'><font style='color:orange'>$80<br>with a<br>50% chance</font></div></div><div class='cr'><div class='vertical-center'>$20<br>for<br>sure</div></div><div class='respDivL'><div class='vertical-center'><font style='color:orange'>(E)</font></div></div><div class='respDivR'><div class='vertical-center'>(I)</div></div></div>","null","$20","$80","1","20","80",""
"html-keyboard-response","76","308754","0.0-5.0-1.24","63d81e2fb6c8f0da25fea602","bdp_rd","Sun Mar 26 2023 20:39:22 GMT-0500 (Central Daylight Time)","363393","","null","","","","FIX","","<div class='trialBorder'><div class='vertical-center'><img style='vertical-align:center; align:center' src=img/fixation3.jpg></div></div>","null","","","","","",""
"html-keyboard-response","77","310482","0.0-5.0-2.24","63d81e2fb6c8f0da25fea602","bdp_rd","Sun Mar 26 2023 20:39:22 GMT-0500 (Central Daylight Time)","363393","","1726","","","","offer","","<div class='trialBorder'><div class='vertical-center'><img style='vertical-align:center; align:center' src=img/fixation3.jpg></div><div class='cl'><div class='vertical-center'>$12<br>for<br>sure</div></div><div class='cr'><div class='vertical-center'>$35<br>with a<br>50% chance</div></div><div class='respDivL'><div class='vertical-center'>(E)</div></div><div class='respDivR'><div class='vertical-center'>(I)</div></div></div>","E","$12","$35","0","12","35","SURE"
"html-keyboard-response","78","310734","0.0-5.0-3.24","63d81e2fb6c8f0da25fea602","bdp_rd","Sun Mar 26 2023 20:39:22 GMT-0500 (Central Daylight Time)","363393","","null","","","","offerFB","","<div class='trialBorder'><div class='vertical-center'><img style='vertical-align:center; align:center' src=img/fixation3.jpg></div><div class='cl'><div class='vertical-center'><font style='color:orange'>$12<br>for<br>sure</font></div></div><div class='cr'><div class='vertical-center'>$35<br>with a<br>50% chance</div></div><div class='respDivL'><div class='vertical-center'><font style='color:orange'>(E)</font></div></div><div class='respDivR'><div class='vertical-center'>(I)</div></div></div>","null","$12","$35","0","12","35",""
"html-keyboard-response","79","311236","0.0-5.0-1.25","63d81e2fb6c8f0da25fea602","bdp_rd","Sun Mar 26 2023 20:39:22 GMT-0500 (Central Daylight Time)","363393","","null","","","","FIX","","<div class='trialBorder'><div class='vertical-center'><img style='vertical-align:center; align:center' src=img/fixation3.jpg></div></div>","null","","","","","",""
"html-keyboard-response","80","314022","0.0-5.0-2.25","63d81e2fb6c8f0da25fea602","bdp_rd","Sun Mar 26 2023 20:39:22 GMT-0500 (Central Daylight Time)","363393","","2785","","","","offer","","<div class='trialBorder'><div class='vertical-center'><img style='vertical-align:center; align:center' src=img/fixation3.jpg></div><div class='cl'><div class='vertical-center'>$19<br>for<br>sure</div></div><div class='cr'><div class='vertical-center'>$51<br>with a<br>50% chance</div></div><div class='respDivL'><div class='vertical-center'>(E)</div></div><div class='respDivR'><div class='vertical-center'>(I)</div></div></div>","E","$19","$51","0","19","51","SURE"
"html-keyboard-response","81","314275","0.0-5.0-3.25","63d81e2fb6c8f0da25fea602","bdp_rd","Sun Mar 26 2023 20:39:22 GMT-0500 (Central Daylight Time)","363393","","null","","","","offerFB","","<div class='trialBorder'><div class='vertical-center'><img style='vertical-align:center; align:center' src=img/fixation3.jpg></div><div class='cl'><div class='vertical-center'><font style='color:orange'>$19<br>for<br>sure</font></div></div><div class='cr'><div class='vertical-center'>$51<br>with a<br>50% chance</div></div><div class='respDivL'><div class='vertical-center'><font style='color:orange'>(E)</font></div></div><div class='respDivR'><div class='vertical-center'>(I)</div></div></div>","null","$19","$51","0","19","51",""
"html-keyboard-response","82","314776","0.0-5.0-1.26","63d81e2fb6c8f0da25fea602","bdp_rd","Sun Mar 26 2023 20:39:22 GMT-0500 (Central Daylight Time)","363393","","null","","","","FIX","","<div class='trialBorder'><div class='vertical-center'><img style='vertical-align:center; align:center' src=img/fixation3.jpg></div></div>","null","","","","","",""
"html-keyboard-response","83","316187","0.0-5.0-2.26","63d81e2fb6c8f0da25fea602","bdp_rd","Sun Mar 26 2023 20:39:22 GMT-0500 (Central Daylight Time)","363393","","1410","","","","offer","","<div class='trialBorder'><div class='vertical-center'><img style='vertical-align:center; align:center' src=img/fixation3.jpg></div><div class='cl'><div class='vertical-center'>$40<br>with a<br>50% chance</div></div><div class='cr'><div class='vertical-center'>$10<br>for<br>sure</div></div><div class='respDivL'><div class='vertical-center'>(E)</div></div><div class='respDivR'><div class='vertical-center'>(I)</div></div></div>","E","$10","$40","1","10","40","RISKY"
"html-keyboard-response","84","316439","0.0-5.0-3.26","63d81e2fb6c8f0da25fea602","bdp_rd","Sun Mar 26 2023 20:39:22 GMT-0500 (Central Daylight Time)","363393","","null","","","","offerFB","","<div class='trialBorder'><div class='vertical-center'><img style='vertical-align:center; align:center' src=img/fixation3.jpg></div><div class='cl'><div class='vertical-center'><font style='color:orange'>$40<br>with a<br>50% chance</font></div></div><div class='cr'><div class='vertical-center'>$10<br>for<br>sure</div></div><div class='respDivL'><div class='vertical-center'><font style='color:orange'>(E)</font></div></div><div class='respDivR'><div class='vertical-center'>(I)</div></div></div>","null","$10","$40","1","10","40",""
"html-keyboard-response","85","316941","0.0-5.0-1.27","63d81e2fb6c8f0da25fea602","bdp_rd","Sun Mar 26 2023 20:39:22 GMT-0500 (Central Daylight Time)","363393","","null","","","","FIX","","<div class='trialBorder'><div class='vertical-center'><img style='vertical-align:center; align:center' src=img/fixation3.jpg></div></div>","null","","","","","",""
"html-keyboard-response","86","319419","0.0-5.0-2.27","63d81e2fb6c8f0da25fea602","bdp_rd","Sun Mar 26 2023 20:39:22 GMT-0500 (Central Daylight Time)","363393","","2477","","","","offer","","<div class='trialBorder'><div class='vertical-center'><img style='vertical-align:center; align:center' src=img/fixation3.jpg></div><div class='cl'><div class='vertical-center'>$11<br>for<br>sure</div></div><div class='cr'><div class='vertical-center'>$26<br>with a<br>50% chance</div></div><div class='respDivL'><div class='vertical-center'>(E)</div></div><div class='respDivR'><div class='vertical-center'>(I)</div></div></div>","E","$11","$26","0","11","26","SURE"
"html-keyboard-response","87","319671","0.0-5.0-3.27","63d81e2fb6c8f0da25fea602","bdp_rd","Sun Mar 26 2023 20:39:22 GMT-0500 (Central Daylight Time)","363393","","null","","","","offerFB","","<div class='trialBorder'><div class='vertical-center'><img style='vertical-align:center; align:center' src=img/fixation3.jpg></div><div class='cl'><div class='vertical-center'><font style='color:orange'>$11<br>for<br>sure</font></div></div><div class='cr'><div class='vertical-center'>$26<br>with a<br>50% chance</div></div><div class='respDivL'><div class='vertical-center'><font style='color:orange'>(E)</font></div></div><div class='respDivR'><div class='vertical-center'>(I)</div></div></div>","null","$11","$26","0","11","26",""
"html-keyboard-response","88","320173","0.0-5.0-1.28","63d81e2fb6c8f0da25fea602","bdp_rd","Sun Mar 26 2023 20:39:22 GMT-0500 (Central Daylight Time)","363393","","null","","","","FIX","","<div class='trialBorder'><div class='vertical-center'><img style='vertical-align:center; align:center' src=img/fixation3.jpg></div></div>","null","","","","","",""
"html-keyboard-response","89","321170","0.0-5.0-2.28","63d81e2fb6c8f0da25fea602","bdp_rd","Sun Mar 26 2023 20:39:22 GMT-0500 (Central Daylight Time)","363393","","995","","","","offer","","<div class='trialBorder'><div class='vertical-center'><img style='vertical-align:center; align:center' src=img/fixation3.jpg></div><div class='cl'><div class='vertical-center'>$17<br>with a<br>50% chance</div></div><div class='cr'><div class='vertical-center'>$3<br>for<br>sure</div></div><div class='respDivL'><div class='vertical-center'>(E)</div></div><div class='respDivR'><div class='vertical-center'>(I)</div></div></div>","E","$3","$17","1","3","17","RISKY"
"html-keyboard-response","90","321422","0.0-5.0-3.28","63d81e2fb6c8f0da25fea602","bdp_rd","Sun Mar 26 2023 20:39:22 GMT-0500 (Central Daylight Time)","363393","","null","","","","offerFB","","<div class='trialBorder'><div class='vertical-center'><img style='vertical-align:center; align:center' src=img/fixation3.jpg></div><div class='cl'><div class='vertical-center'><font style='color:orange'>$17<br>with a<br>50% chance</font></div></div><div class='cr'><div class='vertical-center'>$3<br>for<br>sure</div></div><div class='respDivL'><div class='vertical-center'><font style='color:orange'>(E)</font></div></div><div class='respDivR'><div class='vertical-center'>(I)</div></div></div>","null","$3","$17","1","3","17",""
"html-keyboard-response","91","321924","0.0-5.0-1.29","63d81e2fb6c8f0da25fea602","bdp_rd","Sun Mar 26 2023 20:39:22 GMT-0500 (Central Daylight Time)","363393","","null","","","","FIX","","<div class='trialBorder'><div class='vertical-center'><img style='vertical-align:center; align:center' src=img/fixation3.jpg></div></div>","null","","","","","",""
"html-keyboard-response","92","323060","0.0-5.0-2.29","63d81e2fb6c8f0da25fea602","bdp_rd","Sun Mar 26 2023 20:39:22 GMT-0500 (Central Daylight Time)","363393","","1135","","","","offer","","<div class='trialBorder'><div class='vertical-center'><img style='vertical-align:center; align:center' src=img/fixation3.jpg></div><div class='cl'><div class='vertical-center'>$15<br>for<br>sure</div></div><div class='cr'><div class='vertical-center'>$31<br>with a<br>50% chance</div></div><div class='respDivL'><div class='vertical-center'>(E)</div></div><div class='respDivR'><div class='vertical-center'>(I)</div></div></div>","E","$15","$31","0","15","31","SURE"
"html-keyboard-response","93","323312","0.0-5.0-3.29","63d81e2fb6c8f0da25fea602","bdp_rd","Sun Mar 26 2023 20:39:22 GMT-0500 (Central Daylight Time)","363393","","null","","","","offerFB","","<div class='trialBorder'><div class='vertical-center'><img style='vertical-align:center; align:center' src=img/fixation3.jpg></div><div class='cl'><div class='vertical-center'><font style='color:orange'>$15<br>for<br>sure</font></div></div><div class='cr'><div class='vertical-center'>$31<br>with a<br>50% chance</div></div><div class='respDivL'><div class='vertical-center'><font style='color:orange'>(E)</font></div></div><div class='respDivR'><div class='vertical-center'>(I)</div></div></div>","null","$15","$31","0","15","31",""
"html-keyboard-response","94","323813","0.0-5.0-1.30","63d81e2fb6c8f0da25fea602","bdp_rd","Sun Mar 26 2023 20:39:22 GMT-0500 (Central Daylight Time)","363393","","null","","","","FIX","","<div class='trialBorder'><div class='vertical-center'><img style='vertical-align:center; align:center' src=img/fixation3.jpg></div></div>","null","","","","","",""
"html-keyboard-response","95","324550","0.0-5.0-2.30","63d81e2fb6c8f0da25fea602","bdp_rd","Sun Mar 26 2023 20:39:22 GMT-0500 (Central Daylight Time)","363393","","736","","","","offer","","<div class='trialBorder'><div class='vertical-center'><img style='vertical-align:center; align:center' src=img/fixation3.jpg></div><div class='cl'><div class='vertical-center'>$27<br>for<br>sure</div></div><div class='cr'><div class='vertical-center'>$47<br>with a<br>50% chance</div></div><div class='respDivL'><div class='vertical-center'>(E)</div></div><div class='respDivR'><div class='vertical-center'>(I)</div></div></div>","E","$27","$47","0","27","47","SURE"
"html-keyboard-response","96","324802","0.0-5.0-3.30","63d81e2fb6c8f0da25fea602","bdp_rd","Sun Mar 26 2023 20:39:22 GMT-0500 (Central Daylight Time)","363393","","null","","","","offerFB","","<div class='trialBorder'><div class='vertical-center'><img style='vertical-align:center; align:center' src=img/fixation3.jpg></div><div class='cl'><div class='vertical-center'><font style='color:orange'>$27<br>for<br>sure</font></div></div><div class='cr'><div class='vertical-center'>$47<br>with a<br>50% chance</div></div><div class='respDivL'><div class='vertical-center'><font style='color:orange'>(E)</font></div></div><div class='respDivR'><div class='vertical-center'>(I)</div></div></div>","null","$27","$47","0","27","47",""
"html-keyboard-response","97","325304","0.0-5.0-1.31","63d81e2fb6c8f0da25fea602","bdp_rd","Sun Mar 26 2023 20:39:22 GMT-0500 (Central Daylight Time)","363393","","null","","","","FIX","","<div class='trialBorder'><div class='vertical-center'><img style='vertical-align:center; align:center' src=img/fixation3.jpg></div></div>","null","","","","","",""
"html-keyboard-response","98","325767","0.0-5.0-2.31","63d81e2fb6c8f0da25fea602","bdp_rd","Sun Mar 26 2023 20:39:22 GMT-0500 (Central Daylight Time)","363393","","462","","","","offer","","<div class='trialBorder'><div class='vertical-center'><img style='vertical-align:center; align:center' src=img/fixation3.jpg></div><div class='cl'><div class='vertical-center'>$53<br>for<br>sure</div></div><div class='cr'><div class='vertical-center'>$98<br>with a<br>50% chance</div></div><div class='respDivL'><div class='vertical-center'>(E)</div></div><div class='respDivR'><div class='vertical-center'>(I)</div></div></div>","E","$53","$98","0","53","98","SURE"
"html-keyboard-response","99","326019","0.0-5.0-3.31","63d81e2fb6c8f0da25fea602","bdp_rd","Sun Mar 26 2023 20:39:22 GMT-0500 (Central Daylight Time)","363393","","null","","","","offerFB","","<div class='trialBorder'><div class='vertical-center'><img style='vertical-align:center; align:center' src=img/fixation3.jpg></div><div class='cl'><div class='vertical-center'><font style='color:orange'>$53<br>for<br>sure</font></div></div><div class='cr'><div class='vertical-center'>$98<br>with a<br>50% chance</div></div><div class='respDivL'><div class='vertical-center'><font style='color:orange'>(E)</font></div></div><div class='respDivR'><div class='vertical-center'>(I)</div></div></div>","null","$53","$98","0","53","98",""
"html-keyboard-response","100","326520","0.0-5.0-1.32","63d81e2fb6c8f0da25fea602","bdp_rd","Sun Mar 26 2023 20:39:22 GMT-0500 (Central Daylight Time)","363393","","null","","","","FIX","","<div class='trialBorder'><div class='vertical-center'><img style='vertical-align:center; align:center' src=img/fixation3.jpg></div></div>","null","","","","","",""
"html-keyboard-response","101","326889","0.0-5.0-2.32","63d81e2fb6c8f0da25fea602","bdp_rd","Sun Mar 26 2023 20:39:22 GMT-0500 (Central Daylight Time)","363393","","367","","","","offer","","<div class='trialBorder'><div class='vertical-center'><img style='vertical-align:center; align:center' src=img/fixation3.jpg></div><div class='cl'><div class='vertical-center'>$89<br>with a<br>50% chance</div></div><div class='cr'><div class='vertical-center'>$28<br>for<br>sure</div></div><div class='respDivL'><div class='vertical-center'>(E)</div></div><div class='respDivR'><div class='vertical-center'>(I)</div></div></div>","E","$28","$89","1","28","89","RISKY"
"html-keyboard-response","102","327141","0.0-5.0-3.32","63d81e2fb6c8f0da25fea602","bdp_rd","Sun Mar 26 2023 20:39:22 GMT-0500 (Central Daylight Time)","363393","","null","","","","offerFB","","<div class='trialBorder'><div class='vertical-center'><img style='vertical-align:center; align:center' src=img/fixation3.jpg></div><div class='cl'><div class='vertical-center'><font style='color:orange'>$89<br>with a<br>50% chance</font></div></div><div class='cr'><div class='vertical-center'>$28<br>for<br>sure</div></div><div class='respDivL'><div class='vertical-center'><font style='color:orange'>(E)</font></div></div><div class='respDivR'><div class='vertical-center'>(I)</div></div></div>","null","$28","$89","1","28","89",""
"html-keyboard-response","103","327642","0.0-5.0-1.33","63d81e2fb6c8f0da25fea602","bdp_rd","Sun Mar 26 2023 20:39:22 GMT-0500 (Central Daylight Time)","363393","","null","","","","FIX","","<div class='trialBorder'><div class='vertical-center'><img style='vertical-align:center; align:center' src=img/fixation3.jpg></div></div>","null","","","","","",""
"html-keyboard-response","104","327955","0.0-5.0-2.33","63d81e2fb6c8f0da25fea602","bdp_rd","Sun Mar 26 2023 20:39:22 GMT-0500 (Central Daylight Time)","363393","","311","","","","offer","","<div class='trialBorder'><div class='vertical-center'><img style='vertical-align:center; align:center' src=img/fixation3.jpg></div><div class='cl'><div class='vertical-center'>$45<br>for<br>sure</div></div><div class='cr'><div class='vertical-center'>$86<br>with a<br>50% chance</div></div><div class='respDivL'><div class='vertical-center'>(E)</div></div><div class='respDivR'><div class='vertical-center'>(I)</div></div></div>","E","$45","$86","0","45","86","SURE"
"html-keyboard-response","105","328206","0.0-5.0-3.33","63d81e2fb6c8f0da25fea602","bdp_rd","Sun Mar 26 2023 20:39:22 GMT-0500 (Central Daylight Time)","363393","","null","","","","offerFB","","<div class='trialBorder'><div class='vertical-center'><img style='vertical-align:center; align:center' src=img/fixation3.jpg></div><div class='cl'><div class='vertical-center'><font style='color:orange'>$45<br>for<br>sure</font></div></div><div class='cr'><div class='vertical-center'>$86<br>with a<br>50% chance</div></div><div class='respDivL'><div class='vertical-center'><font style='color:orange'>(E)</font></div></div><div class='respDivR'><div class='vertical-center'>(I)</div></div></div>","null","$45","$86","0","45","86",""
"html-keyboard-response","106","328708","0.0-5.0-1.34","63d81e2fb6c8f0da25fea602","bdp_rd","Sun Mar 26 2023 20:39:22 GMT-0500 (Central Daylight Time)","363393","","null","","","","FIX","","<div class='trialBorder'><div class='vertical-center'><img style='vertical-align:center; align:center' src=img/fixation3.jpg></div></div>","null","","","","","",""
"html-keyboard-response","107","329212","0.0-5.0-2.34","63d81e2fb6c8f0da25fea602","bdp_rd","Sun Mar 26 2023 20:39:22 GMT-0500 (Central Daylight Time)","363393","","504","","","","offer","","<div class='trialBorder'><div class='vertical-center'><img style='vertical-align:center; align:center' src=img/fixation3.jpg></div><div class='cl'><div class='vertical-center'>$25<br>with a<br>50% chance</div></div><div class='cr'><div class='vertical-center'>$21<br>for<br>sure</div></div><div class='respDivL'><div class='vertical-center'>(E)</div></div><div class='respDivR'><div class='vertical-center'>(I)</div></div></div>","E","$21","$25","1","21","25","RISKY"
"html-keyboard-response","108","329464","0.0-5.0-3.34","63d81e2fb6c8f0da25fea602","bdp_rd","Sun Mar 26 2023 20:39:22 GMT-0500 (Central Daylight Time)","363393","","null","","","","offerFB","","<div class='trialBorder'><div class='vertical-center'><img style='vertical-align:center; align:center' src=img/fixation3.jpg></div><div class='cl'><div class='vertical-center'><font style='color:orange'>$25<br>with a<br>50% chance</font></div></div><div class='cr'><div class='vertical-center'>$21<br>for<br>sure</div></div><div class='respDivL'><div class='vertical-center'><font style='color:orange'>(E)</font></div></div><div class='respDivR'><div class='vertical-center'>(I)</div></div></div>","null","$21","$25","1","21","25",""
"html-keyboard-response","109","329966","0.0-5.0-1.35","63d81e2fb6c8f0da25fea602","bdp_rd","Sun Mar 26 2023 20:39:22 GMT-0500 (Central Daylight Time)","363393","","null","","","","FIX","","<div class='trialBorder'><div class='vertical-center'><img style='vertical-align:center; align:center' src=img/fixation3.jpg></div></div>","null","","","","","",""
"html-keyboard-response","110","330438","0.0-5.0-2.35","63d81e2fb6c8f0da25fea602","bdp_rd","Sun Mar 26 2023 20:39:22 GMT-0500 (Central Daylight Time)","363393","","471","","","","offer","","<div class='trialBorder'><div class='vertical-center'><img style='vertical-align:center; align:center' src=img/fixation3.jpg></div><div class='cl'><div class='vertical-center'>$1<br>for<br>sure</div></div><div class='cr'><div class='vertical-center'>$33<br>with a<br>50% chance</div></div><div class='respDivL'><div class='vertical-center'>(E)</div></div><div class='respDivR'><div class='vertical-center'>(I)</div></div></div>","I","$1","$33","0","1","33","RISKY"
"html-keyboard-response","111","330690","0.0-5.0-3.35","63d81e2fb6c8f0da25fea602","bdp_rd","Sun Mar 26 2023 20:39:22 GMT-0500 (Central Daylight Time)","363393","","null","","","","offerFB","","<div class='trialBorder'><div class='vertical-center'><img style='vertical-align:center; align:center' src=img/fixation3.jpg></div><div class='cl'><div class='vertical-center'>$1<br>for<br>sure</div></div><div class='cr'><div class='vertical-center'><font style='color:orange'>$33<br>with a<br>50% chance</font></div></div><div class='respDivL'><div class='vertical-center'>(E)</div></div><div class='respDivR'><div class='vertical-center'><font style='color:orange'>(I)</font></div></div></div>","null","$1","$33","0","1","33",""
"html-keyboard-response","112","331192","0.0-5.0-1.36","63d81e2fb6c8f0da25fea602","bdp_rd","Sun Mar 26 2023 20:39:22 GMT-0500 (Central Daylight Time)","363393","","null","","","","FIX","","<div class='trialBorder'><div class='vertical-center'><img style='vertical-align:center; align:center' src=img/fixation3.jpg></div></div>","null","","","","","",""
"html-keyboard-response","113","331483","0.0-5.0-2.36","63d81e2fb6c8f0da25fea602","bdp_rd","Sun Mar 26 2023 20:39:22 GMT-0500 (Central Daylight Time)","363393","","290","","","","offer","","<div class='trialBorder'><div class='vertical-center'><img style='vertical-align:center; align:center' src=img/fixation3.jpg></div><div class='cl'><div class='vertical-center'>$39<br>with a<br>50% chance</div></div><div class='cr'><div class='vertical-center'>$18<br>for<br>sure</div></div><div class='respDivL'><div class='vertical-center'>(E)</div></div><div class='respDivR'><div class='vertical-center'>(I)</div></div></div>","I","$18","$39","1","18","39","SURE"
"html-keyboard-response","114","331735","0.0-5.0-3.36","63d81e2fb6c8f0da25fea602","bdp_rd","Sun Mar 26 2023 20:39:22 GMT-0500 (Central Daylight Time)","363393","","null","","","","offerFB","","<div class='trialBorder'><div class='vertical-center'><img style='vertical-align:center; align:center' src=img/fixation3.jpg></div><div class='cl'><div class='vertical-center'>$39<br>with a<br>50% chance</div></div><div class='cr'><div class='vertical-center'><font style='color:orange'>$18<br>for<br>sure</font></div></div><div class='respDivL'><div class='vertical-center'>(E)</div></div><div class='respDivR'><div class='vertical-center'><font style='color:orange'>(I)</font></div></div></div>","null","$18","$39","1","18","39",""
"html-keyboard-response","115","332236","0.0-5.0-1.37","63d81e2fb6c8f0da25fea602","bdp_rd","Sun Mar 26 2023 20:39:22 GMT-0500 (Central Daylight Time)","363393","","null","","","","FIX","","<div class='trialBorder'><div class='vertical-center'><img style='vertical-align:center; align:center' src=img/fixation3.jpg></div></div>","null","","","","","",""
"html-keyboard-response","116","333016","0.0-5.0-2.37","63d81e2fb6c8f0da25fea602","bdp_rd","Sun Mar 26 2023 20:39:22 GMT-0500 (Central Daylight Time)","363393","","780","","","","offer","","<div class='trialBorder'><div class='vertical-center'><img style='vertical-align:center; align:center' src=img/fixation3.jpg></div><div class='cl'><div class='vertical-center'>$12<br>for<br>sure</div></div><div class='cr'><div class='vertical-center'>$27<br>with a<br>50% chance</div></div><div class='respDivL'><div class='vertical-center'>(E)</div></div><div class='respDivR'><div class='vertical-center'>(I)</div></div></div>","I","$12","$27","0","12","27","RISKY"
"html-keyboard-response","117","333268","0.0-5.0-3.37","63d81e2fb6c8f0da25fea602","bdp_rd","Sun Mar 26 2023 20:39:22 GMT-0500 (Central Daylight Time)","363393","","null","","","","offerFB","","<div class='trialBorder'><div class='vertical-center'><img style='vertical-align:center; align:center' src=img/fixation3.jpg></div><div class='cl'><div class='vertical-center'>$12<br>for<br>sure</div></div><div class='cr'><div class='vertical-center'><font style='color:orange'>$27<br>with a<br>50% chance</font></div></div><div class='respDivL'><div class='vertical-center'>(E)</div></div><div class='respDivR'><div class='vertical-center'><font style='color:orange'>(I)</font></div></div></div>","null","$12","$27","0","12","27",""
"html-keyboard-response","118","333769","0.0-5.0-1.38","63d81e2fb6c8f0da25fea602","bdp_rd","Sun Mar 26 2023 20:39:22 GMT-0500 (Central Daylight Time)","363393","","null","","","","FIX","","<div class='trialBorder'><div class='vertical-center'><img style='vertical-align:center; align:center' src=img/fixation3.jpg></div></div>","null","","","","","",""
"html-keyboard-response","119","334858","0.0-5.0-2.38","63d81e2fb6c8f0da25fea602","bdp_rd","Sun Mar 26 2023 20:39:22 GMT-0500 (Central Daylight Time)","363393","","1088","","","","offer","","<div class='trialBorder'><div class='vertical-center'><img style='vertical-align:center; align:center' src=img/fixation3.jpg></div><div class='cl'><div class='vertical-center'>$4<br>for<br>sure</div></div><div class='cr'><div class='vertical-center'>$14<br>with a<br>50% chance</div></div><div class='respDivL'><div class='vertical-center'>(E)</div></div><div class='respDivR'><div class='vertical-center'>(I)</div></div></div>","I","$4","$14","0","4","14","RISKY"
"html-keyboard-response","120","335110","0.0-5.0-3.38","63d81e2fb6c8f0da25fea602","bdp_rd","Sun Mar 26 2023 20:39:22 GMT-0500 (Central Daylight Time)","363393","","null","","","","offerFB","","<div class='trialBorder'><div class='vertical-center'><img style='vertical-align:center; align:center' src=img/fixation3.jpg></div><div class='cl'><div class='vertical-center'>$4<br>for<br>sure</div></div><div class='cr'><div class='vertical-center'><font style='color:orange'>$14<br>with a<br>50% chance</font></div></div><div class='respDivL'><div class='vertical-center'>(E)</div></div><div class='respDivR'><div class='vertical-center'><font style='color:orange'>(I)</font></div></div></div>","null","$4","$14","0","4","14",""
"html-keyboard-response","121","335611","0.0-5.0-1.39","63d81e2fb6c8f0da25fea602","bdp_rd","Sun Mar 26 2023 20:39:22 GMT-0500 (Central Daylight Time)","363393","","null","","","","FIX","","<div class='trialBorder'><div class='vertical-center'><img style='vertical-align:center; align:center' src=img/fixation3.jpg></div></div>","null","","","","","",""
"html-keyboard-response","122","336214","0.0-5.0-2.39","63d81e2fb6c8f0da25fea602","bdp_rd","Sun Mar 26 2023 20:39:22 GMT-0500 (Central Daylight Time)","363393","","602","","","","offer","","<div class='trialBorder'><div class='vertical-center'><img style='vertical-align:center; align:center' src=img/fixation3.jpg></div><div class='cl'><div class='vertical-center'>$40<br>for<br>sure</div></div><div class='cr'><div class='vertical-center'>$95<br>with a<br>50% chance</div></div><div class='respDivL'><div class='vertical-center'>(E)</div></div><div class='respDivR'><div class='vertical-center'>(I)</div></div></div>","E","$40","$95","0","40","95","SURE"
"html-keyboard-response","123","336466","0.0-5.0-3.39","63d81e2fb6c8f0da25fea602","bdp_rd","Sun Mar 26 2023 20:39:22 GMT-0500 (Central Daylight Time)","363393","","null","","","","offerFB","","<div class='trialBorder'><div class='vertical-center'><img style='vertical-align:center; align:center' src=img/fixation3.jpg></div><div class='cl'><div class='vertical-center'><font style='color:orange'>$40<br>for<br>sure</font></div></div><div class='cr'><div class='vertical-center'>$95<br>with a<br>50% chance</div></div><div class='respDivL'><div class='vertical-center'><font style='color:orange'>(E)</font></div></div><div class='respDivR'><div class='vertical-center'>(I)</div></div></div>","null","$40","$95","0","40","95",""
"html-keyboard-response","124","336967","0.0-5.0-1.40","63d81e2fb6c8f0da25fea602","bdp_rd","Sun Mar 26 2023 20:39:22 GMT-0500 (Central Daylight Time)","363393","","null","","","","FIX","","<div class='trialBorder'><div class='vertical-center'><img style='vertical-align:center; align:center' src=img/fixation3.jpg></div></div>","null","","","","","",""
"html-keyboard-response","125","337250","0.0-5.0-2.40","63d81e2fb6c8f0da25fea602","bdp_rd","Sun Mar 26 2023 20:39:22 GMT-0500 (Central Daylight Time)","363393","","281","","","","offer","","<div class='trialBorder'><div class='vertical-center'><img style='vertical-align:center; align:center' src=img/fixation3.jpg></div><div class='cl'><div class='vertical-center'>$34<br>for<br>sure</div></div><div class='cr'><div class='vertical-center'>$48<br>with a<br>50% chance</div></div><div class='respDivL'><div class='vertical-center'>(E)</div></div><div class='respDivR'><div class='vertical-center'>(I)</div></div></div>","E","$34","$48","0","34","48","SURE"
"html-keyboard-response","126","337502","0.0-5.0-3.40","63d81e2fb6c8f0da25fea602","bdp_rd","Sun Mar 26 2023 20:39:22 GMT-0500 (Central Daylight Time)","363393","","null","","","","offerFB","","<div class='trialBorder'><div class='vertical-center'><img style='vertical-align:center; align:center' src=img/fixation3.jpg></div><div class='cl'><div class='vertical-center'><font style='color:orange'>$34<br>for<br>sure</font></div></div><div class='cr'><div class='vertical-center'>$48<br>with a<br>50% chance</div></div><div class='respDivL'><div class='vertical-center'><font style='color:orange'>(E)</font></div></div><div class='respDivR'><div class='vertical-center'>(I)</div></div></div>","null","$34","$48","0","34","48",""
"html-keyboard-response","127","338003","0.0-5.0-1.41","63d81e2fb6c8f0da25fea602","bdp_rd","Sun Mar 26 2023 20:39:22 GMT-0500 (Central Daylight Time)","363393","","null","","","","FIX","","<div class='trialBorder'><div class='vertical-center'><img style='vertical-align:center; align:center' src=img/fixation3.jpg></div></div>","null","","","","","",""
"html-keyboard-response","128","338246","0.0-5.0-2.41","63d81e2fb6c8f0da25fea602","bdp_rd","Sun Mar 26 2023 20:39:22 GMT-0500 (Central Daylight Time)","363393","","241","","","","offer","","<div class='trialBorder'><div class='vertical-center'><img style='vertical-align:center; align:center' src=img/fixation3.jpg></div><div class='cl'><div class='vertical-center'>$34<br>with a<br>50% chance</div></div><div class='cr'><div class='vertical-center'>$15<br>for<br>sure</div></div><div class='respDivL'><div class='vertical-center'>(E)</div></div><div class='respDivR'><div class='vertical-center'>(I)</div></div></div>","E","$15","$34","1","15","34","RISKY"
"html-keyboard-response","129","338498","0.0-5.0-3.41","63d81e2fb6c8f0da25fea602","bdp_rd","Sun Mar 26 2023 20:39:22 GMT-0500 (Central Daylight Time)","363393","","null","","","","offerFB","","<div class='trialBorder'><div class='vertical-center'><img style='vertical-align:center; align:center' src=img/fixation3.jpg></div><div class='cl'><div class='vertical-center'><font style='color:orange'>$34<br>with a<br>50% chance</font></div></div><div class='cr'><div class='vertical-center'>$15<br>for<br>sure</div></div><div class='respDivL'><div class='vertical-center'><font style='color:orange'>(E)</font></div></div><div class='respDivR'><div class='vertical-center'>(I)</div></div></div>","null","$15","$34","1","15","34",""
"html-keyboard-response","130","338999","0.0-5.0-1.42","63d81e2fb6c8f0da25fea602","bdp_rd","Sun Mar 26 2023 20:39:22 GMT-0500 (Central Daylight Time)","363393","","null","","","","FIX","","<div class='trialBorder'><div class='vertical-center'><img style='vertical-align:center; align:center' src=img/fixation3.jpg></div></div>","null","","","","","",""
"html-keyboard-response","131","339070","0.0-5.0-2.42","63d81e2fb6c8f0da25fea602","bdp_rd","Sun Mar 26 2023 20:39:22 GMT-0500 (Central Daylight Time)","363393","","69","","","","offer","","<div class='trialBorder'><div class='vertical-center'><img style='vertical-align:center; align:center' src=img/fixation3.jpg></div><div class='cl'><div class='vertical-center'>$10<br>for<br>sure</div></div><div class='cr'><div class='vertical-center'>$19<br>with a<br>50% chance</div></div><div class='respDivL'><div class='vertical-center'>(E)</div></div><div class='respDivR'><div class='vertical-center'>(I)</div></div></div>","I","$10","$19","0","10","19","RISKY"
"html-keyboard-response","132","339321","0.0-5.0-3.42","63d81e2fb6c8f0da25fea602","bdp_rd","Sun Mar 26 2023 20:39:22 GMT-0500 (Central Daylight Time)","363393","","null","","","","offerFB","","<div class='trialBorder'><div class='vertical-center'><img style='vertical-align:center; align:center' src=img/fixation3.jpg></div><div class='cl'><div class='vertical-center'>$10<br>for<br>sure</div></div><div class='cr'><div class='vertical-center'><font style='color:orange'>$19<br>with a<br>50% chance</font></div></div><div class='respDivL'><div class='vertical-center'>(E)</div></div><div class='respDivR'><div class='vertical-center'><font style='color:orange'>(I)</font></div></div></div>","null","$10","$19","0","10","19",""
"html-keyboard-response","133","339823","0.0-5.0-1.43","63d81e2fb6c8f0da25fea602","bdp_rd","Sun Mar 26 2023 20:39:22 GMT-0500 (Central Daylight Time)","363393","","null","","","","FIX","","<div class='trialBorder'><div class='vertical-center'><img style='vertical-align:center; align:center' src=img/fixation3.jpg></div></div>","null","","","","","",""
"html-keyboard-response","134","340009","0.0-5.0-2.43","63d81e2fb6c8f0da25fea602","bdp_rd","Sun Mar 26 2023 20:39:22 GMT-0500 (Central Daylight Time)","363393","","184","","","","offer","","<div class='trialBorder'><div class='vertical-center'><img style='vertical-align:center; align:center' src=img/fixation3.jpg></div><div class='cl'><div class='vertical-center'>$58<br>for<br>sure</div></div><div class='cr'><div class='vertical-center'>$69<br>with a<br>50% chance</div></div><div class='respDivL'><div class='vertical-center'>(E)</div></div><div class='respDivR'><div class='vertical-center'>(I)</div></div></div>","I","$58","$69","0","58","69","RISKY"
"html-keyboard-response","135","340260","0.0-5.0-3.43","63d81e2fb6c8f0da25fea602","bdp_rd","Sun Mar 26 2023 20:39:22 GMT-0500 (Central Daylight Time)","363393","","null","","","","offerFB","","<div class='trialBorder'><div class='vertical-center'><img style='vertical-align:center; align:center' src=img/fixation3.jpg></div><div class='cl'><div class='vertical-center'>$58<br>for<br>sure</div></div><div class='cr'><div class='vertical-center'><font style='color:orange'>$69<br>with a<br>50% chance</font></div></div><div class='respDivL'><div class='vertical-center'>(E)</div></div><div class='respDivR'><div class='vertical-center'><font style='color:orange'>(I)</font></div></div></div>","null","$58","$69","0","58","69",""
"html-keyboard-response","136","340762","0.0-5.0-1.44","63d81e2fb6c8f0da25fea602","bdp_rd","Sun Mar 26 2023 20:39:22 GMT-0500 (Central Daylight Time)","363393","","null","","","","FIX","","<div class='trialBorder'><div class='vertical-center'><img style='vertical-align:center; align:center' src=img/fixation3.jpg></div></div>","null","","","","","",""
"html-keyboard-response","137","340989","0.0-5.0-2.44","63d81e2fb6c8f0da25fea602","bdp_rd","Sun Mar 26 2023 20:39:22 GMT-0500 (Central Daylight Time)","363393","","226","","","","offer","","<div class='trialBorder'><div class='vertical-center'><img style='vertical-align:center; align:center' src=img/fixation3.jpg></div><div class='cl'><div class='vertical-center'>$68<br>with a<br>50% chance</div></div><div class='cr'><div class='vertical-center'>$30<br>for<br>sure</div></div><div class='respDivL'><div class='vertical-center'>(E)</div></div><div class='respDivR'><div class='vertical-center'>(I)</div></div></div>","E","$30","$68","1","30","68","RISKY"
"html-keyboard-response","138","341241","0.0-5.0-3.44","63d81e2fb6c8f0da25fea602","bdp_rd","Sun Mar 26 2023 20:39:22 GMT-0500 (Central Daylight Time)","363393","","null","","","","offerFB","","<div class='trialBorder'><div class='vertical-center'><img style='vertical-align:center; align:center' src=img/fixation3.jpg></div><div class='cl'><div class='vertical-center'><font style='color:orange'>$68<br>with a<br>50% chance</font></div></div><div class='cr'><div class='vertical-center'>$30<br>for<br>sure</div></div><div class='respDivL'><div class='vertical-center'><font style='color:orange'>(E)</font></div></div><div class='respDivR'><div class='vertical-center'>(I)</div></div></div>","null","$30","$68","1","30","68",""
"html-keyboard-response","139","341743","0.0-5.0-1.45","63d81e2fb6c8f0da25fea602","bdp_rd","Sun Mar 26 2023 20:39:22 GMT-0500 (Central Daylight Time)","363393","","null","","","","FIX","","<div class='trialBorder'><div class='vertical-center'><img style='vertical-align:center; align:center' src=img/fixation3.jpg></div></div>","null","","","","","",""
"html-keyboard-response","140","341952","0.0-5.0-2.45","63d81e2fb6c8f0da25fea602","bdp_rd","Sun Mar 26 2023 20:39:22 GMT-0500 (Central Daylight Time)","363393","","208","","","","offer","","<div class='trialBorder'><div class='vertical-center'><img style='vertical-align:center; align:center' src=img/fixation3.jpg></div><div class='cl'><div class='vertical-center'>$92<br>with a<br>50% chance</div></div><div class='cr'><div class='vertical-center'>$26<br>for<br>sure</div></div><div class='respDivL'><div class='vertical-center'>(E)</div></div><div class='respDivR'><div class='vertical-center'>(I)</div></div></div>","E","$26","$92","1","26","92","RISKY"
"html-keyboard-response","141","342204","0.0-5.0-3.45","63d81e2fb6c8f0da25fea602","bdp_rd","Sun Mar 26 2023 20:39:22 GMT-0500 (Central Daylight Time)","363393","","null","","","","offerFB","","<div class='trialBorder'><div class='vertical-center'><img style='vertical-align:center; align:center' src=img/fixation3.jpg></div><div class='cl'><div class='vertical-center'><font style='color:orange'>$92<br>with a<br>50% chance</font></div></div><div class='cr'><div class='vertical-center'>$26<br>for<br>sure</div></div><div class='respDivL'><div class='vertical-center'><font style='color:orange'>(E)</font></div></div><div class='respDivR'><div class='vertical-center'>(I)</div></div></div>","null","$26","$92","1","26","92",""
"html-keyboard-response","142","342706","0.0-5.0-1.46","63d81e2fb6c8f0da25fea602","bdp_rd","Sun Mar 26 2023 20:39:22 GMT-0500 (Central Daylight Time)","363393","","null","","","","FIX","","<div class='trialBorder'><div class='vertical-center'><img style='vertical-align:center; align:center' src=img/fixation3.jpg></div></div>","null","","","","","",""
"html-keyboard-response","143","343087","0.0-5.0-2.46","63d81e2fb6c8f0da25fea602","bdp_rd","Sun Mar 26 2023 20:39:22 GMT-0500 (Central Daylight Time)","363393","","380","","","","offer","","<div class='trialBorder'><div class='vertical-center'><img style='vertical-align:center; align:center' src=img/fixation3.jpg></div><div class='cl'><div class='vertical-center'>$24<br>with a<br>50% chance</div></div><div class='cr'><div class='vertical-center'>$13<br>for<br>sure</div></div><div class='respDivL'><div class='vertical-center'>(E)</div></div><div class='respDivR'><div class='vertical-center'>(I)</div></div></div>","E","$13","$24","1","13","24","RISKY"
"html-keyboard-response","144","343339","0.0-5.0-3.46","63d81e2fb6c8f0da25fea602","bdp_rd","Sun Mar 26 2023 20:39:22 GMT-0500 (Central Daylight Time)","363393","","null","","","","offerFB","","<div class='trialBorder'><div class='vertical-center'><img style='vertical-align:center; align:center' src=img/fixation3.jpg></div><div class='cl'><div class='vertical-center'><font style='color:orange'>$24<br>with a<br>50% chance</font></div></div><div class='cr'><div class='vertical-center'>$13<br>for<br>sure</div></div><div class='respDivL'><div class='vertical-center'><font style='color:orange'>(E)</font></div></div><div class='respDivR'><div class='vertical-center'>(I)</div></div></div>","null","$13","$24","1","13","24",""
"html-keyboard-response","145","343841","0.0-5.0-1.47","63d81e2fb6c8f0da25fea602","bdp_rd","Sun Mar 26 2023 20:39:22 GMT-0500 (Central Daylight Time)","363393","","null","","","","FIX","","<div class='trialBorder'><div class='vertical-center'><img style='vertical-align:center; align:center' src=img/fixation3.jpg></div></div>","null","","","","","",""
"html-keyboard-response","146","344171","0.0-5.0-2.47","63d81e2fb6c8f0da25fea602","bdp_rd","Sun Mar 26 2023 20:39:22 GMT-0500 (Central Daylight Time)","363393","","329","","","","offer","","<div class='trialBorder'><div class='vertical-center'><img style='vertical-align:center; align:center' src=img/fixation3.jpg></div><div class='cl'><div class='vertical-center'>$50<br>with a<br>50% chance</div></div><div class='cr'><div class='vertical-center'>$5<br>for<br>sure</div></div><div class='respDivL'><div class='vertical-center'>(E)</div></div><div class='respDivR'><div class='vertical-center'>(I)</div></div></div>","I","$5","$50","1","5","50","SURE"
"html-keyboard-response","147","344423","0.0-5.0-3.47","63d81e2fb6c8f0da25fea602","bdp_rd","Sun Mar 26 2023 20:39:22 GMT-0500 (Central Daylight Time)","363393","","null","","","","offerFB","","<div class='trialBorder'><div class='vertical-center'><img style='vertical-align:center; align:center' src=img/fixation3.jpg></div><div class='cl'><div class='vertical-center'>$50<br>with a<br>50% chance</div></div><div class='cr'><div class='vertical-center'><font style='color:orange'>$5<br>for<br>sure</font></div></div><div class='respDivL'><div class='vertical-center'>(E)</div></div><div class='respDivR'><div class='vertical-center'><font style='color:orange'>(I)</font></div></div></div>","null","$5","$50","1","5","50",""
"html-keyboard-response","148","344925","0.0-5.0-1.48","63d81e2fb6c8f0da25fea602","bdp_rd","Sun Mar 26 2023 20:39:22 GMT-0500 (Central Daylight Time)","363393","","null","","","","FIX","","<div class='trialBorder'><div class='vertical-center'><img style='vertical-align:center; align:center' src=img/fixation3.jpg></div></div>","null","","","","","",""
"html-keyboard-response","149","345223","0.0-5.0-2.48","63d81e2fb6c8f0da25fea602","bdp_rd","Sun Mar 26 2023 20:39:22 GMT-0500 (Central Daylight Time)","363393","","296","","","","offer","","<div class='trialBorder'><div class='vertical-center'><img style='vertical-align:center; align:center' src=img/fixation3.jpg></div><div class='cl'><div class='vertical-center'>$36<br>with a<br>50% chance</div></div><div class='cr'><div class='vertical-center'>$18<br>for<br>sure</div></div><div class='respDivL'><div class='vertical-center'>(E)</div></div><div class='respDivR'><div class='vertical-center'>(I)</div></div></div>","E","$18","$36","1","18","36","RISKY"
"html-keyboard-response","150","345475","0.0-5.0-3.48","63d81e2fb6c8f0da25fea602","bdp_rd","Sun Mar 26 2023 20:39:22 GMT-0500 (Central Daylight Time)","363393","","null","","","","offerFB","","<div class='trialBorder'><div class='vertical-center'><img style='vertical-align:center; align:center' src=img/fixation3.jpg></div><div class='cl'><div class='vertical-center'><font style='color:orange'>$36<br>with a<br>50% chance</font></div></div><div class='cr'><div class='vertical-center'>$18<br>for<br>sure</div></div><div class='respDivL'><div class='vertical-center'><font style='color:orange'>(E)</font></div></div><div class='respDivR'><div class='vertical-center'>(I)</div></div></div>","null","$18","$36","1","18","36",""
"html-keyboard-response","151","345976","0.0-5.0-1.49","63d81e2fb6c8f0da25fea602","bdp_rd","Sun Mar 26 2023 20:39:22 GMT-0500 (Central Daylight Time)","363393","","null","","","","FIX","","<div class='trialBorder'><div class='vertical-center'><img style='vertical-align:center; align:center' src=img/fixation3.jpg></div></div>","null","","","","","",""
"html-keyboard-response","152","346175","0.0-5.0-2.49","63d81e2fb6c8f0da25fea602","bdp_rd","Sun Mar 26 2023 20:39:22 GMT-0500 (Central Daylight Time)","363393","","198","","","","offer","","<div class='trialBorder'><div class='vertical-center'><img style='vertical-align:center; align:center' src=img/fixation3.jpg></div><div class='cl'><div class='vertical-center'>$81<br>with a<br>50% chance</div></div><div class='cr'><div class='vertical-center'>$39<br>for<br>sure</div></div><div class='respDivL'><div class='vertical-center'>(E)</div></div><div class='respDivR'><div class='vertical-center'>(I)</div></div></div>","I","$39","$81","1","39","81","SURE"
"html-keyboard-response","153","346427","0.0-5.0-3.49","63d81e2fb6c8f0da25fea602","bdp_rd","Sun Mar 26 2023 20:39:22 GMT-0500 (Central Daylight Time)","363393","","null","","","","offerFB","","<div class='trialBorder'><div class='vertical-center'><img style='vertical-align:center; align:center' src=img/fixation3.jpg></div><div class='cl'><div class='vertical-center'>$81<br>with a<br>50% chance</div></div><div class='cr'><div class='vertical-center'><font style='color:orange'>$39<br>for<br>sure</font></div></div><div class='respDivL'><div class='vertical-center'>(E)</div></div><div class='respDivR'><div class='vertical-center'><font style='color:orange'>(I)</font></div></div></div>","null","$39","$81","1","39","81",""
"html-keyboard-response","154","346929","0.0-5.0-1.50","63d81e2fb6c8f0da25fea602","bdp_rd","Sun Mar 26 2023 20:39:22 GMT-0500 (Central Daylight Time)","363393","","null","","","","FIX","","<div class='trialBorder'><div class='vertical-center'><img style='vertical-align:center; align:center' src=img/fixation3.jpg></div></div>","null","","","","","",""
"html-keyboard-response","155","346987","0.0-5.0-2.50","63d81e2fb6c8f0da25fea602","bdp_rd","Sun Mar 26 2023 20:39:22 GMT-0500 (Central Daylight Time)","363393","","57","","","","offer","","<div class='trialBorder'><div class='vertical-center'><img style='vertical-align:center; align:center' src=img/fixation3.jpg></div><div class='cl'><div class='vertical-center'>$22<br>with a<br>50% chance</div></div><div class='cr'><div class='vertical-center'>$14<br>for<br>sure</div></div><div class='respDivL'><div class='vertical-center'>(E)</div></div><div class='respDivR'><div class='vertical-center'>(I)</div></div></div>","E","$14","$22","1","14","22","RISKY"
"html-keyboard-response","156","347239","0.0-5.0-3.50","63d81e2fb6c8f0da25fea602","bdp_rd","Sun Mar 26 2023 20:39:22 GMT-0500 (Central Daylight Time)","363393","","null","","","","offerFB","","<div class='trialBorder'><div class='vertical-center'><img style='vertical-align:center; align:center' src=img/fixation3.jpg></div><div class='cl'><div class='vertical-center'><font style='color:orange'>$22<br>with a<br>50% chance</font></div></div><div class='cr'><div class='vertical-center'>$14<br>for<br>sure</div></div><div class='respDivL'><div class='vertical-center'><font style='color:orange'>(E)</font></div></div><div class='respDivR'><div class='vertical-center'>(I)</div></div></div>","null","$14","$22","1","14","22",""
"html-keyboard-response","157","347741","0.0-5.0-1.51","63d81e2fb6c8f0da25fea602","bdp_rd","Sun Mar 26 2023 20:39:22 GMT-0500 (Central Daylight Time)","363393","","null","","","","FIX","","<div class='trialBorder'><div class='vertical-center'><img style='vertical-align:center; align:center' src=img/fixation3.jpg></div></div>","null","","","","","",""
"html-keyboard-response","158","348394","0.0-5.0-2.51","63d81e2fb6c8f0da25fea602","bdp_rd","Sun Mar 26 2023 20:39:22 GMT-0500 (Central Daylight Time)","363393","","652","","","","offer","","<div class='trialBorder'><div class='vertical-center'><img style='vertical-align:center; align:center' src=img/fixation3.jpg></div><div class='cl'><div class='vertical-center'>$65<br>with a<br>50% chance</div></div><div class='cr'><div class='vertical-center'>$46<br>for<br>sure</div></div><div class='respDivL'><div class='vertical-center'>(E)</div></div><div class='respDivR'><div class='vertical-center'>(I)</div></div></div>","E","$46","$65","1","46","65","RISKY"
"html-keyboard-response","159","348645","0.0-5.0-3.51","63d81e2fb6c8f0da25fea602","bdp_rd","Sun Mar 26 2023 20:39:22 GMT-0500 (Central Daylight Time)","363393","","null","","","","offerFB","","<div class='trialBorder'><div class='vertical-center'><img style='vertical-align:center; align:center' src=img/fixation3.jpg></div><div class='cl'><div class='vertical-center'><font style='color:orange'>$65<br>with a<br>50% chance</font></div></div><div class='cr'><div class='vertical-center'>$46<br>for<br>sure</div></div><div class='respDivL'><div class='vertical-center'><font style='color:orange'>(E)</font></div></div><div class='respDivR'><div class='vertical-center'>(I)</div></div></div>","null","$46","$65","1","46","65",""
"html-keyboard-response","160","349147","0.0-5.0-1.52","63d81e2fb6c8f0da25fea602","bdp_rd","Sun Mar 26 2023 20:39:22 GMT-0500 (Central Daylight Time)","363393","","null","","","","FIX","","<div class='trialBorder'><div class='vertical-center'><img style='vertical-align:center; align:center' src=img/fixation3.jpg></div></div>","null","","","","","",""
"html-keyboard-response","161","349869","0.0-5.0-2.52","63d81e2fb6c8f0da25fea602","bdp_rd","Sun Mar 26 2023 20:39:22 GMT-0500 (Central Daylight Time)","363393","","720","","","","offer","","<div class='trialBorder'><div class='vertical-center'><img style='vertical-align:center; align:center' src=img/fixation3.jpg></div><div class='cl'><div class='vertical-center'>$44<br>with a<br>50% chance</div></div><div class='cr'><div class='vertical-center'>$37<br>for<br>sure</div></div><div class='respDivL'><div class='vertical-center'>(E)</div></div><div class='respDivR'><div class='vertical-center'>(I)</div></div></div>","I","$37","$44","1","37","44","SURE"
"html-keyboard-response","162","350121","0.0-5.0-3.52","63d81e2fb6c8f0da25fea602","bdp_rd","Sun Mar 26 2023 20:39:22 GMT-0500 (Central Daylight Time)","363393","","null","","","","offerFB","","<div class='trialBorder'><div class='vertical-center'><img style='vertical-align:center; align:center' src=img/fixation3.jpg></div><div class='cl'><div class='vertical-center'>$44<br>with a<br>50% chance</div></div><div class='cr'><div class='vertical-center'><font style='color:orange'>$37<br>for<br>sure</font></div></div><div class='respDivL'><div class='vertical-center'>(E)</div></div><div class='respDivR'><div class='vertical-center'><font style='color:orange'>(I)</font></div></div></div>","null","$37","$44","1","37","44",""
"html-keyboard-response","163","350623","0.0-5.0-1.53","63d81e2fb6c8f0da25fea602","bdp_rd","Sun Mar 26 2023 20:39:22 GMT-0500 (Central Daylight Time)","363393","","null","","","","FIX","","<div class='trialBorder'><div class='vertical-center'><img style='vertical-align:center; align:center' src=img/fixation3.jpg></div></div>","null","","","","","",""
"html-keyboard-response","164","351564","0.0-5.0-2.53","63d81e2fb6c8f0da25fea602","bdp_rd","Sun Mar 26 2023 20:39:22 GMT-0500 (Central Daylight Time)","363393","","940","","","","offer","","<div class='trialBorder'><div class='vertical-center'><img style='vertical-align:center; align:center' src=img/fixation3.jpg></div><div class='cl'><div class='vertical-center'>$4<br>for<br>sure</div></div><div class='cr'><div class='vertical-center'>$11<br>with a<br>50% chance</div></div><div class='respDivL'><div class='vertical-center'>(E)</div></div><div class='respDivR'><div class='vertical-center'>(I)</div></div></div>","I","$4","$11","0","4","11","RISKY"
"html-keyboard-response","165","351816","0.0-5.0-3.53","63d81e2fb6c8f0da25fea602","bdp_rd","Sun Mar 26 2023 20:39:22 GMT-0500 (Central Daylight Time)","363393","","null","","","","offerFB","","<div class='trialBorder'><div class='vertical-center'><img style='vertical-align:center; align:center' src=img/fixation3.jpg></div><div class='cl'><div class='vertical-center'>$4<br>for<br>sure</div></div><div class='cr'><div class='vertical-center'><font style='color:orange'>$11<br>with a<br>50% chance</font></div></div><div class='respDivL'><div class='vertical-center'>(E)</div></div><div class='respDivR'><div class='vertical-center'><font style='color:orange'>(I)</font></div></div></div>","null","$4","$11","0","4","11",""
"html-keyboard-response","166","352318","0.0-5.0-1.54","63d81e2fb6c8f0da25fea602","bdp_rd","Sun Mar 26 2023 20:39:22 GMT-0500 (Central Daylight Time)","363393","","null","","","","FIX","","<div class='trialBorder'><div class='vertical-center'><img style='vertical-align:center; align:center' src=img/fixation3.jpg></div></div>","null","","","","","",""
"html-keyboard-response","167","352909","0.0-5.0-2.54","63d81e2fb6c8f0da25fea602","bdp_rd","Sun Mar 26 2023 20:39:22 GMT-0500 (Central Daylight Time)","363393","","590","","","","offer","","<div class='trialBorder'><div class='vertical-center'><img style='vertical-align:center; align:center' src=img/fixation3.jpg></div><div class='cl'><div class='vertical-center'>$22<br>for<br>sure</div></div><div class='cr'><div class='vertical-center'>$42<br>with a<br>50% chance</div></div><div class='respDivL'><div class='vertical-center'>(E)</div></div><div class='respDivR'><div class='vertical-center'>(I)</div></div></div>","E","$22","$42","0","22","42","SURE"
"html-keyboard-response","168","353162","0.0-5.0-3.54","63d81e2fb6c8f0da25fea602","bdp_rd","Sun Mar 26 2023 20:39:22 GMT-0500 (Central Daylight Time)","363393","","null","","","","offerFB","","<div class='trialBorder'><div class='vertical-center'><img style='vertical-align:center; align:center' src=img/fixation3.jpg></div><div class='cl'><div class='vertical-center'><font style='color:orange'>$22<br>for<br>sure</font></div></div><div class='cr'><div class='vertical-center'>$42<br>with a<br>50% chance</div></div><div class='respDivL'><div class='vertical-center'><font style='color:orange'>(E)</font></div></div><div class='respDivR'><div class='vertical-center'>(I)</div></div></div>","null","$22","$42","0","22","42",""
"html-keyboard-response","169","353664","0.0-5.0-1.55","63d81e2fb6c8f0da25fea602","bdp_rd","Sun Mar 26 2023 20:39:22 GMT-0500 (Central Daylight Time)","363393","","null","","","","FIX","","<div class='trialBorder'><div class='vertical-center'><img style='vertical-align:center; align:center' src=img/fixation3.jpg></div></div>","null","","","","","",""
"html-keyboard-response","170","354002","0.0-5.0-2.55","63d81e2fb6c8f0da25fea602","bdp_rd","Sun Mar 26 2023 20:39:22 GMT-0500 (Central Daylight Time)","363393","","336","","","","offer","","<div class='trialBorder'><div class='vertical-center'><img style='vertical-align:center; align:center' src=img/fixation3.jpg></div><div class='cl'><div class='vertical-center'>$73<br>with a<br>50% chance</div></div><div class='cr'><div class='vertical-center'>$42<br>for<br>sure</div></div><div class='respDivL'><div class='vertical-center'>(E)</div></div><div class='respDivR'><div class='vertical-center'>(I)</div></div></div>","E","$42","$73","1","42","73","RISKY"
"html-keyboard-response","171","354254","0.0-5.0-3.55","63d81e2fb6c8f0da25fea602","bdp_rd","Sun Mar 26 2023 20:39:22 GMT-0500 (Central Daylight Time)","363393","","null","","","","offerFB","","<div class='trialBorder'><div class='vertical-center'><img style='vertical-align:center; align:center' src=img/fixation3.jpg></div><div class='cl'><div class='vertical-center'><font style='color:orange'>$73<br>with a<br>50% chance</font></div></div><div class='cr'><div class='vertical-center'>$42<br>for<br>sure</div></div><div class='respDivL'><div class='vertical-center'><font style='color:orange'>(E)</font></div></div><div class='respDivR'><div class='vertical-center'>(I)</div></div></div>","null","$42","$73","1","42","73",""
"html-keyboard-response","172","354756","0.0-5.0-1.56","63d81e2fb6c8f0da25fea602","bdp_rd","Sun Mar 26 2023 20:39:22 GMT-0500 (Central Daylight Time)","363393","","null","","","","FIX","","<div class='trialBorder'><div class='vertical-center'><img style='vertical-align:center; align:center' src=img/fixation3.jpg></div></div>","null","","","","","",""
"html-keyboard-response","173","356024","0.0-5.0-2.56","63d81e2fb6c8f0da25fea602","bdp_rd","Sun Mar 26 2023 20:39:22 GMT-0500 (Central Daylight Time)","363393","","1266","","","","offer","","<div class='trialBorder'><div class='vertical-center'><img style='vertical-align:center; align:center' src=img/fixation3.jpg></div><div class='cl'><div class='vertical-center'>$12<br>with a<br>50% chance</div></div><div class='cr'><div class='vertical-center'>$3<br>for<br>sure</div></div><div class='respDivL'><div class='vertical-center'>(E)</div></div><div class='respDivR'><div class='vertical-center'>(I)</div></div></div>","E","$3","$12","1","3","12","RISKY"
