"trial_type","trial_index","time_elapsed","internal_node_id","subject_id","task","startTime","totalTime","view_history","rt","event","trial","time","trialtype","success","stimulus","key_press","sureOffer","riskyOffer","riskyLeft","sureAmt","riskyAmt","chosen"
"pavlovia","0","2","0.0-0.0","63b6cc23f13731158517f900","bdp_rd","Tue Apr 11 2023 01:08:21 GMT-0600 (Mountain Daylight Time)","229813","","","","","","","","","","","","","","",""
"instructions","1","12474","0.0-1.0","63b6cc23f13731158517f900","bdp_rd","Tue Apr 11 2023 01:08:21 GMT-0600 (Mountain Daylight Time)","229813","[{""page_index"":0,""viewing_time"":12472}]","12472","","","","","","","","","","","","",""
"","","","","63b6cc23f13731158517f900","bdp_rd","Tue Apr 11 2023 01:08:21 GMT-0600 (Mountain Daylight Time)","229813","","","fullscreenenter","2","15687","fullscreenenter","","","","","","","","",""
"fullscreen","2","16671","0.0-2.0","63b6cc23f13731158517f900","bdp_rd","Tue Apr 11 2023 01:08:21 GMT-0600 (Mountain Daylight Time)","229813","","","","","","","true","","","","","","","",""
"instructions","3","30881","0.0-4.0","63b6cc23f13731158517f900","bdp_rd","Tue Apr 11 2023 01:08:21 GMT-0600 (Mountain Daylight Time)","229813","[{""page_index"":0,""viewing_time"":10187},{""page_index"":1,""viewing_time"":2851},{""page_index"":2,""viewing_time"":1171}]","14209","","","","","","","","","","","","",""
"html-keyboard-response","4","31383","0.0-5.0-1.0","63b6cc23f13731158517f900","bdp_rd","Tue Apr 11 2023 01:08:21 GMT-0600 (Mountain Daylight Time)","229813","","null","","","","FIX","","<div class='trialBorder'><div class='vertical-center'><img style='vertical-align:center; align:center' src=img/fixation3.jpg></div></div>","null","","","","","",""
"html-keyboard-response","5","35430","0.0-5.0-2.0","63b6cc23f13731158517f900","bdp_rd","Tue Apr 11 2023 01:08:21 GMT-0600 (Mountain Daylight Time)","229813","","4047","","","","offer","","<div class='trialBorder'><div class='vertical-center'><img style='vertical-align:center; align:center' src=img/fixation3.jpg></div><div class='cl'><div class='vertical-center'>$66<br>with a<br>50% chance</div></div><div class='cr'><div class='vertical-center'>$33<br>for<br>sure</div></div><div class='respDivL'><div class='vertical-center'>(E)</div></div><div class='respDivR'><div class='vertical-center'>(I)</div></div></div>","E","$33","$66","1","33","66","RISKY"
"html-keyboard-response","6","35682","0.0-5.0-3.0","63b6cc23f13731158517f900","bdp_rd","Tue Apr 11 2023 01:08:21 GMT-0600 (Mountain Daylight Time)","229813","","null","","","","offerFB","","<div class='trialBorder'><div class='vertical-center'><img style='vertical-align:center; align:center' src=img/fixation3.jpg></div><div class='cl'><div class='vertical-center'><font style='color:orange'>$66<br>with a<br>50% chance</font></div></div><div class='cr'><div class='vertical-center'>$33<br>for<br>sure</div></div><div class='respDivL'><div class='vertical-center'><font style='color:orange'>(E)</font></div></div><div class='respDivR'><div class='vertical-center'>(I)</div></div></div>","null","$33","$66","1","33","66",""
"html-keyboard-response","7","36183","0.0-5.0-1.1","63b6cc23f13731158517f900","bdp_rd","Tue Apr 11 2023 01:08:21 GMT-0600 (Mountain Daylight Time)","229813","","null","","","","FIX","","<div class='trialBorder'><div class='vertical-center'><img style='vertical-align:center; align:center' src=img/fixation3.jpg></div></div>","null","","","","","",""
"html-keyboard-response","8","41388","0.0-5.0-2.1","63b6cc23f13731158517f900","bdp_rd","Tue Apr 11 2023 01:08:21 GMT-0600 (Mountain Daylight Time)","229813","","5204","","","","offer","","<div class='trialBorder'><div class='vertical-center'><img style='vertical-align:center; align:center' src=img/fixation3.jpg></div><div class='cl'><div class='vertical-center'>$18<br>for<br>sure</div></div><div class='cr'><div class='vertical-center'>$36<br>with a<br>50% chance</div></div><div class='respDivL'><div class='vertical-center'>(E)</div></div><div class='respDivR'><div class='vertical-center'>(I)</div></div></div>","I","$18","$36","0","18","36","RISKY"
"html-keyboard-response","9","41639","0.0-5.0-3.1","63b6cc23f13731158517f900","bdp_rd","Tue Apr 11 2023 01:08:21 GMT-0600 (Mountain Daylight Time)","229813","","null","","","","offerFB","","<div class='trialBorder'><div class='vertical-center'><img style='vertical-align:center; align:center' src=img/fixation3.jpg></div><div class='cl'><div class='vertical-center'>$18<br>for<br>sure</div></div><div class='cr'><div class='vertical-center'><font style='color:orange'>$36<br>with a<br>50% chance</font></div></div><div class='respDivL'><div class='vertical-center'>(E)</div></div><div class='respDivR'><div class='vertical-center'><font style='color:orange'>(I)</font></div></div></div>","null","$18","$36","0","18","36",""
"html-keyboard-response","10","42140","0.0-5.0-1.2","63b6cc23f13731158517f900","bdp_rd","Tue Apr 11 2023 01:08:21 GMT-0600 (Mountain Daylight Time)","229813","","null","","","","FIX","","<div class='trialBorder'><div class='vertical-center'><img style='vertical-align:center; align:center' src=img/fixation3.jpg></div></div>","null","","","","","",""
"html-keyboard-response","11","45438","0.0-5.0-2.2","63b6cc23f13731158517f900","bdp_rd","Tue Apr 11 2023 01:08:21 GMT-0600 (Mountain Daylight Time)","229813","","3297","","","","offer","","<div class='trialBorder'><div class='vertical-center'><img style='vertical-align:center; align:center' src=img/fixation3.jpg></div><div class='cl'><div class='vertical-center'>$81<br>with a<br>50% chance</div></div><div class='cr'><div class='vertical-center'>$39<br>for<br>sure</div></div><div class='respDivL'><div class='vertical-center'>(E)</div></div><div class='respDivR'><div class='vertical-center'>(I)</div></div></div>","E","$39","$81","1","39","81","RISKY"
"html-keyboard-response","12","45690","0.0-5.0-3.2","63b6cc23f13731158517f900","bdp_rd","Tue Apr 11 2023 01:08:21 GMT-0600 (Mountain Daylight Time)","229813","","null","","","","offerFB","","<div class='trialBorder'><div class='vertical-center'><img style='vertical-align:center; align:center' src=img/fixation3.jpg></div><div class='cl'><div class='vertical-center'><font style='color:orange'>$81<br>with a<br>50% chance</font></div></div><div class='cr'><div class='vertical-center'>$39<br>for<br>sure</div></div><div class='respDivL'><div class='vertical-center'><font style='color:orange'>(E)</font></div></div><div class='respDivR'><div class='vertical-center'>(I)</div></div></div>","null","$39","$81","1","39","81",""
"html-keyboard-response","13","46191","0.0-5.0-1.3","63b6cc23f13731158517f900","bdp_rd","Tue Apr 11 2023 01:08:21 GMT-0600 (Mountain Daylight Time)","229813","","null","","","","FIX","","<div class='trialBorder'><div class='vertical-center'><img style='vertical-align:center; align:center' src=img/fixation3.jpg></div></div>","null","","","","","",""
"html-keyboard-response","14","47713","0.0-5.0-2.3","63b6cc23f13731158517f900","bdp_rd","Tue Apr 11 2023 01:08:21 GMT-0600 (Mountain Daylight Time)","229813","","1520","","","","offer","","<div class='trialBorder'><div class='vertical-center'><img style='vertical-align:center; align:center' src=img/fixation3.jpg></div><div class='cl'><div class='vertical-center'>$53<br>for<br>sure</div></div><div class='cr'><div class='vertical-center'>$98<br>with a<br>50% chance</div></div><div class='respDivL'><div class='vertical-center'>(E)</div></div><div class='respDivR'><div class='vertical-center'>(I)</div></div></div>","I","$53","$98","0","53","98","RISKY"
"html-keyboard-response","15","47964","0.0-5.0-3.3","63b6cc23f13731158517f900","bdp_rd","Tue Apr 11 2023 01:08:21 GMT-0600 (Mountain Daylight Time)","229813","","null","","","","offerFB","","<div class='trialBorder'><div class='vertical-center'><img style='vertical-align:center; align:center' src=img/fixation3.jpg></div><div class='cl'><div class='vertical-center'>$53<br>for<br>sure</div></div><div class='cr'><div class='vertical-center'><font style='color:orange'>$98<br>with a<br>50% chance</font></div></div><div class='respDivL'><div class='vertical-center'>(E)</div></div><div class='respDivR'><div class='vertical-center'><font style='color:orange'>(I)</font></div></div></div>","null","$53","$98","0","53","98",""
"html-keyboard-response","16","48465","0.0-5.0-1.4","63b6cc23f13731158517f900","bdp_rd","Tue Apr 11 2023 01:08:21 GMT-0600 (Mountain Daylight Time)","229813","","null","","","","FIX","","<div class='trialBorder'><div class='vertical-center'><img style='vertical-align:center; align:center' src=img/fixation3.jpg></div></div>","null","","","","","",""
"html-keyboard-response","17","50744","0.0-5.0-2.4","63b6cc23f13731158517f900","bdp_rd","Tue Apr 11 2023 01:08:21 GMT-0600 (Mountain Daylight Time)","229813","","2278","","","","offer","","<div class='trialBorder'><div class='vertical-center'><img style='vertical-align:center; align:center' src=img/fixation3.jpg></div><div class='cl'><div class='vertical-center'>$29<br>for<br>sure</div></div><div class='cr'><div class='vertical-center'>$46<br>with a<br>50% chance</div></div><div class='respDivL'><div class='vertical-center'>(E)</div></div><div class='respDivR'><div class='vertical-center'>(I)</div></div></div>","E","$29","$46","0","29","46","SURE"
"html-keyboard-response","18","50994","0.0-5.0-3.4","63b6cc23f13731158517f900","bdp_rd","Tue Apr 11 2023 01:08:21 GMT-0600 (Mountain Daylight Time)","229813","","null","","","","offerFB","","<div class='trialBorder'><div class='vertical-center'><img style='vertical-align:center; align:center' src=img/fixation3.jpg></div><div class='cl'><div class='vertical-center'><font style='color:orange'>$29<br>for<br>sure</font></div></div><div class='cr'><div class='vertical-center'>$46<br>with a<br>50% chance</div></div><div class='respDivL'><div class='vertical-center'><font style='color:orange'>(E)</font></div></div><div class='respDivR'><div class='vertical-center'>(I)</div></div></div>","null","$29","$46","0","29","46",""
"html-keyboard-response","19","51495","0.0-5.0-1.5","63b6cc23f13731158517f900","bdp_rd","Tue Apr 11 2023 01:08:21 GMT-0600 (Mountain Daylight Time)","229813","","null","","","","FIX","","<div class='trialBorder'><div class='vertical-center'><img style='vertical-align:center; align:center' src=img/fixation3.jpg></div></div>","null","","","","","",""
"html-keyboard-response","20","53755","0.0-5.0-2.5","63b6cc23f13731158517f900","bdp_rd","Tue Apr 11 2023 01:08:21 GMT-0600 (Mountain Daylight Time)","229813","","2259","","","","offer","","<div class='trialBorder'><div class='vertical-center'><img style='vertical-align:center; align:center' src=img/fixation3.jpg></div><div class='cl'><div class='vertical-center'>$21<br>for<br>sure</div></div><div class='cr'><div class='vertical-center'>$25<br>with a<br>50% chance</div></div><div class='respDivL'><div class='vertical-center'>(E)</div></div><div class='respDivR'><div class='vertical-center'>(I)</div></div></div>","I","$21","$25","0","21","25","RISKY"
"html-keyboard-response","21","54021","0.0-5.0-3.5","63b6cc23f13731158517f900","bdp_rd","Tue Apr 11 2023 01:08:21 GMT-0600 (Mountain Daylight Time)","229813","","null","","","","offerFB","","<div class='trialBorder'><div class='vertical-center'><img style='vertical-align:center; align:center' src=img/fixation3.jpg></div><div class='cl'><div class='vertical-center'>$21<br>for<br>sure</div></div><div class='cr'><div class='vertical-center'><font style='color:orange'>$25<br>with a<br>50% chance</font></div></div><div class='respDivL'><div class='vertical-center'>(E)</div></div><div class='respDivR'><div class='vertical-center'><font style='color:orange'>(I)</font></div></div></div>","null","$21","$25","0","21","25",""
"html-keyboard-response","22","54523","0.0-5.0-1.6","63b6cc23f13731158517f900","bdp_rd","Tue Apr 11 2023 01:08:21 GMT-0600 (Mountain Daylight Time)","229813","","null","","","","FIX","","<div class='trialBorder'><div class='vertical-center'><img style='vertical-align:center; align:center' src=img/fixation3.jpg></div></div>","null","","","","","",""
"html-keyboard-response","23","57479","0.0-5.0-2.6","63b6cc23f13731158517f900","bdp_rd","Tue Apr 11 2023 01:08:21 GMT-0600 (Mountain Daylight Time)","229813","","2955","","","","offer","","<div class='trialBorder'><div class='vertical-center'><img style='vertical-align:center; align:center' src=img/fixation3.jpg></div><div class='cl'><div class='vertical-center'>$73<br>with a<br>50% chance</div></div><div class='cr'><div class='vertical-center'>$42<br>for<br>sure</div></div><div class='respDivL'><div class='vertical-center'>(E)</div></div><div class='respDivR'><div class='vertical-center'>(I)</div></div></div>","E","$42","$73","1","42","73","RISKY"
"html-keyboard-response","24","57731","0.0-5.0-3.6","63b6cc23f13731158517f900","bdp_rd","Tue Apr 11 2023 01:08:21 GMT-0600 (Mountain Daylight Time)","229813","","null","","","","offerFB","","<div class='trialBorder'><div class='vertical-center'><img style='vertical-align:center; align:center' src=img/fixation3.jpg></div><div class='cl'><div class='vertical-center'><font style='color:orange'>$73<br>with a<br>50% chance</font></div></div><div class='cr'><div class='vertical-center'>$42<br>for<br>sure</div></div><div class='respDivL'><div class='vertical-center'><font style='color:orange'>(E)</font></div></div><div class='respDivR'><div class='vertical-center'>(I)</div></div></div>","null","$42","$73","1","42","73",""
"html-keyboard-response","25","58232","0.0-5.0-1.7","63b6cc23f13731158517f900","bdp_rd","Tue Apr 11 2023 01:08:21 GMT-0600 (Mountain Daylight Time)","229813","","null","","","","FIX","","<div class='trialBorder'><div class='vertical-center'><img style='vertical-align:center; align:center' src=img/fixation3.jpg></div></div>","null","","","","","",""
"html-keyboard-response","26","59693","0.0-5.0-2.7","63b6cc23f13731158517f900","bdp_rd","Tue Apr 11 2023 01:08:21 GMT-0600 (Mountain Daylight Time)","229813","","1461","","","","offer","","<div class='trialBorder'><div class='vertical-center'><img style='vertical-align:center; align:center' src=img/fixation3.jpg></div><div class='cl'><div class='vertical-center'>$100<br>with a<br>50% chance</div></div><div class='cr'><div class='vertical-center'>$63<br>for<br>sure</div></div><div class='respDivL'><div class='vertical-center'>(E)</div></div><div class='respDivR'><div class='vertical-center'>(I)</div></div></div>","E","$63","$100","1","63","10","RISKY"
"html-keyboard-response","27","59955","0.0-5.0-3.7","63b6cc23f13731158517f900","bdp_rd","Tue Apr 11 2023 01:08:21 GMT-0600 (Mountain Daylight Time)","229813","","null","","","","offerFB","","<div class='trialBorder'><div class='vertical-center'><img style='vertical-align:center; align:center' src=img/fixation3.jpg></div><div class='cl'><div class='vertical-center'><font style='color:orange'>$100<br>with a<br>50% chance</font></div></div><div class='cr'><div class='vertical-center'>$63<br>for<br>sure</div></div><div class='respDivL'><div class='vertical-center'><font style='color:orange'>(E)</font></div></div><div class='respDivR'><div class='vertical-center'>(I)</div></div></div>","null","$63","$100","1","63","10",""
"html-keyboard-response","28","60456","0.0-5.0-1.8","63b6cc23f13731158517f900","bdp_rd","Tue Apr 11 2023 01:08:21 GMT-0600 (Mountain Daylight Time)","229813","","null","","","","FIX","","<div class='trialBorder'><div class='vertical-center'><img style='vertical-align:center; align:center' src=img/fixation3.jpg></div></div>","null","","","","","",""
"html-keyboard-response","29","63281","0.0-5.0-2.8","63b6cc23f13731158517f900","bdp_rd","Tue Apr 11 2023 01:08:21 GMT-0600 (Mountain Daylight Time)","229813","","2824","","","","offer","","<div class='trialBorder'><div class='vertical-center'><img style='vertical-align:center; align:center' src=img/fixation3.jpg></div><div class='cl'><div class='vertical-center'>$29<br>with a<br>50% chance</div></div><div class='cr'><div class='vertical-center'>$14<br>for<br>sure</div></div><div class='respDivL'><div class='vertical-center'>(E)</div></div><div class='respDivR'><div class='vertical-center'>(I)</div></div></div>","I","$14","$29","1","14","29","SURE"
"html-keyboard-response","30","63533","0.0-5.0-3.8","63b6cc23f13731158517f900","bdp_rd","Tue Apr 11 2023 01:08:21 GMT-0600 (Mountain Daylight Time)","229813","","null","","","","offerFB","","<div class='trialBorder'><div class='vertical-center'><img style='vertical-align:center; align:center' src=img/fixation3.jpg></div><div class='cl'><div class='vertical-center'>$29<br>with a<br>50% chance</div></div><div class='cr'><div class='vertical-center'><font style='color:orange'>$14<br>for<br>sure</font></div></div><div class='respDivL'><div class='vertical-center'>(E)</div></div><div class='respDivR'><div class='vertical-center'><font style='color:orange'>(I)</font></div></div></div>","null","$14","$29","1","14","29",""
"html-keyboard-response","31","64034","0.0-5.0-1.9","63b6cc23f13731158517f900","bdp_rd","Tue Apr 11 2023 01:08:21 GMT-0600 (Mountain Daylight Time)","229813","","null","","","","FIX","","<div class='trialBorder'><div class='vertical-center'><img style='vertical-align:center; align:center' src=img/fixation3.jpg></div></div>","null","","","","","",""
"html-keyboard-response","32","66870","0.0-5.0-2.9","63b6cc23f13731158517f900","bdp_rd","Tue Apr 11 2023 01:08:21 GMT-0600 (Mountain Daylight Time)","229813","","2835","","","","offer","","<div class='trialBorder'><div class='vertical-center'><img style='vertical-align:center; align:center' src=img/fixation3.jpg></div><div class='cl'><div class='vertical-center'>$43<br>with a<br>50% chance</div></div><div class='cr'><div class='vertical-center'>$17<br>for<br>sure</div></div><div class='respDivL'><div class='vertical-center'>(E)</div></div><div class='respDivR'><div class='vertical-center'>(I)</div></div></div>","I","$17","$43","1","17","43","SURE"
"html-keyboard-response","33","67122","0.0-5.0-3.9","63b6cc23f13731158517f900","bdp_rd","Tue Apr 11 2023 01:08:21 GMT-0600 (Mountain Daylight Time)","229813","","null","","","","offerFB","","<div class='trialBorder'><div class='vertical-center'><img style='vertical-align:center; align:center' src=img/fixation3.jpg></div><div class='cl'><div class='vertical-center'>$43<br>with a<br>50% chance</div></div><div class='cr'><div class='vertical-center'><font style='color:orange'>$17<br>for<br>sure</font></div></div><div class='respDivL'><div class='vertical-center'>(E)</div></div><div class='respDivR'><div class='vertical-center'><font style='color:orange'>(I)</font></div></div></div>","null","$17","$43","1","17","43",""
"html-keyboard-response","34","67623","0.0-5.0-1.10","63b6cc23f13731158517f900","bdp_rd","Tue Apr 11 2023 01:08:21 GMT-0600 (Mountain Daylight Time)","229813","","null","","","","FIX","","<div class='trialBorder'><div class='vertical-center'><img style='vertical-align:center; align:center' src=img/fixation3.jpg></div></div>","null","","","","","",""
"html-keyboard-response","35","69451","0.0-5.0-2.10","63b6cc23f13731158517f900","bdp_rd","Tue Apr 11 2023 01:08:21 GMT-0600 (Mountain Daylight Time)","229813","","1828","","","","offer","","<div class='trialBorder'><div class='vertical-center'><img style='vertical-align:center; align:center' src=img/fixation3.jpg></div><div class='cl'><div class='vertical-center'>$12<br>with a<br>50% chance</div></div><div class='cr'><div class='vertical-center'>$3<br>for<br>sure</div></div><div class='respDivL'><div class='vertical-center'>(E)</div></div><div class='respDivR'><div class='vertical-center'>(I)</div></div></div>","E","$3","$12","1","3","12","RISKY"
"html-keyboard-response","36","69702","0.0-5.0-3.10","63b6cc23f13731158517f900","bdp_rd","Tue Apr 11 2023 01:08:21 GMT-0600 (Mountain Daylight Time)","229813","","null","","","","offerFB","","<div class='trialBorder'><div class='vertical-center'><img style='vertical-align:center; align:center' src=img/fixation3.jpg></div><div class='cl'><div class='vertical-center'><font style='color:orange'>$12<br>with a<br>50% chance</font></div></div><div class='cr'><div class='vertical-center'>$3<br>for<br>sure</div></div><div class='respDivL'><div class='vertical-center'><font style='color:orange'>(E)</font></div></div><div class='respDivR'><div class='vertical-center'>(I)</div></div></div>","null","$3","$12","1","3","12",""
"html-keyboard-response","37","70203","0.0-5.0-1.11","63b6cc23f13731158517f900","bdp_rd","Tue Apr 11 2023 01:08:21 GMT-0600 (Mountain Daylight Time)","229813","","null","","","","FIX","","<div class='trialBorder'><div class='vertical-center'><img style='vertical-align:center; align:center' src=img/fixation3.jpg></div></div>","null","","","","","",""
"html-keyboard-response","38","72547","0.0-5.0-2.11","63b6cc23f13731158517f900","bdp_rd","Tue Apr 11 2023 01:08:21 GMT-0600 (Mountain Daylight Time)","229813","","2344","","","","offer","","<div class='trialBorder'><div class='vertical-center'><img style='vertical-align:center; align:center' src=img/fixation3.jpg></div><div class='cl'><div class='vertical-center'>$13<br>for<br>sure</div></div><div class='cr'><div class='vertical-center'>$24<br>with a<br>50% chance</div></div><div class='respDivL'><div class='vertical-center'>(E)</div></div><div class='respDivR'><div class='vertical-center'>(I)</div></div></div>","E","$13","$24","0","13","24","SURE"
"html-keyboard-response","39","72798","0.0-5.0-3.11","63b6cc23f13731158517f900","bdp_rd","Tue Apr 11 2023 01:08:21 GMT-0600 (Mountain Daylight Time)","229813","","null","","","","offerFB","","<div class='trialBorder'><div class='vertical-center'><img style='vertical-align:center; align:center' src=img/fixation3.jpg></div><div class='cl'><div class='vertical-center'><font style='color:orange'>$13<br>for<br>sure</font></div></div><div class='cr'><div class='vertical-center'>$24<br>with a<br>50% chance</div></div><div class='respDivL'><div class='vertical-center'><font style='color:orange'>(E)</font></div></div><div class='respDivR'><div class='vertical-center'>(I)</div></div></div>","null","$13","$24","0","13","24",""
"html-keyboard-response","40","73299","0.0-5.0-1.12","63b6cc23f13731158517f900","bdp_rd","Tue Apr 11 2023 01:08:21 GMT-0600 (Mountain Daylight Time)","229813","","null","","","","FIX","","<div class='trialBorder'><div class='vertical-center'><img style='vertical-align:center; align:center' src=img/fixation3.jpg></div></div>","null","","","","","",""
"html-keyboard-response","41","75197","0.0-5.0-2.12","63b6cc23f13731158517f900","bdp_rd","Tue Apr 11 2023 01:08:21 GMT-0600 (Mountain Daylight Time)","229813","","1897","","","","offer","","<div class='trialBorder'><div class='vertical-center'><img style='vertical-align:center; align:center' src=img/fixation3.jpg></div><div class='cl'><div class='vertical-center'>$15<br>with a<br>50% chance</div></div><div class='cr'><div class='vertical-center'>$6<br>for<br>sure</div></div><div class='respDivL'><div class='vertical-center'>(E)</div></div><div class='respDivR'><div class='vertical-center'>(I)</div></div></div>","E","$6","$15","1","6","15","RISKY"
"html-keyboard-response","42","75448","0.0-5.0-3.12","63b6cc23f13731158517f900","bdp_rd","Tue Apr 11 2023 01:08:21 GMT-0600 (Mountain Daylight Time)","229813","","null","","","","offerFB","","<div class='trialBorder'><div class='vertical-center'><img style='vertical-align:center; align:center' src=img/fixation3.jpg></div><div class='cl'><div class='vertical-center'><font style='color:orange'>$15<br>with a<br>50% chance</font></div></div><div class='cr'><div class='vertical-center'>$6<br>for<br>sure</div></div><div class='respDivL'><div class='vertical-center'><font style='color:orange'>(E)</font></div></div><div class='respDivR'><div class='vertical-center'>(I)</div></div></div>","null","$6","$15","1","6","15",""
"html-keyboard-response","43","75949","0.0-5.0-1.13","63b6cc23f13731158517f900","bdp_rd","Tue Apr 11 2023 01:08:21 GMT-0600 (Mountain Daylight Time)","229813","","null","","","","FIX","","<div class='trialBorder'><div class='vertical-center'><img style='vertical-align:center; align:center' src=img/fixation3.jpg></div></div>","null","","","","","",""
"html-keyboard-response","44","78338","0.0-5.0-2.13","63b6cc23f13731158517f900","bdp_rd","Tue Apr 11 2023 01:08:21 GMT-0600 (Mountain Daylight Time)","229813","","2389","","","","offer","","<div class='trialBorder'><div class='vertical-center'><img style='vertical-align:center; align:center' src=img/fixation3.jpg></div><div class='cl'><div class='vertical-center'>$1<br>for<br>sure</div></div><div class='cr'><div class='vertical-center'>$33<br>with a<br>50% chance</div></div><div class='respDivL'><div class='vertical-center'>(E)</div></div><div class='respDivR'><div class='vertical-center'>(I)</div></div></div>","I","$1","$33","0","1","33","RISKY"
"html-keyboard-response","45","78590","0.0-5.0-3.13","63b6cc23f13731158517f900","bdp_rd","Tue Apr 11 2023 01:08:21 GMT-0600 (Mountain Daylight Time)","229813","","null","","","","offerFB","","<div class='trialBorder'><div class='vertical-center'><img style='vertical-align:center; align:center' src=img/fixation3.jpg></div><div class='cl'><div class='vertical-center'>$1<br>for<br>sure</div></div><div class='cr'><div class='vertical-center'><font style='color:orange'>$33<br>with a<br>50% chance</font></div></div><div class='respDivL'><div class='vertical-center'>(E)</div></div><div class='respDivR'><div class='vertical-center'><font style='color:orange'>(I)</font></div></div></div>","null","$1","$33","0","1","33",""
"html-keyboard-response","46","79091","0.0-5.0-1.14","63b6cc23f13731158517f900","bdp_rd","Tue Apr 11 2023 01:08:21 GMT-0600 (Mountain Daylight Time)","229813","","null","","","","FIX","","<div class='trialBorder'><div class='vertical-center'><img style='vertical-align:center; align:center' src=img/fixation3.jpg></div></div>","null","","","","","",""
"html-keyboard-response","47","81365","0.0-5.0-2.14","63b6cc23f13731158517f900","bdp_rd","Tue Apr 11 2023 01:08:21 GMT-0600 (Mountain Daylight Time)","229813","","2273","","","","offer","","<div class='trialBorder'><div class='vertical-center'><img style='vertical-align:center; align:center' src=img/fixation3.jpg></div><div class='cl'><div class='vertical-center'>$48<br>with a<br>50% chance</div></div><div class='cr'><div class='vertical-center'>$34<br>for<br>sure</div></div><div class='respDivL'><div class='vertical-center'>(E)</div></div><div class='respDivR'><div class='vertical-center'>(I)</div></div></div>","I","$34","$48","1","34","48","SURE"
"html-keyboard-response","48","81615","0.0-5.0-3.14","63b6cc23f13731158517f900","bdp_rd","Tue Apr 11 2023 01:08:21 GMT-0600 (Mountain Daylight Time)","229813","","null","","","","offerFB","","<div class='trialBorder'><div class='vertical-center'><img style='vertical-align:center; align:center' src=img/fixation3.jpg></div><div class='cl'><div class='vertical-center'>$48<br>with a<br>50% chance</div></div><div class='cr'><div class='vertical-center'><font style='color:orange'>$34<br>for<br>sure</font></div></div><div class='respDivL'><div class='vertical-center'>(E)</div></div><div class='respDivR'><div class='vertical-center'><font style='color:orange'>(I)</font></div></div></div>","null","$34","$48","1","34","48",""
"html-keyboard-response","49","82116","0.0-5.0-1.15","63b6cc23f13731158517f900","bdp_rd","Tue Apr 11 2023 01:08:21 GMT-0600 (Mountain Daylight Time)","229813","","null","","","","FIX","","<div class='trialBorder'><div class='vertical-center'><img style='vertical-align:center; align:center' src=img/fixation3.jpg></div></div>","null","","","","","",""
"html-keyboard-response","50","83737","0.0-5.0-2.15","63b6cc23f13731158517f900","bdp_rd","Tue Apr 11 2023 01:08:21 GMT-0600 (Mountain Daylight Time)","229813","","1620","","","","offer","","<div class='trialBorder'><div class='vertical-center'><img style='vertical-align:center; align:center' src=img/fixation3.jpg></div><div class='cl'><div class='vertical-center'>$11<br>for<br>sure</div></div><div class='cr'><div class='vertical-center'>$62<br>with a<br>50% chance</div></div><div class='respDivL'><div class='vertical-center'>(E)</div></div><div class='respDivR'><div class='vertical-center'>(I)</div></div></div>","I","$11","$62","0","11","62","RISKY"
"html-keyboard-response","51","83988","0.0-5.0-3.15","63b6cc23f13731158517f900","bdp_rd","Tue Apr 11 2023 01:08:21 GMT-0600 (Mountain Daylight Time)","229813","","null","","","","offerFB","","<div class='trialBorder'><div class='vertical-center'><img style='vertical-align:center; align:center' src=img/fixation3.jpg></div><div class='cl'><div class='vertical-center'>$11<br>for<br>sure</div></div><div class='cr'><div class='vertical-center'><font style='color:orange'>$62<br>with a<br>50% chance</font></div></div><div class='respDivL'><div class='vertical-center'>(E)</div></div><div class='respDivR'><div class='vertical-center'><font style='color:orange'>(I)</font></div></div></div>","null","$11","$62","0","11","62",""
"html-keyboard-response","52","84489","0.0-5.0-1.16","63b6cc23f13731158517f900","bdp_rd","Tue Apr 11 2023 01:08:21 GMT-0600 (Mountain Daylight Time)","229813","","null","","","","FIX","","<div class='trialBorder'><div class='vertical-center'><img style='vertical-align:center; align:center' src=img/fixation3.jpg></div></div>","null","","","","","",""
"html-keyboard-response","53","86101","0.0-5.0-2.16","63b6cc23f13731158517f900","bdp_rd","Tue Apr 11 2023 01:08:21 GMT-0600 (Mountain Daylight Time)","229813","","1612","","","","offer","","<div class='trialBorder'><div class='vertical-center'><img style='vertical-align:center; align:center' src=img/fixation3.jpg></div><div class='cl'><div class='vertical-center'>$68<br>with a<br>50% chance</div></div><div class='cr'><div class='vertical-center'>$30<br>for<br>sure</div></div><div class='respDivL'><div class='vertical-center'>(E)</div></div><div class='respDivR'><div class='vertical-center'>(I)</div></div></div>","E","$30","$68","1","30","68","RISKY"
"html-keyboard-response","54","86352","0.0-5.0-3.16","63b6cc23f13731158517f900","bdp_rd","Tue Apr 11 2023 01:08:21 GMT-0600 (Mountain Daylight Time)","229813","","null","","","","offerFB","","<div class='trialBorder'><div class='vertical-center'><img style='vertical-align:center; align:center' src=img/fixation3.jpg></div><div class='cl'><div class='vertical-center'><font style='color:orange'>$68<br>with a<br>50% chance</font></div></div><div class='cr'><div class='vertical-center'>$30<br>for<br>sure</div></div><div class='respDivL'><div class='vertical-center'><font style='color:orange'>(E)</font></div></div><div class='respDivR'><div class='vertical-center'>(I)</div></div></div>","null","$30","$68","1","30","68",""
"html-keyboard-response","55","86859","0.0-5.0-1.17","63b6cc23f13731158517f900","bdp_rd","Tue Apr 11 2023 01:08:21 GMT-0600 (Mountain Daylight Time)","229813","","null","","","","FIX","","<div class='trialBorder'><div class='vertical-center'><img style='vertical-align:center; align:center' src=img/fixation3.jpg></div></div>","null","","","","","",""
"html-keyboard-response","56","88515","0.0-5.0-2.17","63b6cc23f13731158517f900","bdp_rd","Tue Apr 11 2023 01:08:21 GMT-0600 (Mountain Daylight Time)","229813","","1656","","","","offer","","<div class='trialBorder'><div class='vertical-center'><img style='vertical-align:center; align:center' src=img/fixation3.jpg></div><div class='cl'><div class='vertical-center'>$31<br>for<br>sure</div></div><div class='cr'><div class='vertical-center'>$78<br>with a<br>50% chance</div></div><div class='respDivL'><div class='vertical-center'>(E)</div></div><div class='respDivR'><div class='vertical-center'>(I)</div></div></div>","I","$31","$78","0","31","78","RISKY"
"html-keyboard-response","57","88766","0.0-5.0-3.17","63b6cc23f13731158517f900","bdp_rd","Tue Apr 11 2023 01:08:21 GMT-0600 (Mountain Daylight Time)","229813","","null","","","","offerFB","","<div class='trialBorder'><div class='vertical-center'><img style='vertical-align:center; align:center' src=img/fixation3.jpg></div><div class='cl'><div class='vertical-center'>$31<br>for<br>sure</div></div><div class='cr'><div class='vertical-center'><font style='color:orange'>$78<br>with a<br>50% chance</font></div></div><div class='respDivL'><div class='vertical-center'>(E)</div></div><div class='respDivR'><div class='vertical-center'><font style='color:orange'>(I)</font></div></div></div>","null","$31","$78","0","31","78",""
"html-keyboard-response","58","89267","0.0-5.0-1.18","63b6cc23f13731158517f900","bdp_rd","Tue Apr 11 2023 01:08:21 GMT-0600 (Mountain Daylight Time)","229813","","null","","","","FIX","","<div class='trialBorder'><div class='vertical-center'><img style='vertical-align:center; align:center' src=img/fixation3.jpg></div></div>","null","","","","","",""
"html-keyboard-response","59","91013","0.0-5.0-2.18","63b6cc23f13731158517f900","bdp_rd","Tue Apr 11 2023 01:08:21 GMT-0600 (Mountain Daylight Time)","229813","","1746","","","","offer","","<div class='trialBorder'><div class='vertical-center'><img style='vertical-align:center; align:center' src=img/fixation3.jpg></div><div class='cl'><div class='vertical-center'>$19<br>for<br>sure</div></div><div class='cr'><div class='vertical-center'>$51<br>with a<br>50% chance</div></div><div class='respDivL'><div class='vertical-center'>(E)</div></div><div class='respDivR'><div class='vertical-center'>(I)</div></div></div>","I","$19","$51","0","19","51","RISKY"
"html-keyboard-response","60","91277","0.0-5.0-3.18","63b6cc23f13731158517f900","bdp_rd","Tue Apr 11 2023 01:08:21 GMT-0600 (Mountain Daylight Time)","229813","","null","","","","offerFB","","<div class='trialBorder'><div class='vertical-center'><img style='vertical-align:center; align:center' src=img/fixation3.jpg></div><div class='cl'><div class='vertical-center'>$19<br>for<br>sure</div></div><div class='cr'><div class='vertical-center'><font style='color:orange'>$51<br>with a<br>50% chance</font></div></div><div class='respDivL'><div class='vertical-center'>(E)</div></div><div class='respDivR'><div class='vertical-center'><font style='color:orange'>(I)</font></div></div></div>","null","$19","$51","0","19","51",""
"html-keyboard-response","61","91778","0.0-5.0-1.19","63b6cc23f13731158517f900","bdp_rd","Tue Apr 11 2023 01:08:21 GMT-0600 (Mountain Daylight Time)","229813","","null","","","","FIX","","<div class='trialBorder'><div class='vertical-center'><img style='vertical-align:center; align:center' src=img/fixation3.jpg></div></div>","null","","","","","",""
"html-keyboard-response","62","93711","0.0-5.0-2.19","63b6cc23f13731158517f900","bdp_rd","Tue Apr 11 2023 01:08:21 GMT-0600 (Mountain Daylight Time)","229813","","1933","","","","offer","","<div class='trialBorder'><div class='vertical-center'><img style='vertical-align:center; align:center' src=img/fixation3.jpg></div><div class='cl'><div class='vertical-center'>$3<br>for<br>sure</div></div><div class='cr'><div class='vertical-center'>$17<br>with a<br>50% chance</div></div><div class='respDivL'><div class='vertical-center'>(E)</div></div><div class='respDivR'><div class='vertical-center'>(I)</div></div></div>","I","$3","$17","0","3","17","RISKY"
"html-keyboard-response","63","93962","0.0-5.0-3.19","63b6cc23f13731158517f900","bdp_rd","Tue Apr 11 2023 01:08:21 GMT-0600 (Mountain Daylight Time)","229813","","null","","","","offerFB","","<div class='trialBorder'><div class='vertical-center'><img style='vertical-align:center; align:center' src=img/fixation3.jpg></div><div class='cl'><div class='vertical-center'>$3<br>for<br>sure</div></div><div class='cr'><div class='vertical-center'><font style='color:orange'>$17<br>with a<br>50% chance</font></div></div><div class='respDivL'><div class='vertical-center'>(E)</div></div><div class='respDivR'><div class='vertical-center'><font style='color:orange'>(I)</font></div></div></div>","null","$3","$17","0","3","17",""
"html-keyboard-response","64","94463","0.0-5.0-1.20","63b6cc23f13731158517f900","bdp_rd","Tue Apr 11 2023 01:08:21 GMT-0600 (Mountain Daylight Time)","229813","","null","","","","FIX","","<div class='trialBorder'><div class='vertical-center'><img style='vertical-align:center; align:center' src=img/fixation3.jpg></div></div>","null","","","","","",""
"html-keyboard-response","65","96161","0.0-5.0-2.20","63b6cc23f13731158517f900","bdp_rd","Tue Apr 11 2023 01:08:21 GMT-0600 (Mountain Daylight Time)","229813","","1697","","","","offer","","<div class='trialBorder'><div class='vertical-center'><img style='vertical-align:center; align:center' src=img/fixation3.jpg></div><div class='cl'><div class='vertical-center'>$58<br>for<br>sure</div></div><div class='cr'><div class='vertical-center'>$69<br>with a<br>50% chance</div></div><div class='respDivL'><div class='vertical-center'>(E)</div></div><div class='respDivR'><div class='vertical-center'>(I)</div></div></div>","I","$58","$69","0","58","69","RISKY"
"html-keyboard-response","66","96412","0.0-5.0-3.20","63b6cc23f13731158517f900","bdp_rd","Tue Apr 11 2023 01:08:21 GMT-0600 (Mountain Daylight Time)","229813","","null","","","","offerFB","","<div class='trialBorder'><div class='vertical-center'><img style='vertical-align:center; align:center' src=img/fixation3.jpg></div><div class='cl'><div class='vertical-center'>$58<br>for<br>sure</div></div><div class='cr'><div class='vertical-center'><font style='color:orange'>$69<br>with a<br>50% chance</font></div></div><div class='respDivL'><div class='vertical-center'>(E)</div></div><div class='respDivR'><div class='vertical-center'><font style='color:orange'>(I)</font></div></div></div>","null","$58","$69","0","58","69",""
"html-keyboard-response","67","96913","0.0-5.0-1.21","63b6cc23f13731158517f900","bdp_rd","Tue Apr 11 2023 01:08:21 GMT-0600 (Mountain Daylight Time)","229813","","null","","","","FIX","","<div class='trialBorder'><div class='vertical-center'><img style='vertical-align:center; align:center' src=img/fixation3.jpg></div></div>","null","","","","","",""
"html-keyboard-response","68","99991","0.0-5.0-2.21","63b6cc23f13731158517f900","bdp_rd","Tue Apr 11 2023 01:08:21 GMT-0600 (Mountain Daylight Time)","229813","","3078","","","","offer","","<div class='trialBorder'><div class='vertical-center'><img style='vertical-align:center; align:center' src=img/fixation3.jpg></div><div class='cl'><div class='vertical-center'>$2<br>for<br>sure</div></div><div class='cr'><div class='vertical-center'>$21<br>with a<br>50% chance</div></div><div class='respDivL'><div class='vertical-center'>(E)</div></div><div class='respDivR'><div class='vertical-center'>(I)</div></div></div>","I","$2","$21","0","2","21","RISKY"
"html-keyboard-response","69","100242","0.0-5.0-3.21","63b6cc23f13731158517f900","bdp_rd","Tue Apr 11 2023 01:08:21 GMT-0600 (Mountain Daylight Time)","229813","","null","","","","offerFB","","<div class='trialBorder'><div class='vertical-center'><img style='vertical-align:center; align:center' src=img/fixation3.jpg></div><div class='cl'><div class='vertical-center'>$2<br>for<br>sure</div></div><div class='cr'><div class='vertical-center'><font style='color:orange'>$21<br>with a<br>50% chance</font></div></div><div class='respDivL'><div class='vertical-center'>(E)</div></div><div class='respDivR'><div class='vertical-center'><font style='color:orange'>(I)</font></div></div></div>","null","$2","$21","0","2","21",""
"html-keyboard-response","70","100743","0.0-5.0-1.22","63b6cc23f13731158517f900","bdp_rd","Tue Apr 11 2023 01:08:21 GMT-0600 (Mountain Daylight Time)","229813","","null","","","","FIX","","<div class='trialBorder'><div class='vertical-center'><img style='vertical-align:center; align:center' src=img/fixation3.jpg></div></div>","null","","","","","",""
"html-keyboard-response","71","103350","0.0-5.0-2.22","63b6cc23f13731158517f900","bdp_rd","Tue Apr 11 2023 01:08:21 GMT-0600 (Mountain Daylight Time)","229813","","2607","","","","offer","","<div class='trialBorder'><div class='vertical-center'><img style='vertical-align:center; align:center' src=img/fixation3.jpg></div><div class='cl'><div class='vertical-center'>$11<br>with a<br>50% chance</div></div><div class='cr'><div class='vertical-center'>$4<br>for<br>sure</div></div><div class='respDivL'><div class='vertical-center'>(E)</div></div><div class='respDivR'><div class='vertical-center'>(I)</div></div></div>","E","$4","$11","1","4","11","RISKY"
"html-keyboard-response","72","103601","0.0-5.0-3.22","63b6cc23f13731158517f900","bdp_rd","Tue Apr 11 2023 01:08:21 GMT-0600 (Mountain Daylight Time)","229813","","null","","","","offerFB","","<div class='trialBorder'><div class='vertical-center'><img style='vertical-align:center; align:center' src=img/fixation3.jpg></div><div class='cl'><div class='vertical-center'><font style='color:orange'>$11<br>with a<br>50% chance</font></div></div><div class='cr'><div class='vertical-center'>$4<br>for<br>sure</div></div><div class='respDivL'><div class='vertical-center'><font style='color:orange'>(E)</font></div></div><div class='respDivR'><div class='vertical-center'>(I)</div></div></div>","null","$4","$11","1","4","11",""
"html-keyboard-response","73","104102","0.0-5.0-1.23","63b6cc23f13731158517f900","bdp_rd","Tue Apr 11 2023 01:08:21 GMT-0600 (Mountain Daylight Time)","229813","","null","","","","FIX","","<div class='trialBorder'><div class='vertical-center'><img style='vertical-align:center; align:center' src=img/fixation3.jpg></div></div>","null","","","","","",""
"html-keyboard-response","74","106060","0.0-5.0-2.23","63b6cc23f13731158517f900","bdp_rd","Tue Apr 11 2023 01:08:21 GMT-0600 (Mountain Daylight Time)","229813","","1957","","","","offer","","<div class='trialBorder'><div class='vertical-center'><img style='vertical-align:center; align:center' src=img/fixation3.jpg></div><div class='cl'><div class='vertical-center'>$27<br>for<br>sure</div></div><div class='cr'><div class='vertical-center'>$47<br>with a<br>50% chance</div></div><div class='respDivL'><div class='vertical-center'>(E)</div></div><div class='respDivR'><div class='vertical-center'>(I)</div></div></div>","I","$27","$47","0","27","47","RISKY"
"html-keyboard-response","75","106312","0.0-5.0-3.23","63b6cc23f13731158517f900","bdp_rd","Tue Apr 11 2023 01:08:21 GMT-0600 (Mountain Daylight Time)","229813","","null","","","","offerFB","","<div class='trialBorder'><div class='vertical-center'><img style='vertical-align:center; align:center' src=img/fixation3.jpg></div><div class='cl'><div class='vertical-center'>$27<br>for<br>sure</div></div><div class='cr'><div class='vertical-center'><font style='color:orange'>$47<br>with a<br>50% chance</font></div></div><div class='respDivL'><div class='vertical-center'>(E)</div></div><div class='respDivR'><div class='vertical-center'><font style='color:orange'>(I)</font></div></div></div>","null","$27","$47","0","27","47",""
"html-keyboard-response","76","106813","0.0-5.0-1.24","63b6cc23f13731158517f900","bdp_rd","Tue Apr 11 2023 01:08:21 GMT-0600 (Mountain Daylight Time)","229813","","null","","","","FIX","","<div class='trialBorder'><div class='vertical-center'><img style='vertical-align:center; align:center' src=img/fixation3.jpg></div></div>","null","","","","","",""
"html-keyboard-response","77","108959","0.0-5.0-2.24","63b6cc23f13731158517f900","bdp_rd","Tue Apr 11 2023 01:08:21 GMT-0600 (Mountain Daylight Time)","229813","","2146","","","","offer","","<div class='trialBorder'><div class='vertical-center'><img style='vertical-align:center; align:center' src=img/fixation3.jpg></div><div class='cl'><div class='vertical-center'>$40<br>with a<br>50% chance</div></div><div class='cr'><div class='vertical-center'>$10<br>for<br>sure</div></div><div class='respDivL'><div class='vertical-center'>(E)</div></div><div class='respDivR'><div class='vertical-center'>(I)</div></div></div>","E","$10","$40","1","10","40","RISKY"
"html-keyboard-response","78","109210","0.0-5.0-3.24","63b6cc23f13731158517f900","bdp_rd","Tue Apr 11 2023 01:08:21 GMT-0600 (Mountain Daylight Time)","229813","","null","","","","offerFB","","<div class='trialBorder'><div class='vertical-center'><img style='vertical-align:center; align:center' src=img/fixation3.jpg></div><div class='cl'><div class='vertical-center'><font style='color:orange'>$40<br>with a<br>50% chance</font></div></div><div class='cr'><div class='vertical-center'>$10<br>for<br>sure</div></div><div class='respDivL'><div class='vertical-center'><font style='color:orange'>(E)</font></div></div><div class='respDivR'><div class='vertical-center'>(I)</div></div></div>","null","$10","$40","1","10","40",""
"html-keyboard-response","79","109711","0.0-5.0-1.25","63b6cc23f13731158517f900","bdp_rd","Tue Apr 11 2023 01:08:21 GMT-0600 (Mountain Daylight Time)","229813","","null","","","","FIX","","<div class='trialBorder'><div class='vertical-center'><img style='vertical-align:center; align:center' src=img/fixation3.jpg></div></div>","null","","","","","",""
"html-keyboard-response","80","111477","0.0-5.0-2.25","63b6cc23f13731158517f900","bdp_rd","Tue Apr 11 2023 01:08:21 GMT-0600 (Mountain Daylight Time)","229813","","1765","","","","offer","","<div class='trialBorder'><div class='vertical-center'><img style='vertical-align:center; align:center' src=img/fixation3.jpg></div><div class='cl'><div class='vertical-center'>$5<br>for<br>sure</div></div><div class='cr'><div class='vertical-center'>$50<br>with a<br>50% chance</div></div><div class='respDivL'><div class='vertical-center'>(E)</div></div><div class='respDivR'><div class='vertical-center'>(I)</div></div></div>","I","$5","$50","0","5","50","RISKY"
"html-keyboard-response","81","111728","0.0-5.0-3.25","63b6cc23f13731158517f900","bdp_rd","Tue Apr 11 2023 01:08:21 GMT-0600 (Mountain Daylight Time)","229813","","null","","","","offerFB","","<div class='trialBorder'><div class='vertical-center'><img style='vertical-align:center; align:center' src=img/fixation3.jpg></div><div class='cl'><div class='vertical-center'>$5<br>for<br>sure</div></div><div class='cr'><div class='vertical-center'><font style='color:orange'>$50<br>with a<br>50% chance</font></div></div><div class='respDivL'><div class='vertical-center'>(E)</div></div><div class='respDivR'><div class='vertical-center'><font style='color:orange'>(I)</font></div></div></div>","null","$5","$50","0","5","50",""
"html-keyboard-response","82","112229","0.0-5.0-1.26","63b6cc23f13731158517f900","bdp_rd","Tue Apr 11 2023 01:08:21 GMT-0600 (Mountain Daylight Time)","229813","","null","","","","FIX","","<div class='trialBorder'><div class='vertical-center'><img style='vertical-align:center; align:center' src=img/fixation3.jpg></div></div>","null","","","","","",""
"html-keyboard-response","83","114111","0.0-5.0-2.26","63b6cc23f13731158517f900","bdp_rd","Tue Apr 11 2023 01:08:21 GMT-0600 (Mountain Daylight Time)","229813","","1882","","","","offer","","<div class='trialBorder'><div class='vertical-center'><img style='vertical-align:center; align:center' src=img/fixation3.jpg></div><div class='cl'><div class='vertical-center'>$23<br>with a<br>50% chance</div></div><div class='cr'><div class='vertical-center'>$8<br>for<br>sure</div></div><div class='respDivL'><div class='vertical-center'>(E)</div></div><div class='respDivR'><div class='vertical-center'>(I)</div></div></div>","E","$8","$23","1","8","23","RISKY"
"html-keyboard-response","84","114362","0.0-5.0-3.26","63b6cc23f13731158517f900","bdp_rd","Tue Apr 11 2023 01:08:21 GMT-0600 (Mountain Daylight Time)","229813","","null","","","","offerFB","","<div class='trialBorder'><div class='vertical-center'><img style='vertical-align:center; align:center' src=img/fixation3.jpg></div><div class='cl'><div class='vertical-center'><font style='color:orange'>$23<br>with a<br>50% chance</font></div></div><div class='cr'><div class='vertical-center'>$8<br>for<br>sure</div></div><div class='respDivL'><div class='vertical-center'><font style='color:orange'>(E)</font></div></div><div class='respDivR'><div class='vertical-center'>(I)</div></div></div>","null","$8","$23","1","8","23",""
"html-keyboard-response","85","114863","0.0-5.0-1.27","63b6cc23f13731158517f900","bdp_rd","Tue Apr 11 2023 01:08:21 GMT-0600 (Mountain Daylight Time)","229813","","null","","","","FIX","","<div class='trialBorder'><div class='vertical-center'><img style='vertical-align:center; align:center' src=img/fixation3.jpg></div></div>","null","","","","","",""
"html-keyboard-response","86","117219","0.0-5.0-2.27","63b6cc23f13731158517f900","bdp_rd","Tue Apr 11 2023 01:08:21 GMT-0600 (Mountain Daylight Time)","229813","","2356","","","","offer","","<div class='trialBorder'><div class='vertical-center'><img style='vertical-align:center; align:center' src=img/fixation3.jpg></div><div class='cl'><div class='vertical-center'>$92<br>with a<br>50% chance</div></div><div class='cr'><div class='vertical-center'>$26<br>for<br>sure</div></div><div class='respDivL'><div class='vertical-center'>(E)</div></div><div class='respDivR'><div class='vertical-center'>(I)</div></div></div>","E","$26","$92","1","26","92","RISKY"
"html-keyboard-response","87","117470","0.0-5.0-3.27","63b6cc23f13731158517f900","bdp_rd","Tue Apr 11 2023 01:08:21 GMT-0600 (Mountain Daylight Time)","229813","","null","","","","offerFB","","<div class='trialBorder'><div class='vertical-center'><img style='vertical-align:center; align:center' src=img/fixation3.jpg></div><div class='cl'><div class='vertical-center'><font style='color:orange'>$92<br>with a<br>50% chance</font></div></div><div class='cr'><div class='vertical-center'>$26<br>for<br>sure</div></div><div class='respDivL'><div class='vertical-center'><font style='color:orange'>(E)</font></div></div><div class='respDivR'><div class='vertical-center'>(I)</div></div></div>","null","$26","$92","1","26","92",""
"html-keyboard-response","88","117971","0.0-5.0-1.28","63b6cc23f13731158517f900","bdp_rd","Tue Apr 11 2023 01:08:21 GMT-0600 (Mountain Daylight Time)","229813","","null","","","","FIX","","<div class='trialBorder'><div class='vertical-center'><img style='vertical-align:center; align:center' src=img/fixation3.jpg></div></div>","null","","","","","",""
"html-keyboard-response","89","120854","0.0-5.0-2.28","63b6cc23f13731158517f900","bdp_rd","Tue Apr 11 2023 01:08:21 GMT-0600 (Mountain Daylight Time)","229813","","2882","","","","offer","","<div class='trialBorder'><div class='vertical-center'><img style='vertical-align:center; align:center' src=img/fixation3.jpg></div><div class='cl'><div class='vertical-center'>$16<br>for<br>sure</div></div><div class='cr'><div class='vertical-center'>$38<br>with a<br>50% chance</div></div><div class='respDivL'><div class='vertical-center'>(E)</div></div><div class='respDivR'><div class='vertical-center'>(I)</div></div></div>","E","$16","$38","0","16","38","SURE"
"html-keyboard-response","90","121106","0.0-5.0-3.28","63b6cc23f13731158517f900","bdp_rd","Tue Apr 11 2023 01:08:21 GMT-0600 (Mountain Daylight Time)","229813","","null","","","","offerFB","","<div class='trialBorder'><div class='vertical-center'><img style='vertical-align:center; align:center' src=img/fixation3.jpg></div><div class='cl'><div class='vertical-center'><font style='color:orange'>$16<br>for<br>sure</font></div></div><div class='cr'><div class='vertical-center'>$38<br>with a<br>50% chance</div></div><div class='respDivL'><div class='vertical-center'><font style='color:orange'>(E)</font></div></div><div class='respDivR'><div class='vertical-center'>(I)</div></div></div>","null","$16","$38","0","16","38",""
"html-keyboard-response","91","121607","0.0-5.0-1.29","63b6cc23f13731158517f900","bdp_rd","Tue Apr 11 2023 01:08:21 GMT-0600 (Mountain Daylight Time)","229813","","null","","","","FIX","","<div class='trialBorder'><div class='vertical-center'><img style='vertical-align:center; align:center' src=img/fixation3.jpg></div></div>","null","","","","","",""
"html-keyboard-response","92","124192","0.0-5.0-2.29","63b6cc23f13731158517f900","bdp_rd","Tue Apr 11 2023 01:08:21 GMT-0600 (Mountain Daylight Time)","229813","","2585","","","","offer","","<div class='trialBorder'><div class='vertical-center'><img style='vertical-align:center; align:center' src=img/fixation3.jpg></div><div class='cl'><div class='vertical-center'>$89<br>with a<br>50% chance</div></div><div class='cr'><div class='vertical-center'>$28<br>for<br>sure</div></div><div class='respDivL'><div class='vertical-center'>(E)</div></div><div class='respDivR'><div class='vertical-center'>(I)</div></div></div>","E","$28","$89","1","28","89","RISKY"
"html-keyboard-response","93","124443","0.0-5.0-3.29","63b6cc23f13731158517f900","bdp_rd","Tue Apr 11 2023 01:08:21 GMT-0600 (Mountain Daylight Time)","229813","","null","","","","offerFB","","<div class='trialBorder'><div class='vertical-center'><img style='vertical-align:center; align:center' src=img/fixation3.jpg></div><div class='cl'><div class='vertical-center'><font style='color:orange'>$89<br>with a<br>50% chance</font></div></div><div class='cr'><div class='vertical-center'>$28<br>for<br>sure</div></div><div class='respDivL'><div class='vertical-center'><font style='color:orange'>(E)</font></div></div><div class='respDivR'><div class='vertical-center'>(I)</div></div></div>","null","$28","$89","1","28","89",""
"html-keyboard-response","94","124945","0.0-5.0-1.30","63b6cc23f13731158517f900","bdp_rd","Tue Apr 11 2023 01:08:21 GMT-0600 (Mountain Daylight Time)","229813","","null","","","","FIX","","<div class='trialBorder'><div class='vertical-center'><img style='vertical-align:center; align:center' src=img/fixation3.jpg></div></div>","null","","","","","",""
"html-keyboard-response","95","126925","0.0-5.0-2.30","63b6cc23f13731158517f900","bdp_rd","Tue Apr 11 2023 01:08:21 GMT-0600 (Mountain Daylight Time)","229813","","1979","","","","offer","","<div class='trialBorder'><div class='vertical-center'><img style='vertical-align:center; align:center' src=img/fixation3.jpg></div><div class='cl'><div class='vertical-center'>$15<br>for<br>sure</div></div><div class='cr'><div class='vertical-center'>$31<br>with a<br>50% chance</div></div><div class='respDivL'><div class='vertical-center'>(E)</div></div><div class='respDivR'><div class='vertical-center'>(I)</div></div></div>","E","$15","$31","0","15","31","SURE"
"html-keyboard-response","96","127177","0.0-5.0-3.30","63b6cc23f13731158517f900","bdp_rd","Tue Apr 11 2023 01:08:21 GMT-0600 (Mountain Daylight Time)","229813","","null","","","","offerFB","","<div class='trialBorder'><div class='vertical-center'><img style='vertical-align:center; align:center' src=img/fixation3.jpg></div><div class='cl'><div class='vertical-center'><font style='color:orange'>$15<br>for<br>sure</font></div></div><div class='cr'><div class='vertical-center'>$31<br>with a<br>50% chance</div></div><div class='respDivL'><div class='vertical-center'><font style='color:orange'>(E)</font></div></div><div class='respDivR'><div class='vertical-center'>(I)</div></div></div>","null","$15","$31","0","15","31",""
"html-keyboard-response","97","127678","0.0-5.0-1.31","63b6cc23f13731158517f900","bdp_rd","Tue Apr 11 2023 01:08:21 GMT-0600 (Mountain Daylight Time)","229813","","null","","","","FIX","","<div class='trialBorder'><div class='vertical-center'><img style='vertical-align:center; align:center' src=img/fixation3.jpg></div></div>","null","","","","","",""
"html-keyboard-response","98","129394","0.0-5.0-2.31","63b6cc23f13731158517f900","bdp_rd","Tue Apr 11 2023 01:08:21 GMT-0600 (Mountain Daylight Time)","229813","","1715","","","","offer","","<div class='trialBorder'><div class='vertical-center'><img style='vertical-align:center; align:center' src=img/fixation3.jpg></div><div class='cl'><div class='vertical-center'>$22<br>for<br>sure</div></div><div class='cr'><div class='vertical-center'>$42<br>with a<br>50% chance</div></div><div class='respDivL'><div class='vertical-center'>(E)</div></div><div class='respDivR'><div class='vertical-center'>(I)</div></div></div>","E","$22","$42","0","22","42","SURE"
"html-keyboard-response","99","129645","0.0-5.0-3.31","63b6cc23f13731158517f900","bdp_rd","Tue Apr 11 2023 01:08:21 GMT-0600 (Mountain Daylight Time)","229813","","null","","","","offerFB","","<div class='trialBorder'><div class='vertical-center'><img style='vertical-align:center; align:center' src=img/fixation3.jpg></div><div class='cl'><div class='vertical-center'><font style='color:orange'>$22<br>for<br>sure</font></div></div><div class='cr'><div class='vertical-center'>$42<br>with a<br>50% chance</div></div><div class='respDivL'><div class='vertical-center'><font style='color:orange'>(E)</font></div></div><div class='respDivR'><div class='vertical-center'>(I)</div></div></div>","null","$22","$42","0","22","42",""
"html-keyboard-response","100","130146","0.0-5.0-1.32","63b6cc23f13731158517f900","bdp_rd","Tue Apr 11 2023 01:08:21 GMT-0600 (Mountain Daylight Time)","229813","","null","","","","FIX","","<div class='trialBorder'><div class='vertical-center'><img style='vertical-align:center; align:center' src=img/fixation3.jpg></div></div>","null","","","","","",""
"html-keyboard-response","101","131153","0.0-5.0-2.32","63b6cc23f13731158517f900","bdp_rd","Tue Apr 11 2023 01:08:21 GMT-0600 (Mountain Daylight Time)","229813","","1007","","","","offer","","<div class='trialBorder'><div class='vertical-center'><img style='vertical-align:center; align:center' src=img/fixation3.jpg></div><div class='cl'><div class='vertical-center'>$9<br>for<br>sure</div></div><div class='cr'><div class='vertical-center'>$32<br>with a<br>50% chance</div></div><div class='respDivL'><div class='vertical-center'>(E)</div></div><div class='respDivR'><div class='vertical-center'>(I)</div></div></div>","I","$9","$32","0","9","32","RISKY"
"html-keyboard-response","102","131405","0.0-5.0-3.32","63b6cc23f13731158517f900","bdp_rd","Tue Apr 11 2023 01:08:21 GMT-0600 (Mountain Daylight Time)","229813","","null","","","","offerFB","","<div class='trialBorder'><div class='vertical-center'><img style='vertical-align:center; align:center' src=img/fixation3.jpg></div><div class='cl'><div class='vertical-center'>$9<br>for<br>sure</div></div><div class='cr'><div class='vertical-center'><font style='color:orange'>$32<br>with a<br>50% chance</font></div></div><div class='respDivL'><div class='vertical-center'>(E)</div></div><div class='respDivR'><div class='vertical-center'><font style='color:orange'>(I)</font></div></div></div>","null","$9","$32","0","9","32",""
"html-keyboard-response","103","131906","0.0-5.0-1.33","63b6cc23f13731158517f900","bdp_rd","Tue Apr 11 2023 01:08:21 GMT-0600 (Mountain Daylight Time)","229813","","null","","","","FIX","","<div class='trialBorder'><div class='vertical-center'><img style='vertical-align:center; align:center' src=img/fixation3.jpg></div></div>","null","","","","","",""
"html-keyboard-response","104","134545","0.0-5.0-2.33","63b6cc23f13731158517f900","bdp_rd","Tue Apr 11 2023 01:08:21 GMT-0600 (Mountain Daylight Time)","229813","","2638","","","","offer","","<div class='trialBorder'><div class='vertical-center'><img style='vertical-align:center; align:center' src=img/fixation3.jpg></div><div class='cl'><div class='vertical-center'>$7<br>for<br>sure</div></div><div class='cr'><div class='vertical-center'>$10<br>with a<br>50% chance</div></div><div class='respDivL'><div class='vertical-center'>(E)</div></div><div class='respDivR'><div class='vertical-center'>(I)</div></div></div>","E","$7","$10","0","7","10","SURE"
"html-keyboard-response","105","134796","0.0-5.0-3.33","63b6cc23f13731158517f900","bdp_rd","Tue Apr 11 2023 01:08:21 GMT-0600 (Mountain Daylight Time)","229813","","null","","","","offerFB","","<div class='trialBorder'><div class='vertical-center'><img style='vertical-align:center; align:center' src=img/fixation3.jpg></div><div class='cl'><div class='vertical-center'><font style='color:orange'>$7<br>for<br>sure</font></div></div><div class='cr'><div class='vertical-center'>$10<br>with a<br>50% chance</div></div><div class='respDivL'><div class='vertical-center'><font style='color:orange'>(E)</font></div></div><div class='respDivR'><div class='vertical-center'>(I)</div></div></div>","null","$7","$10","0","7","10",""
"html-keyboard-response","106","135297","0.0-5.0-1.34","63b6cc23f13731158517f900","bdp_rd","Tue Apr 11 2023 01:08:21 GMT-0600 (Mountain Daylight Time)","229813","","null","","","","FIX","","<div class='trialBorder'><div class='vertical-center'><img style='vertical-align:center; align:center' src=img/fixation3.jpg></div></div>","null","","","","","",""
"html-keyboard-response","107","138053","0.0-5.0-2.34","63b6cc23f13731158517f900","bdp_rd","Tue Apr 11 2023 01:08:21 GMT-0600 (Mountain Daylight Time)","229813","","2756","","","","offer","","<div class='trialBorder'><div class='vertical-center'><img style='vertical-align:center; align:center' src=img/fixation3.jpg></div><div class='cl'><div class='vertical-center'>$44<br>with a<br>50% chance</div></div><div class='cr'><div class='vertical-center'>$37<br>for<br>sure</div></div><div class='respDivL'><div class='vertical-center'>(E)</div></div><div class='respDivR'><div class='vertical-center'>(I)</div></div></div>","I","$37","$44","1","37","44","SURE"
"html-keyboard-response","108","138305","0.0-5.0-3.34","63b6cc23f13731158517f900","bdp_rd","Tue Apr 11 2023 01:08:21 GMT-0600 (Mountain Daylight Time)","229813","","null","","","","offerFB","","<div class='trialBorder'><div class='vertical-center'><img style='vertical-align:center; align:center' src=img/fixation3.jpg></div><div class='cl'><div class='vertical-center'>$44<br>with a<br>50% chance</div></div><div class='cr'><div class='vertical-center'><font style='color:orange'>$37<br>for<br>sure</font></div></div><div class='respDivL'><div class='vertical-center'>(E)</div></div><div class='respDivR'><div class='vertical-center'><font style='color:orange'>(I)</font></div></div></div>","null","$37","$44","1","37","44",""
"html-keyboard-response","109","138806","0.0-5.0-1.35","63b6cc23f13731158517f900","bdp_rd","Tue Apr 11 2023 01:08:21 GMT-0600 (Mountain Daylight Time)","229813","","null","","","","FIX","","<div class='trialBorder'><div class='vertical-center'><img style='vertical-align:center; align:center' src=img/fixation3.jpg></div></div>","null","","","","","",""
"html-keyboard-response","110","140195","0.0-5.0-2.35","63b6cc23f13731158517f900","bdp_rd","Tue Apr 11 2023 01:08:21 GMT-0600 (Mountain Daylight Time)","229813","","1388","","","","offer","","<div class='trialBorder'><div class='vertical-center'><img style='vertical-align:center; align:center' src=img/fixation3.jpg></div><div class='cl'><div class='vertical-center'>$65<br>with a<br>50% chance</div></div><div class='cr'><div class='vertical-center'>$46<br>for<br>sure</div></div><div class='respDivL'><div class='vertical-center'>(E)</div></div><div class='respDivR'><div class='vertical-center'>(I)</div></div></div>","I","$46","$65","1","46","65","SURE"
"html-keyboard-response","111","140445","0.0-5.0-3.35","63b6cc23f13731158517f900","bdp_rd","Tue Apr 11 2023 01:08:21 GMT-0600 (Mountain Daylight Time)","229813","","null","","","","offerFB","","<div class='trialBorder'><div class='vertical-center'><img style='vertical-align:center; align:center' src=img/fixation3.jpg></div><div class='cl'><div class='vertical-center'>$65<br>with a<br>50% chance</div></div><div class='cr'><div class='vertical-center'><font style='color:orange'>$46<br>for<br>sure</font></div></div><div class='respDivL'><div class='vertical-center'>(E)</div></div><div class='respDivR'><div class='vertical-center'><font style='color:orange'>(I)</font></div></div></div>","null","$46","$65","1","46","65",""
"html-keyboard-response","112","140946","0.0-5.0-1.36","63b6cc23f13731158517f900","bdp_rd","Tue Apr 11 2023 01:08:21 GMT-0600 (Mountain Daylight Time)","229813","","null","","","","FIX","","<div class='trialBorder'><div class='vertical-center'><img style='vertical-align:center; align:center' src=img/fixation3.jpg></div></div>","null","","","","","",""
"html-keyboard-response","113","143967","0.0-5.0-2.36","63b6cc23f13731158517f900","bdp_rd","Tue Apr 11 2023 01:08:21 GMT-0600 (Mountain Daylight Time)","229813","","3020","","","","offer","","<div class='trialBorder'><div class='vertical-center'><img style='vertical-align:center; align:center' src=img/fixation3.jpg></div><div class='cl'><div class='vertical-center'>$37<br>with a<br>50% chance</div></div><div class='cr'><div class='vertical-center'>$20<br>for<br>sure</div></div><div class='respDivL'><div class='vertical-center'>(E)</div></div><div class='respDivR'><div class='vertical-center'>(I)</div></div></div>","I","$20","$37","1","20","37","SURE"
"html-keyboard-response","114","144218","0.0-5.0-3.36","63b6cc23f13731158517f900","bdp_rd","Tue Apr 11 2023 01:08:21 GMT-0600 (Mountain Daylight Time)","229813","","null","","","","offerFB","","<div class='trialBorder'><div class='vertical-center'><img style='vertical-align:center; align:center' src=img/fixation3.jpg></div><div class='cl'><div class='vertical-center'>$37<br>with a<br>50% chance</div></div><div class='cr'><div class='vertical-center'><font style='color:orange'>$20<br>for<br>sure</font></div></div><div class='respDivL'><div class='vertical-center'>(E)</div></div><div class='respDivR'><div class='vertical-center'><font style='color:orange'>(I)</font></div></div></div>","null","$20","$37","1","20","37",""
"html-keyboard-response","115","144719","0.0-5.0-1.37","63b6cc23f13731158517f900","bdp_rd","Tue Apr 11 2023 01:08:21 GMT-0600 (Mountain Daylight Time)","229813","","null","","","","FIX","","<div class='trialBorder'><div class='vertical-center'><img style='vertical-align:center; align:center' src=img/fixation3.jpg></div></div>","null","","","","","",""
"html-keyboard-response","116","146253","0.0-5.0-2.37","63b6cc23f13731158517f900","bdp_rd","Tue Apr 11 2023 01:08:21 GMT-0600 (Mountain Daylight Time)","229813","","1532","","","","offer","","<div class='trialBorder'><div class='vertical-center'><img style='vertical-align:center; align:center' src=img/fixation3.jpg></div><div class='cl'><div class='vertical-center'>$40<br>for<br>sure</div></div><div class='cr'><div class='vertical-center'>$95<br>with a<br>50% chance</div></div><div class='respDivL'><div class='vertical-center'>(E)</div></div><div class='respDivR'><div class='vertical-center'>(I)</div></div></div>","I","$40","$95","0","40","95","RISKY"
"html-keyboard-response","117","146504","0.0-5.0-3.37","63b6cc23f13731158517f900","bdp_rd","Tue Apr 11 2023 01:08:21 GMT-0600 (Mountain Daylight Time)","229813","","null","","","","offerFB","","<div class='trialBorder'><div class='vertical-center'><img style='vertical-align:center; align:center' src=img/fixation3.jpg></div><div class='cl'><div class='vertical-center'>$40<br>for<br>sure</div></div><div class='cr'><div class='vertical-center'><font style='color:orange'>$95<br>with a<br>50% chance</font></div></div><div class='respDivL'><div class='vertical-center'>(E)</div></div><div class='respDivR'><div class='vertical-center'><font style='color:orange'>(I)</font></div></div></div>","null","$40","$95","0","40","95",""
"html-keyboard-response","118","147005","0.0-5.0-1.38","63b6cc23f13731158517f900","bdp_rd","Tue Apr 11 2023 01:08:21 GMT-0600 (Mountain Daylight Time)","229813","","null","","","","FIX","","<div class='trialBorder'><div class='vertical-center'><img style='vertical-align:center; align:center' src=img/fixation3.jpg></div></div>","null","","","","","",""
"html-keyboard-response","119","149250","0.0-5.0-2.38","63b6cc23f13731158517f900","bdp_rd","Tue Apr 11 2023 01:08:21 GMT-0600 (Mountain Daylight Time)","229813","","2245","","","","offer","","<div class='trialBorder'><div class='vertical-center'><img style='vertical-align:center; align:center' src=img/fixation3.jpg></div><div class='cl'><div class='vertical-center'>$54<br>with a<br>50% chance</div></div><div class='cr'><div class='vertical-center'>$25<br>for<br>sure</div></div><div class='respDivL'><div class='vertical-center'>(E)</div></div><div class='respDivR'><div class='vertical-center'>(I)</div></div></div>","I","$25","$54","1","25","54","SURE"
"html-keyboard-response","120","149502","0.0-5.0-3.38","63b6cc23f13731158517f900","bdp_rd","Tue Apr 11 2023 01:08:21 GMT-0600 (Mountain Daylight Time)","229813","","null","","","","offerFB","","<div class='trialBorder'><div class='vertical-center'><img style='vertical-align:center; align:center' src=img/fixation3.jpg></div><div class='cl'><div class='vertical-center'>$54<br>with a<br>50% chance</div></div><div class='cr'><div class='vertical-center'><font style='color:orange'>$25<br>for<br>sure</font></div></div><div class='respDivL'><div class='vertical-center'>(E)</div></div><div class='respDivR'><div class='vertical-center'><font style='color:orange'>(I)</font></div></div></div>","null","$25","$54","1","25","54",""
"html-keyboard-response","121","150002","0.0-5.0-1.39","63b6cc23f13731158517f900","bdp_rd","Tue Apr 11 2023 01:08:21 GMT-0600 (Mountain Daylight Time)","229813","","null","","","","FIX","","<div class='trialBorder'><div class='vertical-center'><img style='vertical-align:center; align:center' src=img/fixation3.jpg></div></div>","null","","","","","",""
"html-keyboard-response","122","153211","0.0-5.0-2.39","63b6cc23f13731158517f900","bdp_rd","Tue Apr 11 2023 01:08:21 GMT-0600 (Mountain Daylight Time)","229813","","3208","","","","offer","","<div class='trialBorder'><div class='vertical-center'><img style='vertical-align:center; align:center' src=img/fixation3.jpg></div><div class='cl'><div class='vertical-center'>$71<br>with a<br>50% chance</div></div><div class='cr'><div class='vertical-center'>$7<br>for<br>sure</div></div><div class='respDivL'><div class='vertical-center'>(E)</div></div><div class='respDivR'><div class='vertical-center'>(I)</div></div></div>","E","$7","$71","1","7","71","RISKY"
"html-keyboard-response","123","153462","0.0-5.0-3.39","63b6cc23f13731158517f900","bdp_rd","Tue Apr 11 2023 01:08:21 GMT-0600 (Mountain Daylight Time)","229813","","null","","","","offerFB","","<div class='trialBorder'><div class='vertical-center'><img style='vertical-align:center; align:center' src=img/fixation3.jpg></div><div class='cl'><div class='vertical-center'><font style='color:orange'>$71<br>with a<br>50% chance</font></div></div><div class='cr'><div class='vertical-center'>$7<br>for<br>sure</div></div><div class='respDivL'><div class='vertical-center'><font style='color:orange'>(E)</font></div></div><div class='respDivR'><div class='vertical-center'>(I)</div></div></div>","null","$7","$71","1","7","71",""
"html-keyboard-response","124","153963","0.0-5.0-1.40","63b6cc23f13731158517f900","bdp_rd","Tue Apr 11 2023 01:08:21 GMT-0600 (Mountain Daylight Time)","229813","","null","","","","FIX","","<div class='trialBorder'><div class='vertical-center'><img style='vertical-align:center; align:center' src=img/fixation3.jpg></div></div>","null","","","","","",""
"html-keyboard-response","125","156144","0.0-5.0-2.40","63b6cc23f13731158517f900","bdp_rd","Tue Apr 11 2023 01:08:21 GMT-0600 (Mountain Daylight Time)","229813","","2179","","","","offer","","<div class='trialBorder'><div class='vertical-center'><img style='vertical-align:center; align:center' src=img/fixation3.jpg></div><div class='cl'><div class='vertical-center'>$64<br>with a<br>50% chance</div></div><div class='cr'><div class='vertical-center'>$2<br>for<br>sure</div></div><div class='respDivL'><div class='vertical-center'>(E)</div></div><div class='respDivR'><div class='vertical-center'>(I)</div></div></div>","E","$2","$64","1","2","64","RISKY"
"html-keyboard-response","126","156395","0.0-5.0-3.40","63b6cc23f13731158517f900","bdp_rd","Tue Apr 11 2023 01:08:21 GMT-0600 (Mountain Daylight Time)","229813","","null","","","","offerFB","","<div class='trialBorder'><div class='vertical-center'><img style='vertical-align:center; align:center' src=img/fixation3.jpg></div><div class='cl'><div class='vertical-center'><font style='color:orange'>$64<br>with a<br>50% chance</font></div></div><div class='cr'><div class='vertical-center'>$2<br>for<br>sure</div></div><div class='respDivL'><div class='vertical-center'><font style='color:orange'>(E)</font></div></div><div class='respDivR'><div class='vertical-center'>(I)</div></div></div>","null","$2","$64","1","2","64",""
"html-keyboard-response","127","156896","0.0-5.0-1.41","63b6cc23f13731158517f900","bdp_rd","Tue Apr 11 2023 01:08:21 GMT-0600 (Mountain Daylight Time)","229813","","null","","","","FIX","","<div class='trialBorder'><div class='vertical-center'><img style='vertical-align:center; align:center' src=img/fixation3.jpg></div></div>","null","","","","","",""
"html-keyboard-response","128","167942","0.0-5.0-2.41","63b6cc23f13731158517f900","bdp_rd","Tue Apr 11 2023 01:08:21 GMT-0600 (Mountain Daylight Time)","229813","","11045","","","","offer","","<div class='trialBorder'><div class='vertical-center'><img style='vertical-align:center; align:center' src=img/fixation3.jpg></div><div class='cl'><div class='vertical-center'>$22<br>for<br>sure</div></div><div class='cr'><div class='vertical-center'>$59<br>with a<br>50% chance</div></div><div class='respDivL'><div class='vertical-center'>(E)</div></div><div class='respDivR'><div class='vertical-center'>(I)</div></div></div>","I","$22","$59","0","22","59","RISKY"
"html-keyboard-response","129","168194","0.0-5.0-3.41","63b6cc23f13731158517f900","bdp_rd","Tue Apr 11 2023 01:08:21 GMT-0600 (Mountain Daylight Time)","229813","","null","","","","offerFB","","<div class='trialBorder'><div class='vertical-center'><img style='vertical-align:center; align:center' src=img/fixation3.jpg></div><div class='cl'><div class='vertical-center'>$22<br>for<br>sure</div></div><div class='cr'><div class='vertical-center'><font style='color:orange'>$59<br>with a<br>50% chance</font></div></div><div class='respDivL'><div class='vertical-center'>(E)</div></div><div class='respDivR'><div class='vertical-center'><font style='color:orange'>(I)</font></div></div></div>","null","$22","$59","0","22","59",""
"html-keyboard-response","130","168695","0.0-5.0-1.42","63b6cc23f13731158517f900","bdp_rd","Tue Apr 11 2023 01:08:21 GMT-0600 (Mountain Daylight Time)","229813","","null","","","","FIX","","<div class='trialBorder'><div class='vertical-center'><img style='vertical-align:center; align:center' src=img/fixation3.jpg></div></div>","null","","","","","",""
"html-keyboard-response","131","171394","0.0-5.0-2.42","63b6cc23f13731158517f900","bdp_rd","Tue Apr 11 2023 01:08:21 GMT-0600 (Mountain Daylight Time)","229813","","2699","","","","offer","","<div class='trialBorder'><div class='vertical-center'><img style='vertical-align:center; align:center' src=img/fixation3.jpg></div><div class='cl'><div class='vertical-center'>$12<br>for<br>sure</div></div><div class='cr'><div class='vertical-center'>$35<br>with a<br>50% chance</div></div><div class='respDivL'><div class='vertical-center'>(E)</div></div><div class='respDivR'><div class='vertical-center'>(I)</div></div></div>","I","$12","$35","0","12","35","RISKY"
"html-keyboard-response","132","171645","0.0-5.0-3.42","63b6cc23f13731158517f900","bdp_rd","Tue Apr 11 2023 01:08:21 GMT-0600 (Mountain Daylight Time)","229813","","null","","","","offerFB","","<div class='trialBorder'><div class='vertical-center'><img style='vertical-align:center; align:center' src=img/fixation3.jpg></div><div class='cl'><div class='vertical-center'>$12<br>for<br>sure</div></div><div class='cr'><div class='vertical-center'><font style='color:orange'>$35<br>with a<br>50% chance</font></div></div><div class='respDivL'><div class='vertical-center'>(E)</div></div><div class='respDivR'><div class='vertical-center'><font style='color:orange'>(I)</font></div></div></div>","null","$12","$35","0","12","35",""
"html-keyboard-response","133","172146","0.0-5.0-1.43","63b6cc23f13731158517f900","bdp_rd","Tue Apr 11 2023 01:08:21 GMT-0600 (Mountain Daylight Time)","229813","","null","","","","FIX","","<div class='trialBorder'><div class='vertical-center'><img style='vertical-align:center; align:center' src=img/fixation3.jpg></div></div>","null","","","","","",""
"html-keyboard-response","134","173963","0.0-5.0-2.43","63b6cc23f13731158517f900","bdp_rd","Tue Apr 11 2023 01:08:21 GMT-0600 (Mountain Daylight Time)","229813","","1816","","","","offer","","<div class='trialBorder'><div class='vertical-center'><img style='vertical-align:center; align:center' src=img/fixation3.jpg></div><div class='cl'><div class='vertical-center'>$30<br>with a<br>50% chance</div></div><div class='cr'><div class='vertical-center'>$1<br>for<br>sure</div></div><div class='respDivL'><div class='vertical-center'>(E)</div></div><div class='respDivR'><div class='vertical-center'>(I)</div></div></div>","E","$1","$30","1","1","30","RISKY"
"html-keyboard-response","135","174215","0.0-5.0-3.43","63b6cc23f13731158517f900","bdp_rd","Tue Apr 11 2023 01:08:21 GMT-0600 (Mountain Daylight Time)","229813","","null","","","","offerFB","","<div class='trialBorder'><div class='vertical-center'><img style='vertical-align:center; align:center' src=img/fixation3.jpg></div><div class='cl'><div class='vertical-center'><font style='color:orange'>$30<br>with a<br>50% chance</font></div></div><div class='cr'><div class='vertical-center'>$1<br>for<br>sure</div></div><div class='respDivL'><div class='vertical-center'><font style='color:orange'>(E)</font></div></div><div class='respDivR'><div class='vertical-center'>(I)</div></div></div>","null","$1","$30","1","1","30",""
"html-keyboard-response","136","174716","0.0-5.0-1.44","63b6cc23f13731158517f900","bdp_rd","Tue Apr 11 2023 01:08:21 GMT-0600 (Mountain Daylight Time)","229813","","null","","","","FIX","","<div class='trialBorder'><div class='vertical-center'><img style='vertical-align:center; align:center' src=img/fixation3.jpg></div></div>","null","","","","","",""
"html-keyboard-response","137","176967","0.0-5.0-2.44","63b6cc23f13731158517f900","bdp_rd","Tue Apr 11 2023 01:08:21 GMT-0600 (Mountain Daylight Time)","229813","","2250","","","","offer","","<div class='trialBorder'><div class='vertical-center'><img style='vertical-align:center; align:center' src=img/fixation3.jpg></div><div class='cl'><div class='vertical-center'>$26<br>with a<br>50% chance</div></div><div class='cr'><div class='vertical-center'>$11<br>for<br>sure</div></div><div class='respDivL'><div class='vertical-center'>(E)</div></div><div class='respDivR'><div class='vertical-center'>(I)</div></div></div>","E","$11","$26","1","11","26","RISKY"
"html-keyboard-response","138","177218","0.0-5.0-3.44","63b6cc23f13731158517f900","bdp_rd","Tue Apr 11 2023 01:08:21 GMT-0600 (Mountain Daylight Time)","229813","","null","","","","offerFB","","<div class='trialBorder'><div class='vertical-center'><img style='vertical-align:center; align:center' src=img/fixation3.jpg></div><div class='cl'><div class='vertical-center'><font style='color:orange'>$26<br>with a<br>50% chance</font></div></div><div class='cr'><div class='vertical-center'>$11<br>for<br>sure</div></div><div class='respDivL'><div class='vertical-center'><font style='color:orange'>(E)</font></div></div><div class='respDivR'><div class='vertical-center'>(I)</div></div></div>","null","$11","$26","1","11","26",""
"html-keyboard-response","139","177719","0.0-5.0-1.45","63b6cc23f13731158517f900","bdp_rd","Tue Apr 11 2023 01:08:21 GMT-0600 (Mountain Daylight Time)","229813","","null","","","","FIX","","<div class='trialBorder'><div class='vertical-center'><img style='vertical-align:center; align:center' src=img/fixation3.jpg></div></div>","null","","","","","",""
"html-keyboard-response","140","179665","0.0-5.0-2.45","63b6cc23f13731158517f900","bdp_rd","Tue Apr 11 2023 01:08:21 GMT-0600 (Mountain Daylight Time)","229813","","1946","","","","offer","","<div class='trialBorder'><div class='vertical-center'><img style='vertical-align:center; align:center' src=img/fixation3.jpg></div><div class='cl'><div class='vertical-center'>$9<br>for<br>sure</div></div><div class='cr'><div class='vertical-center'>$18<br>with a<br>50% chance</div></div><div class='respDivL'><div class='vertical-center'>(E)</div></div><div class='respDivR'><div class='vertical-center'>(I)</div></div></div>","E","$9","$18","0","9","18","SURE"
"html-keyboard-response","141","179916","0.0-5.0-3.45","63b6cc23f13731158517f900","bdp_rd","Tue Apr 11 2023 01:08:21 GMT-0600 (Mountain Daylight Time)","229813","","null","","","","offerFB","","<div class='trialBorder'><div class='vertical-center'><img style='vertical-align:center; align:center' src=img/fixation3.jpg></div><div class='cl'><div class='vertical-center'><font style='color:orange'>$9<br>for<br>sure</font></div></div><div class='cr'><div class='vertical-center'>$18<br>with a<br>50% chance</div></div><div class='respDivL'><div class='vertical-center'><font style='color:orange'>(E)</font></div></div><div class='respDivR'><div class='vertical-center'>(I)</div></div></div>","null","$9","$18","0","9","18",""
"html-keyboard-response","142","180417","0.0-5.0-1.46","63b6cc23f13731158517f900","bdp_rd","Tue Apr 11 2023 01:08:21 GMT-0600 (Mountain Daylight Time)","229813","","null","","","","FIX","","<div class='trialBorder'><div class='vertical-center'><img style='vertical-align:center; align:center' src=img/fixation3.jpg></div></div>","null","","","","","",""
"html-keyboard-response","143","184039","0.0-5.0-2.46","63b6cc23f13731158517f900","bdp_rd","Tue Apr 11 2023 01:08:21 GMT-0600 (Mountain Daylight Time)","229813","","3621","","","","offer","","<div class='trialBorder'><div class='vertical-center'><img style='vertical-align:center; align:center' src=img/fixation3.jpg></div><div class='cl'><div class='vertical-center'>$12<br>for<br>sure</div></div><div class='cr'><div class='vertical-center'>$27<br>with a<br>50% chance</div></div><div class='respDivL'><div class='vertical-center'>(E)</div></div><div class='respDivR'><div class='vertical-center'>(I)</div></div></div>","E","$12","$27","0","12","27","SURE"
"html-keyboard-response","144","184290","0.0-5.0-3.46","63b6cc23f13731158517f900","bdp_rd","Tue Apr 11 2023 01:08:21 GMT-0600 (Mountain Daylight Time)","229813","","null","","","","offerFB","","<div class='trialBorder'><div class='vertical-center'><img style='vertical-align:center; align:center' src=img/fixation3.jpg></div><div class='cl'><div class='vertical-center'><font style='color:orange'>$12<br>for<br>sure</font></div></div><div class='cr'><div class='vertical-center'>$27<br>with a<br>50% chance</div></div><div class='respDivL'><div class='vertical-center'><font style='color:orange'>(E)</font></div></div><div class='respDivR'><div class='vertical-center'>(I)</div></div></div>","null","$12","$27","0","12","27",""
"html-keyboard-response","145","184791","0.0-5.0-1.47","63b6cc23f13731158517f900","bdp_rd","Tue Apr 11 2023 01:08:21 GMT-0600 (Mountain Daylight Time)","229813","","null","","","","FIX","","<div class='trialBorder'><div class='vertical-center'><img style='vertical-align:center; align:center' src=img/fixation3.jpg></div></div>","null","","","","","",""
"html-keyboard-response","146","187559","0.0-5.0-2.47","63b6cc23f13731158517f900","bdp_rd","Tue Apr 11 2023 01:08:21 GMT-0600 (Mountain Daylight Time)","229813","","2767","","","","offer","","<div class='trialBorder'><div class='vertical-center'><img style='vertical-align:center; align:center' src=img/fixation3.jpg></div><div class='cl'><div class='vertical-center'>$13<br>with a<br>50% chance</div></div><div class='cr'><div class='vertical-center'>$6<br>for<br>sure</div></div><div class='respDivL'><div class='vertical-center'>(E)</div></div><div class='respDivR'><div class='vertical-center'>(I)</div></div></div>","E","$6","$13","1","6","13","RISKY"
"html-keyboard-response","147","187810","0.0-5.0-3.47","63b6cc23f13731158517f900","bdp_rd","Tue Apr 11 2023 01:08:21 GMT-0600 (Mountain Daylight Time)","229813","","null","","","","offerFB","","<div class='trialBorder'><div class='vertical-center'><img style='vertical-align:center; align:center' src=img/fixation3.jpg></div><div class='cl'><div class='vertical-center'><font style='color:orange'>$13<br>with a<br>50% chance</font></div></div><div class='cr'><div class='vertical-center'>$6<br>for<br>sure</div></div><div class='respDivL'><div class='vertical-center'><font style='color:orange'>(E)</font></div></div><div class='respDivR'><div class='vertical-center'>(I)</div></div></div>","null","$6","$13","1","6","13",""
"html-keyboard-response","148","188311","0.0-5.0-1.48","63b6cc23f13731158517f900","bdp_rd","Tue Apr 11 2023 01:08:21 GMT-0600 (Mountain Daylight Time)","229813","","null","","","","FIX","","<div class='trialBorder'><div class='vertical-center'><img style='vertical-align:center; align:center' src=img/fixation3.jpg></div></div>","null","","","","","",""
"html-keyboard-response","149","190241","0.0-5.0-2.48","63b6cc23f13731158517f900","bdp_rd","Tue Apr 11 2023 01:08:21 GMT-0600 (Mountain Daylight Time)","229813","","1929","","","","offer","","<div class='trialBorder'><div class='vertical-center'><img style='vertical-align:center; align:center' src=img/fixation3.jpg></div><div class='cl'><div class='vertical-center'>$80<br>with a<br>50% chance</div></div><div class='cr'><div class='vertical-center'>$20<br>for<br>sure</div></div><div class='respDivL'><div class='vertical-center'>(E)</div></div><div class='respDivR'><div class='vertical-center'>(I)</div></div></div>","E","$20","$80","1","20","80","RISKY"
"html-keyboard-response","150","190493","0.0-5.0-3.48","63b6cc23f13731158517f900","bdp_rd","Tue Apr 11 2023 01:08:21 GMT-0600 (Mountain Daylight Time)","229813","","null","","","","offerFB","","<div class='trialBorder'><div class='vertical-center'><img style='vertical-align:center; align:center' src=img/fixation3.jpg></div><div class='cl'><div class='vertical-center'><font style='color:orange'>$80<br>with a<br>50% chance</font></div></div><div class='cr'><div class='vertical-center'>$20<br>for<br>sure</div></div><div class='respDivL'><div class='vertical-center'><font style='color:orange'>(E)</font></div></div><div class='respDivR'><div class='vertical-center'>(I)</div></div></div>","null","$20","$80","1","20","80",""
"html-keyboard-response","151","190994","0.0-5.0-1.49","63b6cc23f13731158517f900","bdp_rd","Tue Apr 11 2023 01:08:21 GMT-0600 (Mountain Daylight Time)","229813","","null","","","","FIX","","<div class='trialBorder'><div class='vertical-center'><img style='vertical-align:center; align:center' src=img/fixation3.jpg></div></div>","null","","","","","",""
"html-keyboard-response","152","193337","0.0-5.0-2.49","63b6cc23f13731158517f900","bdp_rd","Tue Apr 11 2023 01:08:21 GMT-0600 (Mountain Daylight Time)","229813","","2343","","","","offer","","<div class='trialBorder'><div class='vertical-center'><img style='vertical-align:center; align:center' src=img/fixation3.jpg></div><div class='cl'><div class='vertical-center'>$14<br>with a<br>50% chance</div></div><div class='cr'><div class='vertical-center'>$4<br>for<br>sure</div></div><div class='respDivL'><div class='vertical-center'>(E)</div></div><div class='respDivR'><div class='vertical-center'>(I)</div></div></div>","E","$4","$14","1","4","14","RISKY"
"html-keyboard-response","153","193588","0.0-5.0-3.49","63b6cc23f13731158517f900","bdp_rd","Tue Apr 11 2023 01:08:21 GMT-0600 (Mountain Daylight Time)","229813","","null","","","","offerFB","","<div class='trialBorder'><div class='vertical-center'><img style='vertical-align:center; align:center' src=img/fixation3.jpg></div><div class='cl'><div class='vertical-center'><font style='color:orange'>$14<br>with a<br>50% chance</font></div></div><div class='cr'><div class='vertical-center'>$4<br>for<br>sure</div></div><div class='respDivL'><div class='vertical-center'><font style='color:orange'>(E)</font></div></div><div class='respDivR'><div class='vertical-center'>(I)</div></div></div>","null","$4","$14","1","4","14",""
"html-keyboard-response","154","194090","0.0-5.0-1.50","63b6cc23f13731158517f900","bdp_rd","Tue Apr 11 2023 01:08:21 GMT-0600 (Mountain Daylight Time)","229813","","null","","","","FIX","","<div class='trialBorder'><div class='vertical-center'><img style='vertical-align:center; align:center' src=img/fixation3.jpg></div></div>","null","","","","","",""
"html-keyboard-response","155","196567","0.0-5.0-2.50","63b6cc23f13731158517f900","bdp_rd","Tue Apr 11 2023 01:08:21 GMT-0600 (Mountain Daylight Time)","229813","","2477","","","","offer","","<div class='trialBorder'><div class='vertical-center'><img style='vertical-align:center; align:center' src=img/fixation3.jpg></div><div class='cl'><div class='vertical-center'>$14<br>for<br>sure</div></div><div class='cr'><div class='vertical-center'>$22<br>with a<br>50% chance</div></div><div class='respDivL'><div class='vertical-center'>(E)</div></div><div class='respDivR'><div class='vertical-center'>(I)</div></div></div>","E","$14","$22","0","14","22","SURE"
"html-keyboard-response","156","196818","0.0-5.0-3.50","63b6cc23f13731158517f900","bdp_rd","Tue Apr 11 2023 01:08:21 GMT-0600 (Mountain Daylight Time)","229813","","null","","","","offerFB","","<div class='trialBorder'><div class='vertical-center'><img style='vertical-align:center; align:center' src=img/fixation3.jpg></div><div class='cl'><div class='vertical-center'><font style='color:orange'>$14<br>for<br>sure</font></div></div><div class='cr'><div class='vertical-center'>$22<br>with a<br>50% chance</div></div><div class='respDivL'><div class='vertical-center'><font style='color:orange'>(E)</font></div></div><div class='respDivR'><div class='vertical-center'>(I)</div></div></div>","null","$14","$22","0","14","22",""
"html-keyboard-response","157","197319","0.0-5.0-1.51","63b6cc23f13731158517f900","bdp_rd","Tue Apr 11 2023 01:08:21 GMT-0600 (Mountain Daylight Time)","229813","","null","","","","FIX","","<div class='trialBorder'><div class='vertical-center'><img style='vertical-align:center; align:center' src=img/fixation3.jpg></div></div>","null","","","","","",""
"html-keyboard-response","158","201093","0.0-5.0-2.51","63b6cc23f13731158517f900","bdp_rd","Tue Apr 11 2023 01:08:21 GMT-0600 (Mountain Daylight Time)","229813","","3773","","","","offer","","<div class='trialBorder'><div class='vertical-center'><img style='vertical-align:center; align:center' src=img/fixation3.jpg></div><div class='cl'><div class='vertical-center'>$45<br>for<br>sure</div></div><div class='cr'><div class='vertical-center'>$86<br>with a<br>50% chance</div></div><div class='respDivL'><div class='vertical-center'>(E)</div></div><div class='respDivR'><div class='vertical-center'>(I)</div></div></div>","I","$45","$86","0","45","86","RISKY"
"html-keyboard-response","159","201344","0.0-5.0-3.51","63b6cc23f13731158517f900","bdp_rd","Tue Apr 11 2023 01:08:21 GMT-0600 (Mountain Daylight Time)","229813","","null","","","","offerFB","","<div class='trialBorder'><div class='vertical-center'><img style='vertical-align:center; align:center' src=img/fixation3.jpg></div><div class='cl'><div class='vertical-center'>$45<br>for<br>sure</div></div><div class='cr'><div class='vertical-center'><font style='color:orange'>$86<br>with a<br>50% chance</font></div></div><div class='respDivL'><div class='vertical-center'>(E)</div></div><div class='respDivR'><div class='vertical-center'><font style='color:orange'>(I)</font></div></div></div>","null","$45","$86","0","45","86",""
"html-keyboard-response","160","201845","0.0-5.0-1.52","63b6cc23f13731158517f900","bdp_rd","Tue Apr 11 2023 01:08:21 GMT-0600 (Mountain Daylight Time)","229813","","null","","","","FIX","","<div class='trialBorder'><div class='vertical-center'><img style='vertical-align:center; align:center' src=img/fixation3.jpg></div></div>","null","","","","","",""
"html-keyboard-response","161","204121","0.0-5.0-2.52","63b6cc23f13731158517f900","bdp_rd","Tue Apr 11 2023 01:08:21 GMT-0600 (Mountain Daylight Time)","229813","","2274","","","","offer","","<div class='trialBorder'><div class='vertical-center'><img style='vertical-align:center; align:center' src=img/fixation3.jpg></div><div class='cl'><div class='vertical-center'>$5<br>for<br>sure</div></div><div class='cr'><div class='vertical-center'>$16<br>with a<br>50% chance</div></div><div class='respDivL'><div class='vertical-center'>(E)</div></div><div class='respDivR'><div class='vertical-center'>(I)</div></div></div>","I","$5","$16","0","5","16","RISKY"
"html-keyboard-response","162","204378","0.0-5.0-3.52","63b6cc23f13731158517f900","bdp_rd","Tue Apr 11 2023 01:08:21 GMT-0600 (Mountain Daylight Time)","229813","","null","","","","offerFB","","<div class='trialBorder'><div class='vertical-center'><img style='vertical-align:center; align:center' src=img/fixation3.jpg></div><div class='cl'><div class='vertical-center'>$5<br>for<br>sure</div></div><div class='cr'><div class='vertical-center'><font style='color:orange'>$16<br>with a<br>50% chance</font></div></div><div class='respDivL'><div class='vertical-center'>(E)</div></div><div class='respDivR'><div class='vertical-center'><font style='color:orange'>(I)</font></div></div></div>","null","$5","$16","0","5","16",""
"html-keyboard-response","163","204879","0.0-5.0-1.53","63b6cc23f13731158517f900","bdp_rd","Tue Apr 11 2023 01:08:21 GMT-0600 (Mountain Daylight Time)","229813","","null","","","","FIX","","<div class='trialBorder'><div class='vertical-center'><img style='vertical-align:center; align:center' src=img/fixation3.jpg></div></div>","null","","","","","",""
"html-keyboard-response","164","207762","0.0-5.0-2.53","63b6cc23f13731158517f900","bdp_rd","Tue Apr 11 2023 01:08:21 GMT-0600 (Mountain Daylight Time)","229813","","2883","","","","offer","","<div class='trialBorder'><div class='vertical-center'><img style='vertical-align:center; align:center' src=img/fixation3.jpg></div><div class='cl'><div class='vertical-center'>$13<br>for<br>sure</div></div><div class='cr'><div class='vertical-center'>$41<br>with a<br>50% chance</div></div><div class='respDivL'><div class='vertical-center'>(E)</div></div><div class='respDivR'><div class='vertical-center'>(I)</div></div></div>","I","$13","$41","0","13","41","RISKY"
"html-keyboard-response","165","208013","0.0-5.0-3.53","63b6cc23f13731158517f900","bdp_rd","Tue Apr 11 2023 01:08:21 GMT-0600 (Mountain Daylight Time)","229813","","null","","","","offerFB","","<div class='trialBorder'><div class='vertical-center'><img style='vertical-align:center; align:center' src=img/fixation3.jpg></div><div class='cl'><div class='vertical-center'>$13<br>for<br>sure</div></div><div class='cr'><div class='vertical-center'><font style='color:orange'>$41<br>with a<br>50% chance</font></div></div><div class='respDivL'><div class='vertical-center'>(E)</div></div><div class='respDivR'><div class='vertical-center'><font style='color:orange'>(I)</font></div></div></div>","null","$13","$41","0","13","41",""
"html-keyboard-response","166","208514","0.0-5.0-1.54","63b6cc23f13731158517f900","bdp_rd","Tue Apr 11 2023 01:08:21 GMT-0600 (Mountain Daylight Time)","229813","","null","","","","FIX","","<div class='trialBorder'><div class='vertical-center'><img style='vertical-align:center; align:center' src=img/fixation3.jpg></div></div>","null","","","","","",""
"html-keyboard-response","167","211290","0.0-5.0-2.54","63b6cc23f13731158517f900","bdp_rd","Tue Apr 11 2023 01:08:21 GMT-0600 (Mountain Daylight Time)","229813","","2776","","","","offer","","<div class='trialBorder'><div class='vertical-center'><img style='vertical-align:center; align:center' src=img/fixation3.jpg></div><div class='cl'><div class='vertical-center'>$28<br>with a<br>50% chance</div></div><div class='cr'><div class='vertical-center'>$16<br>for<br>sure</div></div><div class='respDivL'><div class='vertical-center'>(E)</div></div><div class='respDivR'><div class='vertical-center'>(I)</div></div></div>","E","$16","$28","1","16","28","RISKY"
"html-keyboard-response","168","211541","0.0-5.0-3.54","63b6cc23f13731158517f900","bdp_rd","Tue Apr 11 2023 01:08:21 GMT-0600 (Mountain Daylight Time)","229813","","null","","","","offerFB","","<div class='trialBorder'><div class='vertical-center'><img style='vertical-align:center; align:center' src=img/fixation3.jpg></div><div class='cl'><div class='vertical-center'><font style='color:orange'>$28<br>with a<br>50% chance</font></div></div><div class='cr'><div class='vertical-center'>$16<br>for<br>sure</div></div><div class='respDivL'><div class='vertical-center'><font style='color:orange'>(E)</font></div></div><div class='respDivR'><div class='vertical-center'>(I)</div></div></div>","null","$16","$28","1","16","28",""
"html-keyboard-response","169","212042","0.0-5.0-1.55","63b6cc23f13731158517f900","bdp_rd","Tue Apr 11 2023 01:08:21 GMT-0600 (Mountain Daylight Time)","229813","","null","","","","FIX","","<div class='trialBorder'><div class='vertical-center'><img style='vertical-align:center; align:center' src=img/fixation3.jpg></div></div>","null","","","","","",""
"html-keyboard-response","170","215062","0.0-5.0-2.55","63b6cc23f13731158517f900","bdp_rd","Tue Apr 11 2023 01:08:21 GMT-0600 (Mountain Daylight Time)","229813","","3019","","","","offer","","<div class='trialBorder'><div class='vertical-center'><img style='vertical-align:center; align:center' src=img/fixation3.jpg></div><div class='cl'><div class='vertical-center'>$24<br>for<br>sure</div></div><div class='cr'><div class='vertical-center'>$70<br>with a<br>50% chance</div></div><div class='respDivL'><div class='vertical-center'>(E)</div></div><div class='respDivR'><div class='vertical-center'>(I)</div></div></div>","I","$24","$70","0","24","70","RISKY"
"html-keyboard-response","171","215320","0.0-5.0-3.55","63b6cc23f13731158517f900","bdp_rd","Tue Apr 11 2023 01:08:21 GMT-0600 (Mountain Daylight Time)","229813","","null","","","","offerFB","","<div class='trialBorder'><div class='vertical-center'><img style='vertical-align:center; align:center' src=img/fixation3.jpg></div><div class='cl'><div class='vertical-center'>$24<br>for<br>sure</div></div><div class='cr'><div class='vertical-center'><font style='color:orange'>$70<br>with a<br>50% chance</font></div></div><div class='respDivL'><div class='vertical-center'>(E)</div></div><div class='respDivR'><div class='vertical-center'><font style='color:orange'>(I)</font></div></div></div>","null","$24","$70","0","24","70",""
"html-keyboard-response","172","215821","0.0-5.0-1.56","63b6cc23f13731158517f900","bdp_rd","Tue Apr 11 2023 01:08:21 GMT-0600 (Mountain Daylight Time)","229813","","null","","","","FIX","","<div class='trialBorder'><div class='vertical-center'><img style='vertical-align:center; align:center' src=img/fixation3.jpg></div></div>","null","","","","","",""
"html-keyboard-response","173","219857","0.0-5.0-2.56","63b6cc23f13731158517f900","bdp_rd","Tue Apr 11 2023 01:08:21 GMT-0600 (Mountain Daylight Time)","229813","","4035","","","","offer","","<div class='trialBorder'><div class='vertical-center'><img style='vertical-align:center; align:center' src=img/fixation3.jpg></div><div class='cl'><div class='vertical-center'>$15<br>for<br>sure</div></div><div class='cr'><div class='vertical-center'>$34<br>with a<br>50% chance</div></div><div class='respDivL'><div class='vertical-center'>(E)</div></div><div class='respDivR'><div class='vertical-center'>(I)</div></div></div>","I","$15","$34","0","15","34","RISKY"
