"trial_type","trial_index","time_elapsed","internal_node_id","subject_id","task","startTime","totalTime","view_history","rt","event","trial","time","trialtype","success","stimulus","key_press","sureOffer","riskyOffer","riskyLeft","sureAmt","riskyAmt","chosen"
"pavlovia","0","32","0.0-0.0","5c2a9b55867f660001af0515","bdp_rd","Sat Mar 25 2023 22:35:55 GMT-0400 (Eastern Daylight Time)","114628","","","","","","","","","","","","","","",""
"instructions","1","1557","0.0-1.0","5c2a9b55867f660001af0515","bdp_rd","Sat Mar 25 2023 22:35:55 GMT-0400 (Eastern Daylight Time)","114628","[{""page_index"":0,""viewing_time"":1525}]","1525","","","","","","","","","","","","",""
"","","","","5c2a9b55867f660001af0515","bdp_rd","Sat Mar 25 2023 22:35:55 GMT-0400 (Eastern Daylight Time)","114628","","","fullscreenenter","2","3448","fullscreenenter","","","","","","","","",""
"fullscreen","2","4416","0.0-2.0","5c2a9b55867f660001af0515","bdp_rd","Sat Mar 25 2023 22:35:55 GMT-0400 (Eastern Daylight Time)","114628","","","","","","","true","","","","","","","",""
"instructions","3","15302","0.0-4.0","5c2a9b55867f660001af0515","bdp_rd","Sat Mar 25 2023 22:35:55 GMT-0400 (Eastern Daylight Time)","114628","[{""page_index"":0,""viewing_time"":5355},{""page_index"":1,""viewing_time"":3700},{""page_index"":2,""viewing_time"":1828}]","10884","","","","","","","","","","","","",""
"html-keyboard-response","4","15806","0.0-5.0-1.0","5c2a9b55867f660001af0515","bdp_rd","Sat Mar 25 2023 22:35:55 GMT-0400 (Eastern Daylight Time)","114628","","null","","","","FIX","","<div class='trialBorder'><div class='vertical-center'><img style='vertical-align:center; align:center' src=img/fixation3.jpg></div></div>","null","","","","","",""
"html-keyboard-response","5","18410","0.0-5.0-2.0","5c2a9b55867f660001af0515","bdp_rd","Sat Mar 25 2023 22:35:55 GMT-0400 (Eastern Daylight Time)","114628","","2599","","","","offer","","<div class='trialBorder'><div class='vertical-center'><img style='vertical-align:center; align:center' src=img/fixation3.jpg></div><div class='cl'><div class='vertical-center'>$46<br>with a<br>50% chance</div></div><div class='cr'><div class='vertical-center'>$29<br>for<br>sure</div></div><div class='respDivL'><div class='vertical-center'>(E)</div></div><div class='respDivR'><div class='vertical-center'>(I)</div></div></div>","I","$29","$46","1","29","46","SURE"
"html-keyboard-response","6","18665","0.0-5.0-3.0","5c2a9b55867f660001af0515","bdp_rd","Sat Mar 25 2023 22:35:55 GMT-0400 (Eastern Daylight Time)","114628","","null","","","","offerFB","","<div class='trialBorder'><div class='vertical-center'><img style='vertical-align:center; align:center' src=img/fixation3.jpg></div><div class='cl'><div class='vertical-center'>$46<br>with a<br>50% chance</div></div><div class='cr'><div class='vertical-center'><font style='color:orange'>$29<br>for<br>sure</font></div></div><div class='respDivL'><div class='vertical-center'>(E)</div></div><div class='respDivR'><div class='vertical-center'><font style='color:orange'>(I)</font></div></div></div>","null","$29","$46","1","29","46",""
"html-keyboard-response","7","19167","0.0-5.0-1.1","5c2a9b55867f660001af0515","bdp_rd","Sat Mar 25 2023 22:35:55 GMT-0400 (Eastern Daylight Time)","114628","","null","","","","FIX","","<div class='trialBorder'><div class='vertical-center'><img style='vertical-align:center; align:center' src=img/fixation3.jpg></div></div>","null","","","","","",""
"html-keyboard-response","8","21312","0.0-5.0-2.1","5c2a9b55867f660001af0515","bdp_rd","Sat Mar 25 2023 22:35:55 GMT-0400 (Eastern Daylight Time)","114628","","2144","","","","offer","","<div class='trialBorder'><div class='vertical-center'><img style='vertical-align:center; align:center' src=img/fixation3.jpg></div><div class='cl'><div class='vertical-center'>$28<br>for<br>sure</div></div><div class='cr'><div class='vertical-center'>$89<br>with a<br>50% chance</div></div><div class='respDivL'><div class='vertical-center'>(E)</div></div><div class='respDivR'><div class='vertical-center'>(I)</div></div></div>","E","$28","$89","0","28","89","SURE"
"html-keyboard-response","9","21565","0.0-5.0-3.1","5c2a9b55867f660001af0515","bdp_rd","Sat Mar 25 2023 22:35:55 GMT-0400 (Eastern Daylight Time)","114628","","null","","","","offerFB","","<div class='trialBorder'><div class='vertical-center'><img style='vertical-align:center; align:center' src=img/fixation3.jpg></div><div class='cl'><div class='vertical-center'><font style='color:orange'>$28<br>for<br>sure</font></div></div><div class='cr'><div class='vertical-center'>$89<br>with a<br>50% chance</div></div><div class='respDivL'><div class='vertical-center'><font style='color:orange'>(E)</font></div></div><div class='respDivR'><div class='vertical-center'>(I)</div></div></div>","null","$28","$89","0","28","89",""
"html-keyboard-response","10","22067","0.0-5.0-1.2","5c2a9b55867f660001af0515","bdp_rd","Sat Mar 25 2023 22:35:55 GMT-0400 (Eastern Daylight Time)","114628","","null","","","","FIX","","<div class='trialBorder'><div class='vertical-center'><img style='vertical-align:center; align:center' src=img/fixation3.jpg></div></div>","null","","","","","",""
"html-keyboard-response","11","24525","0.0-5.0-2.2","5c2a9b55867f660001af0515","bdp_rd","Sat Mar 25 2023 22:35:55 GMT-0400 (Eastern Daylight Time)","114628","","2456","","","","offer","","<div class='trialBorder'><div class='vertical-center'><img style='vertical-align:center; align:center' src=img/fixation3.jpg></div><div class='cl'><div class='vertical-center'>$62<br>with a<br>50% chance</div></div><div class='cr'><div class='vertical-center'>$11<br>for<br>sure</div></div><div class='respDivL'><div class='vertical-center'>(E)</div></div><div class='respDivR'><div class='vertical-center'>(I)</div></div></div>","I","$11","$62","1","11","62","SURE"
"html-keyboard-response","12","24777","0.0-5.0-3.2","5c2a9b55867f660001af0515","bdp_rd","Sat Mar 25 2023 22:35:55 GMT-0400 (Eastern Daylight Time)","114628","","null","","","","offerFB","","<div class='trialBorder'><div class='vertical-center'><img style='vertical-align:center; align:center' src=img/fixation3.jpg></div><div class='cl'><div class='vertical-center'>$62<br>with a<br>50% chance</div></div><div class='cr'><div class='vertical-center'><font style='color:orange'>$11<br>for<br>sure</font></div></div><div class='respDivL'><div class='vertical-center'>(E)</div></div><div class='respDivR'><div class='vertical-center'><font style='color:orange'>(I)</font></div></div></div>","null","$11","$62","1","11","62",""
"html-keyboard-response","13","25279","0.0-5.0-1.3","5c2a9b55867f660001af0515","bdp_rd","Sat Mar 25 2023 22:35:55 GMT-0400 (Eastern Daylight Time)","114628","","null","","","","FIX","","<div class='trialBorder'><div class='vertical-center'><img style='vertical-align:center; align:center' src=img/fixation3.jpg></div></div>","null","","","","","",""
"html-keyboard-response","14","26901","0.0-5.0-2.3","5c2a9b55867f660001af0515","bdp_rd","Sat Mar 25 2023 22:35:55 GMT-0400 (Eastern Daylight Time)","114628","","1621","","","","offer","","<div class='trialBorder'><div class='vertical-center'><img style='vertical-align:center; align:center' src=img/fixation3.jpg></div><div class='cl'><div class='vertical-center'>$48<br>with a<br>50% chance</div></div><div class='cr'><div class='vertical-center'>$34<br>for<br>sure</div></div><div class='respDivL'><div class='vertical-center'>(E)</div></div><div class='respDivR'><div class='vertical-center'>(I)</div></div></div>","I","$34","$48","1","34","48","SURE"
"html-keyboard-response","15","27153","0.0-5.0-3.3","5c2a9b55867f660001af0515","bdp_rd","Sat Mar 25 2023 22:35:55 GMT-0400 (Eastern Daylight Time)","114628","","null","","","","offerFB","","<div class='trialBorder'><div class='vertical-center'><img style='vertical-align:center; align:center' src=img/fixation3.jpg></div><div class='cl'><div class='vertical-center'>$48<br>with a<br>50% chance</div></div><div class='cr'><div class='vertical-center'><font style='color:orange'>$34<br>for<br>sure</font></div></div><div class='respDivL'><div class='vertical-center'>(E)</div></div><div class='respDivR'><div class='vertical-center'><font style='color:orange'>(I)</font></div></div></div>","null","$34","$48","1","34","48",""
"html-keyboard-response","16","27655","0.0-5.0-1.4","5c2a9b55867f660001af0515","bdp_rd","Sat Mar 25 2023 22:35:55 GMT-0400 (Eastern Daylight Time)","114628","","null","","","","FIX","","<div class='trialBorder'><div class='vertical-center'><img style='vertical-align:center; align:center' src=img/fixation3.jpg></div></div>","null","","","","","",""
"html-keyboard-response","17","29823","0.0-5.0-2.4","5c2a9b55867f660001af0515","bdp_rd","Sat Mar 25 2023 22:35:55 GMT-0400 (Eastern Daylight Time)","114628","","2167","","","","offer","","<div class='trialBorder'><div class='vertical-center'><img style='vertical-align:center; align:center' src=img/fixation3.jpg></div><div class='cl'><div class='vertical-center'>$9<br>for<br>sure</div></div><div class='cr'><div class='vertical-center'>$18<br>with a<br>50% chance</div></div><div class='respDivL'><div class='vertical-center'>(E)</div></div><div class='respDivR'><div class='vertical-center'>(I)</div></div></div>","I","$9","$18","0","9","18","RISKY"
"html-keyboard-response","18","30077","0.0-5.0-3.4","5c2a9b55867f660001af0515","bdp_rd","Sat Mar 25 2023 22:35:55 GMT-0400 (Eastern Daylight Time)","114628","","null","","","","offerFB","","<div class='trialBorder'><div class='vertical-center'><img style='vertical-align:center; align:center' src=img/fixation3.jpg></div><div class='cl'><div class='vertical-center'>$9<br>for<br>sure</div></div><div class='cr'><div class='vertical-center'><font style='color:orange'>$18<br>with a<br>50% chance</font></div></div><div class='respDivL'><div class='vertical-center'>(E)</div></div><div class='respDivR'><div class='vertical-center'><font style='color:orange'>(I)</font></div></div></div>","null","$9","$18","0","9","18",""
"html-keyboard-response","19","30578","0.0-5.0-1.5","5c2a9b55867f660001af0515","bdp_rd","Sat Mar 25 2023 22:35:55 GMT-0400 (Eastern Daylight Time)","114628","","null","","","","FIX","","<div class='trialBorder'><div class='vertical-center'><img style='vertical-align:center; align:center' src=img/fixation3.jpg></div></div>","null","","","","","",""
"html-keyboard-response","20","33167","0.0-5.0-2.5","5c2a9b55867f660001af0515","bdp_rd","Sat Mar 25 2023 22:35:55 GMT-0400 (Eastern Daylight Time)","114628","","2586","","","","offer","","<div class='trialBorder'><div class='vertical-center'><img style='vertical-align:center; align:center' src=img/fixation3.jpg></div><div class='cl'><div class='vertical-center'>$45<br>with a<br>50% chance</div></div><div class='cr'><div class='vertical-center'>$8<br>for<br>sure</div></div><div class='respDivL'><div class='vertical-center'>(E)</div></div><div class='respDivR'><div class='vertical-center'>(I)</div></div></div>","I","$8","$45","1","8","45","SURE"
"html-keyboard-response","21","33419","0.0-5.0-3.5","5c2a9b55867f660001af0515","bdp_rd","Sat Mar 25 2023 22:35:55 GMT-0400 (Eastern Daylight Time)","114628","","null","","","","offerFB","","<div class='trialBorder'><div class='vertical-center'><img style='vertical-align:center; align:center' src=img/fixation3.jpg></div><div class='cl'><div class='vertical-center'>$45<br>with a<br>50% chance</div></div><div class='cr'><div class='vertical-center'><font style='color:orange'>$8<br>for<br>sure</font></div></div><div class='respDivL'><div class='vertical-center'>(E)</div></div><div class='respDivR'><div class='vertical-center'><font style='color:orange'>(I)</font></div></div></div>","null","$8","$45","1","8","45",""
"html-keyboard-response","22","33921","0.0-5.0-1.6","5c2a9b55867f660001af0515","bdp_rd","Sat Mar 25 2023 22:35:55 GMT-0400 (Eastern Daylight Time)","114628","","null","","","","FIX","","<div class='trialBorder'><div class='vertical-center'><img style='vertical-align:center; align:center' src=img/fixation3.jpg></div></div>","null","","","","","",""
"html-keyboard-response","23","36327","0.0-5.0-2.6","5c2a9b55867f660001af0515","bdp_rd","Sat Mar 25 2023 22:35:55 GMT-0400 (Eastern Daylight Time)","114628","","2403","","","","offer","","<div class='trialBorder'><div class='vertical-center'><img style='vertical-align:center; align:center' src=img/fixation3.jpg></div><div class='cl'><div class='vertical-center'>$41<br>with a<br>50% chance</div></div><div class='cr'><div class='vertical-center'>$13<br>for<br>sure</div></div><div class='respDivL'><div class='vertical-center'>(E)</div></div><div class='respDivR'><div class='vertical-center'>(I)</div></div></div>","I","$13","$41","1","13","41","SURE"
"html-keyboard-response","24","36580","0.0-5.0-3.6","5c2a9b55867f660001af0515","bdp_rd","Sat Mar 25 2023 22:35:55 GMT-0400 (Eastern Daylight Time)","114628","","null","","","","offerFB","","<div class='trialBorder'><div class='vertical-center'><img style='vertical-align:center; align:center' src=img/fixation3.jpg></div><div class='cl'><div class='vertical-center'>$41<br>with a<br>50% chance</div></div><div class='cr'><div class='vertical-center'><font style='color:orange'>$13<br>for<br>sure</font></div></div><div class='respDivL'><div class='vertical-center'>(E)</div></div><div class='respDivR'><div class='vertical-center'><font style='color:orange'>(I)</font></div></div></div>","null","$13","$41","1","13","41",""
"html-keyboard-response","25","37083","0.0-5.0-1.7","5c2a9b55867f660001af0515","bdp_rd","Sat Mar 25 2023 22:35:55 GMT-0400 (Eastern Daylight Time)","114628","","null","","","","FIX","","<div class='trialBorder'><div class='vertical-center'><img style='vertical-align:center; align:center' src=img/fixation3.jpg></div></div>","null","","","","","",""
"html-keyboard-response","26","38110","0.0-5.0-2.7","5c2a9b55867f660001af0515","bdp_rd","Sat Mar 25 2023 22:35:55 GMT-0400 (Eastern Daylight Time)","114628","","1026","","","","offer","","<div class='trialBorder'><div class='vertical-center'><img style='vertical-align:center; align:center' src=img/fixation3.jpg></div><div class='cl'><div class='vertical-center'>$25<br>with a<br>50% chance</div></div><div class='cr'><div class='vertical-center'>$21<br>for<br>sure</div></div><div class='respDivL'><div class='vertical-center'>(E)</div></div><div class='respDivR'><div class='vertical-center'>(I)</div></div></div>","I","$21","$25","1","21","25","SURE"
"html-keyboard-response","27","38363","0.0-5.0-3.7","5c2a9b55867f660001af0515","bdp_rd","Sat Mar 25 2023 22:35:55 GMT-0400 (Eastern Daylight Time)","114628","","null","","","","offerFB","","<div class='trialBorder'><div class='vertical-center'><img style='vertical-align:center; align:center' src=img/fixation3.jpg></div><div class='cl'><div class='vertical-center'>$25<br>with a<br>50% chance</div></div><div class='cr'><div class='vertical-center'><font style='color:orange'>$21<br>for<br>sure</font></div></div><div class='respDivL'><div class='vertical-center'>(E)</div></div><div class='respDivR'><div class='vertical-center'><font style='color:orange'>(I)</font></div></div></div>","null","$21","$25","1","21","25",""
"html-keyboard-response","28","38864","0.0-5.0-1.8","5c2a9b55867f660001af0515","bdp_rd","Sat Mar 25 2023 22:35:55 GMT-0400 (Eastern Daylight Time)","114628","","null","","","","FIX","","<div class='trialBorder'><div class='vertical-center'><img style='vertical-align:center; align:center' src=img/fixation3.jpg></div></div>","null","","","","","",""
"html-keyboard-response","29","40503","0.0-5.0-2.8","5c2a9b55867f660001af0515","bdp_rd","Sat Mar 25 2023 22:35:55 GMT-0400 (Eastern Daylight Time)","114628","","1637","","","","offer","","<div class='trialBorder'><div class='vertical-center'><img style='vertical-align:center; align:center' src=img/fixation3.jpg></div><div class='cl'><div class='vertical-center'>$19<br>with a<br>50% chance</div></div><div class='cr'><div class='vertical-center'>$10<br>for<br>sure</div></div><div class='respDivL'><div class='vertical-center'>(E)</div></div><div class='respDivR'><div class='vertical-center'>(I)</div></div></div>","I","$10","$19","1","10","19","SURE"
"html-keyboard-response","30","40756","0.0-5.0-3.8","5c2a9b55867f660001af0515","bdp_rd","Sat Mar 25 2023 22:35:55 GMT-0400 (Eastern Daylight Time)","114628","","null","","","","offerFB","","<div class='trialBorder'><div class='vertical-center'><img style='vertical-align:center; align:center' src=img/fixation3.jpg></div><div class='cl'><div class='vertical-center'>$19<br>with a<br>50% chance</div></div><div class='cr'><div class='vertical-center'><font style='color:orange'>$10<br>for<br>sure</font></div></div><div class='respDivL'><div class='vertical-center'>(E)</div></div><div class='respDivR'><div class='vertical-center'><font style='color:orange'>(I)</font></div></div></div>","null","$10","$19","1","10","19",""
"html-keyboard-response","31","41259","0.0-5.0-1.9","5c2a9b55867f660001af0515","bdp_rd","Sat Mar 25 2023 22:35:55 GMT-0400 (Eastern Daylight Time)","114628","","null","","","","FIX","","<div class='trialBorder'><div class='vertical-center'><img style='vertical-align:center; align:center' src=img/fixation3.jpg></div></div>","null","","","","","",""
"html-keyboard-response","32","41837","0.0-5.0-2.9","5c2a9b55867f660001af0515","bdp_rd","Sat Mar 25 2023 22:35:55 GMT-0400 (Eastern Daylight Time)","114628","","576","","","","offer","","<div class='trialBorder'><div class='vertical-center'><img style='vertical-align:center; align:center' src=img/fixation3.jpg></div><div class='cl'><div class='vertical-center'>$3<br>for<br>sure</div></div><div class='cr'><div class='vertical-center'>$12<br>with a<br>50% chance</div></div><div class='respDivL'><div class='vertical-center'>(E)</div></div><div class='respDivR'><div class='vertical-center'>(I)</div></div></div>","E","$3","$12","0","3","12","SURE"
"html-keyboard-response","33","42089","0.0-5.0-3.9","5c2a9b55867f660001af0515","bdp_rd","Sat Mar 25 2023 22:35:55 GMT-0400 (Eastern Daylight Time)","114628","","null","","","","offerFB","","<div class='trialBorder'><div class='vertical-center'><img style='vertical-align:center; align:center' src=img/fixation3.jpg></div><div class='cl'><div class='vertical-center'><font style='color:orange'>$3<br>for<br>sure</font></div></div><div class='cr'><div class='vertical-center'>$12<br>with a<br>50% chance</div></div><div class='respDivL'><div class='vertical-center'><font style='color:orange'>(E)</font></div></div><div class='respDivR'><div class='vertical-center'>(I)</div></div></div>","null","$3","$12","0","3","12",""
"html-keyboard-response","34","42591","0.0-5.0-1.10","5c2a9b55867f660001af0515","bdp_rd","Sat Mar 25 2023 22:35:55 GMT-0400 (Eastern Daylight Time)","114628","","null","","","","FIX","","<div class='trialBorder'><div class='vertical-center'><img style='vertical-align:center; align:center' src=img/fixation3.jpg></div></div>","null","","","","","",""
"html-keyboard-response","35","43784","0.0-5.0-2.10","5c2a9b55867f660001af0515","bdp_rd","Sat Mar 25 2023 22:35:55 GMT-0400 (Eastern Daylight Time)","114628","","1190","","","","offer","","<div class='trialBorder'><div class='vertical-center'><img style='vertical-align:center; align:center' src=img/fixation3.jpg></div><div class='cl'><div class='vertical-center'>$11<br>for<br>sure</div></div><div class='cr'><div class='vertical-center'>$26<br>with a<br>50% chance</div></div><div class='respDivL'><div class='vertical-center'>(E)</div></div><div class='respDivR'><div class='vertical-center'>(I)</div></div></div>","E","$11","$26","0","11","26","SURE"
"html-keyboard-response","36","44038","0.0-5.0-3.10","5c2a9b55867f660001af0515","bdp_rd","Sat Mar 25 2023 22:35:55 GMT-0400 (Eastern Daylight Time)","114628","","null","","","","offerFB","","<div class='trialBorder'><div class='vertical-center'><img style='vertical-align:center; align:center' src=img/fixation3.jpg></div><div class='cl'><div class='vertical-center'><font style='color:orange'>$11<br>for<br>sure</font></div></div><div class='cr'><div class='vertical-center'>$26<br>with a<br>50% chance</div></div><div class='respDivL'><div class='vertical-center'><font style='color:orange'>(E)</font></div></div><div class='respDivR'><div class='vertical-center'>(I)</div></div></div>","null","$11","$26","0","11","26",""
"html-keyboard-response","37","44540","0.0-5.0-1.11","5c2a9b55867f660001af0515","bdp_rd","Sat Mar 25 2023 22:35:55 GMT-0400 (Eastern Daylight Time)","114628","","null","","","","FIX","","<div class='trialBorder'><div class='vertical-center'><img style='vertical-align:center; align:center' src=img/fixation3.jpg></div></div>","null","","","","","",""
"html-keyboard-response","38","45199","0.0-5.0-2.11","5c2a9b55867f660001af0515","bdp_rd","Sat Mar 25 2023 22:35:55 GMT-0400 (Eastern Daylight Time)","114628","","657","","","","offer","","<div class='trialBorder'><div class='vertical-center'><img style='vertical-align:center; align:center' src=img/fixation3.jpg></div><div class='cl'><div class='vertical-center'>$46<br>for<br>sure</div></div><div class='cr'><div class='vertical-center'>$65<br>with a<br>50% chance</div></div><div class='respDivL'><div class='vertical-center'>(E)</div></div><div class='respDivR'><div class='vertical-center'>(I)</div></div></div>","E","$46","$65","0","46","65","SURE"
"html-keyboard-response","39","45453","0.0-5.0-3.11","5c2a9b55867f660001af0515","bdp_rd","Sat Mar 25 2023 22:35:55 GMT-0400 (Eastern Daylight Time)","114628","","null","","","","offerFB","","<div class='trialBorder'><div class='vertical-center'><img style='vertical-align:center; align:center' src=img/fixation3.jpg></div><div class='cl'><div class='vertical-center'><font style='color:orange'>$46<br>for<br>sure</font></div></div><div class='cr'><div class='vertical-center'>$65<br>with a<br>50% chance</div></div><div class='respDivL'><div class='vertical-center'><font style='color:orange'>(E)</font></div></div><div class='respDivR'><div class='vertical-center'>(I)</div></div></div>","null","$46","$65","0","46","65",""
"html-keyboard-response","40","45955","0.0-5.0-1.12","5c2a9b55867f660001af0515","bdp_rd","Sat Mar 25 2023 22:35:55 GMT-0400 (Eastern Daylight Time)","114628","","null","","","","FIX","","<div class='trialBorder'><div class='vertical-center'><img style='vertical-align:center; align:center' src=img/fixation3.jpg></div></div>","null","","","","","",""
"html-keyboard-response","41","46678","0.0-5.0-2.12","5c2a9b55867f660001af0515","bdp_rd","Sat Mar 25 2023 22:35:55 GMT-0400 (Eastern Daylight Time)","114628","","722","","","","offer","","<div class='trialBorder'><div class='vertical-center'><img style='vertical-align:center; align:center' src=img/fixation3.jpg></div><div class='cl'><div class='vertical-center'>$21<br>with a<br>50% chance</div></div><div class='cr'><div class='vertical-center'>$2<br>for<br>sure</div></div><div class='respDivL'><div class='vertical-center'>(E)</div></div><div class='respDivR'><div class='vertical-center'>(I)</div></div></div>","I","$2","$21","1","2","21","SURE"
"html-keyboard-response","42","46931","0.0-5.0-3.12","5c2a9b55867f660001af0515","bdp_rd","Sat Mar 25 2023 22:35:55 GMT-0400 (Eastern Daylight Time)","114628","","null","","","","offerFB","","<div class='trialBorder'><div class='vertical-center'><img style='vertical-align:center; align:center' src=img/fixation3.jpg></div><div class='cl'><div class='vertical-center'>$21<br>with a<br>50% chance</div></div><div class='cr'><div class='vertical-center'><font style='color:orange'>$2<br>for<br>sure</font></div></div><div class='respDivL'><div class='vertical-center'>(E)</div></div><div class='respDivR'><div class='vertical-center'><font style='color:orange'>(I)</font></div></div></div>","null","$2","$21","1","2","21",""
"html-keyboard-response","43","47434","0.0-5.0-1.13","5c2a9b55867f660001af0515","bdp_rd","Sat Mar 25 2023 22:35:55 GMT-0400 (Eastern Daylight Time)","114628","","null","","","","FIX","","<div class='trialBorder'><div class='vertical-center'><img style='vertical-align:center; align:center' src=img/fixation3.jpg></div></div>","null","","","","","",""
"html-keyboard-response","44","48103","0.0-5.0-2.13","5c2a9b55867f660001af0515","bdp_rd","Sat Mar 25 2023 22:35:55 GMT-0400 (Eastern Daylight Time)","114628","","667","","","","offer","","<div class='trialBorder'><div class='vertical-center'><img style='vertical-align:center; align:center' src=img/fixation3.jpg></div><div class='cl'><div class='vertical-center'>$35<br>with a<br>50% chance</div></div><div class='cr'><div class='vertical-center'>$12<br>for<br>sure</div></div><div class='respDivL'><div class='vertical-center'>(E)</div></div><div class='respDivR'><div class='vertical-center'>(I)</div></div></div>","I","$12","$35","1","12","35","SURE"
"html-keyboard-response","45","48356","0.0-5.0-3.13","5c2a9b55867f660001af0515","bdp_rd","Sat Mar 25 2023 22:35:55 GMT-0400 (Eastern Daylight Time)","114628","","null","","","","offerFB","","<div class='trialBorder'><div class='vertical-center'><img style='vertical-align:center; align:center' src=img/fixation3.jpg></div><div class='cl'><div class='vertical-center'>$35<br>with a<br>50% chance</div></div><div class='cr'><div class='vertical-center'><font style='color:orange'>$12<br>for<br>sure</font></div></div><div class='respDivL'><div class='vertical-center'>(E)</div></div><div class='respDivR'><div class='vertical-center'><font style='color:orange'>(I)</font></div></div></div>","null","$12","$35","1","12","35",""
"html-keyboard-response","46","48858","0.0-5.0-1.14","5c2a9b55867f660001af0515","bdp_rd","Sat Mar 25 2023 22:35:55 GMT-0400 (Eastern Daylight Time)","114628","","null","","","","FIX","","<div class='trialBorder'><div class='vertical-center'><img style='vertical-align:center; align:center' src=img/fixation3.jpg></div></div>","null","","","","","",""
"html-keyboard-response","47","50274","0.0-5.0-2.14","5c2a9b55867f660001af0515","bdp_rd","Sat Mar 25 2023 22:35:55 GMT-0400 (Eastern Daylight Time)","114628","","1414","","","","offer","","<div class='trialBorder'><div class='vertical-center'><img style='vertical-align:center; align:center' src=img/fixation3.jpg></div><div class='cl'><div class='vertical-center'>$14<br>for<br>sure</div></div><div class='cr'><div class='vertical-center'>$22<br>with a<br>50% chance</div></div><div class='respDivL'><div class='vertical-center'>(E)</div></div><div class='respDivR'><div class='vertical-center'>(I)</div></div></div>","E","$14","$22","0","14","22","SURE"
"html-keyboard-response","48","50527","0.0-5.0-3.14","5c2a9b55867f660001af0515","bdp_rd","Sat Mar 25 2023 22:35:55 GMT-0400 (Eastern Daylight Time)","114628","","null","","","","offerFB","","<div class='trialBorder'><div class='vertical-center'><img style='vertical-align:center; align:center' src=img/fixation3.jpg></div><div class='cl'><div class='vertical-center'><font style='color:orange'>$14<br>for<br>sure</font></div></div><div class='cr'><div class='vertical-center'>$22<br>with a<br>50% chance</div></div><div class='respDivL'><div class='vertical-center'><font style='color:orange'>(E)</font></div></div><div class='respDivR'><div class='vertical-center'>(I)</div></div></div>","null","$14","$22","0","14","22",""
"html-keyboard-response","49","51030","0.0-5.0-1.15","5c2a9b55867f660001af0515","bdp_rd","Sat Mar 25 2023 22:35:55 GMT-0400 (Eastern Daylight Time)","114628","","null","","","","FIX","","<div class='trialBorder'><div class='vertical-center'><img style='vertical-align:center; align:center' src=img/fixation3.jpg></div></div>","null","","","","","",""
"html-keyboard-response","50","52015","0.0-5.0-2.15","5c2a9b55867f660001af0515","bdp_rd","Sat Mar 25 2023 22:35:55 GMT-0400 (Eastern Daylight Time)","114628","","983","","","","offer","","<div class='trialBorder'><div class='vertical-center'><img style='vertical-align:center; align:center' src=img/fixation3.jpg></div><div class='cl'><div class='vertical-center'>$15<br>with a<br>50% chance</div></div><div class='cr'><div class='vertical-center'>$6<br>for<br>sure</div></div><div class='respDivL'><div class='vertical-center'>(E)</div></div><div class='respDivR'><div class='vertical-center'>(I)</div></div></div>","I","$6","$15","1","6","15","SURE"
"html-keyboard-response","51","52268","0.0-5.0-3.15","5c2a9b55867f660001af0515","bdp_rd","Sat Mar 25 2023 22:35:55 GMT-0400 (Eastern Daylight Time)","114628","","null","","","","offerFB","","<div class='trialBorder'><div class='vertical-center'><img style='vertical-align:center; align:center' src=img/fixation3.jpg></div><div class='cl'><div class='vertical-center'>$15<br>with a<br>50% chance</div></div><div class='cr'><div class='vertical-center'><font style='color:orange'>$6<br>for<br>sure</font></div></div><div class='respDivL'><div class='vertical-center'>(E)</div></div><div class='respDivR'><div class='vertical-center'><font style='color:orange'>(I)</font></div></div></div>","null","$6","$15","1","6","15",""
"html-keyboard-response","52","52769","0.0-5.0-1.16","5c2a9b55867f660001af0515","bdp_rd","Sat Mar 25 2023 22:35:55 GMT-0400 (Eastern Daylight Time)","114628","","null","","","","FIX","","<div class='trialBorder'><div class='vertical-center'><img style='vertical-align:center; align:center' src=img/fixation3.jpg></div></div>","null","","","","","",""
"html-keyboard-response","53","53256","0.0-5.0-2.16","5c2a9b55867f660001af0515","bdp_rd","Sat Mar 25 2023 22:35:55 GMT-0400 (Eastern Daylight Time)","114628","","483","","","","offer","","<div class='trialBorder'><div class='vertical-center'><img style='vertical-align:center; align:center' src=img/fixation3.jpg></div><div class='cl'><div class='vertical-center'>$63<br>for<br>sure</div></div><div class='cr'><div class='vertical-center'>$100<br>with a<br>50% chance</div></div><div class='respDivL'><div class='vertical-center'>(E)</div></div><div class='respDivR'><div class='vertical-center'>(I)</div></div></div>","E","$63","$100","0","63","10","SURE"
"html-keyboard-response","54","53509","0.0-5.0-3.16","5c2a9b55867f660001af0515","bdp_rd","Sat Mar 25 2023 22:35:55 GMT-0400 (Eastern Daylight Time)","114628","","null","","","","offerFB","","<div class='trialBorder'><div class='vertical-center'><img style='vertical-align:center; align:center' src=img/fixation3.jpg></div><div class='cl'><div class='vertical-center'><font style='color:orange'>$63<br>for<br>sure</font></div></div><div class='cr'><div class='vertical-center'>$100<br>with a<br>50% chance</div></div><div class='respDivL'><div class='vertical-center'><font style='color:orange'>(E)</font></div></div><div class='respDivR'><div class='vertical-center'>(I)</div></div></div>","null","$63","$100","0","63","10",""
"html-keyboard-response","55","54012","0.0-5.0-1.17","5c2a9b55867f660001af0515","bdp_rd","Sat Mar 25 2023 22:35:55 GMT-0400 (Eastern Daylight Time)","114628","","null","","","","FIX","","<div class='trialBorder'><div class='vertical-center'><img style='vertical-align:center; align:center' src=img/fixation3.jpg></div></div>","null","","","","","",""
"html-keyboard-response","56","54900","0.0-5.0-2.17","5c2a9b55867f660001af0515","bdp_rd","Sat Mar 25 2023 22:35:55 GMT-0400 (Eastern Daylight Time)","114628","","885","","","","offer","","<div class='trialBorder'><div class='vertical-center'><img style='vertical-align:center; align:center' src=img/fixation3.jpg></div><div class='cl'><div class='vertical-center'>$16<br>for<br>sure</div></div><div class='cr'><div class='vertical-center'>$38<br>with a<br>50% chance</div></div><div class='respDivL'><div class='vertical-center'>(E)</div></div><div class='respDivR'><div class='vertical-center'>(I)</div></div></div>","E","$16","$38","0","16","38","SURE"
"html-keyboard-response","57","55153","0.0-5.0-3.17","5c2a9b55867f660001af0515","bdp_rd","Sat Mar 25 2023 22:35:55 GMT-0400 (Eastern Daylight Time)","114628","","null","","","","offerFB","","<div class='trialBorder'><div class='vertical-center'><img style='vertical-align:center; align:center' src=img/fixation3.jpg></div><div class='cl'><div class='vertical-center'><font style='color:orange'>$16<br>for<br>sure</font></div></div><div class='cr'><div class='vertical-center'>$38<br>with a<br>50% chance</div></div><div class='respDivL'><div class='vertical-center'><font style='color:orange'>(E)</font></div></div><div class='respDivR'><div class='vertical-center'>(I)</div></div></div>","null","$16","$38","0","16","38",""
"html-keyboard-response","58","55655","0.0-5.0-1.18","5c2a9b55867f660001af0515","bdp_rd","Sat Mar 25 2023 22:35:55 GMT-0400 (Eastern Daylight Time)","114628","","null","","","","FIX","","<div class='trialBorder'><div class='vertical-center'><img style='vertical-align:center; align:center' src=img/fixation3.jpg></div></div>","null","","","","","",""
"html-keyboard-response","59","56198","0.0-5.0-2.18","5c2a9b55867f660001af0515","bdp_rd","Sat Mar 25 2023 22:35:55 GMT-0400 (Eastern Daylight Time)","114628","","540","","","","offer","","<div class='trialBorder'><div class='vertical-center'><img style='vertical-align:center; align:center' src=img/fixation3.jpg></div><div class='cl'><div class='vertical-center'>$1<br>for<br>sure</div></div><div class='cr'><div class='vertical-center'>$33<br>with a<br>50% chance</div></div><div class='respDivL'><div class='vertical-center'>(E)</div></div><div class='respDivR'><div class='vertical-center'>(I)</div></div></div>","E","$1","$33","0","1","33","SURE"
"html-keyboard-response","60","56450","0.0-5.0-3.18","5c2a9b55867f660001af0515","bdp_rd","Sat Mar 25 2023 22:35:55 GMT-0400 (Eastern Daylight Time)","114628","","null","","","","offerFB","","<div class='trialBorder'><div class='vertical-center'><img style='vertical-align:center; align:center' src=img/fixation3.jpg></div><div class='cl'><div class='vertical-center'><font style='color:orange'>$1<br>for<br>sure</font></div></div><div class='cr'><div class='vertical-center'>$33<br>with a<br>50% chance</div></div><div class='respDivL'><div class='vertical-center'><font style='color:orange'>(E)</font></div></div><div class='respDivR'><div class='vertical-center'>(I)</div></div></div>","null","$1","$33","0","1","33",""
"html-keyboard-response","61","56952","0.0-5.0-1.19","5c2a9b55867f660001af0515","bdp_rd","Sat Mar 25 2023 22:35:55 GMT-0400 (Eastern Daylight Time)","114628","","null","","","","FIX","","<div class='trialBorder'><div class='vertical-center'><img style='vertical-align:center; align:center' src=img/fixation3.jpg></div></div>","null","","","","","",""
"html-keyboard-response","62","57787","0.0-5.0-2.19","5c2a9b55867f660001af0515","bdp_rd","Sat Mar 25 2023 22:35:55 GMT-0400 (Eastern Daylight Time)","114628","","831","","","","offer","","<div class='trialBorder'><div class='vertical-center'><img style='vertical-align:center; align:center' src=img/fixation3.jpg></div><div class='cl'><div class='vertical-center'>$53<br>for<br>sure</div></div><div class='cr'><div class='vertical-center'>$98<br>with a<br>50% chance</div></div><div class='respDivL'><div class='vertical-center'>(E)</div></div><div class='respDivR'><div class='vertical-center'>(I)</div></div></div>","E","$53","$98","0","53","98","SURE"
"html-keyboard-response","63","58040","0.0-5.0-3.19","5c2a9b55867f660001af0515","bdp_rd","Sat Mar 25 2023 22:35:55 GMT-0400 (Eastern Daylight Time)","114628","","null","","","","offerFB","","<div class='trialBorder'><div class='vertical-center'><img style='vertical-align:center; align:center' src=img/fixation3.jpg></div><div class='cl'><div class='vertical-center'><font style='color:orange'>$53<br>for<br>sure</font></div></div><div class='cr'><div class='vertical-center'>$98<br>with a<br>50% chance</div></div><div class='respDivL'><div class='vertical-center'><font style='color:orange'>(E)</font></div></div><div class='respDivR'><div class='vertical-center'>(I)</div></div></div>","null","$53","$98","0","53","98",""
"html-keyboard-response","64","58542","0.0-5.0-1.20","5c2a9b55867f660001af0515","bdp_rd","Sat Mar 25 2023 22:35:55 GMT-0400 (Eastern Daylight Time)","114628","","null","","","","FIX","","<div class='trialBorder'><div class='vertical-center'><img style='vertical-align:center; align:center' src=img/fixation3.jpg></div></div>","null","","","","","",""
"html-keyboard-response","65","59151","0.0-5.0-2.20","5c2a9b55867f660001af0515","bdp_rd","Sat Mar 25 2023 22:35:55 GMT-0400 (Eastern Daylight Time)","114628","","606","","","","offer","","<div class='trialBorder'><div class='vertical-center'><img style='vertical-align:center; align:center' src=img/fixation3.jpg></div><div class='cl'><div class='vertical-center'>$22<br>for<br>sure</div></div><div class='cr'><div class='vertical-center'>$42<br>with a<br>50% chance</div></div><div class='respDivL'><div class='vertical-center'>(E)</div></div><div class='respDivR'><div class='vertical-center'>(I)</div></div></div>","E","$22","$42","0","22","42","SURE"
"html-keyboard-response","66","59404","0.0-5.0-3.20","5c2a9b55867f660001af0515","bdp_rd","Sat Mar 25 2023 22:35:55 GMT-0400 (Eastern Daylight Time)","114628","","null","","","","offerFB","","<div class='trialBorder'><div class='vertical-center'><img style='vertical-align:center; align:center' src=img/fixation3.jpg></div><div class='cl'><div class='vertical-center'><font style='color:orange'>$22<br>for<br>sure</font></div></div><div class='cr'><div class='vertical-center'>$42<br>with a<br>50% chance</div></div><div class='respDivL'><div class='vertical-center'><font style='color:orange'>(E)</font></div></div><div class='respDivR'><div class='vertical-center'>(I)</div></div></div>","null","$22","$42","0","22","42",""
"html-keyboard-response","67","59906","0.0-5.0-1.21","5c2a9b55867f660001af0515","bdp_rd","Sat Mar 25 2023 22:35:55 GMT-0400 (Eastern Daylight Time)","114628","","null","","","","FIX","","<div class='trialBorder'><div class='vertical-center'><img style='vertical-align:center; align:center' src=img/fixation3.jpg></div></div>","null","","","","","",""
"html-keyboard-response","68","60512","0.0-5.0-2.21","5c2a9b55867f660001af0515","bdp_rd","Sat Mar 25 2023 22:35:55 GMT-0400 (Eastern Daylight Time)","114628","","603","","","","offer","","<div class='trialBorder'><div class='vertical-center'><img style='vertical-align:center; align:center' src=img/fixation3.jpg></div><div class='cl'><div class='vertical-center'>$66<br>with a<br>50% chance</div></div><div class='cr'><div class='vertical-center'>$33<br>for<br>sure</div></div><div class='respDivL'><div class='vertical-center'>(E)</div></div><div class='respDivR'><div class='vertical-center'>(I)</div></div></div>","I","$33","$66","1","33","66","SURE"
"html-keyboard-response","69","60767","0.0-5.0-3.21","5c2a9b55867f660001af0515","bdp_rd","Sat Mar 25 2023 22:35:55 GMT-0400 (Eastern Daylight Time)","114628","","null","","","","offerFB","","<div class='trialBorder'><div class='vertical-center'><img style='vertical-align:center; align:center' src=img/fixation3.jpg></div><div class='cl'><div class='vertical-center'>$66<br>with a<br>50% chance</div></div><div class='cr'><div class='vertical-center'><font style='color:orange'>$33<br>for<br>sure</font></div></div><div class='respDivL'><div class='vertical-center'>(E)</div></div><div class='respDivR'><div class='vertical-center'><font style='color:orange'>(I)</font></div></div></div>","null","$33","$66","1","33","66",""
"html-keyboard-response","70","61268","0.0-5.0-1.22","5c2a9b55867f660001af0515","bdp_rd","Sat Mar 25 2023 22:35:55 GMT-0400 (Eastern Daylight Time)","114628","","null","","","","FIX","","<div class='trialBorder'><div class='vertical-center'><img style='vertical-align:center; align:center' src=img/fixation3.jpg></div></div>","null","","","","","",""
"html-keyboard-response","71","62110","0.0-5.0-2.22","5c2a9b55867f660001af0515","bdp_rd","Sat Mar 25 2023 22:35:55 GMT-0400 (Eastern Daylight Time)","114628","","840","","","","offer","","<div class='trialBorder'><div class='vertical-center'><img style='vertical-align:center; align:center' src=img/fixation3.jpg></div><div class='cl'><div class='vertical-center'>$16<br>for<br>sure</div></div><div class='cr'><div class='vertical-center'>$28<br>with a<br>50% chance</div></div><div class='respDivL'><div class='vertical-center'>(E)</div></div><div class='respDivR'><div class='vertical-center'>(I)</div></div></div>","E","$16","$28","0","16","28","SURE"
"html-keyboard-response","72","62362","0.0-5.0-3.22","5c2a9b55867f660001af0515","bdp_rd","Sat Mar 25 2023 22:35:55 GMT-0400 (Eastern Daylight Time)","114628","","null","","","","offerFB","","<div class='trialBorder'><div class='vertical-center'><img style='vertical-align:center; align:center' src=img/fixation3.jpg></div><div class='cl'><div class='vertical-center'><font style='color:orange'>$16<br>for<br>sure</font></div></div><div class='cr'><div class='vertical-center'>$28<br>with a<br>50% chance</div></div><div class='respDivL'><div class='vertical-center'><font style='color:orange'>(E)</font></div></div><div class='respDivR'><div class='vertical-center'>(I)</div></div></div>","null","$16","$28","0","16","28",""
"html-keyboard-response","73","62865","0.0-5.0-1.23","5c2a9b55867f660001af0515","bdp_rd","Sat Mar 25 2023 22:35:55 GMT-0400 (Eastern Daylight Time)","114628","","null","","","","FIX","","<div class='trialBorder'><div class='vertical-center'><img style='vertical-align:center; align:center' src=img/fixation3.jpg></div></div>","null","","","","","",""
"html-keyboard-response","74","63586","0.0-5.0-2.23","5c2a9b55867f660001af0515","bdp_rd","Sat Mar 25 2023 22:35:55 GMT-0400 (Eastern Daylight Time)","114628","","719","","","","offer","","<div class='trialBorder'><div class='vertical-center'><img style='vertical-align:center; align:center' src=img/fixation3.jpg></div><div class='cl'><div class='vertical-center'>$6<br>for<br>sure</div></div><div class='cr'><div class='vertical-center'>$13<br>with a<br>50% chance</div></div><div class='respDivL'><div class='vertical-center'>(E)</div></div><div class='respDivR'><div class='vertical-center'>(I)</div></div></div>","E","$6","$13","0","6","13","SURE"
"html-keyboard-response","75","63839","0.0-5.0-3.23","5c2a9b55867f660001af0515","bdp_rd","Sat Mar 25 2023 22:35:55 GMT-0400 (Eastern Daylight Time)","114628","","null","","","","offerFB","","<div class='trialBorder'><div class='vertical-center'><img style='vertical-align:center; align:center' src=img/fixation3.jpg></div><div class='cl'><div class='vertical-center'><font style='color:orange'>$6<br>for<br>sure</font></div></div><div class='cr'><div class='vertical-center'>$13<br>with a<br>50% chance</div></div><div class='respDivL'><div class='vertical-center'><font style='color:orange'>(E)</font></div></div><div class='respDivR'><div class='vertical-center'>(I)</div></div></div>","null","$6","$13","0","6","13",""
"html-keyboard-response","76","64341","0.0-5.0-1.24","5c2a9b55867f660001af0515","bdp_rd","Sat Mar 25 2023 22:35:55 GMT-0400 (Eastern Daylight Time)","114628","","null","","","","FIX","","<div class='trialBorder'><div class='vertical-center'><img style='vertical-align:center; align:center' src=img/fixation3.jpg></div></div>","null","","","","","",""
"html-keyboard-response","77","65006","0.0-5.0-2.24","5c2a9b55867f660001af0515","bdp_rd","Sat Mar 25 2023 22:35:55 GMT-0400 (Eastern Daylight Time)","114628","","663","","","","offer","","<div class='trialBorder'><div class='vertical-center'><img style='vertical-align:center; align:center' src=img/fixation3.jpg></div><div class='cl'><div class='vertical-center'>$14<br>with a<br>50% chance</div></div><div class='cr'><div class='vertical-center'>$4<br>for<br>sure</div></div><div class='respDivL'><div class='vertical-center'>(E)</div></div><div class='respDivR'><div class='vertical-center'>(I)</div></div></div>","I","$4","$14","1","4","14","SURE"
"html-keyboard-response","78","65258","0.0-5.0-3.24","5c2a9b55867f660001af0515","bdp_rd","Sat Mar 25 2023 22:35:55 GMT-0400 (Eastern Daylight Time)","114628","","null","","","","offerFB","","<div class='trialBorder'><div class='vertical-center'><img style='vertical-align:center; align:center' src=img/fixation3.jpg></div><div class='cl'><div class='vertical-center'>$14<br>with a<br>50% chance</div></div><div class='cr'><div class='vertical-center'><font style='color:orange'>$4<br>for<br>sure</font></div></div><div class='respDivL'><div class='vertical-center'>(E)</div></div><div class='respDivR'><div class='vertical-center'><font style='color:orange'>(I)</font></div></div></div>","null","$4","$14","1","4","14",""
"html-keyboard-response","79","65761","0.0-5.0-1.25","5c2a9b55867f660001af0515","bdp_rd","Sat Mar 25 2023 22:35:55 GMT-0400 (Eastern Daylight Time)","114628","","null","","","","FIX","","<div class='trialBorder'><div class='vertical-center'><img style='vertical-align:center; align:center' src=img/fixation3.jpg></div></div>","null","","","","","",""
"html-keyboard-response","80","66591","0.0-5.0-2.25","5c2a9b55867f660001af0515","bdp_rd","Sat Mar 25 2023 22:35:55 GMT-0400 (Eastern Daylight Time)","114628","","828","","","","offer","","<div class='trialBorder'><div class='vertical-center'><img style='vertical-align:center; align:center' src=img/fixation3.jpg></div><div class='cl'><div class='vertical-center'>$44<br>with a<br>50% chance</div></div><div class='cr'><div class='vertical-center'>$37<br>for<br>sure</div></div><div class='respDivL'><div class='vertical-center'>(E)</div></div><div class='respDivR'><div class='vertical-center'>(I)</div></div></div>","I","$37","$44","1","37","44","SURE"
"html-keyboard-response","81","66844","0.0-5.0-3.25","5c2a9b55867f660001af0515","bdp_rd","Sat Mar 25 2023 22:35:55 GMT-0400 (Eastern Daylight Time)","114628","","null","","","","offerFB","","<div class='trialBorder'><div class='vertical-center'><img style='vertical-align:center; align:center' src=img/fixation3.jpg></div><div class='cl'><div class='vertical-center'>$44<br>with a<br>50% chance</div></div><div class='cr'><div class='vertical-center'><font style='color:orange'>$37<br>for<br>sure</font></div></div><div class='respDivL'><div class='vertical-center'>(E)</div></div><div class='respDivR'><div class='vertical-center'><font style='color:orange'>(I)</font></div></div></div>","null","$37","$44","1","37","44",""
"html-keyboard-response","82","67346","0.0-5.0-1.26","5c2a9b55867f660001af0515","bdp_rd","Sat Mar 25 2023 22:35:55 GMT-0400 (Eastern Daylight Time)","114628","","null","","","","FIX","","<div class='trialBorder'><div class='vertical-center'><img style='vertical-align:center; align:center' src=img/fixation3.jpg></div></div>","null","","","","","",""
"html-keyboard-response","83","68271","0.0-5.0-2.26","5c2a9b55867f660001af0515","bdp_rd","Sat Mar 25 2023 22:35:55 GMT-0400 (Eastern Daylight Time)","114628","","923","","","","offer","","<div class='trialBorder'><div class='vertical-center'><img style='vertical-align:center; align:center' src=img/fixation3.jpg></div><div class='cl'><div class='vertical-center'>$26<br>for<br>sure</div></div><div class='cr'><div class='vertical-center'>$92<br>with a<br>50% chance</div></div><div class='respDivL'><div class='vertical-center'>(E)</div></div><div class='respDivR'><div class='vertical-center'>(I)</div></div></div>","E","$26","$92","0","26","92","SURE"
"html-keyboard-response","84","68525","0.0-5.0-3.26","5c2a9b55867f660001af0515","bdp_rd","Sat Mar 25 2023 22:35:55 GMT-0400 (Eastern Daylight Time)","114628","","null","","","","offerFB","","<div class='trialBorder'><div class='vertical-center'><img style='vertical-align:center; align:center' src=img/fixation3.jpg></div><div class='cl'><div class='vertical-center'><font style='color:orange'>$26<br>for<br>sure</font></div></div><div class='cr'><div class='vertical-center'>$92<br>with a<br>50% chance</div></div><div class='respDivL'><div class='vertical-center'><font style='color:orange'>(E)</font></div></div><div class='respDivR'><div class='vertical-center'>(I)</div></div></div>","null","$26","$92","0","26","92",""
"html-keyboard-response","85","69027","0.0-5.0-1.27","5c2a9b55867f660001af0515","bdp_rd","Sat Mar 25 2023 22:35:55 GMT-0400 (Eastern Daylight Time)","114628","","null","","","","FIX","","<div class='trialBorder'><div class='vertical-center'><img style='vertical-align:center; align:center' src=img/fixation3.jpg></div></div>","null","","","","","",""
"html-keyboard-response","86","69541","0.0-5.0-2.27","5c2a9b55867f660001af0515","bdp_rd","Sat Mar 25 2023 22:35:55 GMT-0400 (Eastern Daylight Time)","114628","","512","","","","offer","","<div class='trialBorder'><div class='vertical-center'><img style='vertical-align:center; align:center' src=img/fixation3.jpg></div><div class='cl'><div class='vertical-center'>$30<br>for<br>sure</div></div><div class='cr'><div class='vertical-center'>$68<br>with a<br>50% chance</div></div><div class='respDivL'><div class='vertical-center'>(E)</div></div><div class='respDivR'><div class='vertical-center'>(I)</div></div></div>","E","$30","$68","0","30","68","SURE"
"html-keyboard-response","87","69793","0.0-5.0-3.27","5c2a9b55867f660001af0515","bdp_rd","Sat Mar 25 2023 22:35:55 GMT-0400 (Eastern Daylight Time)","114628","","null","","","","offerFB","","<div class='trialBorder'><div class='vertical-center'><img style='vertical-align:center; align:center' src=img/fixation3.jpg></div><div class='cl'><div class='vertical-center'><font style='color:orange'>$30<br>for<br>sure</font></div></div><div class='cr'><div class='vertical-center'>$68<br>with a<br>50% chance</div></div><div class='respDivL'><div class='vertical-center'><font style='color:orange'>(E)</font></div></div><div class='respDivR'><div class='vertical-center'>(I)</div></div></div>","null","$30","$68","0","30","68",""
"html-keyboard-response","88","70294","0.0-5.0-1.28","5c2a9b55867f660001af0515","bdp_rd","Sat Mar 25 2023 22:35:55 GMT-0400 (Eastern Daylight Time)","114628","","null","","","","FIX","","<div class='trialBorder'><div class='vertical-center'><img style='vertical-align:center; align:center' src=img/fixation3.jpg></div></div>","null","","","","","",""
"html-keyboard-response","89","70911","0.0-5.0-2.28","5c2a9b55867f660001af0515","bdp_rd","Sat Mar 25 2023 22:35:55 GMT-0400 (Eastern Daylight Time)","114628","","614","","","","offer","","<div class='trialBorder'><div class='vertical-center'><img style='vertical-align:center; align:center' src=img/fixation3.jpg></div><div class='cl'><div class='vertical-center'>$2<br>for<br>sure</div></div><div class='cr'><div class='vertical-center'>$64<br>with a<br>50% chance</div></div><div class='respDivL'><div class='vertical-center'>(E)</div></div><div class='respDivR'><div class='vertical-center'>(I)</div></div></div>","E","$2","$64","0","2","64","SURE"
"html-keyboard-response","90","71165","0.0-5.0-3.28","5c2a9b55867f660001af0515","bdp_rd","Sat Mar 25 2023 22:35:55 GMT-0400 (Eastern Daylight Time)","114628","","null","","","","offerFB","","<div class='trialBorder'><div class='vertical-center'><img style='vertical-align:center; align:center' src=img/fixation3.jpg></div><div class='cl'><div class='vertical-center'><font style='color:orange'>$2<br>for<br>sure</font></div></div><div class='cr'><div class='vertical-center'>$64<br>with a<br>50% chance</div></div><div class='respDivL'><div class='vertical-center'><font style='color:orange'>(E)</font></div></div><div class='respDivR'><div class='vertical-center'>(I)</div></div></div>","null","$2","$64","0","2","64",""
"html-keyboard-response","91","71668","0.0-5.0-1.29","5c2a9b55867f660001af0515","bdp_rd","Sat Mar 25 2023 22:35:55 GMT-0400 (Eastern Daylight Time)","114628","","null","","","","FIX","","<div class='trialBorder'><div class='vertical-center'><img style='vertical-align:center; align:center' src=img/fixation3.jpg></div></div>","null","","","","","",""
"html-keyboard-response","92","72239","0.0-5.0-2.29","5c2a9b55867f660001af0515","bdp_rd","Sat Mar 25 2023 22:35:55 GMT-0400 (Eastern Daylight Time)","114628","","568","","","","offer","","<div class='trialBorder'><div class='vertical-center'><img style='vertical-align:center; align:center' src=img/fixation3.jpg></div><div class='cl'><div class='vertical-center'>$36<br>with a<br>50% chance</div></div><div class='cr'><div class='vertical-center'>$18<br>for<br>sure</div></div><div class='respDivL'><div class='vertical-center'>(E)</div></div><div class='respDivR'><div class='vertical-center'>(I)</div></div></div>","I","$18","$36","1","18","36","SURE"
"html-keyboard-response","93","72491","0.0-5.0-3.29","5c2a9b55867f660001af0515","bdp_rd","Sat Mar 25 2023 22:35:55 GMT-0400 (Eastern Daylight Time)","114628","","null","","","","offerFB","","<div class='trialBorder'><div class='vertical-center'><img style='vertical-align:center; align:center' src=img/fixation3.jpg></div><div class='cl'><div class='vertical-center'>$36<br>with a<br>50% chance</div></div><div class='cr'><div class='vertical-center'><font style='color:orange'>$18<br>for<br>sure</font></div></div><div class='respDivL'><div class='vertical-center'>(E)</div></div><div class='respDivR'><div class='vertical-center'><font style='color:orange'>(I)</font></div></div></div>","null","$18","$36","1","18","36",""
"html-keyboard-response","94","72994","0.0-5.0-1.30","5c2a9b55867f660001af0515","bdp_rd","Sat Mar 25 2023 22:35:55 GMT-0400 (Eastern Daylight Time)","114628","","null","","","","FIX","","<div class='trialBorder'><div class='vertical-center'><img style='vertical-align:center; align:center' src=img/fixation3.jpg></div></div>","null","","","","","",""
"html-keyboard-response","95","74038","0.0-5.0-2.30","5c2a9b55867f660001af0515","bdp_rd","Sat Mar 25 2023 22:35:55 GMT-0400 (Eastern Daylight Time)","114628","","1041","","","","offer","","<div class='trialBorder'><div class='vertical-center'><img style='vertical-align:center; align:center' src=img/fixation3.jpg></div><div class='cl'><div class='vertical-center'>$70<br>with a<br>50% chance</div></div><div class='cr'><div class='vertical-center'>$24<br>for<br>sure</div></div><div class='respDivL'><div class='vertical-center'>(E)</div></div><div class='respDivR'><div class='vertical-center'>(I)</div></div></div>","I","$24","$70","1","24","70","SURE"
"html-keyboard-response","96","74291","0.0-5.0-3.30","5c2a9b55867f660001af0515","bdp_rd","Sat Mar 25 2023 22:35:55 GMT-0400 (Eastern Daylight Time)","114628","","null","","","","offerFB","","<div class='trialBorder'><div class='vertical-center'><img style='vertical-align:center; align:center' src=img/fixation3.jpg></div><div class='cl'><div class='vertical-center'>$70<br>with a<br>50% chance</div></div><div class='cr'><div class='vertical-center'><font style='color:orange'>$24<br>for<br>sure</font></div></div><div class='respDivL'><div class='vertical-center'>(E)</div></div><div class='respDivR'><div class='vertical-center'><font style='color:orange'>(I)</font></div></div></div>","null","$24","$70","1","24","70",""
"html-keyboard-response","97","74792","0.0-5.0-1.31","5c2a9b55867f660001af0515","bdp_rd","Sat Mar 25 2023 22:35:55 GMT-0400 (Eastern Daylight Time)","114628","","null","","","","FIX","","<div class='trialBorder'><div class='vertical-center'><img style='vertical-align:center; align:center' src=img/fixation3.jpg></div></div>","null","","","","","",""
"html-keyboard-response","98","75682","0.0-5.0-2.31","5c2a9b55867f660001af0515","bdp_rd","Sat Mar 25 2023 22:35:55 GMT-0400 (Eastern Daylight Time)","114628","","886","","","","offer","","<div class='trialBorder'><div class='vertical-center'><img style='vertical-align:center; align:center' src=img/fixation3.jpg></div><div class='cl'><div class='vertical-center'>$15<br>for<br>sure</div></div><div class='cr'><div class='vertical-center'>$34<br>with a<br>50% chance</div></div><div class='respDivL'><div class='vertical-center'>(E)</div></div><div class='respDivR'><div class='vertical-center'>(I)</div></div></div>","E","$15","$34","0","15","34","SURE"
"html-keyboard-response","99","75936","0.0-5.0-3.31","5c2a9b55867f660001af0515","bdp_rd","Sat Mar 25 2023 22:35:55 GMT-0400 (Eastern Daylight Time)","114628","","null","","","","offerFB","","<div class='trialBorder'><div class='vertical-center'><img style='vertical-align:center; align:center' src=img/fixation3.jpg></div><div class='cl'><div class='vertical-center'><font style='color:orange'>$15<br>for<br>sure</font></div></div><div class='cr'><div class='vertical-center'>$34<br>with a<br>50% chance</div></div><div class='respDivL'><div class='vertical-center'><font style='color:orange'>(E)</font></div></div><div class='respDivR'><div class='vertical-center'>(I)</div></div></div>","null","$15","$34","0","15","34",""
"html-keyboard-response","100","76437","0.0-5.0-1.32","5c2a9b55867f660001af0515","bdp_rd","Sat Mar 25 2023 22:35:55 GMT-0400 (Eastern Daylight Time)","114628","","null","","","","FIX","","<div class='trialBorder'><div class='vertical-center'><img style='vertical-align:center; align:center' src=img/fixation3.jpg></div></div>","null","","","","","",""
"html-keyboard-response","101","77143","0.0-5.0-2.32","5c2a9b55867f660001af0515","bdp_rd","Sat Mar 25 2023 22:35:55 GMT-0400 (Eastern Daylight Time)","114628","","703","","","","offer","","<div class='trialBorder'><div class='vertical-center'><img style='vertical-align:center; align:center' src=img/fixation3.jpg></div><div class='cl'><div class='vertical-center'>$16<br>with a<br>50% chance</div></div><div class='cr'><div class='vertical-center'>$5<br>for<br>sure</div></div><div class='respDivL'><div class='vertical-center'>(E)</div></div><div class='respDivR'><div class='vertical-center'>(I)</div></div></div>","I","$5","$16","1","5","16","SURE"
"html-keyboard-response","102","77397","0.0-5.0-3.32","5c2a9b55867f660001af0515","bdp_rd","Sat Mar 25 2023 22:35:55 GMT-0400 (Eastern Daylight Time)","114628","","null","","","","offerFB","","<div class='trialBorder'><div class='vertical-center'><img style='vertical-align:center; align:center' src=img/fixation3.jpg></div><div class='cl'><div class='vertical-center'>$16<br>with a<br>50% chance</div></div><div class='cr'><div class='vertical-center'><font style='color:orange'>$5<br>for<br>sure</font></div></div><div class='respDivL'><div class='vertical-center'>(E)</div></div><div class='respDivR'><div class='vertical-center'><font style='color:orange'>(I)</font></div></div></div>","null","$5","$16","1","5","16",""
"html-keyboard-response","103","77899","0.0-5.0-1.33","5c2a9b55867f660001af0515","bdp_rd","Sat Mar 25 2023 22:35:55 GMT-0400 (Eastern Daylight Time)","114628","","null","","","","FIX","","<div class='trialBorder'><div class='vertical-center'><img style='vertical-align:center; align:center' src=img/fixation3.jpg></div></div>","null","","","","","",""
"html-keyboard-response","104","78688","0.0-5.0-2.33","5c2a9b55867f660001af0515","bdp_rd","Sat Mar 25 2023 22:35:55 GMT-0400 (Eastern Daylight Time)","114628","","785","","","","offer","","<div class='trialBorder'><div class='vertical-center'><img style='vertical-align:center; align:center' src=img/fixation3.jpg></div><div class='cl'><div class='vertical-center'>$10<br>for<br>sure</div></div><div class='cr'><div class='vertical-center'>$40<br>with a<br>50% chance</div></div><div class='respDivL'><div class='vertical-center'>(E)</div></div><div class='respDivR'><div class='vertical-center'>(I)</div></div></div>","I","$10","$40","0","10","40","RISKY"
"html-keyboard-response","105","78942","0.0-5.0-3.33","5c2a9b55867f660001af0515","bdp_rd","Sat Mar 25 2023 22:35:55 GMT-0400 (Eastern Daylight Time)","114628","","null","","","","offerFB","","<div class='trialBorder'><div class='vertical-center'><img style='vertical-align:center; align:center' src=img/fixation3.jpg></div><div class='cl'><div class='vertical-center'>$10<br>for<br>sure</div></div><div class='cr'><div class='vertical-center'><font style='color:orange'>$40<br>with a<br>50% chance</font></div></div><div class='respDivL'><div class='vertical-center'>(E)</div></div><div class='respDivR'><div class='vertical-center'><font style='color:orange'>(I)</font></div></div></div>","null","$10","$40","0","10","40",""
"html-keyboard-response","106","79444","0.0-5.0-1.34","5c2a9b55867f660001af0515","bdp_rd","Sat Mar 25 2023 22:35:55 GMT-0400 (Eastern Daylight Time)","114628","","null","","","","FIX","","<div class='trialBorder'><div class='vertical-center'><img style='vertical-align:center; align:center' src=img/fixation3.jpg></div></div>","null","","","","","",""
"html-keyboard-response","107","79983","0.0-5.0-2.34","5c2a9b55867f660001af0515","bdp_rd","Sat Mar 25 2023 22:35:55 GMT-0400 (Eastern Daylight Time)","114628","","536","","","","offer","","<div class='trialBorder'><div class='vertical-center'><img style='vertical-align:center; align:center' src=img/fixation3.jpg></div><div class='cl'><div class='vertical-center'>$30<br>with a<br>50% chance</div></div><div class='cr'><div class='vertical-center'>$1<br>for<br>sure</div></div><div class='respDivL'><div class='vertical-center'>(E)</div></div><div class='respDivR'><div class='vertical-center'>(I)</div></div></div>","E","$1","$30","1","1","30","RISKY"
"html-keyboard-response","108","80238","0.0-5.0-3.34","5c2a9b55867f660001af0515","bdp_rd","Sat Mar 25 2023 22:35:55 GMT-0400 (Eastern Daylight Time)","114628","","null","","","","offerFB","","<div class='trialBorder'><div class='vertical-center'><img style='vertical-align:center; align:center' src=img/fixation3.jpg></div><div class='cl'><div class='vertical-center'><font style='color:orange'>$30<br>with a<br>50% chance</font></div></div><div class='cr'><div class='vertical-center'>$1<br>for<br>sure</div></div><div class='respDivL'><div class='vertical-center'><font style='color:orange'>(E)</font></div></div><div class='respDivR'><div class='vertical-center'>(I)</div></div></div>","null","$1","$30","1","1","30",""
"html-keyboard-response","109","80740","0.0-5.0-1.35","5c2a9b55867f660001af0515","bdp_rd","Sat Mar 25 2023 22:35:55 GMT-0400 (Eastern Daylight Time)","114628","","null","","","","FIX","","<div class='trialBorder'><div class='vertical-center'><img style='vertical-align:center; align:center' src=img/fixation3.jpg></div></div>","null","","","","","",""
"html-keyboard-response","110","81602","0.0-5.0-2.35","5c2a9b55867f660001af0515","bdp_rd","Sat Mar 25 2023 22:35:55 GMT-0400 (Eastern Daylight Time)","114628","","860","","","","offer","","<div class='trialBorder'><div class='vertical-center'><img style='vertical-align:center; align:center' src=img/fixation3.jpg></div><div class='cl'><div class='vertical-center'>$25<br>for<br>sure</div></div><div class='cr'><div class='vertical-center'>$54<br>with a<br>50% chance</div></div><div class='respDivL'><div class='vertical-center'>(E)</div></div><div class='respDivR'><div class='vertical-center'>(I)</div></div></div>","E","$25","$54","0","25","54","SURE"
"html-keyboard-response","111","81854","0.0-5.0-3.35","5c2a9b55867f660001af0515","bdp_rd","Sat Mar 25 2023 22:35:55 GMT-0400 (Eastern Daylight Time)","114628","","null","","","","offerFB","","<div class='trialBorder'><div class='vertical-center'><img style='vertical-align:center; align:center' src=img/fixation3.jpg></div><div class='cl'><div class='vertical-center'><font style='color:orange'>$25<br>for<br>sure</font></div></div><div class='cr'><div class='vertical-center'>$54<br>with a<br>50% chance</div></div><div class='respDivL'><div class='vertical-center'><font style='color:orange'>(E)</font></div></div><div class='respDivR'><div class='vertical-center'>(I)</div></div></div>","null","$25","$54","0","25","54",""
"html-keyboard-response","112","82357","0.0-5.0-1.36","5c2a9b55867f660001af0515","bdp_rd","Sat Mar 25 2023 22:35:55 GMT-0400 (Eastern Daylight Time)","114628","","null","","","","FIX","","<div class='trialBorder'><div class='vertical-center'><img style='vertical-align:center; align:center' src=img/fixation3.jpg></div></div>","null","","","","","",""
"html-keyboard-response","113","83119","0.0-5.0-2.36","5c2a9b55867f660001af0515","bdp_rd","Sat Mar 25 2023 22:35:55 GMT-0400 (Eastern Daylight Time)","114628","","760","","","","offer","","<div class='trialBorder'><div class='vertical-center'><img style='vertical-align:center; align:center' src=img/fixation3.jpg></div><div class='cl'><div class='vertical-center'>$58<br>for<br>sure</div></div><div class='cr'><div class='vertical-center'>$69<br>with a<br>50% chance</div></div><div class='respDivL'><div class='vertical-center'>(E)</div></div><div class='respDivR'><div class='vertical-center'>(I)</div></div></div>","E","$58","$69","0","58","69","SURE"
"html-keyboard-response","114","83372","0.0-5.0-3.36","5c2a9b55867f660001af0515","bdp_rd","Sat Mar 25 2023 22:35:55 GMT-0400 (Eastern Daylight Time)","114628","","null","","","","offerFB","","<div class='trialBorder'><div class='vertical-center'><img style='vertical-align:center; align:center' src=img/fixation3.jpg></div><div class='cl'><div class='vertical-center'><font style='color:orange'>$58<br>for<br>sure</font></div></div><div class='cr'><div class='vertical-center'>$69<br>with a<br>50% chance</div></div><div class='respDivL'><div class='vertical-center'><font style='color:orange'>(E)</font></div></div><div class='respDivR'><div class='vertical-center'>(I)</div></div></div>","null","$58","$69","0","58","69",""
"html-keyboard-response","115","83875","0.0-5.0-1.37","5c2a9b55867f660001af0515","bdp_rd","Sat Mar 25 2023 22:35:55 GMT-0400 (Eastern Daylight Time)","114628","","null","","","","FIX","","<div class='trialBorder'><div class='vertical-center'><img style='vertical-align:center; align:center' src=img/fixation3.jpg></div></div>","null","","","","","",""
"html-keyboard-response","116","84464","0.0-5.0-2.37","5c2a9b55867f660001af0515","bdp_rd","Sat Mar 25 2023 22:35:55 GMT-0400 (Eastern Daylight Time)","114628","","586","","","","offer","","<div class='trialBorder'><div class='vertical-center'><img style='vertical-align:center; align:center' src=img/fixation3.jpg></div><div class='cl'><div class='vertical-center'>$24<br>with a<br>50% chance</div></div><div class='cr'><div class='vertical-center'>$13<br>for<br>sure</div></div><div class='respDivL'><div class='vertical-center'>(E)</div></div><div class='respDivR'><div class='vertical-center'>(I)</div></div></div>","I","$13","$24","1","13","24","SURE"
"html-keyboard-response","117","84717","0.0-5.0-3.37","5c2a9b55867f660001af0515","bdp_rd","Sat Mar 25 2023 22:35:55 GMT-0400 (Eastern Daylight Time)","114628","","null","","","","offerFB","","<div class='trialBorder'><div class='vertical-center'><img style='vertical-align:center; align:center' src=img/fixation3.jpg></div><div class='cl'><div class='vertical-center'>$24<br>with a<br>50% chance</div></div><div class='cr'><div class='vertical-center'><font style='color:orange'>$13<br>for<br>sure</font></div></div><div class='respDivL'><div class='vertical-center'>(E)</div></div><div class='respDivR'><div class='vertical-center'><font style='color:orange'>(I)</font></div></div></div>","null","$13","$24","1","13","24",""
"html-keyboard-response","118","85218","0.0-5.0-1.38","5c2a9b55867f660001af0515","bdp_rd","Sat Mar 25 2023 22:35:55 GMT-0400 (Eastern Daylight Time)","114628","","null","","","","FIX","","<div class='trialBorder'><div class='vertical-center'><img style='vertical-align:center; align:center' src=img/fixation3.jpg></div></div>","null","","","","","",""
"html-keyboard-response","119","85690","0.0-5.0-2.38","5c2a9b55867f660001af0515","bdp_rd","Sat Mar 25 2023 22:35:55 GMT-0400 (Eastern Daylight Time)","114628","","470","","","","offer","","<div class='trialBorder'><div class='vertical-center'><img style='vertical-align:center; align:center' src=img/fixation3.jpg></div><div class='cl'><div class='vertical-center'>$51<br>with a<br>50% chance</div></div><div class='cr'><div class='vertical-center'>$19<br>for<br>sure</div></div><div class='respDivL'><div class='vertical-center'>(E)</div></div><div class='respDivR'><div class='vertical-center'>(I)</div></div></div>","I","$19","$51","1","19","51","SURE"
"html-keyboard-response","120","85943","0.0-5.0-3.38","5c2a9b55867f660001af0515","bdp_rd","Sat Mar 25 2023 22:35:55 GMT-0400 (Eastern Daylight Time)","114628","","null","","","","offerFB","","<div class='trialBorder'><div class='vertical-center'><img style='vertical-align:center; align:center' src=img/fixation3.jpg></div><div class='cl'><div class='vertical-center'>$51<br>with a<br>50% chance</div></div><div class='cr'><div class='vertical-center'><font style='color:orange'>$19<br>for<br>sure</font></div></div><div class='respDivL'><div class='vertical-center'>(E)</div></div><div class='respDivR'><div class='vertical-center'><font style='color:orange'>(I)</font></div></div></div>","null","$19","$51","1","19","51",""
"html-keyboard-response","121","86445","0.0-5.0-1.39","5c2a9b55867f660001af0515","bdp_rd","Sat Mar 25 2023 22:35:55 GMT-0400 (Eastern Daylight Time)","114628","","null","","","","FIX","","<div class='trialBorder'><div class='vertical-center'><img style='vertical-align:center; align:center' src=img/fixation3.jpg></div></div>","null","","","","","",""
"html-keyboard-response","122","86918","0.0-5.0-2.39","5c2a9b55867f660001af0515","bdp_rd","Sat Mar 25 2023 22:35:55 GMT-0400 (Eastern Daylight Time)","114628","","470","","","","offer","","<div class='trialBorder'><div class='vertical-center'><img style='vertical-align:center; align:center' src=img/fixation3.jpg></div><div class='cl'><div class='vertical-center'>$50<br>with a<br>50% chance</div></div><div class='cr'><div class='vertical-center'>$5<br>for<br>sure</div></div><div class='respDivL'><div class='vertical-center'>(E)</div></div><div class='respDivR'><div class='vertical-center'>(I)</div></div></div>","I","$5","$50","1","5","50","SURE"
"html-keyboard-response","123","87170","0.0-5.0-3.39","5c2a9b55867f660001af0515","bdp_rd","Sat Mar 25 2023 22:35:55 GMT-0400 (Eastern Daylight Time)","114628","","null","","","","offerFB","","<div class='trialBorder'><div class='vertical-center'><img style='vertical-align:center; align:center' src=img/fixation3.jpg></div><div class='cl'><div class='vertical-center'>$50<br>with a<br>50% chance</div></div><div class='cr'><div class='vertical-center'><font style='color:orange'>$5<br>for<br>sure</font></div></div><div class='respDivL'><div class='vertical-center'>(E)</div></div><div class='respDivR'><div class='vertical-center'><font style='color:orange'>(I)</font></div></div></div>","null","$5","$50","1","5","50",""
"html-keyboard-response","124","87673","0.0-5.0-1.40","5c2a9b55867f660001af0515","bdp_rd","Sat Mar 25 2023 22:35:55 GMT-0400 (Eastern Daylight Time)","114628","","null","","","","FIX","","<div class='trialBorder'><div class='vertical-center'><img style='vertical-align:center; align:center' src=img/fixation3.jpg></div></div>","null","","","","","",""
"html-keyboard-response","125","88119","0.0-5.0-2.40","5c2a9b55867f660001af0515","bdp_rd","Sat Mar 25 2023 22:35:55 GMT-0400 (Eastern Daylight Time)","114628","","443","","","","offer","","<div class='trialBorder'><div class='vertical-center'><img style='vertical-align:center; align:center' src=img/fixation3.jpg></div><div class='cl'><div class='vertical-center'>$43<br>with a<br>50% chance</div></div><div class='cr'><div class='vertical-center'>$17<br>for<br>sure</div></div><div class='respDivL'><div class='vertical-center'>(E)</div></div><div class='respDivR'><div class='vertical-center'>(I)</div></div></div>","I","$17","$43","1","17","43","SURE"
"html-keyboard-response","126","88372","0.0-5.0-3.40","5c2a9b55867f660001af0515","bdp_rd","Sat Mar 25 2023 22:35:55 GMT-0400 (Eastern Daylight Time)","114628","","null","","","","offerFB","","<div class='trialBorder'><div class='vertical-center'><img style='vertical-align:center; align:center' src=img/fixation3.jpg></div><div class='cl'><div class='vertical-center'>$43<br>with a<br>50% chance</div></div><div class='cr'><div class='vertical-center'><font style='color:orange'>$17<br>for<br>sure</font></div></div><div class='respDivL'><div class='vertical-center'>(E)</div></div><div class='respDivR'><div class='vertical-center'><font style='color:orange'>(I)</font></div></div></div>","null","$17","$43","1","17","43",""
"html-keyboard-response","127","88875","0.0-5.0-1.41","5c2a9b55867f660001af0515","bdp_rd","Sat Mar 25 2023 22:35:55 GMT-0400 (Eastern Daylight Time)","114628","","null","","","","FIX","","<div class='trialBorder'><div class='vertical-center'><img style='vertical-align:center; align:center' src=img/fixation3.jpg></div></div>","null","","","","","",""
"html-keyboard-response","128","89361","0.0-5.0-2.41","5c2a9b55867f660001af0515","bdp_rd","Sat Mar 25 2023 22:35:55 GMT-0400 (Eastern Daylight Time)","114628","","483","","","","offer","","<div class='trialBorder'><div class='vertical-center'><img style='vertical-align:center; align:center' src=img/fixation3.jpg></div><div class='cl'><div class='vertical-center'>$45<br>for<br>sure</div></div><div class='cr'><div class='vertical-center'>$86<br>with a<br>50% chance</div></div><div class='respDivL'><div class='vertical-center'>(E)</div></div><div class='respDivR'><div class='vertical-center'>(I)</div></div></div>","E","$45","$86","0","45","86","SURE"
"html-keyboard-response","129","89615","0.0-5.0-3.41","5c2a9b55867f660001af0515","bdp_rd","Sat Mar 25 2023 22:35:55 GMT-0400 (Eastern Daylight Time)","114628","","null","","","","offerFB","","<div class='trialBorder'><div class='vertical-center'><img style='vertical-align:center; align:center' src=img/fixation3.jpg></div><div class='cl'><div class='vertical-center'><font style='color:orange'>$45<br>for<br>sure</font></div></div><div class='cr'><div class='vertical-center'>$86<br>with a<br>50% chance</div></div><div class='respDivL'><div class='vertical-center'><font style='color:orange'>(E)</font></div></div><div class='respDivR'><div class='vertical-center'>(I)</div></div></div>","null","$45","$86","0","45","86",""
"html-keyboard-response","130","90117","0.0-5.0-1.42","5c2a9b55867f660001af0515","bdp_rd","Sat Mar 25 2023 22:35:55 GMT-0400 (Eastern Daylight Time)","114628","","null","","","","FIX","","<div class='trialBorder'><div class='vertical-center'><img style='vertical-align:center; align:center' src=img/fixation3.jpg></div></div>","null","","","","","",""
"html-keyboard-response","131","90510","0.0-5.0-2.42","5c2a9b55867f660001af0515","bdp_rd","Sat Mar 25 2023 22:35:55 GMT-0400 (Eastern Daylight Time)","114628","","390","","","","offer","","<div class='trialBorder'><div class='vertical-center'><img style='vertical-align:center; align:center' src=img/fixation3.jpg></div><div class='cl'><div class='vertical-center'>$40<br>for<br>sure</div></div><div class='cr'><div class='vertical-center'>$95<br>with a<br>50% chance</div></div><div class='respDivL'><div class='vertical-center'>(E)</div></div><div class='respDivR'><div class='vertical-center'>(I)</div></div></div>","E","$40","$95","0","40","95","SURE"
"html-keyboard-response","132","90763","0.0-5.0-3.42","5c2a9b55867f660001af0515","bdp_rd","Sat Mar 25 2023 22:35:55 GMT-0400 (Eastern Daylight Time)","114628","","null","","","","offerFB","","<div class='trialBorder'><div class='vertical-center'><img style='vertical-align:center; align:center' src=img/fixation3.jpg></div><div class='cl'><div class='vertical-center'><font style='color:orange'>$40<br>for<br>sure</font></div></div><div class='cr'><div class='vertical-center'>$95<br>with a<br>50% chance</div></div><div class='respDivL'><div class='vertical-center'><font style='color:orange'>(E)</font></div></div><div class='respDivR'><div class='vertical-center'>(I)</div></div></div>","null","$40","$95","0","40","95",""
"html-keyboard-response","133","91266","0.0-5.0-1.43","5c2a9b55867f660001af0515","bdp_rd","Sat Mar 25 2023 22:35:55 GMT-0400 (Eastern Daylight Time)","114628","","null","","","","FIX","","<div class='trialBorder'><div class='vertical-center'><img style='vertical-align:center; align:center' src=img/fixation3.jpg></div></div>","null","","","","","",""
"html-keyboard-response","134","91631","0.0-5.0-2.43","5c2a9b55867f660001af0515","bdp_rd","Sat Mar 25 2023 22:35:55 GMT-0400 (Eastern Daylight Time)","114628","","362","","","","offer","","<div class='trialBorder'><div class='vertical-center'><img style='vertical-align:center; align:center' src=img/fixation3.jpg></div><div class='cl'><div class='vertical-center'>$18<br>for<br>sure</div></div><div class='cr'><div class='vertical-center'>$39<br>with a<br>50% chance</div></div><div class='respDivL'><div class='vertical-center'>(E)</div></div><div class='respDivR'><div class='vertical-center'>(I)</div></div></div>","E","$18","$39","0","18","39","SURE"
"html-keyboard-response","135","91884","0.0-5.0-3.43","5c2a9b55867f660001af0515","bdp_rd","Sat Mar 25 2023 22:35:55 GMT-0400 (Eastern Daylight Time)","114628","","null","","","","offerFB","","<div class='trialBorder'><div class='vertical-center'><img style='vertical-align:center; align:center' src=img/fixation3.jpg></div><div class='cl'><div class='vertical-center'><font style='color:orange'>$18<br>for<br>sure</font></div></div><div class='cr'><div class='vertical-center'>$39<br>with a<br>50% chance</div></div><div class='respDivL'><div class='vertical-center'><font style='color:orange'>(E)</font></div></div><div class='respDivR'><div class='vertical-center'>(I)</div></div></div>","null","$18","$39","0","18","39",""
"html-keyboard-response","136","92387","0.0-5.0-1.44","5c2a9b55867f660001af0515","bdp_rd","Sat Mar 25 2023 22:35:55 GMT-0400 (Eastern Daylight Time)","114628","","null","","","","FIX","","<div class='trialBorder'><div class='vertical-center'><img style='vertical-align:center; align:center' src=img/fixation3.jpg></div></div>","null","","","","","",""
"html-keyboard-response","137","92761","0.0-5.0-2.44","5c2a9b55867f660001af0515","bdp_rd","Sat Mar 25 2023 22:35:55 GMT-0400 (Eastern Daylight Time)","114628","","371","","","","offer","","<div class='trialBorder'><div class='vertical-center'><img style='vertical-align:center; align:center' src=img/fixation3.jpg></div><div class='cl'><div class='vertical-center'>$47<br>with a<br>50% chance</div></div><div class='cr'><div class='vertical-center'>$27<br>for<br>sure</div></div><div class='respDivL'><div class='vertical-center'>(E)</div></div><div class='respDivR'><div class='vertical-center'>(I)</div></div></div>","I","$27","$47","1","27","47","SURE"
"html-keyboard-response","138","93016","0.0-5.0-3.44","5c2a9b55867f660001af0515","bdp_rd","Sat Mar 25 2023 22:35:55 GMT-0400 (Eastern Daylight Time)","114628","","null","","","","offerFB","","<div class='trialBorder'><div class='vertical-center'><img style='vertical-align:center; align:center' src=img/fixation3.jpg></div><div class='cl'><div class='vertical-center'>$47<br>with a<br>50% chance</div></div><div class='cr'><div class='vertical-center'><font style='color:orange'>$27<br>for<br>sure</font></div></div><div class='respDivL'><div class='vertical-center'>(E)</div></div><div class='respDivR'><div class='vertical-center'><font style='color:orange'>(I)</font></div></div></div>","null","$27","$47","1","27","47",""
"html-keyboard-response","139","93519","0.0-5.0-1.45","5c2a9b55867f660001af0515","bdp_rd","Sat Mar 25 2023 22:35:55 GMT-0400 (Eastern Daylight Time)","114628","","null","","","","FIX","","<div class='trialBorder'><div class='vertical-center'><img style='vertical-align:center; align:center' src=img/fixation3.jpg></div></div>","null","","","","","",""
"html-keyboard-response","140","94030","0.0-5.0-2.45","5c2a9b55867f660001af0515","bdp_rd","Sat Mar 25 2023 22:35:55 GMT-0400 (Eastern Daylight Time)","114628","","510","","","","offer","","<div class='trialBorder'><div class='vertical-center'><img style='vertical-align:center; align:center' src=img/fixation3.jpg></div><div class='cl'><div class='vertical-center'>$20<br>for<br>sure</div></div><div class='cr'><div class='vertical-center'>$37<br>with a<br>50% chance</div></div><div class='respDivL'><div class='vertical-center'>(E)</div></div><div class='respDivR'><div class='vertical-center'>(I)</div></div></div>","E","$20","$37","0","20","37","SURE"
"html-keyboard-response","141","94282","0.0-5.0-3.45","5c2a9b55867f660001af0515","bdp_rd","Sat Mar 25 2023 22:35:55 GMT-0400 (Eastern Daylight Time)","114628","","null","","","","offerFB","","<div class='trialBorder'><div class='vertical-center'><img style='vertical-align:center; align:center' src=img/fixation3.jpg></div><div class='cl'><div class='vertical-center'><font style='color:orange'>$20<br>for<br>sure</font></div></div><div class='cr'><div class='vertical-center'>$37<br>with a<br>50% chance</div></div><div class='respDivL'><div class='vertical-center'><font style='color:orange'>(E)</font></div></div><div class='respDivR'><div class='vertical-center'>(I)</div></div></div>","null","$20","$37","0","20","37",""
"html-keyboard-response","142","94785","0.0-5.0-1.46","5c2a9b55867f660001af0515","bdp_rd","Sat Mar 25 2023 22:35:55 GMT-0400 (Eastern Daylight Time)","114628","","null","","","","FIX","","<div class='trialBorder'><div class='vertical-center'><img style='vertical-align:center; align:center' src=img/fixation3.jpg></div></div>","null","","","","","",""
"html-keyboard-response","143","95167","0.0-5.0-2.46","5c2a9b55867f660001af0515","bdp_rd","Sat Mar 25 2023 22:35:55 GMT-0400 (Eastern Daylight Time)","114628","","380","","","","offer","","<div class='trialBorder'><div class='vertical-center'><img style='vertical-align:center; align:center' src=img/fixation3.jpg></div><div class='cl'><div class='vertical-center'>$78<br>with a<br>50% chance</div></div><div class='cr'><div class='vertical-center'>$31<br>for<br>sure</div></div><div class='respDivL'><div class='vertical-center'>(E)</div></div><div class='respDivR'><div class='vertical-center'>(I)</div></div></div>","I","$31","$78","1","31","78","SURE"
"html-keyboard-response","144","95421","0.0-5.0-3.46","5c2a9b55867f660001af0515","bdp_rd","Sat Mar 25 2023 22:35:55 GMT-0400 (Eastern Daylight Time)","114628","","null","","","","offerFB","","<div class='trialBorder'><div class='vertical-center'><img style='vertical-align:center; align:center' src=img/fixation3.jpg></div><div class='cl'><div class='vertical-center'>$78<br>with a<br>50% chance</div></div><div class='cr'><div class='vertical-center'><font style='color:orange'>$31<br>for<br>sure</font></div></div><div class='respDivL'><div class='vertical-center'>(E)</div></div><div class='respDivR'><div class='vertical-center'><font style='color:orange'>(I)</font></div></div></div>","null","$31","$78","1","31","78",""
"html-keyboard-response","145","95923","0.0-5.0-1.47","5c2a9b55867f660001af0515","bdp_rd","Sat Mar 25 2023 22:35:55 GMT-0400 (Eastern Daylight Time)","114628","","null","","","","FIX","","<div class='trialBorder'><div class='vertical-center'><img style='vertical-align:center; align:center' src=img/fixation3.jpg></div></div>","null","","","","","",""
"html-keyboard-response","146","96455","0.0-5.0-2.47","5c2a9b55867f660001af0515","bdp_rd","Sat Mar 25 2023 22:35:55 GMT-0400 (Eastern Daylight Time)","114628","","531","","","","offer","","<div class='trialBorder'><div class='vertical-center'><img style='vertical-align:center; align:center' src=img/fixation3.jpg></div><div class='cl'><div class='vertical-center'>$14<br>for<br>sure</div></div><div class='cr'><div class='vertical-center'>$29<br>with a<br>50% chance</div></div><div class='respDivL'><div class='vertical-center'>(E)</div></div><div class='respDivR'><div class='vertical-center'>(I)</div></div></div>","E","$14","$29","0","14","29","SURE"
"html-keyboard-response","147","96709","0.0-5.0-3.47","5c2a9b55867f660001af0515","bdp_rd","Sat Mar 25 2023 22:35:55 GMT-0400 (Eastern Daylight Time)","114628","","null","","","","offerFB","","<div class='trialBorder'><div class='vertical-center'><img style='vertical-align:center; align:center' src=img/fixation3.jpg></div><div class='cl'><div class='vertical-center'><font style='color:orange'>$14<br>for<br>sure</font></div></div><div class='cr'><div class='vertical-center'>$29<br>with a<br>50% chance</div></div><div class='respDivL'><div class='vertical-center'><font style='color:orange'>(E)</font></div></div><div class='respDivR'><div class='vertical-center'>(I)</div></div></div>","null","$14","$29","0","14","29",""
"html-keyboard-response","148","97211","0.0-5.0-1.48","5c2a9b55867f660001af0515","bdp_rd","Sat Mar 25 2023 22:35:55 GMT-0400 (Eastern Daylight Time)","114628","","null","","","","FIX","","<div class='trialBorder'><div class='vertical-center'><img style='vertical-align:center; align:center' src=img/fixation3.jpg></div></div>","null","","","","","",""
"html-keyboard-response","149","97489","0.0-5.0-2.48","5c2a9b55867f660001af0515","bdp_rd","Sat Mar 25 2023 22:35:55 GMT-0400 (Eastern Daylight Time)","114628","","275","","","","offer","","<div class='trialBorder'><div class='vertical-center'><img style='vertical-align:center; align:center' src=img/fixation3.jpg></div><div class='cl'><div class='vertical-center'>$15<br>for<br>sure</div></div><div class='cr'><div class='vertical-center'>$31<br>with a<br>50% chance</div></div><div class='respDivL'><div class='vertical-center'>(E)</div></div><div class='respDivR'><div class='vertical-center'>(I)</div></div></div>","I","$15","$31","0","15","31","RISKY"
"html-keyboard-response","150","97743","0.0-5.0-3.48","5c2a9b55867f660001af0515","bdp_rd","Sat Mar 25 2023 22:35:55 GMT-0400 (Eastern Daylight Time)","114628","","null","","","","offerFB","","<div class='trialBorder'><div class='vertical-center'><img style='vertical-align:center; align:center' src=img/fixation3.jpg></div><div class='cl'><div class='vertical-center'>$15<br>for<br>sure</div></div><div class='cr'><div class='vertical-center'><font style='color:orange'>$31<br>with a<br>50% chance</font></div></div><div class='respDivL'><div class='vertical-center'>(E)</div></div><div class='respDivR'><div class='vertical-center'><font style='color:orange'>(I)</font></div></div></div>","null","$15","$31","0","15","31",""
"html-keyboard-response","151","98245","0.0-5.0-1.49","5c2a9b55867f660001af0515","bdp_rd","Sat Mar 25 2023 22:35:55 GMT-0400 (Eastern Daylight Time)","114628","","null","","","","FIX","","<div class='trialBorder'><div class='vertical-center'><img style='vertical-align:center; align:center' src=img/fixation3.jpg></div></div>","null","","","","","",""
"html-keyboard-response","152","98570","0.0-5.0-2.49","5c2a9b55867f660001af0515","bdp_rd","Sat Mar 25 2023 22:35:55 GMT-0400 (Eastern Daylight Time)","114628","","322","","","","offer","","<div class='trialBorder'><div class='vertical-center'><img style='vertical-align:center; align:center' src=img/fixation3.jpg></div><div class='cl'><div class='vertical-center'>$11<br>with a<br>50% chance</div></div><div class='cr'><div class='vertical-center'>$4<br>for<br>sure</div></div><div class='respDivL'><div class='vertical-center'>(E)</div></div><div class='respDivR'><div class='vertical-center'>(I)</div></div></div>","E","$4","$11","1","4","11","RISKY"
"html-keyboard-response","153","98823","0.0-5.0-3.49","5c2a9b55867f660001af0515","bdp_rd","Sat Mar 25 2023 22:35:55 GMT-0400 (Eastern Daylight Time)","114628","","null","","","","offerFB","","<div class='trialBorder'><div class='vertical-center'><img style='vertical-align:center; align:center' src=img/fixation3.jpg></div><div class='cl'><div class='vertical-center'><font style='color:orange'>$11<br>with a<br>50% chance</font></div></div><div class='cr'><div class='vertical-center'>$4<br>for<br>sure</div></div><div class='respDivL'><div class='vertical-center'><font style='color:orange'>(E)</font></div></div><div class='respDivR'><div class='vertical-center'>(I)</div></div></div>","null","$4","$11","1","4","11",""
"html-keyboard-response","154","99326","0.0-5.0-1.50","5c2a9b55867f660001af0515","bdp_rd","Sat Mar 25 2023 22:35:55 GMT-0400 (Eastern Daylight Time)","114628","","null","","","","FIX","","<div class='trialBorder'><div class='vertical-center'><img style='vertical-align:center; align:center' src=img/fixation3.jpg></div></div>","null","","","","","",""
"html-keyboard-response","155","99670","0.0-5.0-2.50","5c2a9b55867f660001af0515","bdp_rd","Sat Mar 25 2023 22:35:55 GMT-0400 (Eastern Daylight Time)","114628","","342","","","","offer","","<div class='trialBorder'><div class='vertical-center'><img style='vertical-align:center; align:center' src=img/fixation3.jpg></div><div class='cl'><div class='vertical-center'>$80<br>with a<br>50% chance</div></div><div class='cr'><div class='vertical-center'>$20<br>for<br>sure</div></div><div class='respDivL'><div class='vertical-center'>(E)</div></div><div class='respDivR'><div class='vertical-center'>(I)</div></div></div>","I","$20","$80","1","20","80","SURE"
"html-keyboard-response","156","99923","0.0-5.0-3.50","5c2a9b55867f660001af0515","bdp_rd","Sat Mar 25 2023 22:35:55 GMT-0400 (Eastern Daylight Time)","114628","","null","","","","offerFB","","<div class='trialBorder'><div class='vertical-center'><img style='vertical-align:center; align:center' src=img/fixation3.jpg></div><div class='cl'><div class='vertical-center'>$80<br>with a<br>50% chance</div></div><div class='cr'><div class='vertical-center'><font style='color:orange'>$20<br>for<br>sure</font></div></div><div class='respDivL'><div class='vertical-center'>(E)</div></div><div class='respDivR'><div class='vertical-center'><font style='color:orange'>(I)</font></div></div></div>","null","$20","$80","1","20","80",""
"html-keyboard-response","157","100424","0.0-5.0-1.51","5c2a9b55867f660001af0515","bdp_rd","Sat Mar 25 2023 22:35:55 GMT-0400 (Eastern Daylight Time)","114628","","null","","","","FIX","","<div class='trialBorder'><div class='vertical-center'><img style='vertical-align:center; align:center' src=img/fixation3.jpg></div></div>","null","","","","","",""
"html-keyboard-response","158","101734","0.0-5.0-2.51","5c2a9b55867f660001af0515","bdp_rd","Sat Mar 25 2023 22:35:55 GMT-0400 (Eastern Daylight Time)","114628","","1309","","","","offer","","<div class='trialBorder'><div class='vertical-center'><img style='vertical-align:center; align:center' src=img/fixation3.jpg></div><div class='cl'><div class='vertical-center'>$22<br>for<br>sure</div></div><div class='cr'><div class='vertical-center'>$59<br>with a<br>50% chance</div></div><div class='respDivL'><div class='vertical-center'>(E)</div></div><div class='respDivR'><div class='vertical-center'>(I)</div></div></div>","E","$22","$59","0","22","59","SURE"
"html-keyboard-response","159","101987","0.0-5.0-3.51","5c2a9b55867f660001af0515","bdp_rd","Sat Mar 25 2023 22:35:55 GMT-0400 (Eastern Daylight Time)","114628","","null","","","","offerFB","","<div class='trialBorder'><div class='vertical-center'><img style='vertical-align:center; align:center' src=img/fixation3.jpg></div><div class='cl'><div class='vertical-center'><font style='color:orange'>$22<br>for<br>sure</font></div></div><div class='cr'><div class='vertical-center'>$59<br>with a<br>50% chance</div></div><div class='respDivL'><div class='vertical-center'><font style='color:orange'>(E)</font></div></div><div class='respDivR'><div class='vertical-center'>(I)</div></div></div>","null","$22","$59","0","22","59",""
"html-keyboard-response","160","102490","0.0-5.0-1.52","5c2a9b55867f660001af0515","bdp_rd","Sat Mar 25 2023 22:35:55 GMT-0400 (Eastern Daylight Time)","114628","","null","","","","FIX","","<div class='trialBorder'><div class='vertical-center'><img style='vertical-align:center; align:center' src=img/fixation3.jpg></div></div>","null","","","","","",""
"html-keyboard-response","161","103033","0.0-5.0-2.52","5c2a9b55867f660001af0515","bdp_rd","Sat Mar 25 2023 22:35:55 GMT-0400 (Eastern Daylight Time)","114628","","539","","","","offer","","<div class='trialBorder'><div class='vertical-center'><img style='vertical-align:center; align:center' src=img/fixation3.jpg></div><div class='cl'><div class='vertical-center'>$27<br>with a<br>50% chance</div></div><div class='cr'><div class='vertical-center'>$12<br>for<br>sure</div></div><div class='respDivL'><div class='vertical-center'>(E)</div></div><div class='respDivR'><div class='vertical-center'>(I)</div></div></div>","I","$12","$27","1","12","27","SURE"
"html-keyboard-response","162","103287","0.0-5.0-3.52","5c2a9b55867f660001af0515","bdp_rd","Sat Mar 25 2023 22:35:55 GMT-0400 (Eastern Daylight Time)","114628","","null","","","","offerFB","","<div class='trialBorder'><div class='vertical-center'><img style='vertical-align:center; align:center' src=img/fixation3.jpg></div><div class='cl'><div class='vertical-center'>$27<br>with a<br>50% chance</div></div><div class='cr'><div class='vertical-center'><font style='color:orange'>$12<br>for<br>sure</font></div></div><div class='respDivL'><div class='vertical-center'>(E)</div></div><div class='respDivR'><div class='vertical-center'><font style='color:orange'>(I)</font></div></div></div>","null","$12","$27","1","12","27",""
"html-keyboard-response","163","103788","0.0-5.0-1.53","5c2a9b55867f660001af0515","bdp_rd","Sat Mar 25 2023 22:35:55 GMT-0400 (Eastern Daylight Time)","114628","","null","","","","FIX","","<div class='trialBorder'><div class='vertical-center'><img style='vertical-align:center; align:center' src=img/fixation3.jpg></div></div>","null","","","","","",""
"html-keyboard-response","164","104525","0.0-5.0-2.53","5c2a9b55867f660001af0515","bdp_rd","Sat Mar 25 2023 22:35:55 GMT-0400 (Eastern Daylight Time)","114628","","735","","","","offer","","<div class='trialBorder'><div class='vertical-center'><img style='vertical-align:center; align:center' src=img/fixation3.jpg></div><div class='cl'><div class='vertical-center'>$17<br>with a<br>50% chance</div></div><div class='cr'><div class='vertical-center'>$3<br>for<br>sure</div></div><div class='respDivL'><div class='vertical-center'>(E)</div></div><div class='respDivR'><div class='vertical-center'>(I)</div></div></div>","I","$3","$17","1","3","17","SURE"
"html-keyboard-response","165","104777","0.0-5.0-3.53","5c2a9b55867f660001af0515","bdp_rd","Sat Mar 25 2023 22:35:55 GMT-0400 (Eastern Daylight Time)","114628","","null","","","","offerFB","","<div class='trialBorder'><div class='vertical-center'><img style='vertical-align:center; align:center' src=img/fixation3.jpg></div><div class='cl'><div class='vertical-center'>$17<br>with a<br>50% chance</div></div><div class='cr'><div class='vertical-center'><font style='color:orange'>$3<br>for<br>sure</font></div></div><div class='respDivL'><div class='vertical-center'>(E)</div></div><div class='respDivR'><div class='vertical-center'><font style='color:orange'>(I)</font></div></div></div>","null","$3","$17","1","3","17",""
"html-keyboard-response","166","105279","0.0-5.0-1.54","5c2a9b55867f660001af0515","bdp_rd","Sat Mar 25 2023 22:35:55 GMT-0400 (Eastern Daylight Time)","114628","","null","","","","FIX","","<div class='trialBorder'><div class='vertical-center'><img style='vertical-align:center; align:center' src=img/fixation3.jpg></div></div>","null","","","","","",""
"html-keyboard-response","167","105903","0.0-5.0-2.54","5c2a9b55867f660001af0515","bdp_rd","Sat Mar 25 2023 22:35:55 GMT-0400 (Eastern Daylight Time)","114628","","622","","","","offer","","<div class='trialBorder'><div class='vertical-center'><img style='vertical-align:center; align:center' src=img/fixation3.jpg></div><div class='cl'><div class='vertical-center'>$81<br>with a<br>50% chance</div></div><div class='cr'><div class='vertical-center'>$39<br>for<br>sure</div></div><div class='respDivL'><div class='vertical-center'>(E)</div></div><div class='respDivR'><div class='vertical-center'>(I)</div></div></div>","I","$39","$81","1","39","81","SURE"
"html-keyboard-response","168","106157","0.0-5.0-3.54","5c2a9b55867f660001af0515","bdp_rd","Sat Mar 25 2023 22:35:55 GMT-0400 (Eastern Daylight Time)","114628","","null","","","","offerFB","","<div class='trialBorder'><div class='vertical-center'><img style='vertical-align:center; align:center' src=img/fixation3.jpg></div><div class='cl'><div class='vertical-center'>$81<br>with a<br>50% chance</div></div><div class='cr'><div class='vertical-center'><font style='color:orange'>$39<br>for<br>sure</font></div></div><div class='respDivL'><div class='vertical-center'>(E)</div></div><div class='respDivR'><div class='vertical-center'><font style='color:orange'>(I)</font></div></div></div>","null","$39","$81","1","39","81",""
"html-keyboard-response","169","106658","0.0-5.0-1.55","5c2a9b55867f660001af0515","bdp_rd","Sat Mar 25 2023 22:35:55 GMT-0400 (Eastern Daylight Time)","114628","","null","","","","FIX","","<div class='trialBorder'><div class='vertical-center'><img style='vertical-align:center; align:center' src=img/fixation3.jpg></div></div>","null","","","","","",""
"html-keyboard-response","170","107695","0.0-5.0-2.55","5c2a9b55867f660001af0515","bdp_rd","Sat Mar 25 2023 22:35:55 GMT-0400 (Eastern Daylight Time)","114628","","1034","","","","offer","","<div class='trialBorder'><div class='vertical-center'><img style='vertical-align:center; align:center' src=img/fixation3.jpg></div><div class='cl'><div class='vertical-center'>$42<br>for<br>sure</div></div><div class='cr'><div class='vertical-center'>$73<br>with a<br>50% chance</div></div><div class='respDivL'><div class='vertical-center'>(E)</div></div><div class='respDivR'><div class='vertical-center'>(I)</div></div></div>","E","$42","$73","0","42","73","SURE"
"html-keyboard-response","171","107948","0.0-5.0-3.55","5c2a9b55867f660001af0515","bdp_rd","Sat Mar 25 2023 22:35:55 GMT-0400 (Eastern Daylight Time)","114628","","null","","","","offerFB","","<div class='trialBorder'><div class='vertical-center'><img style='vertical-align:center; align:center' src=img/fixation3.jpg></div><div class='cl'><div class='vertical-center'><font style='color:orange'>$42<br>for<br>sure</font></div></div><div class='cr'><div class='vertical-center'>$73<br>with a<br>50% chance</div></div><div class='respDivL'><div class='vertical-center'><font style='color:orange'>(E)</font></div></div><div class='respDivR'><div class='vertical-center'>(I)</div></div></div>","null","$42","$73","0","42","73",""
"html-keyboard-response","172","108450","0.0-5.0-1.56","5c2a9b55867f660001af0515","bdp_rd","Sat Mar 25 2023 22:35:55 GMT-0400 (Eastern Daylight Time)","114628","","null","","","","FIX","","<div class='trialBorder'><div class='vertical-center'><img style='vertical-align:center; align:center' src=img/fixation3.jpg></div></div>","null","","","","","",""
"html-keyboard-response","173","109190","0.0-5.0-2.56","5c2a9b55867f660001af0515","bdp_rd","Sat Mar 25 2023 22:35:55 GMT-0400 (Eastern Daylight Time)","114628","","738","","","","offer","","<div class='trialBorder'><div class='vertical-center'><img style='vertical-align:center; align:center' src=img/fixation3.jpg></div><div class='cl'><div class='vertical-center'>$23<br>with a<br>50% chance</div></div><div class='cr'><div class='vertical-center'>$8<br>for<br>sure</div></div><div class='respDivL'><div class='vertical-center'>(E)</div></div><div class='respDivR'><div class='vertical-center'>(I)</div></div></div>","I","$8","$23","1","8","23","SURE"
