"trial_type","trial_index","time_elapsed","internal_node_id","subject_id","task","startTime","totalTime","view_history","rt","event","trial","time","trialtype","success","stimulus","key_press","sureOffer","riskyOffer","riskyLeft","sureAmt","riskyAmt","chosen"
"pavlovia","0","2","0.0-0.0","60fcd9368e8d2b8740cf9251","bdp_rd","Sat Apr 15 2023 08:49:06 GMT-0400 (Eastern Daylight Time)","190681","","","","","","","","","","","","","","",""
"instructions","1","1844","0.0-1.0","60fcd9368e8d2b8740cf9251","bdp_rd","Sat Apr 15 2023 08:49:06 GMT-0400 (Eastern Daylight Time)","190681","[{""page_index"":0,""viewing_time"":1841}]","1841","","","","","","","","","","","","",""
"","","","","60fcd9368e8d2b8740cf9251","bdp_rd","Sat Apr 15 2023 08:49:06 GMT-0400 (Eastern Daylight Time)","190681","","","fullscreenenter","2","3156","fullscreenenter","","","","","","","","",""
"fullscreen","2","4141","0.0-2.0","60fcd9368e8d2b8740cf9251","bdp_rd","Sat Apr 15 2023 08:49:06 GMT-0400 (Eastern Daylight Time)","190681","","","","","","","true","","","","","","","",""
"instructions","3","37287","0.0-4.0","60fcd9368e8d2b8740cf9251","bdp_rd","Sat Apr 15 2023 08:49:06 GMT-0400 (Eastern Daylight Time)","190681","[{""page_index"":0,""viewing_time"":19855},{""page_index"":1,""viewing_time"":7782},{""page_index"":2,""viewing_time"":5509}]","33146","","","","","","","","","","","","",""
"html-keyboard-response","4","37792","0.0-5.0-1.0","60fcd9368e8d2b8740cf9251","bdp_rd","Sat Apr 15 2023 08:49:06 GMT-0400 (Eastern Daylight Time)","190681","","null","","","","FIX","","<div class='trialBorder'><div class='vertical-center'><img style='vertical-align:center; align:center' src=img/fixation3.jpg></div></div>","null","","","","","",""
"html-keyboard-response","5","42469","0.0-5.0-2.0","60fcd9368e8d2b8740cf9251","bdp_rd","Sat Apr 15 2023 08:49:06 GMT-0400 (Eastern Daylight Time)","190681","","4674","","","","offer","","<div class='trialBorder'><div class='vertical-center'><img style='vertical-align:center; align:center' src=img/fixation3.jpg></div><div class='cl'><div class='vertical-center'>$53<br>for<br>sure</div></div><div class='cr'><div class='vertical-center'>$98<br>with a<br>50% chance</div></div><div class='respDivL'><div class='vertical-center'>(E)</div></div><div class='respDivR'><div class='vertical-center'>(I)</div></div></div>","E","$53","$98","0","53","98","SURE"
"html-keyboard-response","6","42724","0.0-5.0-3.0","60fcd9368e8d2b8740cf9251","bdp_rd","Sat Apr 15 2023 08:49:06 GMT-0400 (Eastern Daylight Time)","190681","","null","","","","offerFB","","<div class='trialBorder'><div class='vertical-center'><img style='vertical-align:center; align:center' src=img/fixation3.jpg></div><div class='cl'><div class='vertical-center'><font style='color:orange'>$53<br>for<br>sure</font></div></div><div class='cr'><div class='vertical-center'>$98<br>with a<br>50% chance</div></div><div class='respDivL'><div class='vertical-center'><font style='color:orange'>(E)</font></div></div><div class='respDivR'><div class='vertical-center'>(I)</div></div></div>","null","$53","$98","0","53","98",""
"html-keyboard-response","7","43230","0.0-5.0-1.1","60fcd9368e8d2b8740cf9251","bdp_rd","Sat Apr 15 2023 08:49:06 GMT-0400 (Eastern Daylight Time)","190681","","null","","","","FIX","","<div class='trialBorder'><div class='vertical-center'><img style='vertical-align:center; align:center' src=img/fixation3.jpg></div></div>","null","","","","","",""
"html-keyboard-response","8","50541","0.0-5.0-2.1","60fcd9368e8d2b8740cf9251","bdp_rd","Sat Apr 15 2023 08:49:06 GMT-0400 (Eastern Daylight Time)","190681","","7310","","","","offer","","<div class='trialBorder'><div class='vertical-center'><img style='vertical-align:center; align:center' src=img/fixation3.jpg></div><div class='cl'><div class='vertical-center'>$33<br>for<br>sure</div></div><div class='cr'><div class='vertical-center'>$66<br>with a<br>50% chance</div></div><div class='respDivL'><div class='vertical-center'>(E)</div></div><div class='respDivR'><div class='vertical-center'>(I)</div></div></div>","E","$33","$66","0","33","66","SURE"
"html-keyboard-response","9","50797","0.0-5.0-3.1","60fcd9368e8d2b8740cf9251","bdp_rd","Sat Apr 15 2023 08:49:06 GMT-0400 (Eastern Daylight Time)","190681","","null","","","","offerFB","","<div class='trialBorder'><div class='vertical-center'><img style='vertical-align:center; align:center' src=img/fixation3.jpg></div><div class='cl'><div class='vertical-center'><font style='color:orange'>$33<br>for<br>sure</font></div></div><div class='cr'><div class='vertical-center'>$66<br>with a<br>50% chance</div></div><div class='respDivL'><div class='vertical-center'><font style='color:orange'>(E)</font></div></div><div class='respDivR'><div class='vertical-center'>(I)</div></div></div>","null","$33","$66","0","33","66",""
"html-keyboard-response","10","51300","0.0-5.0-1.2","60fcd9368e8d2b8740cf9251","bdp_rd","Sat Apr 15 2023 08:49:06 GMT-0400 (Eastern Daylight Time)","190681","","null","","","","FIX","","<div class='trialBorder'><div class='vertical-center'><img style='vertical-align:center; align:center' src=img/fixation3.jpg></div></div>","null","","","","","",""
"html-keyboard-response","11","53805","0.0-5.0-2.2","60fcd9368e8d2b8740cf9251","bdp_rd","Sat Apr 15 2023 08:49:06 GMT-0400 (Eastern Daylight Time)","190681","","2504","","","","offer","","<div class='trialBorder'><div class='vertical-center'><img style='vertical-align:center; align:center' src=img/fixation3.jpg></div><div class='cl'><div class='vertical-center'>$13<br>for<br>sure</div></div><div class='cr'><div class='vertical-center'>$24<br>with a<br>50% chance</div></div><div class='respDivL'><div class='vertical-center'>(E)</div></div><div class='respDivR'><div class='vertical-center'>(I)</div></div></div>","E","$13","$24","0","13","24","SURE"
"html-keyboard-response","12","54063","0.0-5.0-3.2","60fcd9368e8d2b8740cf9251","bdp_rd","Sat Apr 15 2023 08:49:06 GMT-0400 (Eastern Daylight Time)","190681","","null","","","","offerFB","","<div class='trialBorder'><div class='vertical-center'><img style='vertical-align:center; align:center' src=img/fixation3.jpg></div><div class='cl'><div class='vertical-center'><font style='color:orange'>$13<br>for<br>sure</font></div></div><div class='cr'><div class='vertical-center'>$24<br>with a<br>50% chance</div></div><div class='respDivL'><div class='vertical-center'><font style='color:orange'>(E)</font></div></div><div class='respDivR'><div class='vertical-center'>(I)</div></div></div>","null","$13","$24","0","13","24",""
"html-keyboard-response","13","54573","0.0-5.0-1.3","60fcd9368e8d2b8740cf9251","bdp_rd","Sat Apr 15 2023 08:49:06 GMT-0400 (Eastern Daylight Time)","190681","","null","","","","FIX","","<div class='trialBorder'><div class='vertical-center'><img style='vertical-align:center; align:center' src=img/fixation3.jpg></div></div>","null","","","","","",""
"html-keyboard-response","14","56626","0.0-5.0-2.3","60fcd9368e8d2b8740cf9251","bdp_rd","Sat Apr 15 2023 08:49:06 GMT-0400 (Eastern Daylight Time)","190681","","2052","","","","offer","","<div class='trialBorder'><div class='vertical-center'><img style='vertical-align:center; align:center' src=img/fixation3.jpg></div><div class='cl'><div class='vertical-center'>$48<br>with a<br>50% chance</div></div><div class='cr'><div class='vertical-center'>$34<br>for<br>sure</div></div><div class='respDivL'><div class='vertical-center'>(E)</div></div><div class='respDivR'><div class='vertical-center'>(I)</div></div></div>","I","$34","$48","1","34","48","SURE"
"html-keyboard-response","15","56889","0.0-5.0-3.3","60fcd9368e8d2b8740cf9251","bdp_rd","Sat Apr 15 2023 08:49:06 GMT-0400 (Eastern Daylight Time)","190681","","null","","","","offerFB","","<div class='trialBorder'><div class='vertical-center'><img style='vertical-align:center; align:center' src=img/fixation3.jpg></div><div class='cl'><div class='vertical-center'>$48<br>with a<br>50% chance</div></div><div class='cr'><div class='vertical-center'><font style='color:orange'>$34<br>for<br>sure</font></div></div><div class='respDivL'><div class='vertical-center'>(E)</div></div><div class='respDivR'><div class='vertical-center'><font style='color:orange'>(I)</font></div></div></div>","null","$34","$48","1","34","48",""
"html-keyboard-response","16","57396","0.0-5.0-1.4","60fcd9368e8d2b8740cf9251","bdp_rd","Sat Apr 15 2023 08:49:06 GMT-0400 (Eastern Daylight Time)","190681","","null","","","","FIX","","<div class='trialBorder'><div class='vertical-center'><img style='vertical-align:center; align:center' src=img/fixation3.jpg></div></div>","null","","","","","",""
"html-keyboard-response","17","59154","0.0-5.0-2.4","60fcd9368e8d2b8740cf9251","bdp_rd","Sat Apr 15 2023 08:49:06 GMT-0400 (Eastern Daylight Time)","190681","","1757","","","","offer","","<div class='trialBorder'><div class='vertical-center'><img style='vertical-align:center; align:center' src=img/fixation3.jpg></div><div class='cl'><div class='vertical-center'>$15<br>for<br>sure</div></div><div class='cr'><div class='vertical-center'>$31<br>with a<br>50% chance</div></div><div class='respDivL'><div class='vertical-center'>(E)</div></div><div class='respDivR'><div class='vertical-center'>(I)</div></div></div>","E","$15","$31","0","15","31","SURE"
"html-keyboard-response","18","59413","0.0-5.0-3.4","60fcd9368e8d2b8740cf9251","bdp_rd","Sat Apr 15 2023 08:49:06 GMT-0400 (Eastern Daylight Time)","190681","","null","","","","offerFB","","<div class='trialBorder'><div class='vertical-center'><img style='vertical-align:center; align:center' src=img/fixation3.jpg></div><div class='cl'><div class='vertical-center'><font style='color:orange'>$15<br>for<br>sure</font></div></div><div class='cr'><div class='vertical-center'>$31<br>with a<br>50% chance</div></div><div class='respDivL'><div class='vertical-center'><font style='color:orange'>(E)</font></div></div><div class='respDivR'><div class='vertical-center'>(I)</div></div></div>","null","$15","$31","0","15","31",""
"html-keyboard-response","19","59918","0.0-5.0-1.5","60fcd9368e8d2b8740cf9251","bdp_rd","Sat Apr 15 2023 08:49:06 GMT-0400 (Eastern Daylight Time)","190681","","null","","","","FIX","","<div class='trialBorder'><div class='vertical-center'><img style='vertical-align:center; align:center' src=img/fixation3.jpg></div></div>","null","","","","","",""
"html-keyboard-response","20","62344","0.0-5.0-2.5","60fcd9368e8d2b8740cf9251","bdp_rd","Sat Apr 15 2023 08:49:06 GMT-0400 (Eastern Daylight Time)","190681","","2424","","","","offer","","<div class='trialBorder'><div class='vertical-center'><img style='vertical-align:center; align:center' src=img/fixation3.jpg></div><div class='cl'><div class='vertical-center'>$78<br>with a<br>50% chance</div></div><div class='cr'><div class='vertical-center'>$31<br>for<br>sure</div></div><div class='respDivL'><div class='vertical-center'>(E)</div></div><div class='respDivR'><div class='vertical-center'>(I)</div></div></div>","E","$31","$78","1","31","78","RISKY"
"html-keyboard-response","21","62600","0.0-5.0-3.5","60fcd9368e8d2b8740cf9251","bdp_rd","Sat Apr 15 2023 08:49:06 GMT-0400 (Eastern Daylight Time)","190681","","null","","","","offerFB","","<div class='trialBorder'><div class='vertical-center'><img style='vertical-align:center; align:center' src=img/fixation3.jpg></div><div class='cl'><div class='vertical-center'><font style='color:orange'>$78<br>with a<br>50% chance</font></div></div><div class='cr'><div class='vertical-center'>$31<br>for<br>sure</div></div><div class='respDivL'><div class='vertical-center'><font style='color:orange'>(E)</font></div></div><div class='respDivR'><div class='vertical-center'>(I)</div></div></div>","null","$31","$78","1","31","78",""
"html-keyboard-response","22","63113","0.0-5.0-1.6","60fcd9368e8d2b8740cf9251","bdp_rd","Sat Apr 15 2023 08:49:06 GMT-0400 (Eastern Daylight Time)","190681","","null","","","","FIX","","<div class='trialBorder'><div class='vertical-center'><img style='vertical-align:center; align:center' src=img/fixation3.jpg></div></div>","null","","","","","",""
"html-keyboard-response","23","64324","0.0-5.0-2.6","60fcd9368e8d2b8740cf9251","bdp_rd","Sat Apr 15 2023 08:49:06 GMT-0400 (Eastern Daylight Time)","190681","","1210","","","","offer","","<div class='trialBorder'><div class='vertical-center'><img style='vertical-align:center; align:center' src=img/fixation3.jpg></div><div class='cl'><div class='vertical-center'>$30<br>for<br>sure</div></div><div class='cr'><div class='vertical-center'>$68<br>with a<br>50% chance</div></div><div class='respDivL'><div class='vertical-center'>(E)</div></div><div class='respDivR'><div class='vertical-center'>(I)</div></div></div>","E","$30","$68","0","30","68","SURE"
"html-keyboard-response","24","64584","0.0-5.0-3.6","60fcd9368e8d2b8740cf9251","bdp_rd","Sat Apr 15 2023 08:49:06 GMT-0400 (Eastern Daylight Time)","190681","","null","","","","offerFB","","<div class='trialBorder'><div class='vertical-center'><img style='vertical-align:center; align:center' src=img/fixation3.jpg></div><div class='cl'><div class='vertical-center'><font style='color:orange'>$30<br>for<br>sure</font></div></div><div class='cr'><div class='vertical-center'>$68<br>with a<br>50% chance</div></div><div class='respDivL'><div class='vertical-center'><font style='color:orange'>(E)</font></div></div><div class='respDivR'><div class='vertical-center'>(I)</div></div></div>","null","$30","$68","0","30","68",""
"html-keyboard-response","25","65097","0.0-5.0-1.7","60fcd9368e8d2b8740cf9251","bdp_rd","Sat Apr 15 2023 08:49:06 GMT-0400 (Eastern Daylight Time)","190681","","null","","","","FIX","","<div class='trialBorder'><div class='vertical-center'><img style='vertical-align:center; align:center' src=img/fixation3.jpg></div></div>","null","","","","","",""
"html-keyboard-response","26","66693","0.0-5.0-2.7","60fcd9368e8d2b8740cf9251","bdp_rd","Sat Apr 15 2023 08:49:06 GMT-0400 (Eastern Daylight Time)","190681","","1595","","","","offer","","<div class='trialBorder'><div class='vertical-center'><img style='vertical-align:center; align:center' src=img/fixation3.jpg></div><div class='cl'><div class='vertical-center'>$71<br>with a<br>50% chance</div></div><div class='cr'><div class='vertical-center'>$7<br>for<br>sure</div></div><div class='respDivL'><div class='vertical-center'>(E)</div></div><div class='respDivR'><div class='vertical-center'>(I)</div></div></div>","E","$7","$71","1","7","71","RISKY"
"html-keyboard-response","27","66948","0.0-5.0-3.7","60fcd9368e8d2b8740cf9251","bdp_rd","Sat Apr 15 2023 08:49:06 GMT-0400 (Eastern Daylight Time)","190681","","null","","","","offerFB","","<div class='trialBorder'><div class='vertical-center'><img style='vertical-align:center; align:center' src=img/fixation3.jpg></div><div class='cl'><div class='vertical-center'><font style='color:orange'>$71<br>with a<br>50% chance</font></div></div><div class='cr'><div class='vertical-center'>$7<br>for<br>sure</div></div><div class='respDivL'><div class='vertical-center'><font style='color:orange'>(E)</font></div></div><div class='respDivR'><div class='vertical-center'>(I)</div></div></div>","null","$7","$71","1","7","71",""
"html-keyboard-response","28","67456","0.0-5.0-1.8","60fcd9368e8d2b8740cf9251","bdp_rd","Sat Apr 15 2023 08:49:06 GMT-0400 (Eastern Daylight Time)","190681","","null","","","","FIX","","<div class='trialBorder'><div class='vertical-center'><img style='vertical-align:center; align:center' src=img/fixation3.jpg></div></div>","null","","","","","",""
"html-keyboard-response","29","72943","0.0-5.0-2.8","60fcd9368e8d2b8740cf9251","bdp_rd","Sat Apr 15 2023 08:49:06 GMT-0400 (Eastern Daylight Time)","190681","","5486","","","","offer","","<div class='trialBorder'><div class='vertical-center'><img style='vertical-align:center; align:center' src=img/fixation3.jpg></div><div class='cl'><div class='vertical-center'>$13<br>for<br>sure</div></div><div class='cr'><div class='vertical-center'>$41<br>with a<br>50% chance</div></div><div class='respDivL'><div class='vertical-center'>(E)</div></div><div class='respDivR'><div class='vertical-center'>(I)</div></div></div>","I","$13","$41","0","13","41","RISKY"
"html-keyboard-response","30","73198","0.0-5.0-3.8","60fcd9368e8d2b8740cf9251","bdp_rd","Sat Apr 15 2023 08:49:06 GMT-0400 (Eastern Daylight Time)","190681","","null","","","","offerFB","","<div class='trialBorder'><div class='vertical-center'><img style='vertical-align:center; align:center' src=img/fixation3.jpg></div><div class='cl'><div class='vertical-center'>$13<br>for<br>sure</div></div><div class='cr'><div class='vertical-center'><font style='color:orange'>$41<br>with a<br>50% chance</font></div></div><div class='respDivL'><div class='vertical-center'>(E)</div></div><div class='respDivR'><div class='vertical-center'><font style='color:orange'>(I)</font></div></div></div>","null","$13","$41","0","13","41",""
"html-keyboard-response","31","73705","0.0-5.0-1.9","60fcd9368e8d2b8740cf9251","bdp_rd","Sat Apr 15 2023 08:49:06 GMT-0400 (Eastern Daylight Time)","190681","","null","","","","FIX","","<div class='trialBorder'><div class='vertical-center'><img style='vertical-align:center; align:center' src=img/fixation3.jpg></div></div>","null","","","","","",""
"html-keyboard-response","32","74948","0.0-5.0-2.9","60fcd9368e8d2b8740cf9251","bdp_rd","Sat Apr 15 2023 08:49:06 GMT-0400 (Eastern Daylight Time)","190681","","1242","","","","offer","","<div class='trialBorder'><div class='vertical-center'><img style='vertical-align:center; align:center' src=img/fixation3.jpg></div><div class='cl'><div class='vertical-center'>$21<br>with a<br>50% chance</div></div><div class='cr'><div class='vertical-center'>$2<br>for<br>sure</div></div><div class='respDivL'><div class='vertical-center'>(E)</div></div><div class='respDivR'><div class='vertical-center'>(I)</div></div></div>","E","$2","$21","1","2","21","RISKY"
"html-keyboard-response","33","75206","0.0-5.0-3.9","60fcd9368e8d2b8740cf9251","bdp_rd","Sat Apr 15 2023 08:49:06 GMT-0400 (Eastern Daylight Time)","190681","","null","","","","offerFB","","<div class='trialBorder'><div class='vertical-center'><img style='vertical-align:center; align:center' src=img/fixation3.jpg></div><div class='cl'><div class='vertical-center'><font style='color:orange'>$21<br>with a<br>50% chance</font></div></div><div class='cr'><div class='vertical-center'>$2<br>for<br>sure</div></div><div class='respDivL'><div class='vertical-center'><font style='color:orange'>(E)</font></div></div><div class='respDivR'><div class='vertical-center'>(I)</div></div></div>","null","$2","$21","1","2","21",""
"html-keyboard-response","34","75713","0.0-5.0-1.10","60fcd9368e8d2b8740cf9251","bdp_rd","Sat Apr 15 2023 08:49:06 GMT-0400 (Eastern Daylight Time)","190681","","null","","","","FIX","","<div class='trialBorder'><div class='vertical-center'><img style='vertical-align:center; align:center' src=img/fixation3.jpg></div></div>","null","","","","","",""
"html-keyboard-response","35","77675","0.0-5.0-2.10","60fcd9368e8d2b8740cf9251","bdp_rd","Sat Apr 15 2023 08:49:06 GMT-0400 (Eastern Daylight Time)","190681","","1960","","","","offer","","<div class='trialBorder'><div class='vertical-center'><img style='vertical-align:center; align:center' src=img/fixation3.jpg></div><div class='cl'><div class='vertical-center'>$16<br>with a<br>50% chance</div></div><div class='cr'><div class='vertical-center'>$5<br>for<br>sure</div></div><div class='respDivL'><div class='vertical-center'>(E)</div></div><div class='respDivR'><div class='vertical-center'>(I)</div></div></div>","E","$5","$16","1","5","16","RISKY"
"html-keyboard-response","36","77935","0.0-5.0-3.10","60fcd9368e8d2b8740cf9251","bdp_rd","Sat Apr 15 2023 08:49:06 GMT-0400 (Eastern Daylight Time)","190681","","null","","","","offerFB","","<div class='trialBorder'><div class='vertical-center'><img style='vertical-align:center; align:center' src=img/fixation3.jpg></div><div class='cl'><div class='vertical-center'><font style='color:orange'>$16<br>with a<br>50% chance</font></div></div><div class='cr'><div class='vertical-center'>$5<br>for<br>sure</div></div><div class='respDivL'><div class='vertical-center'><font style='color:orange'>(E)</font></div></div><div class='respDivR'><div class='vertical-center'>(I)</div></div></div>","null","$5","$16","1","5","16",""
"html-keyboard-response","37","78441","0.0-5.0-1.11","60fcd9368e8d2b8740cf9251","bdp_rd","Sat Apr 15 2023 08:49:06 GMT-0400 (Eastern Daylight Time)","190681","","null","","","","FIX","","<div class='trialBorder'><div class='vertical-center'><img style='vertical-align:center; align:center' src=img/fixation3.jpg></div></div>","null","","","","","",""
"html-keyboard-response","38","81502","0.0-5.0-2.11","60fcd9368e8d2b8740cf9251","bdp_rd","Sat Apr 15 2023 08:49:06 GMT-0400 (Eastern Daylight Time)","190681","","3060","","","","offer","","<div class='trialBorder'><div class='vertical-center'><img style='vertical-align:center; align:center' src=img/fixation3.jpg></div><div class='cl'><div class='vertical-center'>$22<br>for<br>sure</div></div><div class='cr'><div class='vertical-center'>$42<br>with a<br>50% chance</div></div><div class='respDivL'><div class='vertical-center'>(E)</div></div><div class='respDivR'><div class='vertical-center'>(I)</div></div></div>","E","$22","$42","0","22","42","SURE"
"html-keyboard-response","39","81759","0.0-5.0-3.11","60fcd9368e8d2b8740cf9251","bdp_rd","Sat Apr 15 2023 08:49:06 GMT-0400 (Eastern Daylight Time)","190681","","null","","","","offerFB","","<div class='trialBorder'><div class='vertical-center'><img style='vertical-align:center; align:center' src=img/fixation3.jpg></div><div class='cl'><div class='vertical-center'><font style='color:orange'>$22<br>for<br>sure</font></div></div><div class='cr'><div class='vertical-center'>$42<br>with a<br>50% chance</div></div><div class='respDivL'><div class='vertical-center'><font style='color:orange'>(E)</font></div></div><div class='respDivR'><div class='vertical-center'>(I)</div></div></div>","null","$22","$42","0","22","42",""
"html-keyboard-response","40","82262","0.0-5.0-1.12","60fcd9368e8d2b8740cf9251","bdp_rd","Sat Apr 15 2023 08:49:06 GMT-0400 (Eastern Daylight Time)","190681","","null","","","","FIX","","<div class='trialBorder'><div class='vertical-center'><img style='vertical-align:center; align:center' src=img/fixation3.jpg></div></div>","null","","","","","",""
"html-keyboard-response","41","86724","0.0-5.0-2.12","60fcd9368e8d2b8740cf9251","bdp_rd","Sat Apr 15 2023 08:49:06 GMT-0400 (Eastern Daylight Time)","190681","","4461","","","","offer","","<div class='trialBorder'><div class='vertical-center'><img style='vertical-align:center; align:center' src=img/fixation3.jpg></div><div class='cl'><div class='vertical-center'>$54<br>with a<br>50% chance</div></div><div class='cr'><div class='vertical-center'>$25<br>for<br>sure</div></div><div class='respDivL'><div class='vertical-center'>(E)</div></div><div class='respDivR'><div class='vertical-center'>(I)</div></div></div>","E","$25","$54","1","25","54","RISKY"
"html-keyboard-response","42","86981","0.0-5.0-3.12","60fcd9368e8d2b8740cf9251","bdp_rd","Sat Apr 15 2023 08:49:06 GMT-0400 (Eastern Daylight Time)","190681","","null","","","","offerFB","","<div class='trialBorder'><div class='vertical-center'><img style='vertical-align:center; align:center' src=img/fixation3.jpg></div><div class='cl'><div class='vertical-center'><font style='color:orange'>$54<br>with a<br>50% chance</font></div></div><div class='cr'><div class='vertical-center'>$25<br>for<br>sure</div></div><div class='respDivL'><div class='vertical-center'><font style='color:orange'>(E)</font></div></div><div class='respDivR'><div class='vertical-center'>(I)</div></div></div>","null","$25","$54","1","25","54",""
"html-keyboard-response","43","87489","0.0-5.0-1.13","60fcd9368e8d2b8740cf9251","bdp_rd","Sat Apr 15 2023 08:49:06 GMT-0400 (Eastern Daylight Time)","190681","","null","","","","FIX","","<div class='trialBorder'><div class='vertical-center'><img style='vertical-align:center; align:center' src=img/fixation3.jpg></div></div>","null","","","","","",""
"html-keyboard-response","44","88960","0.0-5.0-2.13","60fcd9368e8d2b8740cf9251","bdp_rd","Sat Apr 15 2023 08:49:06 GMT-0400 (Eastern Daylight Time)","190681","","1470","","","","offer","","<div class='trialBorder'><div class='vertical-center'><img style='vertical-align:center; align:center' src=img/fixation3.jpg></div><div class='cl'><div class='vertical-center'>$43<br>with a<br>50% chance</div></div><div class='cr'><div class='vertical-center'>$17<br>for<br>sure</div></div><div class='respDivL'><div class='vertical-center'>(E)</div></div><div class='respDivR'><div class='vertical-center'>(I)</div></div></div>","E","$17","$43","1","17","43","RISKY"
"html-keyboard-response","45","89215","0.0-5.0-3.13","60fcd9368e8d2b8740cf9251","bdp_rd","Sat Apr 15 2023 08:49:06 GMT-0400 (Eastern Daylight Time)","190681","","null","","","","offerFB","","<div class='trialBorder'><div class='vertical-center'><img style='vertical-align:center; align:center' src=img/fixation3.jpg></div><div class='cl'><div class='vertical-center'><font style='color:orange'>$43<br>with a<br>50% chance</font></div></div><div class='cr'><div class='vertical-center'>$17<br>for<br>sure</div></div><div class='respDivL'><div class='vertical-center'><font style='color:orange'>(E)</font></div></div><div class='respDivR'><div class='vertical-center'>(I)</div></div></div>","null","$17","$43","1","17","43",""
"html-keyboard-response","46","89721","0.0-5.0-1.14","60fcd9368e8d2b8740cf9251","bdp_rd","Sat Apr 15 2023 08:49:06 GMT-0400 (Eastern Daylight Time)","190681","","null","","","","FIX","","<div class='trialBorder'><div class='vertical-center'><img style='vertical-align:center; align:center' src=img/fixation3.jpg></div></div>","null","","","","","",""
"html-keyboard-response","47","92447","0.0-5.0-2.14","60fcd9368e8d2b8740cf9251","bdp_rd","Sat Apr 15 2023 08:49:06 GMT-0400 (Eastern Daylight Time)","190681","","2724","","","","offer","","<div class='trialBorder'><div class='vertical-center'><img style='vertical-align:center; align:center' src=img/fixation3.jpg></div><div class='cl'><div class='vertical-center'>$65<br>with a<br>50% chance</div></div><div class='cr'><div class='vertical-center'>$46<br>for<br>sure</div></div><div class='respDivL'><div class='vertical-center'>(E)</div></div><div class='respDivR'><div class='vertical-center'>(I)</div></div></div>","I","$46","$65","1","46","65","SURE"
"html-keyboard-response","48","92704","0.0-5.0-3.14","60fcd9368e8d2b8740cf9251","bdp_rd","Sat Apr 15 2023 08:49:06 GMT-0400 (Eastern Daylight Time)","190681","","null","","","","offerFB","","<div class='trialBorder'><div class='vertical-center'><img style='vertical-align:center; align:center' src=img/fixation3.jpg></div><div class='cl'><div class='vertical-center'>$65<br>with a<br>50% chance</div></div><div class='cr'><div class='vertical-center'><font style='color:orange'>$46<br>for<br>sure</font></div></div><div class='respDivL'><div class='vertical-center'>(E)</div></div><div class='respDivR'><div class='vertical-center'><font style='color:orange'>(I)</font></div></div></div>","null","$46","$65","1","46","65",""
"html-keyboard-response","49","93215","0.0-5.0-1.15","60fcd9368e8d2b8740cf9251","bdp_rd","Sat Apr 15 2023 08:49:06 GMT-0400 (Eastern Daylight Time)","190681","","null","","","","FIX","","<div class='trialBorder'><div class='vertical-center'><img style='vertical-align:center; align:center' src=img/fixation3.jpg></div></div>","null","","","","","",""
"html-keyboard-response","50","95322","0.0-5.0-2.15","60fcd9368e8d2b8740cf9251","bdp_rd","Sat Apr 15 2023 08:49:06 GMT-0400 (Eastern Daylight Time)","190681","","2105","","","","offer","","<div class='trialBorder'><div class='vertical-center'><img style='vertical-align:center; align:center' src=img/fixation3.jpg></div><div class='cl'><div class='vertical-center'>$22<br>for<br>sure</div></div><div class='cr'><div class='vertical-center'>$59<br>with a<br>50% chance</div></div><div class='respDivL'><div class='vertical-center'>(E)</div></div><div class='respDivR'><div class='vertical-center'>(I)</div></div></div>","I","$22","$59","0","22","59","RISKY"
"html-keyboard-response","51","95583","0.0-5.0-3.15","60fcd9368e8d2b8740cf9251","bdp_rd","Sat Apr 15 2023 08:49:06 GMT-0400 (Eastern Daylight Time)","190681","","null","","","","offerFB","","<div class='trialBorder'><div class='vertical-center'><img style='vertical-align:center; align:center' src=img/fixation3.jpg></div><div class='cl'><div class='vertical-center'>$22<br>for<br>sure</div></div><div class='cr'><div class='vertical-center'><font style='color:orange'>$59<br>with a<br>50% chance</font></div></div><div class='respDivL'><div class='vertical-center'>(E)</div></div><div class='respDivR'><div class='vertical-center'><font style='color:orange'>(I)</font></div></div></div>","null","$22","$59","0","22","59",""
"html-keyboard-response","52","96089","0.0-5.0-1.16","60fcd9368e8d2b8740cf9251","bdp_rd","Sat Apr 15 2023 08:49:06 GMT-0400 (Eastern Daylight Time)","190681","","null","","","","FIX","","<div class='trialBorder'><div class='vertical-center'><img style='vertical-align:center; align:center' src=img/fixation3.jpg></div></div>","null","","","","","",""
"html-keyboard-response","53","97042","0.0-5.0-2.16","60fcd9368e8d2b8740cf9251","bdp_rd","Sat Apr 15 2023 08:49:06 GMT-0400 (Eastern Daylight Time)","190681","","950","","","","offer","","<div class='trialBorder'><div class='vertical-center'><img style='vertical-align:center; align:center' src=img/fixation3.jpg></div><div class='cl'><div class='vertical-center'>$17<br>with a<br>50% chance</div></div><div class='cr'><div class='vertical-center'>$3<br>for<br>sure</div></div><div class='respDivL'><div class='vertical-center'>(E)</div></div><div class='respDivR'><div class='vertical-center'>(I)</div></div></div>","E","$3","$17","1","3","17","RISKY"
"html-keyboard-response","54","97305","0.0-5.0-3.16","60fcd9368e8d2b8740cf9251","bdp_rd","Sat Apr 15 2023 08:49:06 GMT-0400 (Eastern Daylight Time)","190681","","null","","","","offerFB","","<div class='trialBorder'><div class='vertical-center'><img style='vertical-align:center; align:center' src=img/fixation3.jpg></div><div class='cl'><div class='vertical-center'><font style='color:orange'>$17<br>with a<br>50% chance</font></div></div><div class='cr'><div class='vertical-center'>$3<br>for<br>sure</div></div><div class='respDivL'><div class='vertical-center'><font style='color:orange'>(E)</font></div></div><div class='respDivR'><div class='vertical-center'>(I)</div></div></div>","null","$3","$17","1","3","17",""
"html-keyboard-response","55","97813","0.0-5.0-1.17","60fcd9368e8d2b8740cf9251","bdp_rd","Sat Apr 15 2023 08:49:06 GMT-0400 (Eastern Daylight Time)","190681","","null","","","","FIX","","<div class='trialBorder'><div class='vertical-center'><img style='vertical-align:center; align:center' src=img/fixation3.jpg></div></div>","null","","","","","",""
"html-keyboard-response","56","99280","0.0-5.0-2.17","60fcd9368e8d2b8740cf9251","bdp_rd","Sat Apr 15 2023 08:49:06 GMT-0400 (Eastern Daylight Time)","190681","","1465","","","","offer","","<div class='trialBorder'><div class='vertical-center'><img style='vertical-align:center; align:center' src=img/fixation3.jpg></div><div class='cl'><div class='vertical-center'>$28<br>with a<br>50% chance</div></div><div class='cr'><div class='vertical-center'>$16<br>for<br>sure</div></div><div class='respDivL'><div class='vertical-center'>(E)</div></div><div class='respDivR'><div class='vertical-center'>(I)</div></div></div>","E","$16","$28","1","16","28","RISKY"
"html-keyboard-response","57","99535","0.0-5.0-3.17","60fcd9368e8d2b8740cf9251","bdp_rd","Sat Apr 15 2023 08:49:06 GMT-0400 (Eastern Daylight Time)","190681","","null","","","","offerFB","","<div class='trialBorder'><div class='vertical-center'><img style='vertical-align:center; align:center' src=img/fixation3.jpg></div><div class='cl'><div class='vertical-center'><font style='color:orange'>$28<br>with a<br>50% chance</font></div></div><div class='cr'><div class='vertical-center'>$16<br>for<br>sure</div></div><div class='respDivL'><div class='vertical-center'><font style='color:orange'>(E)</font></div></div><div class='respDivR'><div class='vertical-center'>(I)</div></div></div>","null","$16","$28","1","16","28",""
"html-keyboard-response","58","100037","0.0-5.0-1.18","60fcd9368e8d2b8740cf9251","bdp_rd","Sat Apr 15 2023 08:49:06 GMT-0400 (Eastern Daylight Time)","190681","","null","","","","FIX","","<div class='trialBorder'><div class='vertical-center'><img style='vertical-align:center; align:center' src=img/fixation3.jpg></div></div>","null","","","","","",""
"html-keyboard-response","59","100856","0.0-5.0-2.18","60fcd9368e8d2b8740cf9251","bdp_rd","Sat Apr 15 2023 08:49:06 GMT-0400 (Eastern Daylight Time)","190681","","818","","","","offer","","<div class='trialBorder'><div class='vertical-center'><img style='vertical-align:center; align:center' src=img/fixation3.jpg></div><div class='cl'><div class='vertical-center'>$3<br>for<br>sure</div></div><div class='cr'><div class='vertical-center'>$12<br>with a<br>50% chance</div></div><div class='respDivL'><div class='vertical-center'>(E)</div></div><div class='respDivR'><div class='vertical-center'>(I)</div></div></div>","I","$3","$12","0","3","12","RISKY"
"html-keyboard-response","60","101113","0.0-5.0-3.18","60fcd9368e8d2b8740cf9251","bdp_rd","Sat Apr 15 2023 08:49:06 GMT-0400 (Eastern Daylight Time)","190681","","null","","","","offerFB","","<div class='trialBorder'><div class='vertical-center'><img style='vertical-align:center; align:center' src=img/fixation3.jpg></div><div class='cl'><div class='vertical-center'>$3<br>for<br>sure</div></div><div class='cr'><div class='vertical-center'><font style='color:orange'>$12<br>with a<br>50% chance</font></div></div><div class='respDivL'><div class='vertical-center'>(E)</div></div><div class='respDivR'><div class='vertical-center'><font style='color:orange'>(I)</font></div></div></div>","null","$3","$12","0","3","12",""
"html-keyboard-response","61","101622","0.0-5.0-1.19","60fcd9368e8d2b8740cf9251","bdp_rd","Sat Apr 15 2023 08:49:06 GMT-0400 (Eastern Daylight Time)","190681","","null","","","","FIX","","<div class='trialBorder'><div class='vertical-center'><img style='vertical-align:center; align:center' src=img/fixation3.jpg></div></div>","null","","","","","",""
"html-keyboard-response","62","102514","0.0-5.0-2.19","60fcd9368e8d2b8740cf9251","bdp_rd","Sat Apr 15 2023 08:49:06 GMT-0400 (Eastern Daylight Time)","190681","","890","","","","offer","","<div class='trialBorder'><div class='vertical-center'><img style='vertical-align:center; align:center' src=img/fixation3.jpg></div><div class='cl'><div class='vertical-center'>$2<br>for<br>sure</div></div><div class='cr'><div class='vertical-center'>$64<br>with a<br>50% chance</div></div><div class='respDivL'><div class='vertical-center'>(E)</div></div><div class='respDivR'><div class='vertical-center'>(I)</div></div></div>","I","$2","$64","0","2","64","RISKY"
"html-keyboard-response","63","102767","0.0-5.0-3.19","60fcd9368e8d2b8740cf9251","bdp_rd","Sat Apr 15 2023 08:49:06 GMT-0400 (Eastern Daylight Time)","190681","","null","","","","offerFB","","<div class='trialBorder'><div class='vertical-center'><img style='vertical-align:center; align:center' src=img/fixation3.jpg></div><div class='cl'><div class='vertical-center'>$2<br>for<br>sure</div></div><div class='cr'><div class='vertical-center'><font style='color:orange'>$64<br>with a<br>50% chance</font></div></div><div class='respDivL'><div class='vertical-center'>(E)</div></div><div class='respDivR'><div class='vertical-center'><font style='color:orange'>(I)</font></div></div></div>","null","$2","$64","0","2","64",""
"html-keyboard-response","64","103274","0.0-5.0-1.20","60fcd9368e8d2b8740cf9251","bdp_rd","Sat Apr 15 2023 08:49:06 GMT-0400 (Eastern Daylight Time)","190681","","null","","","","FIX","","<div class='trialBorder'><div class='vertical-center'><img style='vertical-align:center; align:center' src=img/fixation3.jpg></div></div>","null","","","","","",""
"html-keyboard-response","65","104521","0.0-5.0-2.20","60fcd9368e8d2b8740cf9251","bdp_rd","Sat Apr 15 2023 08:49:06 GMT-0400 (Eastern Daylight Time)","190681","","1245","","","","offer","","<div class='trialBorder'><div class='vertical-center'><img style='vertical-align:center; align:center' src=img/fixation3.jpg></div><div class='cl'><div class='vertical-center'>$45<br>for<br>sure</div></div><div class='cr'><div class='vertical-center'>$86<br>with a<br>50% chance</div></div><div class='respDivL'><div class='vertical-center'>(E)</div></div><div class='respDivR'><div class='vertical-center'>(I)</div></div></div>","I","$45","$86","0","45","86","RISKY"
"html-keyboard-response","66","104773","0.0-5.0-3.20","60fcd9368e8d2b8740cf9251","bdp_rd","Sat Apr 15 2023 08:49:06 GMT-0400 (Eastern Daylight Time)","190681","","null","","","","offerFB","","<div class='trialBorder'><div class='vertical-center'><img style='vertical-align:center; align:center' src=img/fixation3.jpg></div><div class='cl'><div class='vertical-center'>$45<br>for<br>sure</div></div><div class='cr'><div class='vertical-center'><font style='color:orange'>$86<br>with a<br>50% chance</font></div></div><div class='respDivL'><div class='vertical-center'>(E)</div></div><div class='respDivR'><div class='vertical-center'><font style='color:orange'>(I)</font></div></div></div>","null","$45","$86","0","45","86",""
"html-keyboard-response","67","105279","0.0-5.0-1.21","60fcd9368e8d2b8740cf9251","bdp_rd","Sat Apr 15 2023 08:49:06 GMT-0400 (Eastern Daylight Time)","190681","","null","","","","FIX","","<div class='trialBorder'><div class='vertical-center'><img style='vertical-align:center; align:center' src=img/fixation3.jpg></div></div>","null","","","","","",""
"html-keyboard-response","68","107330","0.0-5.0-2.21","60fcd9368e8d2b8740cf9251","bdp_rd","Sat Apr 15 2023 08:49:06 GMT-0400 (Eastern Daylight Time)","190681","","2050","","","","offer","","<div class='trialBorder'><div class='vertical-center'><img style='vertical-align:center; align:center' src=img/fixation3.jpg></div><div class='cl'><div class='vertical-center'>$34<br>with a<br>50% chance</div></div><div class='cr'><div class='vertical-center'>$15<br>for<br>sure</div></div><div class='respDivL'><div class='vertical-center'>(E)</div></div><div class='respDivR'><div class='vertical-center'>(I)</div></div></div>","E","$15","$34","1","15","34","RISKY"
"html-keyboard-response","69","107590","0.0-5.0-3.21","60fcd9368e8d2b8740cf9251","bdp_rd","Sat Apr 15 2023 08:49:06 GMT-0400 (Eastern Daylight Time)","190681","","null","","","","offerFB","","<div class='trialBorder'><div class='vertical-center'><img style='vertical-align:center; align:center' src=img/fixation3.jpg></div><div class='cl'><div class='vertical-center'><font style='color:orange'>$34<br>with a<br>50% chance</font></div></div><div class='cr'><div class='vertical-center'>$15<br>for<br>sure</div></div><div class='respDivL'><div class='vertical-center'><font style='color:orange'>(E)</font></div></div><div class='respDivR'><div class='vertical-center'>(I)</div></div></div>","null","$15","$34","1","15","34",""
"html-keyboard-response","70","108095","0.0-5.0-1.22","60fcd9368e8d2b8740cf9251","bdp_rd","Sat Apr 15 2023 08:49:06 GMT-0400 (Eastern Daylight Time)","190681","","null","","","","FIX","","<div class='trialBorder'><div class='vertical-center'><img style='vertical-align:center; align:center' src=img/fixation3.jpg></div></div>","null","","","","","",""
"html-keyboard-response","71","108818","0.0-5.0-2.22","60fcd9368e8d2b8740cf9251","bdp_rd","Sat Apr 15 2023 08:49:06 GMT-0400 (Eastern Daylight Time)","190681","","721","","","","offer","","<div class='trialBorder'><div class='vertical-center'><img style='vertical-align:center; align:center' src=img/fixation3.jpg></div><div class='cl'><div class='vertical-center'>$7<br>for<br>sure</div></div><div class='cr'><div class='vertical-center'>$10<br>with a<br>50% chance</div></div><div class='respDivL'><div class='vertical-center'>(E)</div></div><div class='respDivR'><div class='vertical-center'>(I)</div></div></div>","I","$7","$10","0","7","10","RISKY"
"html-keyboard-response","72","109079","0.0-5.0-3.22","60fcd9368e8d2b8740cf9251","bdp_rd","Sat Apr 15 2023 08:49:06 GMT-0400 (Eastern Daylight Time)","190681","","null","","","","offerFB","","<div class='trialBorder'><div class='vertical-center'><img style='vertical-align:center; align:center' src=img/fixation3.jpg></div><div class='cl'><div class='vertical-center'>$7<br>for<br>sure</div></div><div class='cr'><div class='vertical-center'><font style='color:orange'>$10<br>with a<br>50% chance</font></div></div><div class='respDivL'><div class='vertical-center'>(E)</div></div><div class='respDivR'><div class='vertical-center'><font style='color:orange'>(I)</font></div></div></div>","null","$7","$10","0","7","10",""
"html-keyboard-response","73","109584","0.0-5.0-1.23","60fcd9368e8d2b8740cf9251","bdp_rd","Sat Apr 15 2023 08:49:06 GMT-0400 (Eastern Daylight Time)","190681","","null","","","","FIX","","<div class='trialBorder'><div class='vertical-center'><img style='vertical-align:center; align:center' src=img/fixation3.jpg></div></div>","null","","","","","",""
"html-keyboard-response","74","116568","0.0-5.0-2.23","60fcd9368e8d2b8740cf9251","bdp_rd","Sat Apr 15 2023 08:49:06 GMT-0400 (Eastern Daylight Time)","190681","","6982","","","","offer","","<div class='trialBorder'><div class='vertical-center'><img style='vertical-align:center; align:center' src=img/fixation3.jpg></div><div class='cl'><div class='vertical-center'>$35<br>with a<br>50% chance</div></div><div class='cr'><div class='vertical-center'>$12<br>for<br>sure</div></div><div class='respDivL'><div class='vertical-center'>(E)</div></div><div class='respDivR'><div class='vertical-center'>(I)</div></div></div>","I","$12","$35","1","12","35","SURE"
"html-keyboard-response","75","116822","0.0-5.0-3.23","60fcd9368e8d2b8740cf9251","bdp_rd","Sat Apr 15 2023 08:49:06 GMT-0400 (Eastern Daylight Time)","190681","","null","","","","offerFB","","<div class='trialBorder'><div class='vertical-center'><img style='vertical-align:center; align:center' src=img/fixation3.jpg></div><div class='cl'><div class='vertical-center'>$35<br>with a<br>50% chance</div></div><div class='cr'><div class='vertical-center'><font style='color:orange'>$12<br>for<br>sure</font></div></div><div class='respDivL'><div class='vertical-center'>(E)</div></div><div class='respDivR'><div class='vertical-center'><font style='color:orange'>(I)</font></div></div></div>","null","$12","$35","1","12","35",""
"html-keyboard-response","76","117329","0.0-5.0-1.24","60fcd9368e8d2b8740cf9251","bdp_rd","Sat Apr 15 2023 08:49:06 GMT-0400 (Eastern Daylight Time)","190681","","null","","","","FIX","","<div class='trialBorder'><div class='vertical-center'><img style='vertical-align:center; align:center' src=img/fixation3.jpg></div></div>","null","","","","","",""
"html-keyboard-response","77","118973","0.0-5.0-2.24","60fcd9368e8d2b8740cf9251","bdp_rd","Sat Apr 15 2023 08:49:06 GMT-0400 (Eastern Daylight Time)","190681","","1642","","","","offer","","<div class='trialBorder'><div class='vertical-center'><img style='vertical-align:center; align:center' src=img/fixation3.jpg></div><div class='cl'><div class='vertical-center'>$25<br>with a<br>50% chance</div></div><div class='cr'><div class='vertical-center'>$21<br>for<br>sure</div></div><div class='respDivL'><div class='vertical-center'>(E)</div></div><div class='respDivR'><div class='vertical-center'>(I)</div></div></div>","I","$21","$25","1","21","25","SURE"
"html-keyboard-response","78","119232","0.0-5.0-3.24","60fcd9368e8d2b8740cf9251","bdp_rd","Sat Apr 15 2023 08:49:06 GMT-0400 (Eastern Daylight Time)","190681","","null","","","","offerFB","","<div class='trialBorder'><div class='vertical-center'><img style='vertical-align:center; align:center' src=img/fixation3.jpg></div><div class='cl'><div class='vertical-center'>$25<br>with a<br>50% chance</div></div><div class='cr'><div class='vertical-center'><font style='color:orange'>$21<br>for<br>sure</font></div></div><div class='respDivL'><div class='vertical-center'>(E)</div></div><div class='respDivR'><div class='vertical-center'><font style='color:orange'>(I)</font></div></div></div>","null","$21","$25","1","21","25",""
"html-keyboard-response","79","119738","0.0-5.0-1.25","60fcd9368e8d2b8740cf9251","bdp_rd","Sat Apr 15 2023 08:49:06 GMT-0400 (Eastern Daylight Time)","190681","","null","","","","FIX","","<div class='trialBorder'><div class='vertical-center'><img style='vertical-align:center; align:center' src=img/fixation3.jpg></div></div>","null","","","","","",""
"html-keyboard-response","80","120599","0.0-5.0-2.25","60fcd9368e8d2b8740cf9251","bdp_rd","Sat Apr 15 2023 08:49:06 GMT-0400 (Eastern Daylight Time)","190681","","860","","","","offer","","<div class='trialBorder'><div class='vertical-center'><img style='vertical-align:center; align:center' src=img/fixation3.jpg></div><div class='cl'><div class='vertical-center'>$36<br>with a<br>50% chance</div></div><div class='cr'><div class='vertical-center'>$18<br>for<br>sure</div></div><div class='respDivL'><div class='vertical-center'>(E)</div></div><div class='respDivR'><div class='vertical-center'>(I)</div></div></div>","E","$18","$36","1","18","36","RISKY"
"html-keyboard-response","81","120858","0.0-5.0-3.25","60fcd9368e8d2b8740cf9251","bdp_rd","Sat Apr 15 2023 08:49:06 GMT-0400 (Eastern Daylight Time)","190681","","null","","","","offerFB","","<div class='trialBorder'><div class='vertical-center'><img style='vertical-align:center; align:center' src=img/fixation3.jpg></div><div class='cl'><div class='vertical-center'><font style='color:orange'>$36<br>with a<br>50% chance</font></div></div><div class='cr'><div class='vertical-center'>$18<br>for<br>sure</div></div><div class='respDivL'><div class='vertical-center'><font style='color:orange'>(E)</font></div></div><div class='respDivR'><div class='vertical-center'>(I)</div></div></div>","null","$18","$36","1","18","36",""
"html-keyboard-response","82","121366","0.0-5.0-1.26","60fcd9368e8d2b8740cf9251","bdp_rd","Sat Apr 15 2023 08:49:06 GMT-0400 (Eastern Daylight Time)","190681","","null","","","","FIX","","<div class='trialBorder'><div class='vertical-center'><img style='vertical-align:center; align:center' src=img/fixation3.jpg></div></div>","null","","","","","",""
"html-keyboard-response","83","122305","0.0-5.0-2.26","60fcd9368e8d2b8740cf9251","bdp_rd","Sat Apr 15 2023 08:49:06 GMT-0400 (Eastern Daylight Time)","190681","","937","","","","offer","","<div class='trialBorder'><div class='vertical-center'><img style='vertical-align:center; align:center' src=img/fixation3.jpg></div><div class='cl'><div class='vertical-center'>$10<br>for<br>sure</div></div><div class='cr'><div class='vertical-center'>$19<br>with a<br>50% chance</div></div><div class='respDivL'><div class='vertical-center'>(E)</div></div><div class='respDivR'><div class='vertical-center'>(I)</div></div></div>","I","$10","$19","0","10","19","RISKY"
"html-keyboard-response","84","122562","0.0-5.0-3.26","60fcd9368e8d2b8740cf9251","bdp_rd","Sat Apr 15 2023 08:49:06 GMT-0400 (Eastern Daylight Time)","190681","","null","","","","offerFB","","<div class='trialBorder'><div class='vertical-center'><img style='vertical-align:center; align:center' src=img/fixation3.jpg></div><div class='cl'><div class='vertical-center'>$10<br>for<br>sure</div></div><div class='cr'><div class='vertical-center'><font style='color:orange'>$19<br>with a<br>50% chance</font></div></div><div class='respDivL'><div class='vertical-center'>(E)</div></div><div class='respDivR'><div class='vertical-center'><font style='color:orange'>(I)</font></div></div></div>","null","$10","$19","0","10","19",""
"html-keyboard-response","85","123073","0.0-5.0-1.27","60fcd9368e8d2b8740cf9251","bdp_rd","Sat Apr 15 2023 08:49:06 GMT-0400 (Eastern Daylight Time)","190681","","null","","","","FIX","","<div class='trialBorder'><div class='vertical-center'><img style='vertical-align:center; align:center' src=img/fixation3.jpg></div></div>","null","","","","","",""
"html-keyboard-response","86","123866","0.0-5.0-2.27","60fcd9368e8d2b8740cf9251","bdp_rd","Sat Apr 15 2023 08:49:06 GMT-0400 (Eastern Daylight Time)","190681","","792","","","","offer","","<div class='trialBorder'><div class='vertical-center'><img style='vertical-align:center; align:center' src=img/fixation3.jpg></div><div class='cl'><div class='vertical-center'>$1<br>for<br>sure</div></div><div class='cr'><div class='vertical-center'>$33<br>with a<br>50% chance</div></div><div class='respDivL'><div class='vertical-center'>(E)</div></div><div class='respDivR'><div class='vertical-center'>(I)</div></div></div>","I","$1","$33","0","1","33","RISKY"
"html-keyboard-response","87","124129","0.0-5.0-3.27","60fcd9368e8d2b8740cf9251","bdp_rd","Sat Apr 15 2023 08:49:06 GMT-0400 (Eastern Daylight Time)","190681","","null","","","","offerFB","","<div class='trialBorder'><div class='vertical-center'><img style='vertical-align:center; align:center' src=img/fixation3.jpg></div><div class='cl'><div class='vertical-center'>$1<br>for<br>sure</div></div><div class='cr'><div class='vertical-center'><font style='color:orange'>$33<br>with a<br>50% chance</font></div></div><div class='respDivL'><div class='vertical-center'>(E)</div></div><div class='respDivR'><div class='vertical-center'><font style='color:orange'>(I)</font></div></div></div>","null","$1","$33","0","1","33",""
"html-keyboard-response","88","124639","0.0-5.0-1.28","60fcd9368e8d2b8740cf9251","bdp_rd","Sat Apr 15 2023 08:49:06 GMT-0400 (Eastern Daylight Time)","190681","","null","","","","FIX","","<div class='trialBorder'><div class='vertical-center'><img style='vertical-align:center; align:center' src=img/fixation3.jpg></div></div>","null","","","","","",""
"html-keyboard-response","89","126157","0.0-5.0-2.28","60fcd9368e8d2b8740cf9251","bdp_rd","Sat Apr 15 2023 08:49:06 GMT-0400 (Eastern Daylight Time)","190681","","1517","","","","offer","","<div class='trialBorder'><div class='vertical-center'><img style='vertical-align:center; align:center' src=img/fixation3.jpg></div><div class='cl'><div class='vertical-center'>$58<br>for<br>sure</div></div><div class='cr'><div class='vertical-center'>$69<br>with a<br>50% chance</div></div><div class='respDivL'><div class='vertical-center'>(E)</div></div><div class='respDivR'><div class='vertical-center'>(I)</div></div></div>","E","$58","$69","0","58","69","SURE"
"html-keyboard-response","90","126416","0.0-5.0-3.28","60fcd9368e8d2b8740cf9251","bdp_rd","Sat Apr 15 2023 08:49:06 GMT-0400 (Eastern Daylight Time)","190681","","null","","","","offerFB","","<div class='trialBorder'><div class='vertical-center'><img style='vertical-align:center; align:center' src=img/fixation3.jpg></div><div class='cl'><div class='vertical-center'><font style='color:orange'>$58<br>for<br>sure</font></div></div><div class='cr'><div class='vertical-center'>$69<br>with a<br>50% chance</div></div><div class='respDivL'><div class='vertical-center'><font style='color:orange'>(E)</font></div></div><div class='respDivR'><div class='vertical-center'>(I)</div></div></div>","null","$58","$69","0","58","69",""
"html-keyboard-response","91","126923","0.0-5.0-1.29","60fcd9368e8d2b8740cf9251","bdp_rd","Sat Apr 15 2023 08:49:06 GMT-0400 (Eastern Daylight Time)","190681","","null","","","","FIX","","<div class='trialBorder'><div class='vertical-center'><img style='vertical-align:center; align:center' src=img/fixation3.jpg></div></div>","null","","","","","",""
"html-keyboard-response","92","128749","0.0-5.0-2.29","60fcd9368e8d2b8740cf9251","bdp_rd","Sat Apr 15 2023 08:49:06 GMT-0400 (Eastern Daylight Time)","190681","","1824","","","","offer","","<div class='trialBorder'><div class='vertical-center'><img style='vertical-align:center; align:center' src=img/fixation3.jpg></div><div class='cl'><div class='vertical-center'>$20<br>for<br>sure</div></div><div class='cr'><div class='vertical-center'>$37<br>with a<br>50% chance</div></div><div class='respDivL'><div class='vertical-center'>(E)</div></div><div class='respDivR'><div class='vertical-center'>(I)</div></div></div>","E","$20","$37","0","20","37","SURE"
"html-keyboard-response","93","129008","0.0-5.0-3.29","60fcd9368e8d2b8740cf9251","bdp_rd","Sat Apr 15 2023 08:49:06 GMT-0400 (Eastern Daylight Time)","190681","","null","","","","offerFB","","<div class='trialBorder'><div class='vertical-center'><img style='vertical-align:center; align:center' src=img/fixation3.jpg></div><div class='cl'><div class='vertical-center'><font style='color:orange'>$20<br>for<br>sure</font></div></div><div class='cr'><div class='vertical-center'>$37<br>with a<br>50% chance</div></div><div class='respDivL'><div class='vertical-center'><font style='color:orange'>(E)</font></div></div><div class='respDivR'><div class='vertical-center'>(I)</div></div></div>","null","$20","$37","0","20","37",""
"html-keyboard-response","94","129515","0.0-5.0-1.30","60fcd9368e8d2b8740cf9251","bdp_rd","Sat Apr 15 2023 08:49:06 GMT-0400 (Eastern Daylight Time)","190681","","null","","","","FIX","","<div class='trialBorder'><div class='vertical-center'><img style='vertical-align:center; align:center' src=img/fixation3.jpg></div></div>","null","","","","","",""
"html-keyboard-response","95","131527","0.0-5.0-2.30","60fcd9368e8d2b8740cf9251","bdp_rd","Sat Apr 15 2023 08:49:06 GMT-0400 (Eastern Daylight Time)","190681","","2011","","","","offer","","<div class='trialBorder'><div class='vertical-center'><img style='vertical-align:center; align:center' src=img/fixation3.jpg></div><div class='cl'><div class='vertical-center'>$24<br>for<br>sure</div></div><div class='cr'><div class='vertical-center'>$70<br>with a<br>50% chance</div></div><div class='respDivL'><div class='vertical-center'>(E)</div></div><div class='respDivR'><div class='vertical-center'>(I)</div></div></div>","I","$24","$70","0","24","70","RISKY"
"html-keyboard-response","96","131782","0.0-5.0-3.30","60fcd9368e8d2b8740cf9251","bdp_rd","Sat Apr 15 2023 08:49:06 GMT-0400 (Eastern Daylight Time)","190681","","null","","","","offerFB","","<div class='trialBorder'><div class='vertical-center'><img style='vertical-align:center; align:center' src=img/fixation3.jpg></div><div class='cl'><div class='vertical-center'>$24<br>for<br>sure</div></div><div class='cr'><div class='vertical-center'><font style='color:orange'>$70<br>with a<br>50% chance</font></div></div><div class='respDivL'><div class='vertical-center'>(E)</div></div><div class='respDivR'><div class='vertical-center'><font style='color:orange'>(I)</font></div></div></div>","null","$24","$70","0","24","70",""
"html-keyboard-response","97","132289","0.0-5.0-1.31","60fcd9368e8d2b8740cf9251","bdp_rd","Sat Apr 15 2023 08:49:06 GMT-0400 (Eastern Daylight Time)","190681","","null","","","","FIX","","<div class='trialBorder'><div class='vertical-center'><img style='vertical-align:center; align:center' src=img/fixation3.jpg></div></div>","null","","","","","",""
"html-keyboard-response","98","133557","0.0-5.0-2.31","60fcd9368e8d2b8740cf9251","bdp_rd","Sat Apr 15 2023 08:49:06 GMT-0400 (Eastern Daylight Time)","190681","","1267","","","","offer","","<div class='trialBorder'><div class='vertical-center'><img style='vertical-align:center; align:center' src=img/fixation3.jpg></div><div class='cl'><div class='vertical-center'>$11<br>for<br>sure</div></div><div class='cr'><div class='vertical-center'>$26<br>with a<br>50% chance</div></div><div class='respDivL'><div class='vertical-center'>(E)</div></div><div class='respDivR'><div class='vertical-center'>(I)</div></div></div>","E","$11","$26","0","11","26","SURE"
"html-keyboard-response","99","133814","0.0-5.0-3.31","60fcd9368e8d2b8740cf9251","bdp_rd","Sat Apr 15 2023 08:49:06 GMT-0400 (Eastern Daylight Time)","190681","","null","","","","offerFB","","<div class='trialBorder'><div class='vertical-center'><img style='vertical-align:center; align:center' src=img/fixation3.jpg></div><div class='cl'><div class='vertical-center'><font style='color:orange'>$11<br>for<br>sure</font></div></div><div class='cr'><div class='vertical-center'>$26<br>with a<br>50% chance</div></div><div class='respDivL'><div class='vertical-center'><font style='color:orange'>(E)</font></div></div><div class='respDivR'><div class='vertical-center'>(I)</div></div></div>","null","$11","$26","0","11","26",""
"html-keyboard-response","100","134322","0.0-5.0-1.32","60fcd9368e8d2b8740cf9251","bdp_rd","Sat Apr 15 2023 08:49:06 GMT-0400 (Eastern Daylight Time)","190681","","null","","","","FIX","","<div class='trialBorder'><div class='vertical-center'><img style='vertical-align:center; align:center' src=img/fixation3.jpg></div></div>","null","","","","","",""
"html-keyboard-response","101","135346","0.0-5.0-2.32","60fcd9368e8d2b8740cf9251","bdp_rd","Sat Apr 15 2023 08:49:06 GMT-0400 (Eastern Daylight Time)","190681","","1022","","","","offer","","<div class='trialBorder'><div class='vertical-center'><img style='vertical-align:center; align:center' src=img/fixation3.jpg></div><div class='cl'><div class='vertical-center'>$50<br>with a<br>50% chance</div></div><div class='cr'><div class='vertical-center'>$5<br>for<br>sure</div></div><div class='respDivL'><div class='vertical-center'>(E)</div></div><div class='respDivR'><div class='vertical-center'>(I)</div></div></div>","E","$5","$50","1","5","50","RISKY"
"html-keyboard-response","102","135600","0.0-5.0-3.32","60fcd9368e8d2b8740cf9251","bdp_rd","Sat Apr 15 2023 08:49:06 GMT-0400 (Eastern Daylight Time)","190681","","null","","","","offerFB","","<div class='trialBorder'><div class='vertical-center'><img style='vertical-align:center; align:center' src=img/fixation3.jpg></div><div class='cl'><div class='vertical-center'><font style='color:orange'>$50<br>with a<br>50% chance</font></div></div><div class='cr'><div class='vertical-center'>$5<br>for<br>sure</div></div><div class='respDivL'><div class='vertical-center'><font style='color:orange'>(E)</font></div></div><div class='respDivR'><div class='vertical-center'>(I)</div></div></div>","null","$5","$50","1","5","50",""
"html-keyboard-response","103","136107","0.0-5.0-1.33","60fcd9368e8d2b8740cf9251","bdp_rd","Sat Apr 15 2023 08:49:06 GMT-0400 (Eastern Daylight Time)","190681","","null","","","","FIX","","<div class='trialBorder'><div class='vertical-center'><img style='vertical-align:center; align:center' src=img/fixation3.jpg></div></div>","null","","","","","",""
"html-keyboard-response","104","137120","0.0-5.0-2.33","60fcd9368e8d2b8740cf9251","bdp_rd","Sat Apr 15 2023 08:49:06 GMT-0400 (Eastern Daylight Time)","190681","","1012","","","","offer","","<div class='trialBorder'><div class='vertical-center'><img style='vertical-align:center; align:center' src=img/fixation3.jpg></div><div class='cl'><div class='vertical-center'>$62<br>with a<br>50% chance</div></div><div class='cr'><div class='vertical-center'>$11<br>for<br>sure</div></div><div class='respDivL'><div class='vertical-center'>(E)</div></div><div class='respDivR'><div class='vertical-center'>(I)</div></div></div>","E","$11","$62","1","11","62","RISKY"
"html-keyboard-response","105","137379","0.0-5.0-3.33","60fcd9368e8d2b8740cf9251","bdp_rd","Sat Apr 15 2023 08:49:06 GMT-0400 (Eastern Daylight Time)","190681","","null","","","","offerFB","","<div class='trialBorder'><div class='vertical-center'><img style='vertical-align:center; align:center' src=img/fixation3.jpg></div><div class='cl'><div class='vertical-center'><font style='color:orange'>$62<br>with a<br>50% chance</font></div></div><div class='cr'><div class='vertical-center'>$11<br>for<br>sure</div></div><div class='respDivL'><div class='vertical-center'><font style='color:orange'>(E)</font></div></div><div class='respDivR'><div class='vertical-center'>(I)</div></div></div>","null","$11","$62","1","11","62",""
"html-keyboard-response","106","137889","0.0-5.0-1.34","60fcd9368e8d2b8740cf9251","bdp_rd","Sat Apr 15 2023 08:49:06 GMT-0400 (Eastern Daylight Time)","190681","","null","","","","FIX","","<div class='trialBorder'><div class='vertical-center'><img style='vertical-align:center; align:center' src=img/fixation3.jpg></div></div>","null","","","","","",""
"html-keyboard-response","107","139573","0.0-5.0-2.34","60fcd9368e8d2b8740cf9251","bdp_rd","Sat Apr 15 2023 08:49:06 GMT-0400 (Eastern Daylight Time)","190681","","1682","","","","offer","","<div class='trialBorder'><div class='vertical-center'><img style='vertical-align:center; align:center' src=img/fixation3.jpg></div><div class='cl'><div class='vertical-center'>$8<br>for<br>sure</div></div><div class='cr'><div class='vertical-center'>$23<br>with a<br>50% chance</div></div><div class='respDivL'><div class='vertical-center'>(E)</div></div><div class='respDivR'><div class='vertical-center'>(I)</div></div></div>","I","$8","$23","0","8","23","RISKY"
"html-keyboard-response","108","139831","0.0-5.0-3.34","60fcd9368e8d2b8740cf9251","bdp_rd","Sat Apr 15 2023 08:49:06 GMT-0400 (Eastern Daylight Time)","190681","","null","","","","offerFB","","<div class='trialBorder'><div class='vertical-center'><img style='vertical-align:center; align:center' src=img/fixation3.jpg></div><div class='cl'><div class='vertical-center'>$8<br>for<br>sure</div></div><div class='cr'><div class='vertical-center'><font style='color:orange'>$23<br>with a<br>50% chance</font></div></div><div class='respDivL'><div class='vertical-center'>(E)</div></div><div class='respDivR'><div class='vertical-center'><font style='color:orange'>(I)</font></div></div></div>","null","$8","$23","0","8","23",""
"html-keyboard-response","109","140338","0.0-5.0-1.35","60fcd9368e8d2b8740cf9251","bdp_rd","Sat Apr 15 2023 08:49:06 GMT-0400 (Eastern Daylight Time)","190681","","null","","","","FIX","","<div class='trialBorder'><div class='vertical-center'><img style='vertical-align:center; align:center' src=img/fixation3.jpg></div></div>","null","","","","","",""
"html-keyboard-response","110","141782","0.0-5.0-2.35","60fcd9368e8d2b8740cf9251","bdp_rd","Sat Apr 15 2023 08:49:06 GMT-0400 (Eastern Daylight Time)","190681","","1443","","","","offer","","<div class='trialBorder'><div class='vertical-center'><img style='vertical-align:center; align:center' src=img/fixation3.jpg></div><div class='cl'><div class='vertical-center'>$22<br>with a<br>50% chance</div></div><div class='cr'><div class='vertical-center'>$14<br>for<br>sure</div></div><div class='respDivL'><div class='vertical-center'>(E)</div></div><div class='respDivR'><div class='vertical-center'>(I)</div></div></div>","I","$14","$22","1","14","22","SURE"
"html-keyboard-response","111","142039","0.0-5.0-3.35","60fcd9368e8d2b8740cf9251","bdp_rd","Sat Apr 15 2023 08:49:06 GMT-0400 (Eastern Daylight Time)","190681","","null","","","","offerFB","","<div class='trialBorder'><div class='vertical-center'><img style='vertical-align:center; align:center' src=img/fixation3.jpg></div><div class='cl'><div class='vertical-center'>$22<br>with a<br>50% chance</div></div><div class='cr'><div class='vertical-center'><font style='color:orange'>$14<br>for<br>sure</font></div></div><div class='respDivL'><div class='vertical-center'>(E)</div></div><div class='respDivR'><div class='vertical-center'><font style='color:orange'>(I)</font></div></div></div>","null","$14","$22","1","14","22",""
"html-keyboard-response","112","142546","0.0-5.0-1.36","60fcd9368e8d2b8740cf9251","bdp_rd","Sat Apr 15 2023 08:49:06 GMT-0400 (Eastern Daylight Time)","190681","","null","","","","FIX","","<div class='trialBorder'><div class='vertical-center'><img style='vertical-align:center; align:center' src=img/fixation3.jpg></div></div>","null","","","","","",""
"html-keyboard-response","113","143533","0.0-5.0-2.36","60fcd9368e8d2b8740cf9251","bdp_rd","Sat Apr 15 2023 08:49:06 GMT-0400 (Eastern Daylight Time)","190681","","986","","","","offer","","<div class='trialBorder'><div class='vertical-center'><img style='vertical-align:center; align:center' src=img/fixation3.jpg></div><div class='cl'><div class='vertical-center'>$12<br>for<br>sure</div></div><div class='cr'><div class='vertical-center'>$27<br>with a<br>50% chance</div></div><div class='respDivL'><div class='vertical-center'>(E)</div></div><div class='respDivR'><div class='vertical-center'>(I)</div></div></div>","E","$12","$27","0","12","27","SURE"
"html-keyboard-response","114","143793","0.0-5.0-3.36","60fcd9368e8d2b8740cf9251","bdp_rd","Sat Apr 15 2023 08:49:06 GMT-0400 (Eastern Daylight Time)","190681","","null","","","","offerFB","","<div class='trialBorder'><div class='vertical-center'><img style='vertical-align:center; align:center' src=img/fixation3.jpg></div><div class='cl'><div class='vertical-center'><font style='color:orange'>$12<br>for<br>sure</font></div></div><div class='cr'><div class='vertical-center'>$27<br>with a<br>50% chance</div></div><div class='respDivL'><div class='vertical-center'><font style='color:orange'>(E)</font></div></div><div class='respDivR'><div class='vertical-center'>(I)</div></div></div>","null","$12","$27","0","12","27",""
"html-keyboard-response","115","144295","0.0-5.0-1.37","60fcd9368e8d2b8740cf9251","bdp_rd","Sat Apr 15 2023 08:49:06 GMT-0400 (Eastern Daylight Time)","190681","","null","","","","FIX","","<div class='trialBorder'><div class='vertical-center'><img style='vertical-align:center; align:center' src=img/fixation3.jpg></div></div>","null","","","","","",""
"html-keyboard-response","116","145266","0.0-5.0-2.37","60fcd9368e8d2b8740cf9251","bdp_rd","Sat Apr 15 2023 08:49:06 GMT-0400 (Eastern Daylight Time)","190681","","970","","","","offer","","<div class='trialBorder'><div class='vertical-center'><img style='vertical-align:center; align:center' src=img/fixation3.jpg></div><div class='cl'><div class='vertical-center'>$45<br>with a<br>50% chance</div></div><div class='cr'><div class='vertical-center'>$8<br>for<br>sure</div></div><div class='respDivL'><div class='vertical-center'>(E)</div></div><div class='respDivR'><div class='vertical-center'>(I)</div></div></div>","E","$8","$45","1","8","45","RISKY"
"html-keyboard-response","117","145522","0.0-5.0-3.37","60fcd9368e8d2b8740cf9251","bdp_rd","Sat Apr 15 2023 08:49:06 GMT-0400 (Eastern Daylight Time)","190681","","null","","","","offerFB","","<div class='trialBorder'><div class='vertical-center'><img style='vertical-align:center; align:center' src=img/fixation3.jpg></div><div class='cl'><div class='vertical-center'><font style='color:orange'>$45<br>with a<br>50% chance</font></div></div><div class='cr'><div class='vertical-center'>$8<br>for<br>sure</div></div><div class='respDivL'><div class='vertical-center'><font style='color:orange'>(E)</font></div></div><div class='respDivR'><div class='vertical-center'>(I)</div></div></div>","null","$8","$45","1","8","45",""
"html-keyboard-response","118","146033","0.0-5.0-1.38","60fcd9368e8d2b8740cf9251","bdp_rd","Sat Apr 15 2023 08:49:06 GMT-0400 (Eastern Daylight Time)","190681","","null","","","","FIX","","<div class='trialBorder'><div class='vertical-center'><img style='vertical-align:center; align:center' src=img/fixation3.jpg></div></div>","null","","","","","",""
"html-keyboard-response","119","147398","0.0-5.0-2.38","60fcd9368e8d2b8740cf9251","bdp_rd","Sat Apr 15 2023 08:49:06 GMT-0400 (Eastern Daylight Time)","190681","","1364","","","","offer","","<div class='trialBorder'><div class='vertical-center'><img style='vertical-align:center; align:center' src=img/fixation3.jpg></div><div class='cl'><div class='vertical-center'>$27<br>for<br>sure</div></div><div class='cr'><div class='vertical-center'>$47<br>with a<br>50% chance</div></div><div class='respDivL'><div class='vertical-center'>(E)</div></div><div class='respDivR'><div class='vertical-center'>(I)</div></div></div>","E","$27","$47","0","27","47","SURE"
"html-keyboard-response","120","147655","0.0-5.0-3.38","60fcd9368e8d2b8740cf9251","bdp_rd","Sat Apr 15 2023 08:49:06 GMT-0400 (Eastern Daylight Time)","190681","","null","","","","offerFB","","<div class='trialBorder'><div class='vertical-center'><img style='vertical-align:center; align:center' src=img/fixation3.jpg></div><div class='cl'><div class='vertical-center'><font style='color:orange'>$27<br>for<br>sure</font></div></div><div class='cr'><div class='vertical-center'>$47<br>with a<br>50% chance</div></div><div class='respDivL'><div class='vertical-center'><font style='color:orange'>(E)</font></div></div><div class='respDivR'><div class='vertical-center'>(I)</div></div></div>","null","$27","$47","0","27","47",""
"html-keyboard-response","121","148162","0.0-5.0-1.39","60fcd9368e8d2b8740cf9251","bdp_rd","Sat Apr 15 2023 08:49:06 GMT-0400 (Eastern Daylight Time)","190681","","null","","","","FIX","","<div class='trialBorder'><div class='vertical-center'><img style='vertical-align:center; align:center' src=img/fixation3.jpg></div></div>","null","","","","","",""
"html-keyboard-response","122","149307","0.0-5.0-2.39","60fcd9368e8d2b8740cf9251","bdp_rd","Sat Apr 15 2023 08:49:06 GMT-0400 (Eastern Daylight Time)","190681","","1144","","","","offer","","<div class='trialBorder'><div class='vertical-center'><img style='vertical-align:center; align:center' src=img/fixation3.jpg></div><div class='cl'><div class='vertical-center'>$95<br>with a<br>50% chance</div></div><div class='cr'><div class='vertical-center'>$40<br>for<br>sure</div></div><div class='respDivL'><div class='vertical-center'>(E)</div></div><div class='respDivR'><div class='vertical-center'>(I)</div></div></div>","E","$40","$95","1","40","95","RISKY"
"html-keyboard-response","123","149563","0.0-5.0-3.39","60fcd9368e8d2b8740cf9251","bdp_rd","Sat Apr 15 2023 08:49:06 GMT-0400 (Eastern Daylight Time)","190681","","null","","","","offerFB","","<div class='trialBorder'><div class='vertical-center'><img style='vertical-align:center; align:center' src=img/fixation3.jpg></div><div class='cl'><div class='vertical-center'><font style='color:orange'>$95<br>with a<br>50% chance</font></div></div><div class='cr'><div class='vertical-center'>$40<br>for<br>sure</div></div><div class='respDivL'><div class='vertical-center'><font style='color:orange'>(E)</font></div></div><div class='respDivR'><div class='vertical-center'>(I)</div></div></div>","null","$40","$95","1","40","95",""
"html-keyboard-response","124","150072","0.0-5.0-1.40","60fcd9368e8d2b8740cf9251","bdp_rd","Sat Apr 15 2023 08:49:06 GMT-0400 (Eastern Daylight Time)","190681","","null","","","","FIX","","<div class='trialBorder'><div class='vertical-center'><img style='vertical-align:center; align:center' src=img/fixation3.jpg></div></div>","null","","","","","",""
"html-keyboard-response","125","150799","0.0-5.0-2.40","60fcd9368e8d2b8740cf9251","bdp_rd","Sat Apr 15 2023 08:49:06 GMT-0400 (Eastern Daylight Time)","190681","","726","","","","offer","","<div class='trialBorder'><div class='vertical-center'><img style='vertical-align:center; align:center' src=img/fixation3.jpg></div><div class='cl'><div class='vertical-center'>$16<br>for<br>sure</div></div><div class='cr'><div class='vertical-center'>$38<br>with a<br>50% chance</div></div><div class='respDivL'><div class='vertical-center'>(E)</div></div><div class='respDivR'><div class='vertical-center'>(I)</div></div></div>","I","$16","$38","0","16","38","RISKY"
"html-keyboard-response","126","151057","0.0-5.0-3.40","60fcd9368e8d2b8740cf9251","bdp_rd","Sat Apr 15 2023 08:49:06 GMT-0400 (Eastern Daylight Time)","190681","","null","","","","offerFB","","<div class='trialBorder'><div class='vertical-center'><img style='vertical-align:center; align:center' src=img/fixation3.jpg></div><div class='cl'><div class='vertical-center'>$16<br>for<br>sure</div></div><div class='cr'><div class='vertical-center'><font style='color:orange'>$38<br>with a<br>50% chance</font></div></div><div class='respDivL'><div class='vertical-center'>(E)</div></div><div class='respDivR'><div class='vertical-center'><font style='color:orange'>(I)</font></div></div></div>","null","$16","$38","0","16","38",""
"html-keyboard-response","127","151563","0.0-5.0-1.41","60fcd9368e8d2b8740cf9251","bdp_rd","Sat Apr 15 2023 08:49:06 GMT-0400 (Eastern Daylight Time)","190681","","null","","","","FIX","","<div class='trialBorder'><div class='vertical-center'><img style='vertical-align:center; align:center' src=img/fixation3.jpg></div></div>","null","","","","","",""
"html-keyboard-response","128","152654","0.0-5.0-2.41","60fcd9368e8d2b8740cf9251","bdp_rd","Sat Apr 15 2023 08:49:06 GMT-0400 (Eastern Daylight Time)","190681","","1089","","","","offer","","<div class='trialBorder'><div class='vertical-center'><img style='vertical-align:center; align:center' src=img/fixation3.jpg></div><div class='cl'><div class='vertical-center'>$4<br>for<br>sure</div></div><div class='cr'><div class='vertical-center'>$14<br>with a<br>50% chance</div></div><div class='respDivL'><div class='vertical-center'>(E)</div></div><div class='respDivR'><div class='vertical-center'>(I)</div></div></div>","I","$4","$14","0","4","14","RISKY"
"html-keyboard-response","129","152912","0.0-5.0-3.41","60fcd9368e8d2b8740cf9251","bdp_rd","Sat Apr 15 2023 08:49:06 GMT-0400 (Eastern Daylight Time)","190681","","null","","","","offerFB","","<div class='trialBorder'><div class='vertical-center'><img style='vertical-align:center; align:center' src=img/fixation3.jpg></div><div class='cl'><div class='vertical-center'>$4<br>for<br>sure</div></div><div class='cr'><div class='vertical-center'><font style='color:orange'>$14<br>with a<br>50% chance</font></div></div><div class='respDivL'><div class='vertical-center'>(E)</div></div><div class='respDivR'><div class='vertical-center'><font style='color:orange'>(I)</font></div></div></div>","null","$4","$14","0","4","14",""
"html-keyboard-response","130","153415","0.0-5.0-1.42","60fcd9368e8d2b8740cf9251","bdp_rd","Sat Apr 15 2023 08:49:06 GMT-0400 (Eastern Daylight Time)","190681","","null","","","","FIX","","<div class='trialBorder'><div class='vertical-center'><img style='vertical-align:center; align:center' src=img/fixation3.jpg></div></div>","null","","","","","",""
"html-keyboard-response","131","154148","0.0-5.0-2.42","60fcd9368e8d2b8740cf9251","bdp_rd","Sat Apr 15 2023 08:49:06 GMT-0400 (Eastern Daylight Time)","190681","","732","","","","offer","","<div class='trialBorder'><div class='vertical-center'><img style='vertical-align:center; align:center' src=img/fixation3.jpg></div><div class='cl'><div class='vertical-center'>$73<br>with a<br>50% chance</div></div><div class='cr'><div class='vertical-center'>$42<br>for<br>sure</div></div><div class='respDivL'><div class='vertical-center'>(E)</div></div><div class='respDivR'><div class='vertical-center'>(I)</div></div></div>","E","$42","$73","1","42","73","RISKY"
"html-keyboard-response","132","154407","0.0-5.0-3.42","60fcd9368e8d2b8740cf9251","bdp_rd","Sat Apr 15 2023 08:49:06 GMT-0400 (Eastern Daylight Time)","190681","","null","","","","offerFB","","<div class='trialBorder'><div class='vertical-center'><img style='vertical-align:center; align:center' src=img/fixation3.jpg></div><div class='cl'><div class='vertical-center'><font style='color:orange'>$73<br>with a<br>50% chance</font></div></div><div class='cr'><div class='vertical-center'>$42<br>for<br>sure</div></div><div class='respDivL'><div class='vertical-center'><font style='color:orange'>(E)</font></div></div><div class='respDivR'><div class='vertical-center'>(I)</div></div></div>","null","$42","$73","1","42","73",""
"html-keyboard-response","133","154912","0.0-5.0-1.43","60fcd9368e8d2b8740cf9251","bdp_rd","Sat Apr 15 2023 08:49:06 GMT-0400 (Eastern Daylight Time)","190681","","null","","","","FIX","","<div class='trialBorder'><div class='vertical-center'><img style='vertical-align:center; align:center' src=img/fixation3.jpg></div></div>","null","","","","","",""
"html-keyboard-response","134","156085","0.0-5.0-2.43","60fcd9368e8d2b8740cf9251","bdp_rd","Sat Apr 15 2023 08:49:06 GMT-0400 (Eastern Daylight Time)","190681","","1171","","","","offer","","<div class='trialBorder'><div class='vertical-center'><img style='vertical-align:center; align:center' src=img/fixation3.jpg></div><div class='cl'><div class='vertical-center'>$39<br>with a<br>50% chance</div></div><div class='cr'><div class='vertical-center'>$18<br>for<br>sure</div></div><div class='respDivL'><div class='vertical-center'>(E)</div></div><div class='respDivR'><div class='vertical-center'>(I)</div></div></div>","E","$18","$39","1","18","39","RISKY"
"html-keyboard-response","135","156348","0.0-5.0-3.43","60fcd9368e8d2b8740cf9251","bdp_rd","Sat Apr 15 2023 08:49:06 GMT-0400 (Eastern Daylight Time)","190681","","null","","","","offerFB","","<div class='trialBorder'><div class='vertical-center'><img style='vertical-align:center; align:center' src=img/fixation3.jpg></div><div class='cl'><div class='vertical-center'><font style='color:orange'>$39<br>with a<br>50% chance</font></div></div><div class='cr'><div class='vertical-center'>$18<br>for<br>sure</div></div><div class='respDivL'><div class='vertical-center'><font style='color:orange'>(E)</font></div></div><div class='respDivR'><div class='vertical-center'>(I)</div></div></div>","null","$18","$39","1","18","39",""
"html-keyboard-response","136","156855","0.0-5.0-1.44","60fcd9368e8d2b8740cf9251","bdp_rd","Sat Apr 15 2023 08:49:06 GMT-0400 (Eastern Daylight Time)","190681","","null","","","","FIX","","<div class='trialBorder'><div class='vertical-center'><img style='vertical-align:center; align:center' src=img/fixation3.jpg></div></div>","null","","","","","",""
"html-keyboard-response","137","157601","0.0-5.0-2.44","60fcd9368e8d2b8740cf9251","bdp_rd","Sat Apr 15 2023 08:49:06 GMT-0400 (Eastern Daylight Time)","190681","","745","","","","offer","","<div class='trialBorder'><div class='vertical-center'><img style='vertical-align:center; align:center' src=img/fixation3.jpg></div><div class='cl'><div class='vertical-center'>$6<br>for<br>sure</div></div><div class='cr'><div class='vertical-center'>$15<br>with a<br>50% chance</div></div><div class='respDivL'><div class='vertical-center'>(E)</div></div><div class='respDivR'><div class='vertical-center'>(I)</div></div></div>","I","$6","$15","0","6","15","RISKY"
"html-keyboard-response","138","157857","0.0-5.0-3.44","60fcd9368e8d2b8740cf9251","bdp_rd","Sat Apr 15 2023 08:49:06 GMT-0400 (Eastern Daylight Time)","190681","","null","","","","offerFB","","<div class='trialBorder'><div class='vertical-center'><img style='vertical-align:center; align:center' src=img/fixation3.jpg></div><div class='cl'><div class='vertical-center'>$6<br>for<br>sure</div></div><div class='cr'><div class='vertical-center'><font style='color:orange'>$15<br>with a<br>50% chance</font></div></div><div class='respDivL'><div class='vertical-center'>(E)</div></div><div class='respDivR'><div class='vertical-center'><font style='color:orange'>(I)</font></div></div></div>","null","$6","$15","0","6","15",""
"html-keyboard-response","139","158364","0.0-5.0-1.45","60fcd9368e8d2b8740cf9251","bdp_rd","Sat Apr 15 2023 08:49:06 GMT-0400 (Eastern Daylight Time)","190681","","null","","","","FIX","","<div class='trialBorder'><div class='vertical-center'><img style='vertical-align:center; align:center' src=img/fixation3.jpg></div></div>","null","","","","","",""
"html-keyboard-response","140","159354","0.0-5.0-2.45","60fcd9368e8d2b8740cf9251","bdp_rd","Sat Apr 15 2023 08:49:06 GMT-0400 (Eastern Daylight Time)","190681","","989","","","","offer","","<div class='trialBorder'><div class='vertical-center'><img style='vertical-align:center; align:center' src=img/fixation3.jpg></div><div class='cl'><div class='vertical-center'>$1<br>for<br>sure</div></div><div class='cr'><div class='vertical-center'>$30<br>with a<br>50% chance</div></div><div class='respDivL'><div class='vertical-center'>(E)</div></div><div class='respDivR'><div class='vertical-center'>(I)</div></div></div>","I","$1","$30","0","1","30","RISKY"
"html-keyboard-response","141","159612","0.0-5.0-3.45","60fcd9368e8d2b8740cf9251","bdp_rd","Sat Apr 15 2023 08:49:06 GMT-0400 (Eastern Daylight Time)","190681","","null","","","","offerFB","","<div class='trialBorder'><div class='vertical-center'><img style='vertical-align:center; align:center' src=img/fixation3.jpg></div><div class='cl'><div class='vertical-center'>$1<br>for<br>sure</div></div><div class='cr'><div class='vertical-center'><font style='color:orange'>$30<br>with a<br>50% chance</font></div></div><div class='respDivL'><div class='vertical-center'>(E)</div></div><div class='respDivR'><div class='vertical-center'><font style='color:orange'>(I)</font></div></div></div>","null","$1","$30","0","1","30",""
"html-keyboard-response","142","160123","0.0-5.0-1.46","60fcd9368e8d2b8740cf9251","bdp_rd","Sat Apr 15 2023 08:49:06 GMT-0400 (Eastern Daylight Time)","190681","","null","","","","FIX","","<div class='trialBorder'><div class='vertical-center'><img style='vertical-align:center; align:center' src=img/fixation3.jpg></div></div>","null","","","","","",""
"html-keyboard-response","143","161005","0.0-5.0-2.46","60fcd9368e8d2b8740cf9251","bdp_rd","Sat Apr 15 2023 08:49:06 GMT-0400 (Eastern Daylight Time)","190681","","880","","","","offer","","<div class='trialBorder'><div class='vertical-center'><img style='vertical-align:center; align:center' src=img/fixation3.jpg></div><div class='cl'><div class='vertical-center'>$80<br>with a<br>50% chance</div></div><div class='cr'><div class='vertical-center'>$20<br>for<br>sure</div></div><div class='respDivL'><div class='vertical-center'>(E)</div></div><div class='respDivR'><div class='vertical-center'>(I)</div></div></div>","E","$20","$80","1","20","80","RISKY"
"html-keyboard-response","144","161267","0.0-5.0-3.46","60fcd9368e8d2b8740cf9251","bdp_rd","Sat Apr 15 2023 08:49:06 GMT-0400 (Eastern Daylight Time)","190681","","null","","","","offerFB","","<div class='trialBorder'><div class='vertical-center'><img style='vertical-align:center; align:center' src=img/fixation3.jpg></div><div class='cl'><div class='vertical-center'><font style='color:orange'>$80<br>with a<br>50% chance</font></div></div><div class='cr'><div class='vertical-center'>$20<br>for<br>sure</div></div><div class='respDivL'><div class='vertical-center'><font style='color:orange'>(E)</font></div></div><div class='respDivR'><div class='vertical-center'>(I)</div></div></div>","null","$20","$80","1","20","80",""
"html-keyboard-response","145","161778","0.0-5.0-1.47","60fcd9368e8d2b8740cf9251","bdp_rd","Sat Apr 15 2023 08:49:06 GMT-0400 (Eastern Daylight Time)","190681","","null","","","","FIX","","<div class='trialBorder'><div class='vertical-center'><img style='vertical-align:center; align:center' src=img/fixation3.jpg></div></div>","null","","","","","",""
"html-keyboard-response","146","163106","0.0-5.0-2.47","60fcd9368e8d2b8740cf9251","bdp_rd","Sat Apr 15 2023 08:49:06 GMT-0400 (Eastern Daylight Time)","190681","","1327","","","","offer","","<div class='trialBorder'><div class='vertical-center'><img style='vertical-align:center; align:center' src=img/fixation3.jpg></div><div class='cl'><div class='vertical-center'>$40<br>with a<br>50% chance</div></div><div class='cr'><div class='vertical-center'>$10<br>for<br>sure</div></div><div class='respDivL'><div class='vertical-center'>(E)</div></div><div class='respDivR'><div class='vertical-center'>(I)</div></div></div>","E","$10","$40","1","10","40","RISKY"
"html-keyboard-response","147","163362","0.0-5.0-3.47","60fcd9368e8d2b8740cf9251","bdp_rd","Sat Apr 15 2023 08:49:06 GMT-0400 (Eastern Daylight Time)","190681","","null","","","","offerFB","","<div class='trialBorder'><div class='vertical-center'><img style='vertical-align:center; align:center' src=img/fixation3.jpg></div><div class='cl'><div class='vertical-center'><font style='color:orange'>$40<br>with a<br>50% chance</font></div></div><div class='cr'><div class='vertical-center'>$10<br>for<br>sure</div></div><div class='respDivL'><div class='vertical-center'><font style='color:orange'>(E)</font></div></div><div class='respDivR'><div class='vertical-center'>(I)</div></div></div>","null","$10","$40","1","10","40",""
"html-keyboard-response","148","163863","0.0-5.0-1.48","60fcd9368e8d2b8740cf9251","bdp_rd","Sat Apr 15 2023 08:49:06 GMT-0400 (Eastern Daylight Time)","190681","","null","","","","FIX","","<div class='trialBorder'><div class='vertical-center'><img style='vertical-align:center; align:center' src=img/fixation3.jpg></div></div>","null","","","","","",""
"html-keyboard-response","149","165915","0.0-5.0-2.48","60fcd9368e8d2b8740cf9251","bdp_rd","Sat Apr 15 2023 08:49:06 GMT-0400 (Eastern Daylight Time)","190681","","2051","","","","offer","","<div class='trialBorder'><div class='vertical-center'><img style='vertical-align:center; align:center' src=img/fixation3.jpg></div><div class='cl'><div class='vertical-center'>$19<br>for<br>sure</div></div><div class='cr'><div class='vertical-center'>$51<br>with a<br>50% chance</div></div><div class='respDivL'><div class='vertical-center'>(E)</div></div><div class='respDivR'><div class='vertical-center'>(I)</div></div></div>","I","$19","$51","0","19","51","RISKY"
"html-keyboard-response","150","166172","0.0-5.0-3.48","60fcd9368e8d2b8740cf9251","bdp_rd","Sat Apr 15 2023 08:49:06 GMT-0400 (Eastern Daylight Time)","190681","","null","","","","offerFB","","<div class='trialBorder'><div class='vertical-center'><img style='vertical-align:center; align:center' src=img/fixation3.jpg></div><div class='cl'><div class='vertical-center'>$19<br>for<br>sure</div></div><div class='cr'><div class='vertical-center'><font style='color:orange'>$51<br>with a<br>50% chance</font></div></div><div class='respDivL'><div class='vertical-center'>(E)</div></div><div class='respDivR'><div class='vertical-center'><font style='color:orange'>(I)</font></div></div></div>","null","$19","$51","0","19","51",""
"html-keyboard-response","151","166679","0.0-5.0-1.49","60fcd9368e8d2b8740cf9251","bdp_rd","Sat Apr 15 2023 08:49:06 GMT-0400 (Eastern Daylight Time)","190681","","null","","","","FIX","","<div class='trialBorder'><div class='vertical-center'><img style='vertical-align:center; align:center' src=img/fixation3.jpg></div></div>","null","","","","","",""
"html-keyboard-response","152","167552","0.0-5.0-2.49","60fcd9368e8d2b8740cf9251","bdp_rd","Sat Apr 15 2023 08:49:06 GMT-0400 (Eastern Daylight Time)","190681","","872","","","","offer","","<div class='trialBorder'><div class='vertical-center'><img style='vertical-align:center; align:center' src=img/fixation3.jpg></div><div class='cl'><div class='vertical-center'>$44<br>with a<br>50% chance</div></div><div class='cr'><div class='vertical-center'>$37<br>for<br>sure</div></div><div class='respDivL'><div class='vertical-center'>(E)</div></div><div class='respDivR'><div class='vertical-center'>(I)</div></div></div>","E","$37","$44","1","37","44","RISKY"
"html-keyboard-response","153","167812","0.0-5.0-3.49","60fcd9368e8d2b8740cf9251","bdp_rd","Sat Apr 15 2023 08:49:06 GMT-0400 (Eastern Daylight Time)","190681","","null","","","","offerFB","","<div class='trialBorder'><div class='vertical-center'><img style='vertical-align:center; align:center' src=img/fixation3.jpg></div><div class='cl'><div class='vertical-center'><font style='color:orange'>$44<br>with a<br>50% chance</font></div></div><div class='cr'><div class='vertical-center'>$37<br>for<br>sure</div></div><div class='respDivL'><div class='vertical-center'><font style='color:orange'>(E)</font></div></div><div class='respDivR'><div class='vertical-center'>(I)</div></div></div>","null","$37","$44","1","37","44",""
"html-keyboard-response","154","168322","0.0-5.0-1.50","60fcd9368e8d2b8740cf9251","bdp_rd","Sat Apr 15 2023 08:49:06 GMT-0400 (Eastern Daylight Time)","190681","","null","","","","FIX","","<div class='trialBorder'><div class='vertical-center'><img style='vertical-align:center; align:center' src=img/fixation3.jpg></div></div>","null","","","","","",""
"html-keyboard-response","155","169066","0.0-5.0-2.50","60fcd9368e8d2b8740cf9251","bdp_rd","Sat Apr 15 2023 08:49:06 GMT-0400 (Eastern Daylight Time)","190681","","743","","","","offer","","<div class='trialBorder'><div class='vertical-center'><img style='vertical-align:center; align:center' src=img/fixation3.jpg></div><div class='cl'><div class='vertical-center'>$100<br>with a<br>50% chance</div></div><div class='cr'><div class='vertical-center'>$63<br>for<br>sure</div></div><div class='respDivL'><div class='vertical-center'>(E)</div></div><div class='respDivR'><div class='vertical-center'>(I)</div></div></div>","E","$63","$100","1","63","10","RISKY"
"html-keyboard-response","156","169324","0.0-5.0-3.50","60fcd9368e8d2b8740cf9251","bdp_rd","Sat Apr 15 2023 08:49:06 GMT-0400 (Eastern Daylight Time)","190681","","null","","","","offerFB","","<div class='trialBorder'><div class='vertical-center'><img style='vertical-align:center; align:center' src=img/fixation3.jpg></div><div class='cl'><div class='vertical-center'><font style='color:orange'>$100<br>with a<br>50% chance</font></div></div><div class='cr'><div class='vertical-center'>$63<br>for<br>sure</div></div><div class='respDivL'><div class='vertical-center'><font style='color:orange'>(E)</font></div></div><div class='respDivR'><div class='vertical-center'>(I)</div></div></div>","null","$63","$100","1","63","10",""
"html-keyboard-response","157","169831","0.0-5.0-1.51","60fcd9368e8d2b8740cf9251","bdp_rd","Sat Apr 15 2023 08:49:06 GMT-0400 (Eastern Daylight Time)","190681","","null","","","","FIX","","<div class='trialBorder'><div class='vertical-center'><img style='vertical-align:center; align:center' src=img/fixation3.jpg></div></div>","null","","","","","",""
"html-keyboard-response","158","172338","0.0-5.0-2.51","60fcd9368e8d2b8740cf9251","bdp_rd","Sat Apr 15 2023 08:49:06 GMT-0400 (Eastern Daylight Time)","190681","","2505","","","","offer","","<div class='trialBorder'><div class='vertical-center'><img style='vertical-align:center; align:center' src=img/fixation3.jpg></div><div class='cl'><div class='vertical-center'>$89<br>with a<br>50% chance</div></div><div class='cr'><div class='vertical-center'>$28<br>for<br>sure</div></div><div class='respDivL'><div class='vertical-center'>(E)</div></div><div class='respDivR'><div class='vertical-center'>(I)</div></div></div>","E","$28","$89","1","28","89","RISKY"
"html-keyboard-response","159","172594","0.0-5.0-3.51","60fcd9368e8d2b8740cf9251","bdp_rd","Sat Apr 15 2023 08:49:06 GMT-0400 (Eastern Daylight Time)","190681","","null","","","","offerFB","","<div class='trialBorder'><div class='vertical-center'><img style='vertical-align:center; align:center' src=img/fixation3.jpg></div><div class='cl'><div class='vertical-center'><font style='color:orange'>$89<br>with a<br>50% chance</font></div></div><div class='cr'><div class='vertical-center'>$28<br>for<br>sure</div></div><div class='respDivL'><div class='vertical-center'><font style='color:orange'>(E)</font></div></div><div class='respDivR'><div class='vertical-center'>(I)</div></div></div>","null","$28","$89","1","28","89",""
"html-keyboard-response","160","173105","0.0-5.0-1.52","60fcd9368e8d2b8740cf9251","bdp_rd","Sat Apr 15 2023 08:49:06 GMT-0400 (Eastern Daylight Time)","190681","","null","","","","FIX","","<div class='trialBorder'><div class='vertical-center'><img style='vertical-align:center; align:center' src=img/fixation3.jpg></div></div>","null","","","","","",""
"html-keyboard-response","161","173816","0.0-5.0-2.52","60fcd9368e8d2b8740cf9251","bdp_rd","Sat Apr 15 2023 08:49:06 GMT-0400 (Eastern Daylight Time)","190681","","710","","","","offer","","<div class='trialBorder'><div class='vertical-center'><img style='vertical-align:center; align:center' src=img/fixation3.jpg></div><div class='cl'><div class='vertical-center'>$9<br>for<br>sure</div></div><div class='cr'><div class='vertical-center'>$32<br>with a<br>50% chance</div></div><div class='respDivL'><div class='vertical-center'>(E)</div></div><div class='respDivR'><div class='vertical-center'>(I)</div></div></div>","I","$9","$32","0","9","32","RISKY"
"html-keyboard-response","162","174072","0.0-5.0-3.52","60fcd9368e8d2b8740cf9251","bdp_rd","Sat Apr 15 2023 08:49:06 GMT-0400 (Eastern Daylight Time)","190681","","null","","","","offerFB","","<div class='trialBorder'><div class='vertical-center'><img style='vertical-align:center; align:center' src=img/fixation3.jpg></div><div class='cl'><div class='vertical-center'>$9<br>for<br>sure</div></div><div class='cr'><div class='vertical-center'><font style='color:orange'>$32<br>with a<br>50% chance</font></div></div><div class='respDivL'><div class='vertical-center'>(E)</div></div><div class='respDivR'><div class='vertical-center'><font style='color:orange'>(I)</font></div></div></div>","null","$9","$32","0","9","32",""
"html-keyboard-response","163","174578","0.0-5.0-1.53","60fcd9368e8d2b8740cf9251","bdp_rd","Sat Apr 15 2023 08:49:06 GMT-0400 (Eastern Daylight Time)","190681","","null","","","","FIX","","<div class='trialBorder'><div class='vertical-center'><img style='vertical-align:center; align:center' src=img/fixation3.jpg></div></div>","null","","","","","",""
"html-keyboard-response","164","175239","0.0-5.0-2.53","60fcd9368e8d2b8740cf9251","bdp_rd","Sat Apr 15 2023 08:49:06 GMT-0400 (Eastern Daylight Time)","190681","","659","","","","offer","","<div class='trialBorder'><div class='vertical-center'><img style='vertical-align:center; align:center' src=img/fixation3.jpg></div><div class='cl'><div class='vertical-center'>$46<br>with a<br>50% chance</div></div><div class='cr'><div class='vertical-center'>$29<br>for<br>sure</div></div><div class='respDivL'><div class='vertical-center'>(E)</div></div><div class='respDivR'><div class='vertical-center'>(I)</div></div></div>","E","$29","$46","1","29","46","RISKY"
"html-keyboard-response","165","175495","0.0-5.0-3.53","60fcd9368e8d2b8740cf9251","bdp_rd","Sat Apr 15 2023 08:49:06 GMT-0400 (Eastern Daylight Time)","190681","","null","","","","offerFB","","<div class='trialBorder'><div class='vertical-center'><img style='vertical-align:center; align:center' src=img/fixation3.jpg></div><div class='cl'><div class='vertical-center'><font style='color:orange'>$46<br>with a<br>50% chance</font></div></div><div class='cr'><div class='vertical-center'>$29<br>for<br>sure</div></div><div class='respDivL'><div class='vertical-center'><font style='color:orange'>(E)</font></div></div><div class='respDivR'><div class='vertical-center'>(I)</div></div></div>","null","$29","$46","1","29","46",""
"html-keyboard-response","166","176003","0.0-5.0-1.54","60fcd9368e8d2b8740cf9251","bdp_rd","Sat Apr 15 2023 08:49:06 GMT-0400 (Eastern Daylight Time)","190681","","null","","","","FIX","","<div class='trialBorder'><div class='vertical-center'><img style='vertical-align:center; align:center' src=img/fixation3.jpg></div></div>","null","","","","","",""
"html-keyboard-response","167","180599","0.0-5.0-2.54","60fcd9368e8d2b8740cf9251","bdp_rd","Sat Apr 15 2023 08:49:06 GMT-0400 (Eastern Daylight Time)","190681","","4595","","","","offer","","<div class='trialBorder'><div class='vertical-center'><img style='vertical-align:center; align:center' src=img/fixation3.jpg></div><div class='cl'><div class='vertical-center'>$9<br>for<br>sure</div></div><div class='cr'><div class='vertical-center'>$18<br>with a<br>50% chance</div></div><div class='respDivL'><div class='vertical-center'>(E)</div></div><div class='respDivR'><div class='vertical-center'>(I)</div></div></div>","E","$9","$18","0","9","18","SURE"
"html-keyboard-response","168","180856","0.0-5.0-3.54","60fcd9368e8d2b8740cf9251","bdp_rd","Sat Apr 15 2023 08:49:06 GMT-0400 (Eastern Daylight Time)","190681","","null","","","","offerFB","","<div class='trialBorder'><div class='vertical-center'><img style='vertical-align:center; align:center' src=img/fixation3.jpg></div><div class='cl'><div class='vertical-center'><font style='color:orange'>$9<br>for<br>sure</font></div></div><div class='cr'><div class='vertical-center'>$18<br>with a<br>50% chance</div></div><div class='respDivL'><div class='vertical-center'><font style='color:orange'>(E)</font></div></div><div class='respDivR'><div class='vertical-center'>(I)</div></div></div>","null","$9","$18","0","9","18",""
"html-keyboard-response","169","181362","0.0-5.0-1.55","60fcd9368e8d2b8740cf9251","bdp_rd","Sat Apr 15 2023 08:49:06 GMT-0400 (Eastern Daylight Time)","190681","","null","","","","FIX","","<div class='trialBorder'><div class='vertical-center'><img style='vertical-align:center; align:center' src=img/fixation3.jpg></div></div>","null","","","","","",""
"html-keyboard-response","170","182478","0.0-5.0-2.55","60fcd9368e8d2b8740cf9251","bdp_rd","Sat Apr 15 2023 08:49:06 GMT-0400 (Eastern Daylight Time)","190681","","1115","","","","offer","","<div class='trialBorder'><div class='vertical-center'><img style='vertical-align:center; align:center' src=img/fixation3.jpg></div><div class='cl'><div class='vertical-center'>$6<br>for<br>sure</div></div><div class='cr'><div class='vertical-center'>$13<br>with a<br>50% chance</div></div><div class='respDivL'><div class='vertical-center'>(E)</div></div><div class='respDivR'><div class='vertical-center'>(I)</div></div></div>","E","$6","$13","0","6","13","SURE"
"html-keyboard-response","171","182739","0.0-5.0-3.55","60fcd9368e8d2b8740cf9251","bdp_rd","Sat Apr 15 2023 08:49:06 GMT-0400 (Eastern Daylight Time)","190681","","null","","","","offerFB","","<div class='trialBorder'><div class='vertical-center'><img style='vertical-align:center; align:center' src=img/fixation3.jpg></div><div class='cl'><div class='vertical-center'><font style='color:orange'>$6<br>for<br>sure</font></div></div><div class='cr'><div class='vertical-center'>$13<br>with a<br>50% chance</div></div><div class='respDivL'><div class='vertical-center'><font style='color:orange'>(E)</font></div></div><div class='respDivR'><div class='vertical-center'>(I)</div></div></div>","null","$6","$13","0","6","13",""
"html-keyboard-response","172","183250","0.0-5.0-1.56","60fcd9368e8d2b8740cf9251","bdp_rd","Sat Apr 15 2023 08:49:06 GMT-0400 (Eastern Daylight Time)","190681","","null","","","","FIX","","<div class='trialBorder'><div class='vertical-center'><img style='vertical-align:center; align:center' src=img/fixation3.jpg></div></div>","null","","","","","",""
"html-keyboard-response","173","184116","0.0-5.0-2.56","60fcd9368e8d2b8740cf9251","bdp_rd","Sat Apr 15 2023 08:49:06 GMT-0400 (Eastern Daylight Time)","190681","","865","","","","offer","","<div class='trialBorder'><div class='vertical-center'><img style='vertical-align:center; align:center' src=img/fixation3.jpg></div><div class='cl'><div class='vertical-center'>$92<br>with a<br>50% chance</div></div><div class='cr'><div class='vertical-center'>$26<br>for<br>sure</div></div><div class='respDivL'><div class='vertical-center'>(E)</div></div><div class='respDivR'><div class='vertical-center'>(I)</div></div></div>","E","$26","$92","1","26","92","RISKY"
