"trial_type","trial_index","time_elapsed","internal_node_id","subject_id","task","startTime","totalTime","view_history","rt","event","trial","time","trialtype","success","stimulus","key_press","sureOffer","riskyOffer","riskyLeft","sureAmt","riskyAmt","chosen"
"pavlovia","0","3","0.0-0.0","5efc1d4ee23e2a011ded073e","bdp_rd","Sun Apr 09 2023 15:43:45 GMT-0700 (Pacific Daylight Time)","133124","","","","","","","","","","","","","","",""
"instructions","1","1759","0.0-1.0","5efc1d4ee23e2a011ded073e","bdp_rd","Sun Apr 09 2023 15:43:45 GMT-0700 (Pacific Daylight Time)","133124","[{""page_index"":0,""viewing_time"":1754}]","1755","","","","","","","","","","","","",""
"","","","","5efc1d4ee23e2a011ded073e","bdp_rd","Sun Apr 09 2023 15:43:45 GMT-0700 (Pacific Daylight Time)","133124","","","fullscreenenter","2","4161","fullscreenenter","","","","","","","","",""
"fullscreen","2","5141","0.0-2.0","5efc1d4ee23e2a011ded073e","bdp_rd","Sun Apr 09 2023 15:43:45 GMT-0700 (Pacific Daylight Time)","133124","","","","","","","true","","","","","","","",""
"instructions","3","25761","0.0-4.0","5efc1d4ee23e2a011ded073e","bdp_rd","Sun Apr 09 2023 15:43:45 GMT-0700 (Pacific Daylight Time)","133124","[{""page_index"":0,""viewing_time"":17277},{""page_index"":1,""viewing_time"":1309},{""page_index"":2,""viewing_time"":2033}]","20619","","","","","","","","","","","","",""
"html-keyboard-response","4","26264","0.0-5.0-1.0","5efc1d4ee23e2a011ded073e","bdp_rd","Sun Apr 09 2023 15:43:45 GMT-0700 (Pacific Daylight Time)","133124","","null","","","","FIX","","<div class='trialBorder'><div class='vertical-center'><img style='vertical-align:center; align:center' src=img/fixation3.jpg></div></div>","null","","","","","",""
"html-keyboard-response","5","30478","0.0-5.0-2.0","5efc1d4ee23e2a011ded073e","bdp_rd","Sun Apr 09 2023 15:43:45 GMT-0700 (Pacific Daylight Time)","133124","","4212","","","","offer","","<div class='trialBorder'><div class='vertical-center'><img style='vertical-align:center; align:center' src=img/fixation3.jpg></div><div class='cl'><div class='vertical-center'>$11<br>with a<br>50% chance</div></div><div class='cr'><div class='vertical-center'>$4<br>for<br>sure</div></div><div class='respDivL'><div class='vertical-center'>(E)</div></div><div class='respDivR'><div class='vertical-center'>(I)</div></div></div>","E","$4","$11","1","4","11","RISKY"
"html-keyboard-response","6","30730","0.0-5.0-3.0","5efc1d4ee23e2a011ded073e","bdp_rd","Sun Apr 09 2023 15:43:45 GMT-0700 (Pacific Daylight Time)","133124","","null","","","","offerFB","","<div class='trialBorder'><div class='vertical-center'><img style='vertical-align:center; align:center' src=img/fixation3.jpg></div><div class='cl'><div class='vertical-center'><font style='color:orange'>$11<br>with a<br>50% chance</font></div></div><div class='cr'><div class='vertical-center'>$4<br>for<br>sure</div></div><div class='respDivL'><div class='vertical-center'><font style='color:orange'>(E)</font></div></div><div class='respDivR'><div class='vertical-center'>(I)</div></div></div>","null","$4","$11","1","4","11",""
"html-keyboard-response","7","31231","0.0-5.0-1.1","5efc1d4ee23e2a011ded073e","bdp_rd","Sun Apr 09 2023 15:43:45 GMT-0700 (Pacific Daylight Time)","133124","","null","","","","FIX","","<div class='trialBorder'><div class='vertical-center'><img style='vertical-align:center; align:center' src=img/fixation3.jpg></div></div>","null","","","","","",""
"html-keyboard-response","8","32292","0.0-5.0-2.1","5efc1d4ee23e2a011ded073e","bdp_rd","Sun Apr 09 2023 15:43:45 GMT-0700 (Pacific Daylight Time)","133124","","1060","","","","offer","","<div class='trialBorder'><div class='vertical-center'><img style='vertical-align:center; align:center' src=img/fixation3.jpg></div><div class='cl'><div class='vertical-center'>$18<br>for<br>sure</div></div><div class='cr'><div class='vertical-center'>$36<br>with a<br>50% chance</div></div><div class='respDivL'><div class='vertical-center'>(E)</div></div><div class='respDivR'><div class='vertical-center'>(I)</div></div></div>","I","$18","$36","0","18","36","RISKY"
"html-keyboard-response","9","32544","0.0-5.0-3.1","5efc1d4ee23e2a011ded073e","bdp_rd","Sun Apr 09 2023 15:43:45 GMT-0700 (Pacific Daylight Time)","133124","","null","","","","offerFB","","<div class='trialBorder'><div class='vertical-center'><img style='vertical-align:center; align:center' src=img/fixation3.jpg></div><div class='cl'><div class='vertical-center'>$18<br>for<br>sure</div></div><div class='cr'><div class='vertical-center'><font style='color:orange'>$36<br>with a<br>50% chance</font></div></div><div class='respDivL'><div class='vertical-center'>(E)</div></div><div class='respDivR'><div class='vertical-center'><font style='color:orange'>(I)</font></div></div></div>","null","$18","$36","0","18","36",""
"html-keyboard-response","10","33046","0.0-5.0-1.2","5efc1d4ee23e2a011ded073e","bdp_rd","Sun Apr 09 2023 15:43:45 GMT-0700 (Pacific Daylight Time)","133124","","null","","","","FIX","","<div class='trialBorder'><div class='vertical-center'><img style='vertical-align:center; align:center' src=img/fixation3.jpg></div></div>","null","","","","","",""
"html-keyboard-response","11","34786","0.0-5.0-2.2","5efc1d4ee23e2a011ded073e","bdp_rd","Sun Apr 09 2023 15:43:45 GMT-0700 (Pacific Daylight Time)","133124","","1740","","","","offer","","<div class='trialBorder'><div class='vertical-center'><img style='vertical-align:center; align:center' src=img/fixation3.jpg></div><div class='cl'><div class='vertical-center'>$10<br>with a<br>50% chance</div></div><div class='cr'><div class='vertical-center'>$7<br>for<br>sure</div></div><div class='respDivL'><div class='vertical-center'>(E)</div></div><div class='respDivR'><div class='vertical-center'>(I)</div></div></div>","E","$7","$10","1","7","10","RISKY"
"html-keyboard-response","12","35038","0.0-5.0-3.2","5efc1d4ee23e2a011ded073e","bdp_rd","Sun Apr 09 2023 15:43:45 GMT-0700 (Pacific Daylight Time)","133124","","null","","","","offerFB","","<div class='trialBorder'><div class='vertical-center'><img style='vertical-align:center; align:center' src=img/fixation3.jpg></div><div class='cl'><div class='vertical-center'><font style='color:orange'>$10<br>with a<br>50% chance</font></div></div><div class='cr'><div class='vertical-center'>$7<br>for<br>sure</div></div><div class='respDivL'><div class='vertical-center'><font style='color:orange'>(E)</font></div></div><div class='respDivR'><div class='vertical-center'>(I)</div></div></div>","null","$7","$10","1","7","10",""
"html-keyboard-response","13","35540","0.0-5.0-1.3","5efc1d4ee23e2a011ded073e","bdp_rd","Sun Apr 09 2023 15:43:45 GMT-0700 (Pacific Daylight Time)","133124","","null","","","","FIX","","<div class='trialBorder'><div class='vertical-center'><img style='vertical-align:center; align:center' src=img/fixation3.jpg></div></div>","null","","","","","",""
"html-keyboard-response","14","37199","0.0-5.0-2.3","5efc1d4ee23e2a011ded073e","bdp_rd","Sun Apr 09 2023 15:43:45 GMT-0700 (Pacific Daylight Time)","133124","","1658","","","","offer","","<div class='trialBorder'><div class='vertical-center'><img style='vertical-align:center; align:center' src=img/fixation3.jpg></div><div class='cl'><div class='vertical-center'>$31<br>for<br>sure</div></div><div class='cr'><div class='vertical-center'>$78<br>with a<br>50% chance</div></div><div class='respDivL'><div class='vertical-center'>(E)</div></div><div class='respDivR'><div class='vertical-center'>(I)</div></div></div>","I","$31","$78","0","31","78","RISKY"
"html-keyboard-response","15","37451","0.0-5.0-3.3","5efc1d4ee23e2a011ded073e","bdp_rd","Sun Apr 09 2023 15:43:45 GMT-0700 (Pacific Daylight Time)","133124","","null","","","","offerFB","","<div class='trialBorder'><div class='vertical-center'><img style='vertical-align:center; align:center' src=img/fixation3.jpg></div><div class='cl'><div class='vertical-center'>$31<br>for<br>sure</div></div><div class='cr'><div class='vertical-center'><font style='color:orange'>$78<br>with a<br>50% chance</font></div></div><div class='respDivL'><div class='vertical-center'>(E)</div></div><div class='respDivR'><div class='vertical-center'><font style='color:orange'>(I)</font></div></div></div>","null","$31","$78","0","31","78",""
"html-keyboard-response","16","37952","0.0-5.0-1.4","5efc1d4ee23e2a011ded073e","bdp_rd","Sun Apr 09 2023 15:43:45 GMT-0700 (Pacific Daylight Time)","133124","","null","","","","FIX","","<div class='trialBorder'><div class='vertical-center'><img style='vertical-align:center; align:center' src=img/fixation3.jpg></div></div>","null","","","","","",""
"html-keyboard-response","17","38901","0.0-5.0-2.4","5efc1d4ee23e2a011ded073e","bdp_rd","Sun Apr 09 2023 15:43:45 GMT-0700 (Pacific Daylight Time)","133124","","948","","","","offer","","<div class='trialBorder'><div class='vertical-center'><img style='vertical-align:center; align:center' src=img/fixation3.jpg></div><div class='cl'><div class='vertical-center'>$11<br>for<br>sure</div></div><div class='cr'><div class='vertical-center'>$62<br>with a<br>50% chance</div></div><div class='respDivL'><div class='vertical-center'>(E)</div></div><div class='respDivR'><div class='vertical-center'>(I)</div></div></div>","I","$11","$62","0","11","62","RISKY"
"html-keyboard-response","18","39153","0.0-5.0-3.4","5efc1d4ee23e2a011ded073e","bdp_rd","Sun Apr 09 2023 15:43:45 GMT-0700 (Pacific Daylight Time)","133124","","null","","","","offerFB","","<div class='trialBorder'><div class='vertical-center'><img style='vertical-align:center; align:center' src=img/fixation3.jpg></div><div class='cl'><div class='vertical-center'>$11<br>for<br>sure</div></div><div class='cr'><div class='vertical-center'><font style='color:orange'>$62<br>with a<br>50% chance</font></div></div><div class='respDivL'><div class='vertical-center'>(E)</div></div><div class='respDivR'><div class='vertical-center'><font style='color:orange'>(I)</font></div></div></div>","null","$11","$62","0","11","62",""
"html-keyboard-response","19","39655","0.0-5.0-1.5","5efc1d4ee23e2a011ded073e","bdp_rd","Sun Apr 09 2023 15:43:45 GMT-0700 (Pacific Daylight Time)","133124","","null","","","","FIX","","<div class='trialBorder'><div class='vertical-center'><img style='vertical-align:center; align:center' src=img/fixation3.jpg></div></div>","null","","","","","",""
"html-keyboard-response","20","40335","0.0-5.0-2.5","5efc1d4ee23e2a011ded073e","bdp_rd","Sun Apr 09 2023 15:43:45 GMT-0700 (Pacific Daylight Time)","133124","","678","","","","offer","","<div class='trialBorder'><div class='vertical-center'><img style='vertical-align:center; align:center' src=img/fixation3.jpg></div><div class='cl'><div class='vertical-center'>$53<br>for<br>sure</div></div><div class='cr'><div class='vertical-center'>$98<br>with a<br>50% chance</div></div><div class='respDivL'><div class='vertical-center'>(E)</div></div><div class='respDivR'><div class='vertical-center'>(I)</div></div></div>","E","$53","$98","0","53","98","SURE"
"html-keyboard-response","21","40586","0.0-5.0-3.5","5efc1d4ee23e2a011ded073e","bdp_rd","Sun Apr 09 2023 15:43:45 GMT-0700 (Pacific Daylight Time)","133124","","null","","","","offerFB","","<div class='trialBorder'><div class='vertical-center'><img style='vertical-align:center; align:center' src=img/fixation3.jpg></div><div class='cl'><div class='vertical-center'><font style='color:orange'>$53<br>for<br>sure</font></div></div><div class='cr'><div class='vertical-center'>$98<br>with a<br>50% chance</div></div><div class='respDivL'><div class='vertical-center'><font style='color:orange'>(E)</font></div></div><div class='respDivR'><div class='vertical-center'>(I)</div></div></div>","null","$53","$98","0","53","98",""
"html-keyboard-response","22","41088","0.0-5.0-1.6","5efc1d4ee23e2a011ded073e","bdp_rd","Sun Apr 09 2023 15:43:45 GMT-0700 (Pacific Daylight Time)","133124","","null","","","","FIX","","<div class='trialBorder'><div class='vertical-center'><img style='vertical-align:center; align:center' src=img/fixation3.jpg></div></div>","null","","","","","",""
"html-keyboard-response","23","42804","0.0-5.0-2.6","5efc1d4ee23e2a011ded073e","bdp_rd","Sun Apr 09 2023 15:43:45 GMT-0700 (Pacific Daylight Time)","133124","","1714","","","","offer","","<div class='trialBorder'><div class='vertical-center'><img style='vertical-align:center; align:center' src=img/fixation3.jpg></div><div class='cl'><div class='vertical-center'>$21<br>with a<br>50% chance</div></div><div class='cr'><div class='vertical-center'>$2<br>for<br>sure</div></div><div class='respDivL'><div class='vertical-center'>(E)</div></div><div class='respDivR'><div class='vertical-center'>(I)</div></div></div>","E","$2","$21","1","2","21","RISKY"
"html-keyboard-response","24","43056","0.0-5.0-3.6","5efc1d4ee23e2a011ded073e","bdp_rd","Sun Apr 09 2023 15:43:45 GMT-0700 (Pacific Daylight Time)","133124","","null","","","","offerFB","","<div class='trialBorder'><div class='vertical-center'><img style='vertical-align:center; align:center' src=img/fixation3.jpg></div><div class='cl'><div class='vertical-center'><font style='color:orange'>$21<br>with a<br>50% chance</font></div></div><div class='cr'><div class='vertical-center'>$2<br>for<br>sure</div></div><div class='respDivL'><div class='vertical-center'><font style='color:orange'>(E)</font></div></div><div class='respDivR'><div class='vertical-center'>(I)</div></div></div>","null","$2","$21","1","2","21",""
"html-keyboard-response","25","43557","0.0-5.0-1.7","5efc1d4ee23e2a011ded073e","bdp_rd","Sun Apr 09 2023 15:43:45 GMT-0700 (Pacific Daylight Time)","133124","","null","","","","FIX","","<div class='trialBorder'><div class='vertical-center'><img style='vertical-align:center; align:center' src=img/fixation3.jpg></div></div>","null","","","","","",""
"html-keyboard-response","26","44158","0.0-5.0-2.7","5efc1d4ee23e2a011ded073e","bdp_rd","Sun Apr 09 2023 15:43:45 GMT-0700 (Pacific Daylight Time)","133124","","600","","","","offer","","<div class='trialBorder'><div class='vertical-center'><img style='vertical-align:center; align:center' src=img/fixation3.jpg></div><div class='cl'><div class='vertical-center'>$29<br>with a<br>50% chance</div></div><div class='cr'><div class='vertical-center'>$14<br>for<br>sure</div></div><div class='respDivL'><div class='vertical-center'>(E)</div></div><div class='respDivR'><div class='vertical-center'>(I)</div></div></div>","E","$14","$29","1","14","29","RISKY"
"html-keyboard-response","27","44410","0.0-5.0-3.7","5efc1d4ee23e2a011ded073e","bdp_rd","Sun Apr 09 2023 15:43:45 GMT-0700 (Pacific Daylight Time)","133124","","null","","","","offerFB","","<div class='trialBorder'><div class='vertical-center'><img style='vertical-align:center; align:center' src=img/fixation3.jpg></div><div class='cl'><div class='vertical-center'><font style='color:orange'>$29<br>with a<br>50% chance</font></div></div><div class='cr'><div class='vertical-center'>$14<br>for<br>sure</div></div><div class='respDivL'><div class='vertical-center'><font style='color:orange'>(E)</font></div></div><div class='respDivR'><div class='vertical-center'>(I)</div></div></div>","null","$14","$29","1","14","29",""
"html-keyboard-response","28","44912","0.0-5.0-1.8","5efc1d4ee23e2a011ded073e","bdp_rd","Sun Apr 09 2023 15:43:45 GMT-0700 (Pacific Daylight Time)","133124","","null","","","","FIX","","<div class='trialBorder'><div class='vertical-center'><img style='vertical-align:center; align:center' src=img/fixation3.jpg></div></div>","null","","","","","",""
"html-keyboard-response","29","46236","0.0-5.0-2.8","5efc1d4ee23e2a011ded073e","bdp_rd","Sun Apr 09 2023 15:43:45 GMT-0700 (Pacific Daylight Time)","133124","","1324","","","","offer","","<div class='trialBorder'><div class='vertical-center'><img style='vertical-align:center; align:center' src=img/fixation3.jpg></div><div class='cl'><div class='vertical-center'>$34<br>for<br>sure</div></div><div class='cr'><div class='vertical-center'>$48<br>with a<br>50% chance</div></div><div class='respDivL'><div class='vertical-center'>(E)</div></div><div class='respDivR'><div class='vertical-center'>(I)</div></div></div>","E","$34","$48","0","34","48","SURE"
"html-keyboard-response","30","46488","0.0-5.0-3.8","5efc1d4ee23e2a011ded073e","bdp_rd","Sun Apr 09 2023 15:43:45 GMT-0700 (Pacific Daylight Time)","133124","","null","","","","offerFB","","<div class='trialBorder'><div class='vertical-center'><img style='vertical-align:center; align:center' src=img/fixation3.jpg></div><div class='cl'><div class='vertical-center'><font style='color:orange'>$34<br>for<br>sure</font></div></div><div class='cr'><div class='vertical-center'>$48<br>with a<br>50% chance</div></div><div class='respDivL'><div class='vertical-center'><font style='color:orange'>(E)</font></div></div><div class='respDivR'><div class='vertical-center'>(I)</div></div></div>","null","$34","$48","0","34","48",""
"html-keyboard-response","31","46990","0.0-5.0-1.9","5efc1d4ee23e2a011ded073e","bdp_rd","Sun Apr 09 2023 15:43:45 GMT-0700 (Pacific Daylight Time)","133124","","null","","","","FIX","","<div class='trialBorder'><div class='vertical-center'><img style='vertical-align:center; align:center' src=img/fixation3.jpg></div></div>","null","","","","","",""
"html-keyboard-response","32","48017","0.0-5.0-2.9","5efc1d4ee23e2a011ded073e","bdp_rd","Sun Apr 09 2023 15:43:45 GMT-0700 (Pacific Daylight Time)","133124","","1026","","","","offer","","<div class='trialBorder'><div class='vertical-center'><img style='vertical-align:center; align:center' src=img/fixation3.jpg></div><div class='cl'><div class='vertical-center'>$34<br>with a<br>50% chance</div></div><div class='cr'><div class='vertical-center'>$15<br>for<br>sure</div></div><div class='respDivL'><div class='vertical-center'>(E)</div></div><div class='respDivR'><div class='vertical-center'>(I)</div></div></div>","I","$15","$34","1","15","34","SURE"
"html-keyboard-response","33","48269","0.0-5.0-3.9","5efc1d4ee23e2a011ded073e","bdp_rd","Sun Apr 09 2023 15:43:45 GMT-0700 (Pacific Daylight Time)","133124","","null","","","","offerFB","","<div class='trialBorder'><div class='vertical-center'><img style='vertical-align:center; align:center' src=img/fixation3.jpg></div><div class='cl'><div class='vertical-center'>$34<br>with a<br>50% chance</div></div><div class='cr'><div class='vertical-center'><font style='color:orange'>$15<br>for<br>sure</font></div></div><div class='respDivL'><div class='vertical-center'>(E)</div></div><div class='respDivR'><div class='vertical-center'><font style='color:orange'>(I)</font></div></div></div>","null","$15","$34","1","15","34",""
"html-keyboard-response","34","48770","0.0-5.0-1.10","5efc1d4ee23e2a011ded073e","bdp_rd","Sun Apr 09 2023 15:43:45 GMT-0700 (Pacific Daylight Time)","133124","","null","","","","FIX","","<div class='trialBorder'><div class='vertical-center'><img style='vertical-align:center; align:center' src=img/fixation3.jpg></div></div>","null","","","","","",""
"html-keyboard-response","35","49746","0.0-5.0-2.10","5efc1d4ee23e2a011ded073e","bdp_rd","Sun Apr 09 2023 15:43:45 GMT-0700 (Pacific Daylight Time)","133124","","974","","","","offer","","<div class='trialBorder'><div class='vertical-center'><img style='vertical-align:center; align:center' src=img/fixation3.jpg></div><div class='cl'><div class='vertical-center'>$33<br>for<br>sure</div></div><div class='cr'><div class='vertical-center'>$66<br>with a<br>50% chance</div></div><div class='respDivL'><div class='vertical-center'>(E)</div></div><div class='respDivR'><div class='vertical-center'>(I)</div></div></div>","E","$33","$66","0","33","66","SURE"
"html-keyboard-response","36","49997","0.0-5.0-3.10","5efc1d4ee23e2a011ded073e","bdp_rd","Sun Apr 09 2023 15:43:45 GMT-0700 (Pacific Daylight Time)","133124","","null","","","","offerFB","","<div class='trialBorder'><div class='vertical-center'><img style='vertical-align:center; align:center' src=img/fixation3.jpg></div><div class='cl'><div class='vertical-center'><font style='color:orange'>$33<br>for<br>sure</font></div></div><div class='cr'><div class='vertical-center'>$66<br>with a<br>50% chance</div></div><div class='respDivL'><div class='vertical-center'><font style='color:orange'>(E)</font></div></div><div class='respDivR'><div class='vertical-center'>(I)</div></div></div>","null","$33","$66","0","33","66",""
"html-keyboard-response","37","50499","0.0-5.0-1.11","5efc1d4ee23e2a011ded073e","bdp_rd","Sun Apr 09 2023 15:43:45 GMT-0700 (Pacific Daylight Time)","133124","","null","","","","FIX","","<div class='trialBorder'><div class='vertical-center'><img style='vertical-align:center; align:center' src=img/fixation3.jpg></div></div>","null","","","","","",""
"html-keyboard-response","38","51054","0.0-5.0-2.11","5efc1d4ee23e2a011ded073e","bdp_rd","Sun Apr 09 2023 15:43:45 GMT-0700 (Pacific Daylight Time)","133124","","555","","","","offer","","<div class='trialBorder'><div class='vertical-center'><img style='vertical-align:center; align:center' src=img/fixation3.jpg></div><div class='cl'><div class='vertical-center'>$35<br>with a<br>50% chance</div></div><div class='cr'><div class='vertical-center'>$12<br>for<br>sure</div></div><div class='respDivL'><div class='vertical-center'>(E)</div></div><div class='respDivR'><div class='vertical-center'>(I)</div></div></div>","I","$12","$35","1","12","35","SURE"
"html-keyboard-response","39","51308","0.0-5.0-3.11","5efc1d4ee23e2a011ded073e","bdp_rd","Sun Apr 09 2023 15:43:45 GMT-0700 (Pacific Daylight Time)","133124","","null","","","","offerFB","","<div class='trialBorder'><div class='vertical-center'><img style='vertical-align:center; align:center' src=img/fixation3.jpg></div><div class='cl'><div class='vertical-center'>$35<br>with a<br>50% chance</div></div><div class='cr'><div class='vertical-center'><font style='color:orange'>$12<br>for<br>sure</font></div></div><div class='respDivL'><div class='vertical-center'>(E)</div></div><div class='respDivR'><div class='vertical-center'><font style='color:orange'>(I)</font></div></div></div>","null","$12","$35","1","12","35",""
"html-keyboard-response","40","51810","0.0-5.0-1.12","5efc1d4ee23e2a011ded073e","bdp_rd","Sun Apr 09 2023 15:43:45 GMT-0700 (Pacific Daylight Time)","133124","","null","","","","FIX","","<div class='trialBorder'><div class='vertical-center'><img style='vertical-align:center; align:center' src=img/fixation3.jpg></div></div>","null","","","","","",""
"html-keyboard-response","41","52381","0.0-5.0-2.12","5efc1d4ee23e2a011ded073e","bdp_rd","Sun Apr 09 2023 15:43:45 GMT-0700 (Pacific Daylight Time)","133124","","569","","","","offer","","<div class='trialBorder'><div class='vertical-center'><img style='vertical-align:center; align:center' src=img/fixation3.jpg></div><div class='cl'><div class='vertical-center'>$86<br>with a<br>50% chance</div></div><div class='cr'><div class='vertical-center'>$45<br>for<br>sure</div></div><div class='respDivL'><div class='vertical-center'>(E)</div></div><div class='respDivR'><div class='vertical-center'>(I)</div></div></div>","I","$45","$86","1","45","86","SURE"
"html-keyboard-response","42","52633","0.0-5.0-3.12","5efc1d4ee23e2a011ded073e","bdp_rd","Sun Apr 09 2023 15:43:45 GMT-0700 (Pacific Daylight Time)","133124","","null","","","","offerFB","","<div class='trialBorder'><div class='vertical-center'><img style='vertical-align:center; align:center' src=img/fixation3.jpg></div><div class='cl'><div class='vertical-center'>$86<br>with a<br>50% chance</div></div><div class='cr'><div class='vertical-center'><font style='color:orange'>$45<br>for<br>sure</font></div></div><div class='respDivL'><div class='vertical-center'>(E)</div></div><div class='respDivR'><div class='vertical-center'><font style='color:orange'>(I)</font></div></div></div>","null","$45","$86","1","45","86",""
"html-keyboard-response","43","53135","0.0-5.0-1.13","5efc1d4ee23e2a011ded073e","bdp_rd","Sun Apr 09 2023 15:43:45 GMT-0700 (Pacific Daylight Time)","133124","","null","","","","FIX","","<div class='trialBorder'><div class='vertical-center'><img style='vertical-align:center; align:center' src=img/fixation3.jpg></div></div>","null","","","","","",""
"html-keyboard-response","44","54263","0.0-5.0-2.13","5efc1d4ee23e2a011ded073e","bdp_rd","Sun Apr 09 2023 15:43:45 GMT-0700 (Pacific Daylight Time)","133124","","1128","","","","offer","","<div class='trialBorder'><div class='vertical-center'><img style='vertical-align:center; align:center' src=img/fixation3.jpg></div><div class='cl'><div class='vertical-center'>$37<br>for<br>sure</div></div><div class='cr'><div class='vertical-center'>$44<br>with a<br>50% chance</div></div><div class='respDivL'><div class='vertical-center'>(E)</div></div><div class='respDivR'><div class='vertical-center'>(I)</div></div></div>","E","$37","$44","0","37","44","SURE"
"html-keyboard-response","45","54516","0.0-5.0-3.13","5efc1d4ee23e2a011ded073e","bdp_rd","Sun Apr 09 2023 15:43:45 GMT-0700 (Pacific Daylight Time)","133124","","null","","","","offerFB","","<div class='trialBorder'><div class='vertical-center'><img style='vertical-align:center; align:center' src=img/fixation3.jpg></div><div class='cl'><div class='vertical-center'><font style='color:orange'>$37<br>for<br>sure</font></div></div><div class='cr'><div class='vertical-center'>$44<br>with a<br>50% chance</div></div><div class='respDivL'><div class='vertical-center'><font style='color:orange'>(E)</font></div></div><div class='respDivR'><div class='vertical-center'>(I)</div></div></div>","null","$37","$44","0","37","44",""
"html-keyboard-response","46","55017","0.0-5.0-1.14","5efc1d4ee23e2a011ded073e","bdp_rd","Sun Apr 09 2023 15:43:45 GMT-0700 (Pacific Daylight Time)","133124","","null","","","","FIX","","<div class='trialBorder'><div class='vertical-center'><img style='vertical-align:center; align:center' src=img/fixation3.jpg></div></div>","null","","","","","",""
"html-keyboard-response","47","56684","0.0-5.0-2.14","5efc1d4ee23e2a011ded073e","bdp_rd","Sun Apr 09 2023 15:43:45 GMT-0700 (Pacific Daylight Time)","133124","","1666","","","","offer","","<div class='trialBorder'><div class='vertical-center'><img style='vertical-align:center; align:center' src=img/fixation3.jpg></div><div class='cl'><div class='vertical-center'>$2<br>for<br>sure</div></div><div class='cr'><div class='vertical-center'>$64<br>with a<br>50% chance</div></div><div class='respDivL'><div class='vertical-center'>(E)</div></div><div class='respDivR'><div class='vertical-center'>(I)</div></div></div>","I","$2","$64","0","2","64","RISKY"
"html-keyboard-response","48","56935","0.0-5.0-3.14","5efc1d4ee23e2a011ded073e","bdp_rd","Sun Apr 09 2023 15:43:45 GMT-0700 (Pacific Daylight Time)","133124","","null","","","","offerFB","","<div class='trialBorder'><div class='vertical-center'><img style='vertical-align:center; align:center' src=img/fixation3.jpg></div><div class='cl'><div class='vertical-center'>$2<br>for<br>sure</div></div><div class='cr'><div class='vertical-center'><font style='color:orange'>$64<br>with a<br>50% chance</font></div></div><div class='respDivL'><div class='vertical-center'>(E)</div></div><div class='respDivR'><div class='vertical-center'><font style='color:orange'>(I)</font></div></div></div>","null","$2","$64","0","2","64",""
"html-keyboard-response","49","57436","0.0-5.0-1.15","5efc1d4ee23e2a011ded073e","bdp_rd","Sun Apr 09 2023 15:43:45 GMT-0700 (Pacific Daylight Time)","133124","","null","","","","FIX","","<div class='trialBorder'><div class='vertical-center'><img style='vertical-align:center; align:center' src=img/fixation3.jpg></div></div>","null","","","","","",""
"html-keyboard-response","50","58378","0.0-5.0-2.15","5efc1d4ee23e2a011ded073e","bdp_rd","Sun Apr 09 2023 15:43:45 GMT-0700 (Pacific Daylight Time)","133124","","940","","","","offer","","<div class='trialBorder'><div class='vertical-center'><img style='vertical-align:center; align:center' src=img/fixation3.jpg></div><div class='cl'><div class='vertical-center'>$4<br>for<br>sure</div></div><div class='cr'><div class='vertical-center'>$14<br>with a<br>50% chance</div></div><div class='respDivL'><div class='vertical-center'>(E)</div></div><div class='respDivR'><div class='vertical-center'>(I)</div></div></div>","I","$4","$14","0","4","14","RISKY"
"html-keyboard-response","51","58630","0.0-5.0-3.15","5efc1d4ee23e2a011ded073e","bdp_rd","Sun Apr 09 2023 15:43:45 GMT-0700 (Pacific Daylight Time)","133124","","null","","","","offerFB","","<div class='trialBorder'><div class='vertical-center'><img style='vertical-align:center; align:center' src=img/fixation3.jpg></div><div class='cl'><div class='vertical-center'>$4<br>for<br>sure</div></div><div class='cr'><div class='vertical-center'><font style='color:orange'>$14<br>with a<br>50% chance</font></div></div><div class='respDivL'><div class='vertical-center'>(E)</div></div><div class='respDivR'><div class='vertical-center'><font style='color:orange'>(I)</font></div></div></div>","null","$4","$14","0","4","14",""
"html-keyboard-response","52","59131","0.0-5.0-1.16","5efc1d4ee23e2a011ded073e","bdp_rd","Sun Apr 09 2023 15:43:45 GMT-0700 (Pacific Daylight Time)","133124","","null","","","","FIX","","<div class='trialBorder'><div class='vertical-center'><img style='vertical-align:center; align:center' src=img/fixation3.jpg></div></div>","null","","","","","",""
"html-keyboard-response","53","59938","0.0-5.0-2.16","5efc1d4ee23e2a011ded073e","bdp_rd","Sun Apr 09 2023 15:43:45 GMT-0700 (Pacific Daylight Time)","133124","","805","","","","offer","","<div class='trialBorder'><div class='vertical-center'><img style='vertical-align:center; align:center' src=img/fixation3.jpg></div><div class='cl'><div class='vertical-center'>$30<br>with a<br>50% chance</div></div><div class='cr'><div class='vertical-center'>$1<br>for<br>sure</div></div><div class='respDivL'><div class='vertical-center'>(E)</div></div><div class='respDivR'><div class='vertical-center'>(I)</div></div></div>","E","$1","$30","1","1","30","RISKY"
"html-keyboard-response","54","60189","0.0-5.0-3.16","5efc1d4ee23e2a011ded073e","bdp_rd","Sun Apr 09 2023 15:43:45 GMT-0700 (Pacific Daylight Time)","133124","","null","","","","offerFB","","<div class='trialBorder'><div class='vertical-center'><img style='vertical-align:center; align:center' src=img/fixation3.jpg></div><div class='cl'><div class='vertical-center'><font style='color:orange'>$30<br>with a<br>50% chance</font></div></div><div class='cr'><div class='vertical-center'>$1<br>for<br>sure</div></div><div class='respDivL'><div class='vertical-center'><font style='color:orange'>(E)</font></div></div><div class='respDivR'><div class='vertical-center'>(I)</div></div></div>","null","$1","$30","1","1","30",""
"html-keyboard-response","55","60690","0.0-5.0-1.17","5efc1d4ee23e2a011ded073e","bdp_rd","Sun Apr 09 2023 15:43:45 GMT-0700 (Pacific Daylight Time)","133124","","null","","","","FIX","","<div class='trialBorder'><div class='vertical-center'><img style='vertical-align:center; align:center' src=img/fixation3.jpg></div></div>","null","","","","","",""
"html-keyboard-response","56","61555","0.0-5.0-2.17","5efc1d4ee23e2a011ded073e","bdp_rd","Sun Apr 09 2023 15:43:45 GMT-0700 (Pacific Daylight Time)","133124","","863","","","","offer","","<div class='trialBorder'><div class='vertical-center'><img style='vertical-align:center; align:center' src=img/fixation3.jpg></div><div class='cl'><div class='vertical-center'>$21<br>for<br>sure</div></div><div class='cr'><div class='vertical-center'>$25<br>with a<br>50% chance</div></div><div class='respDivL'><div class='vertical-center'>(E)</div></div><div class='respDivR'><div class='vertical-center'>(I)</div></div></div>","I","$21","$25","0","21","25","RISKY"
"html-keyboard-response","57","61807","0.0-5.0-3.17","5efc1d4ee23e2a011ded073e","bdp_rd","Sun Apr 09 2023 15:43:45 GMT-0700 (Pacific Daylight Time)","133124","","null","","","","offerFB","","<div class='trialBorder'><div class='vertical-center'><img style='vertical-align:center; align:center' src=img/fixation3.jpg></div><div class='cl'><div class='vertical-center'>$21<br>for<br>sure</div></div><div class='cr'><div class='vertical-center'><font style='color:orange'>$25<br>with a<br>50% chance</font></div></div><div class='respDivL'><div class='vertical-center'>(E)</div></div><div class='respDivR'><div class='vertical-center'><font style='color:orange'>(I)</font></div></div></div>","null","$21","$25","0","21","25",""
"html-keyboard-response","58","62309","0.0-5.0-1.18","5efc1d4ee23e2a011ded073e","bdp_rd","Sun Apr 09 2023 15:43:45 GMT-0700 (Pacific Daylight Time)","133124","","null","","","","FIX","","<div class='trialBorder'><div class='vertical-center'><img style='vertical-align:center; align:center' src=img/fixation3.jpg></div></div>","null","","","","","",""
"html-keyboard-response","59","63605","0.0-5.0-2.18","5efc1d4ee23e2a011ded073e","bdp_rd","Sun Apr 09 2023 15:43:45 GMT-0700 (Pacific Daylight Time)","133124","","1295","","","","offer","","<div class='trialBorder'><div class='vertical-center'><img style='vertical-align:center; align:center' src=img/fixation3.jpg></div><div class='cl'><div class='vertical-center'>$8<br>for<br>sure</div></div><div class='cr'><div class='vertical-center'>$23<br>with a<br>50% chance</div></div><div class='respDivL'><div class='vertical-center'>(E)</div></div><div class='respDivR'><div class='vertical-center'>(I)</div></div></div>","E","$8","$23","0","8","23","SURE"
"html-keyboard-response","60","63858","0.0-5.0-3.18","5efc1d4ee23e2a011ded073e","bdp_rd","Sun Apr 09 2023 15:43:45 GMT-0700 (Pacific Daylight Time)","133124","","null","","","","offerFB","","<div class='trialBorder'><div class='vertical-center'><img style='vertical-align:center; align:center' src=img/fixation3.jpg></div><div class='cl'><div class='vertical-center'><font style='color:orange'>$8<br>for<br>sure</font></div></div><div class='cr'><div class='vertical-center'>$23<br>with a<br>50% chance</div></div><div class='respDivL'><div class='vertical-center'><font style='color:orange'>(E)</font></div></div><div class='respDivR'><div class='vertical-center'>(I)</div></div></div>","null","$8","$23","0","8","23",""
"html-keyboard-response","61","64359","0.0-5.0-1.19","5efc1d4ee23e2a011ded073e","bdp_rd","Sun Apr 09 2023 15:43:45 GMT-0700 (Pacific Daylight Time)","133124","","null","","","","FIX","","<div class='trialBorder'><div class='vertical-center'><img style='vertical-align:center; align:center' src=img/fixation3.jpg></div></div>","null","","","","","",""
"html-keyboard-response","62","65534","0.0-5.0-2.19","5efc1d4ee23e2a011ded073e","bdp_rd","Sun Apr 09 2023 15:43:45 GMT-0700 (Pacific Daylight Time)","133124","","1173","","","","offer","","<div class='trialBorder'><div class='vertical-center'><img style='vertical-align:center; align:center' src=img/fixation3.jpg></div><div class='cl'><div class='vertical-center'>$65<br>with a<br>50% chance</div></div><div class='cr'><div class='vertical-center'>$46<br>for<br>sure</div></div><div class='respDivL'><div class='vertical-center'>(E)</div></div><div class='respDivR'><div class='vertical-center'>(I)</div></div></div>","E","$46","$65","1","46","65","RISKY"
"html-keyboard-response","63","65785","0.0-5.0-3.19","5efc1d4ee23e2a011ded073e","bdp_rd","Sun Apr 09 2023 15:43:45 GMT-0700 (Pacific Daylight Time)","133124","","null","","","","offerFB","","<div class='trialBorder'><div class='vertical-center'><img style='vertical-align:center; align:center' src=img/fixation3.jpg></div><div class='cl'><div class='vertical-center'><font style='color:orange'>$65<br>with a<br>50% chance</font></div></div><div class='cr'><div class='vertical-center'>$46<br>for<br>sure</div></div><div class='respDivL'><div class='vertical-center'><font style='color:orange'>(E)</font></div></div><div class='respDivR'><div class='vertical-center'>(I)</div></div></div>","null","$46","$65","1","46","65",""
"html-keyboard-response","64","66287","0.0-5.0-1.20","5efc1d4ee23e2a011ded073e","bdp_rd","Sun Apr 09 2023 15:43:45 GMT-0700 (Pacific Daylight Time)","133124","","null","","","","FIX","","<div class='trialBorder'><div class='vertical-center'><img style='vertical-align:center; align:center' src=img/fixation3.jpg></div></div>","null","","","","","",""
"html-keyboard-response","65","66972","0.0-5.0-2.20","5efc1d4ee23e2a011ded073e","bdp_rd","Sun Apr 09 2023 15:43:45 GMT-0700 (Pacific Daylight Time)","133124","","683","","","","offer","","<div class='trialBorder'><div class='vertical-center'><img style='vertical-align:center; align:center' src=img/fixation3.jpg></div><div class='cl'><div class='vertical-center'>$6<br>for<br>sure</div></div><div class='cr'><div class='vertical-center'>$13<br>with a<br>50% chance</div></div><div class='respDivL'><div class='vertical-center'>(E)</div></div><div class='respDivR'><div class='vertical-center'>(I)</div></div></div>","E","$6","$13","0","6","13","SURE"
"html-keyboard-response","66","67224","0.0-5.0-3.20","5efc1d4ee23e2a011ded073e","bdp_rd","Sun Apr 09 2023 15:43:45 GMT-0700 (Pacific Daylight Time)","133124","","null","","","","offerFB","","<div class='trialBorder'><div class='vertical-center'><img style='vertical-align:center; align:center' src=img/fixation3.jpg></div><div class='cl'><div class='vertical-center'><font style='color:orange'>$6<br>for<br>sure</font></div></div><div class='cr'><div class='vertical-center'>$13<br>with a<br>50% chance</div></div><div class='respDivL'><div class='vertical-center'><font style='color:orange'>(E)</font></div></div><div class='respDivR'><div class='vertical-center'>(I)</div></div></div>","null","$6","$13","0","6","13",""
"html-keyboard-response","67","67726","0.0-5.0-1.21","5efc1d4ee23e2a011ded073e","bdp_rd","Sun Apr 09 2023 15:43:45 GMT-0700 (Pacific Daylight Time)","133124","","null","","","","FIX","","<div class='trialBorder'><div class='vertical-center'><img style='vertical-align:center; align:center' src=img/fixation3.jpg></div></div>","null","","","","","",""
"html-keyboard-response","68","68468","0.0-5.0-2.21","5efc1d4ee23e2a011ded073e","bdp_rd","Sun Apr 09 2023 15:43:45 GMT-0700 (Pacific Daylight Time)","133124","","740","","","","offer","","<div class='trialBorder'><div class='vertical-center'><img style='vertical-align:center; align:center' src=img/fixation3.jpg></div><div class='cl'><div class='vertical-center'>$22<br>for<br>sure</div></div><div class='cr'><div class='vertical-center'>$59<br>with a<br>50% chance</div></div><div class='respDivL'><div class='vertical-center'>(E)</div></div><div class='respDivR'><div class='vertical-center'>(I)</div></div></div>","E","$22","$59","0","22","59","SURE"
"html-keyboard-response","69","68720","0.0-5.0-3.21","5efc1d4ee23e2a011ded073e","bdp_rd","Sun Apr 09 2023 15:43:45 GMT-0700 (Pacific Daylight Time)","133124","","null","","","","offerFB","","<div class='trialBorder'><div class='vertical-center'><img style='vertical-align:center; align:center' src=img/fixation3.jpg></div><div class='cl'><div class='vertical-center'><font style='color:orange'>$22<br>for<br>sure</font></div></div><div class='cr'><div class='vertical-center'>$59<br>with a<br>50% chance</div></div><div class='respDivL'><div class='vertical-center'><font style='color:orange'>(E)</font></div></div><div class='respDivR'><div class='vertical-center'>(I)</div></div></div>","null","$22","$59","0","22","59",""
"html-keyboard-response","70","69222","0.0-5.0-1.22","5efc1d4ee23e2a011ded073e","bdp_rd","Sun Apr 09 2023 15:43:45 GMT-0700 (Pacific Daylight Time)","133124","","null","","","","FIX","","<div class='trialBorder'><div class='vertical-center'><img style='vertical-align:center; align:center' src=img/fixation3.jpg></div></div>","null","","","","","",""
"html-keyboard-response","71","70414","0.0-5.0-2.22","5efc1d4ee23e2a011ded073e","bdp_rd","Sun Apr 09 2023 15:43:45 GMT-0700 (Pacific Daylight Time)","133124","","1190","","","","offer","","<div class='trialBorder'><div class='vertical-center'><img style='vertical-align:center; align:center' src=img/fixation3.jpg></div><div class='cl'><div class='vertical-center'>$13<br>for<br>sure</div></div><div class='cr'><div class='vertical-center'>$24<br>with a<br>50% chance</div></div><div class='respDivL'><div class='vertical-center'>(E)</div></div><div class='respDivR'><div class='vertical-center'>(I)</div></div></div>","I","$13","$24","0","13","24","RISKY"
"html-keyboard-response","72","70666","0.0-5.0-3.22","5efc1d4ee23e2a011ded073e","bdp_rd","Sun Apr 09 2023 15:43:45 GMT-0700 (Pacific Daylight Time)","133124","","null","","","","offerFB","","<div class='trialBorder'><div class='vertical-center'><img style='vertical-align:center; align:center' src=img/fixation3.jpg></div><div class='cl'><div class='vertical-center'>$13<br>for<br>sure</div></div><div class='cr'><div class='vertical-center'><font style='color:orange'>$24<br>with a<br>50% chance</font></div></div><div class='respDivL'><div class='vertical-center'>(E)</div></div><div class='respDivR'><div class='vertical-center'><font style='color:orange'>(I)</font></div></div></div>","null","$13","$24","0","13","24",""
"html-keyboard-response","73","71167","0.0-5.0-1.23","5efc1d4ee23e2a011ded073e","bdp_rd","Sun Apr 09 2023 15:43:45 GMT-0700 (Pacific Daylight Time)","133124","","null","","","","FIX","","<div class='trialBorder'><div class='vertical-center'><img style='vertical-align:center; align:center' src=img/fixation3.jpg></div></div>","null","","","","","",""
"html-keyboard-response","74","71711","0.0-5.0-2.23","5efc1d4ee23e2a011ded073e","bdp_rd","Sun Apr 09 2023 15:43:45 GMT-0700 (Pacific Daylight Time)","133124","","543","","","","offer","","<div class='trialBorder'><div class='vertical-center'><img style='vertical-align:center; align:center' src=img/fixation3.jpg></div><div class='cl'><div class='vertical-center'>$40<br>with a<br>50% chance</div></div><div class='cr'><div class='vertical-center'>$10<br>for<br>sure</div></div><div class='respDivL'><div class='vertical-center'>(E)</div></div><div class='respDivR'><div class='vertical-center'>(I)</div></div></div>","I","$10","$40","1","10","40","SURE"
"html-keyboard-response","75","71963","0.0-5.0-3.23","5efc1d4ee23e2a011ded073e","bdp_rd","Sun Apr 09 2023 15:43:45 GMT-0700 (Pacific Daylight Time)","133124","","null","","","","offerFB","","<div class='trialBorder'><div class='vertical-center'><img style='vertical-align:center; align:center' src=img/fixation3.jpg></div><div class='cl'><div class='vertical-center'>$40<br>with a<br>50% chance</div></div><div class='cr'><div class='vertical-center'><font style='color:orange'>$10<br>for<br>sure</font></div></div><div class='respDivL'><div class='vertical-center'>(E)</div></div><div class='respDivR'><div class='vertical-center'><font style='color:orange'>(I)</font></div></div></div>","null","$10","$40","1","10","40",""
"html-keyboard-response","76","72465","0.0-5.0-1.24","5efc1d4ee23e2a011ded073e","bdp_rd","Sun Apr 09 2023 15:43:45 GMT-0700 (Pacific Daylight Time)","133124","","null","","","","FIX","","<div class='trialBorder'><div class='vertical-center'><img style='vertical-align:center; align:center' src=img/fixation3.jpg></div></div>","null","","","","","",""
"html-keyboard-response","77","73793","0.0-5.0-2.24","5efc1d4ee23e2a011ded073e","bdp_rd","Sun Apr 09 2023 15:43:45 GMT-0700 (Pacific Daylight Time)","133124","","1326","","","","offer","","<div class='trialBorder'><div class='vertical-center'><img style='vertical-align:center; align:center' src=img/fixation3.jpg></div><div class='cl'><div class='vertical-center'>$6<br>for<br>sure</div></div><div class='cr'><div class='vertical-center'>$15<br>with a<br>50% chance</div></div><div class='respDivL'><div class='vertical-center'>(E)</div></div><div class='respDivR'><div class='vertical-center'>(I)</div></div></div>","E","$6","$15","0","6","15","SURE"
"html-keyboard-response","78","74045","0.0-5.0-3.24","5efc1d4ee23e2a011ded073e","bdp_rd","Sun Apr 09 2023 15:43:45 GMT-0700 (Pacific Daylight Time)","133124","","null","","","","offerFB","","<div class='trialBorder'><div class='vertical-center'><img style='vertical-align:center; align:center' src=img/fixation3.jpg></div><div class='cl'><div class='vertical-center'><font style='color:orange'>$6<br>for<br>sure</font></div></div><div class='cr'><div class='vertical-center'>$15<br>with a<br>50% chance</div></div><div class='respDivL'><div class='vertical-center'><font style='color:orange'>(E)</font></div></div><div class='respDivR'><div class='vertical-center'>(I)</div></div></div>","null","$6","$15","0","6","15",""
"html-keyboard-response","79","74546","0.0-5.0-1.25","5efc1d4ee23e2a011ded073e","bdp_rd","Sun Apr 09 2023 15:43:45 GMT-0700 (Pacific Daylight Time)","133124","","null","","","","FIX","","<div class='trialBorder'><div class='vertical-center'><img style='vertical-align:center; align:center' src=img/fixation3.jpg></div></div>","null","","","","","",""
"html-keyboard-response","80","75373","0.0-5.0-2.25","5efc1d4ee23e2a011ded073e","bdp_rd","Sun Apr 09 2023 15:43:45 GMT-0700 (Pacific Daylight Time)","133124","","825","","","","offer","","<div class='trialBorder'><div class='vertical-center'><img style='vertical-align:center; align:center' src=img/fixation3.jpg></div><div class='cl'><div class='vertical-center'>$31<br>with a<br>50% chance</div></div><div class='cr'><div class='vertical-center'>$15<br>for<br>sure</div></div><div class='respDivL'><div class='vertical-center'>(E)</div></div><div class='respDivR'><div class='vertical-center'>(I)</div></div></div>","I","$15","$31","1","15","31","SURE"
"html-keyboard-response","81","75624","0.0-5.0-3.25","5efc1d4ee23e2a011ded073e","bdp_rd","Sun Apr 09 2023 15:43:45 GMT-0700 (Pacific Daylight Time)","133124","","null","","","","offerFB","","<div class='trialBorder'><div class='vertical-center'><img style='vertical-align:center; align:center' src=img/fixation3.jpg></div><div class='cl'><div class='vertical-center'>$31<br>with a<br>50% chance</div></div><div class='cr'><div class='vertical-center'><font style='color:orange'>$15<br>for<br>sure</font></div></div><div class='respDivL'><div class='vertical-center'>(E)</div></div><div class='respDivR'><div class='vertical-center'><font style='color:orange'>(I)</font></div></div></div>","null","$15","$31","1","15","31",""
"html-keyboard-response","82","76126","0.0-5.0-1.26","5efc1d4ee23e2a011ded073e","bdp_rd","Sun Apr 09 2023 15:43:45 GMT-0700 (Pacific Daylight Time)","133124","","null","","","","FIX","","<div class='trialBorder'><div class='vertical-center'><img style='vertical-align:center; align:center' src=img/fixation3.jpg></div></div>","null","","","","","",""
"html-keyboard-response","83","77063","0.0-5.0-2.26","5efc1d4ee23e2a011ded073e","bdp_rd","Sun Apr 09 2023 15:43:45 GMT-0700 (Pacific Daylight Time)","133124","","936","","","","offer","","<div class='trialBorder'><div class='vertical-center'><img style='vertical-align:center; align:center' src=img/fixation3.jpg></div><div class='cl'><div class='vertical-center'>$30<br>for<br>sure</div></div><div class='cr'><div class='vertical-center'>$68<br>with a<br>50% chance</div></div><div class='respDivL'><div class='vertical-center'>(E)</div></div><div class='respDivR'><div class='vertical-center'>(I)</div></div></div>","E","$30","$68","0","30","68","SURE"
"html-keyboard-response","84","77316","0.0-5.0-3.26","5efc1d4ee23e2a011ded073e","bdp_rd","Sun Apr 09 2023 15:43:45 GMT-0700 (Pacific Daylight Time)","133124","","null","","","","offerFB","","<div class='trialBorder'><div class='vertical-center'><img style='vertical-align:center; align:center' src=img/fixation3.jpg></div><div class='cl'><div class='vertical-center'><font style='color:orange'>$30<br>for<br>sure</font></div></div><div class='cr'><div class='vertical-center'>$68<br>with a<br>50% chance</div></div><div class='respDivL'><div class='vertical-center'><font style='color:orange'>(E)</font></div></div><div class='respDivR'><div class='vertical-center'>(I)</div></div></div>","null","$30","$68","0","30","68",""
"html-keyboard-response","85","77818","0.0-5.0-1.27","5efc1d4ee23e2a011ded073e","bdp_rd","Sun Apr 09 2023 15:43:45 GMT-0700 (Pacific Daylight Time)","133124","","null","","","","FIX","","<div class='trialBorder'><div class='vertical-center'><img style='vertical-align:center; align:center' src=img/fixation3.jpg></div></div>","null","","","","","",""
"html-keyboard-response","86","78491","0.0-5.0-2.27","5efc1d4ee23e2a011ded073e","bdp_rd","Sun Apr 09 2023 15:43:45 GMT-0700 (Pacific Daylight Time)","133124","","672","","","","offer","","<div class='trialBorder'><div class='vertical-center'><img style='vertical-align:center; align:center' src=img/fixation3.jpg></div><div class='cl'><div class='vertical-center'>$50<br>with a<br>50% chance</div></div><div class='cr'><div class='vertical-center'>$5<br>for<br>sure</div></div><div class='respDivL'><div class='vertical-center'>(E)</div></div><div class='respDivR'><div class='vertical-center'>(I)</div></div></div>","I","$5","$50","1","5","50","SURE"
"html-keyboard-response","87","78743","0.0-5.0-3.27","5efc1d4ee23e2a011ded073e","bdp_rd","Sun Apr 09 2023 15:43:45 GMT-0700 (Pacific Daylight Time)","133124","","null","","","","offerFB","","<div class='trialBorder'><div class='vertical-center'><img style='vertical-align:center; align:center' src=img/fixation3.jpg></div><div class='cl'><div class='vertical-center'>$50<br>with a<br>50% chance</div></div><div class='cr'><div class='vertical-center'><font style='color:orange'>$5<br>for<br>sure</font></div></div><div class='respDivL'><div class='vertical-center'>(E)</div></div><div class='respDivR'><div class='vertical-center'><font style='color:orange'>(I)</font></div></div></div>","null","$5","$50","1","5","50",""
"html-keyboard-response","88","79245","0.0-5.0-1.28","5efc1d4ee23e2a011ded073e","bdp_rd","Sun Apr 09 2023 15:43:45 GMT-0700 (Pacific Daylight Time)","133124","","null","","","","FIX","","<div class='trialBorder'><div class='vertical-center'><img style='vertical-align:center; align:center' src=img/fixation3.jpg></div></div>","null","","","","","",""
"html-keyboard-response","89","79895","0.0-5.0-2.28","5efc1d4ee23e2a011ded073e","bdp_rd","Sun Apr 09 2023 15:43:45 GMT-0700 (Pacific Daylight Time)","133124","","650","","","","offer","","<div class='trialBorder'><div class='vertical-center'><img style='vertical-align:center; align:center' src=img/fixation3.jpg></div><div class='cl'><div class='vertical-center'>$12<br>with a<br>50% chance</div></div><div class='cr'><div class='vertical-center'>$3<br>for<br>sure</div></div><div class='respDivL'><div class='vertical-center'>(E)</div></div><div class='respDivR'><div class='vertical-center'>(I)</div></div></div>","I","$3","$12","1","3","12","SURE"
"html-keyboard-response","90","80146","0.0-5.0-3.28","5efc1d4ee23e2a011ded073e","bdp_rd","Sun Apr 09 2023 15:43:45 GMT-0700 (Pacific Daylight Time)","133124","","null","","","","offerFB","","<div class='trialBorder'><div class='vertical-center'><img style='vertical-align:center; align:center' src=img/fixation3.jpg></div><div class='cl'><div class='vertical-center'>$12<br>with a<br>50% chance</div></div><div class='cr'><div class='vertical-center'><font style='color:orange'>$3<br>for<br>sure</font></div></div><div class='respDivL'><div class='vertical-center'>(E)</div></div><div class='respDivR'><div class='vertical-center'><font style='color:orange'>(I)</font></div></div></div>","null","$3","$12","1","3","12",""
"html-keyboard-response","91","80648","0.0-5.0-1.29","5efc1d4ee23e2a011ded073e","bdp_rd","Sun Apr 09 2023 15:43:45 GMT-0700 (Pacific Daylight Time)","133124","","null","","","","FIX","","<div class='trialBorder'><div class='vertical-center'><img style='vertical-align:center; align:center' src=img/fixation3.jpg></div></div>","null","","","","","",""
"html-keyboard-response","92","81563","0.0-5.0-2.29","5efc1d4ee23e2a011ded073e","bdp_rd","Sun Apr 09 2023 15:43:45 GMT-0700 (Pacific Daylight Time)","133124","","913","","","","offer","","<div class='trialBorder'><div class='vertical-center'><img style='vertical-align:center; align:center' src=img/fixation3.jpg></div><div class='cl'><div class='vertical-center'>$58<br>for<br>sure</div></div><div class='cr'><div class='vertical-center'>$69<br>with a<br>50% chance</div></div><div class='respDivL'><div class='vertical-center'>(E)</div></div><div class='respDivR'><div class='vertical-center'>(I)</div></div></div>","E","$58","$69","0","58","69","SURE"
"html-keyboard-response","93","81815","0.0-5.0-3.29","5efc1d4ee23e2a011ded073e","bdp_rd","Sun Apr 09 2023 15:43:45 GMT-0700 (Pacific Daylight Time)","133124","","null","","","","offerFB","","<div class='trialBorder'><div class='vertical-center'><img style='vertical-align:center; align:center' src=img/fixation3.jpg></div><div class='cl'><div class='vertical-center'><font style='color:orange'>$58<br>for<br>sure</font></div></div><div class='cr'><div class='vertical-center'>$69<br>with a<br>50% chance</div></div><div class='respDivL'><div class='vertical-center'><font style='color:orange'>(E)</font></div></div><div class='respDivR'><div class='vertical-center'>(I)</div></div></div>","null","$58","$69","0","58","69",""
"html-keyboard-response","94","82317","0.0-5.0-1.30","5efc1d4ee23e2a011ded073e","bdp_rd","Sun Apr 09 2023 15:43:45 GMT-0700 (Pacific Daylight Time)","133124","","null","","","","FIX","","<div class='trialBorder'><div class='vertical-center'><img style='vertical-align:center; align:center' src=img/fixation3.jpg></div></div>","null","","","","","",""
"html-keyboard-response","95","82845","0.0-5.0-2.30","5efc1d4ee23e2a011ded073e","bdp_rd","Sun Apr 09 2023 15:43:45 GMT-0700 (Pacific Daylight Time)","133124","","528","","","","offer","","<div class='trialBorder'><div class='vertical-center'><img style='vertical-align:center; align:center' src=img/fixation3.jpg></div><div class='cl'><div class='vertical-center'>$19<br>for<br>sure</div></div><div class='cr'><div class='vertical-center'>$51<br>with a<br>50% chance</div></div><div class='respDivL'><div class='vertical-center'>(E)</div></div><div class='respDivR'><div class='vertical-center'>(I)</div></div></div>","E","$19","$51","0","19","51","SURE"
"html-keyboard-response","96","83097","0.0-5.0-3.30","5efc1d4ee23e2a011ded073e","bdp_rd","Sun Apr 09 2023 15:43:45 GMT-0700 (Pacific Daylight Time)","133124","","null","","","","offerFB","","<div class='trialBorder'><div class='vertical-center'><img style='vertical-align:center; align:center' src=img/fixation3.jpg></div><div class='cl'><div class='vertical-center'><font style='color:orange'>$19<br>for<br>sure</font></div></div><div class='cr'><div class='vertical-center'>$51<br>with a<br>50% chance</div></div><div class='respDivL'><div class='vertical-center'><font style='color:orange'>(E)</font></div></div><div class='respDivR'><div class='vertical-center'>(I)</div></div></div>","null","$19","$51","0","19","51",""
"html-keyboard-response","97","83598","0.0-5.0-1.31","5efc1d4ee23e2a011ded073e","bdp_rd","Sun Apr 09 2023 15:43:45 GMT-0700 (Pacific Daylight Time)","133124","","null","","","","FIX","","<div class='trialBorder'><div class='vertical-center'><img style='vertical-align:center; align:center' src=img/fixation3.jpg></div></div>","null","","","","","",""
"html-keyboard-response","98","84359","0.0-5.0-2.31","5efc1d4ee23e2a011ded073e","bdp_rd","Sun Apr 09 2023 15:43:45 GMT-0700 (Pacific Daylight Time)","133124","","759","","","","offer","","<div class='trialBorder'><div class='vertical-center'><img style='vertical-align:center; align:center' src=img/fixation3.jpg></div><div class='cl'><div class='vertical-center'>$37<br>with a<br>50% chance</div></div><div class='cr'><div class='vertical-center'>$20<br>for<br>sure</div></div><div class='respDivL'><div class='vertical-center'>(E)</div></div><div class='respDivR'><div class='vertical-center'>(I)</div></div></div>","I","$20","$37","1","20","37","SURE"
"html-keyboard-response","99","84611","0.0-5.0-3.31","5efc1d4ee23e2a011ded073e","bdp_rd","Sun Apr 09 2023 15:43:45 GMT-0700 (Pacific Daylight Time)","133124","","null","","","","offerFB","","<div class='trialBorder'><div class='vertical-center'><img style='vertical-align:center; align:center' src=img/fixation3.jpg></div><div class='cl'><div class='vertical-center'>$37<br>with a<br>50% chance</div></div><div class='cr'><div class='vertical-center'><font style='color:orange'>$20<br>for<br>sure</font></div></div><div class='respDivL'><div class='vertical-center'>(E)</div></div><div class='respDivR'><div class='vertical-center'><font style='color:orange'>(I)</font></div></div></div>","null","$20","$37","1","20","37",""
"html-keyboard-response","100","85112","0.0-5.0-1.32","5efc1d4ee23e2a011ded073e","bdp_rd","Sun Apr 09 2023 15:43:45 GMT-0700 (Pacific Daylight Time)","133124","","null","","","","FIX","","<div class='trialBorder'><div class='vertical-center'><img style='vertical-align:center; align:center' src=img/fixation3.jpg></div></div>","null","","","","","",""
"html-keyboard-response","101","86429","0.0-5.0-2.32","5efc1d4ee23e2a011ded073e","bdp_rd","Sun Apr 09 2023 15:43:45 GMT-0700 (Pacific Daylight Time)","133124","","1315","","","","offer","","<div class='trialBorder'><div class='vertical-center'><img style='vertical-align:center; align:center' src=img/fixation3.jpg></div><div class='cl'><div class='vertical-center'>$18<br>with a<br>50% chance</div></div><div class='cr'><div class='vertical-center'>$9<br>for<br>sure</div></div><div class='respDivL'><div class='vertical-center'>(E)</div></div><div class='respDivR'><div class='vertical-center'>(I)</div></div></div>","I","$9","$18","1","9","18","SURE"
"html-keyboard-response","102","86681","0.0-5.0-3.32","5efc1d4ee23e2a011ded073e","bdp_rd","Sun Apr 09 2023 15:43:45 GMT-0700 (Pacific Daylight Time)","133124","","null","","","","offerFB","","<div class='trialBorder'><div class='vertical-center'><img style='vertical-align:center; align:center' src=img/fixation3.jpg></div><div class='cl'><div class='vertical-center'>$18<br>with a<br>50% chance</div></div><div class='cr'><div class='vertical-center'><font style='color:orange'>$9<br>for<br>sure</font></div></div><div class='respDivL'><div class='vertical-center'>(E)</div></div><div class='respDivR'><div class='vertical-center'><font style='color:orange'>(I)</font></div></div></div>","null","$9","$18","1","9","18",""
"html-keyboard-response","103","87182","0.0-5.0-1.33","5efc1d4ee23e2a011ded073e","bdp_rd","Sun Apr 09 2023 15:43:45 GMT-0700 (Pacific Daylight Time)","133124","","null","","","","FIX","","<div class='trialBorder'><div class='vertical-center'><img style='vertical-align:center; align:center' src=img/fixation3.jpg></div></div>","null","","","","","",""
"html-keyboard-response","104","87950","0.0-5.0-2.33","5efc1d4ee23e2a011ded073e","bdp_rd","Sun Apr 09 2023 15:43:45 GMT-0700 (Pacific Daylight Time)","133124","","767","","","","offer","","<div class='trialBorder'><div class='vertical-center'><img style='vertical-align:center; align:center' src=img/fixation3.jpg></div><div class='cl'><div class='vertical-center'>$38<br>with a<br>50% chance</div></div><div class='cr'><div class='vertical-center'>$16<br>for<br>sure</div></div><div class='respDivL'><div class='vertical-center'>(E)</div></div><div class='respDivR'><div class='vertical-center'>(I)</div></div></div>","I","$16","$38","1","16","38","SURE"
"html-keyboard-response","105","88203","0.0-5.0-3.33","5efc1d4ee23e2a011ded073e","bdp_rd","Sun Apr 09 2023 15:43:45 GMT-0700 (Pacific Daylight Time)","133124","","null","","","","offerFB","","<div class='trialBorder'><div class='vertical-center'><img style='vertical-align:center; align:center' src=img/fixation3.jpg></div><div class='cl'><div class='vertical-center'>$38<br>with a<br>50% chance</div></div><div class='cr'><div class='vertical-center'><font style='color:orange'>$16<br>for<br>sure</font></div></div><div class='respDivL'><div class='vertical-center'>(E)</div></div><div class='respDivR'><div class='vertical-center'><font style='color:orange'>(I)</font></div></div></div>","null","$16","$38","1","16","38",""
"html-keyboard-response","106","88704","0.0-5.0-1.34","5efc1d4ee23e2a011ded073e","bdp_rd","Sun Apr 09 2023 15:43:45 GMT-0700 (Pacific Daylight Time)","133124","","null","","","","FIX","","<div class='trialBorder'><div class='vertical-center'><img style='vertical-align:center; align:center' src=img/fixation3.jpg></div></div>","null","","","","","",""
"html-keyboard-response","107","89259","0.0-5.0-2.34","5efc1d4ee23e2a011ded073e","bdp_rd","Sun Apr 09 2023 15:43:45 GMT-0700 (Pacific Daylight Time)","133124","","553","","","","offer","","<div class='trialBorder'><div class='vertical-center'><img style='vertical-align:center; align:center' src=img/fixation3.jpg></div><div class='cl'><div class='vertical-center'>$95<br>with a<br>50% chance</div></div><div class='cr'><div class='vertical-center'>$40<br>for<br>sure</div></div><div class='respDivL'><div class='vertical-center'>(E)</div></div><div class='respDivR'><div class='vertical-center'>(I)</div></div></div>","I","$40","$95","1","40","95","SURE"
"html-keyboard-response","108","89511","0.0-5.0-3.34","5efc1d4ee23e2a011ded073e","bdp_rd","Sun Apr 09 2023 15:43:45 GMT-0700 (Pacific Daylight Time)","133124","","null","","","","offerFB","","<div class='trialBorder'><div class='vertical-center'><img style='vertical-align:center; align:center' src=img/fixation3.jpg></div><div class='cl'><div class='vertical-center'>$95<br>with a<br>50% chance</div></div><div class='cr'><div class='vertical-center'><font style='color:orange'>$40<br>for<br>sure</font></div></div><div class='respDivL'><div class='vertical-center'>(E)</div></div><div class='respDivR'><div class='vertical-center'><font style='color:orange'>(I)</font></div></div></div>","null","$40","$95","1","40","95",""
"html-keyboard-response","109","90013","0.0-5.0-1.35","5efc1d4ee23e2a011ded073e","bdp_rd","Sun Apr 09 2023 15:43:45 GMT-0700 (Pacific Daylight Time)","133124","","null","","","","FIX","","<div class='trialBorder'><div class='vertical-center'><img style='vertical-align:center; align:center' src=img/fixation3.jpg></div></div>","null","","","","","",""
"html-keyboard-response","110","90780","0.0-5.0-2.35","5efc1d4ee23e2a011ded073e","bdp_rd","Sun Apr 09 2023 15:43:45 GMT-0700 (Pacific Daylight Time)","133124","","766","","","","offer","","<div class='trialBorder'><div class='vertical-center'><img style='vertical-align:center; align:center' src=img/fixation3.jpg></div><div class='cl'><div class='vertical-center'>$42<br>with a<br>50% chance</div></div><div class='cr'><div class='vertical-center'>$22<br>for<br>sure</div></div><div class='respDivL'><div class='vertical-center'>(E)</div></div><div class='respDivR'><div class='vertical-center'>(I)</div></div></div>","I","$22","$42","1","22","42","SURE"
"html-keyboard-response","111","91032","0.0-5.0-3.35","5efc1d4ee23e2a011ded073e","bdp_rd","Sun Apr 09 2023 15:43:45 GMT-0700 (Pacific Daylight Time)","133124","","null","","","","offerFB","","<div class='trialBorder'><div class='vertical-center'><img style='vertical-align:center; align:center' src=img/fixation3.jpg></div><div class='cl'><div class='vertical-center'>$42<br>with a<br>50% chance</div></div><div class='cr'><div class='vertical-center'><font style='color:orange'>$22<br>for<br>sure</font></div></div><div class='respDivL'><div class='vertical-center'>(E)</div></div><div class='respDivR'><div class='vertical-center'><font style='color:orange'>(I)</font></div></div></div>","null","$22","$42","1","22","42",""
"html-keyboard-response","112","91534","0.0-5.0-1.36","5efc1d4ee23e2a011ded073e","bdp_rd","Sun Apr 09 2023 15:43:45 GMT-0700 (Pacific Daylight Time)","133124","","null","","","","FIX","","<div class='trialBorder'><div class='vertical-center'><img style='vertical-align:center; align:center' src=img/fixation3.jpg></div></div>","null","","","","","",""
"html-keyboard-response","113","92025","0.0-5.0-2.36","5efc1d4ee23e2a011ded073e","bdp_rd","Sun Apr 09 2023 15:43:45 GMT-0700 (Pacific Daylight Time)","133124","","490","","","","offer","","<div class='trialBorder'><div class='vertical-center'><img style='vertical-align:center; align:center' src=img/fixation3.jpg></div><div class='cl'><div class='vertical-center'>$28<br>with a<br>50% chance</div></div><div class='cr'><div class='vertical-center'>$16<br>for<br>sure</div></div><div class='respDivL'><div class='vertical-center'>(E)</div></div><div class='respDivR'><div class='vertical-center'>(I)</div></div></div>","I","$16","$28","1","16","28","SURE"
"html-keyboard-response","114","92278","0.0-5.0-3.36","5efc1d4ee23e2a011ded073e","bdp_rd","Sun Apr 09 2023 15:43:45 GMT-0700 (Pacific Daylight Time)","133124","","null","","","","offerFB","","<div class='trialBorder'><div class='vertical-center'><img style='vertical-align:center; align:center' src=img/fixation3.jpg></div><div class='cl'><div class='vertical-center'>$28<br>with a<br>50% chance</div></div><div class='cr'><div class='vertical-center'><font style='color:orange'>$16<br>for<br>sure</font></div></div><div class='respDivL'><div class='vertical-center'>(E)</div></div><div class='respDivR'><div class='vertical-center'><font style='color:orange'>(I)</font></div></div></div>","null","$16","$28","1","16","28",""
"html-keyboard-response","115","92779","0.0-5.0-1.37","5efc1d4ee23e2a011ded073e","bdp_rd","Sun Apr 09 2023 15:43:45 GMT-0700 (Pacific Daylight Time)","133124","","null","","","","FIX","","<div class='trialBorder'><div class='vertical-center'><img style='vertical-align:center; align:center' src=img/fixation3.jpg></div></div>","null","","","","","",""
"html-keyboard-response","116","93240","0.0-5.0-2.37","5efc1d4ee23e2a011ded073e","bdp_rd","Sun Apr 09 2023 15:43:45 GMT-0700 (Pacific Daylight Time)","133124","","460","","","","offer","","<div class='trialBorder'><div class='vertical-center'><img style='vertical-align:center; align:center' src=img/fixation3.jpg></div><div class='cl'><div class='vertical-center'>$63<br>for<br>sure</div></div><div class='cr'><div class='vertical-center'>$100<br>with a<br>50% chance</div></div><div class='respDivL'><div class='vertical-center'>(E)</div></div><div class='respDivR'><div class='vertical-center'>(I)</div></div></div>","E","$63","$100","0","63","10","SURE"
"html-keyboard-response","117","93493","0.0-5.0-3.37","5efc1d4ee23e2a011ded073e","bdp_rd","Sun Apr 09 2023 15:43:45 GMT-0700 (Pacific Daylight Time)","133124","","null","","","","offerFB","","<div class='trialBorder'><div class='vertical-center'><img style='vertical-align:center; align:center' src=img/fixation3.jpg></div><div class='cl'><div class='vertical-center'><font style='color:orange'>$63<br>for<br>sure</font></div></div><div class='cr'><div class='vertical-center'>$100<br>with a<br>50% chance</div></div><div class='respDivL'><div class='vertical-center'><font style='color:orange'>(E)</font></div></div><div class='respDivR'><div class='vertical-center'>(I)</div></div></div>","null","$63","$100","0","63","10",""
"html-keyboard-response","118","93994","0.0-5.0-1.38","5efc1d4ee23e2a011ded073e","bdp_rd","Sun Apr 09 2023 15:43:45 GMT-0700 (Pacific Daylight Time)","133124","","null","","","","FIX","","<div class='trialBorder'><div class='vertical-center'><img style='vertical-align:center; align:center' src=img/fixation3.jpg></div></div>","null","","","","","",""
"html-keyboard-response","119","95053","0.0-5.0-2.38","5efc1d4ee23e2a011ded073e","bdp_rd","Sun Apr 09 2023 15:43:45 GMT-0700 (Pacific Daylight Time)","133124","","1057","","","","offer","","<div class='trialBorder'><div class='vertical-center'><img style='vertical-align:center; align:center' src=img/fixation3.jpg></div><div class='cl'><div class='vertical-center'>$16<br>with a<br>50% chance</div></div><div class='cr'><div class='vertical-center'>$5<br>for<br>sure</div></div><div class='respDivL'><div class='vertical-center'>(E)</div></div><div class='respDivR'><div class='vertical-center'>(I)</div></div></div>","E","$5","$16","1","5","16","RISKY"
"html-keyboard-response","120","95305","0.0-5.0-3.38","5efc1d4ee23e2a011ded073e","bdp_rd","Sun Apr 09 2023 15:43:45 GMT-0700 (Pacific Daylight Time)","133124","","null","","","","offerFB","","<div class='trialBorder'><div class='vertical-center'><img style='vertical-align:center; align:center' src=img/fixation3.jpg></div><div class='cl'><div class='vertical-center'><font style='color:orange'>$16<br>with a<br>50% chance</font></div></div><div class='cr'><div class='vertical-center'>$5<br>for<br>sure</div></div><div class='respDivL'><div class='vertical-center'><font style='color:orange'>(E)</font></div></div><div class='respDivR'><div class='vertical-center'>(I)</div></div></div>","null","$5","$16","1","5","16",""
"html-keyboard-response","121","95807","0.0-5.0-1.39","5efc1d4ee23e2a011ded073e","bdp_rd","Sun Apr 09 2023 15:43:45 GMT-0700 (Pacific Daylight Time)","133124","","null","","","","FIX","","<div class='trialBorder'><div class='vertical-center'><img style='vertical-align:center; align:center' src=img/fixation3.jpg></div></div>","null","","","","","",""
"html-keyboard-response","122","96635","0.0-5.0-2.39","5efc1d4ee23e2a011ded073e","bdp_rd","Sun Apr 09 2023 15:43:45 GMT-0700 (Pacific Daylight Time)","133124","","827","","","","offer","","<div class='trialBorder'><div class='vertical-center'><img style='vertical-align:center; align:center' src=img/fixation3.jpg></div><div class='cl'><div class='vertical-center'>$46<br>with a<br>50% chance</div></div><div class='cr'><div class='vertical-center'>$29<br>for<br>sure</div></div><div class='respDivL'><div class='vertical-center'>(E)</div></div><div class='respDivR'><div class='vertical-center'>(I)</div></div></div>","I","$29","$46","1","29","46","SURE"
"html-keyboard-response","123","96887","0.0-5.0-3.39","5efc1d4ee23e2a011ded073e","bdp_rd","Sun Apr 09 2023 15:43:45 GMT-0700 (Pacific Daylight Time)","133124","","null","","","","offerFB","","<div class='trialBorder'><div class='vertical-center'><img style='vertical-align:center; align:center' src=img/fixation3.jpg></div><div class='cl'><div class='vertical-center'>$46<br>with a<br>50% chance</div></div><div class='cr'><div class='vertical-center'><font style='color:orange'>$29<br>for<br>sure</font></div></div><div class='respDivL'><div class='vertical-center'>(E)</div></div><div class='respDivR'><div class='vertical-center'><font style='color:orange'>(I)</font></div></div></div>","null","$29","$46","1","29","46",""
"html-keyboard-response","124","97389","0.0-5.0-1.40","5efc1d4ee23e2a011ded073e","bdp_rd","Sun Apr 09 2023 15:43:45 GMT-0700 (Pacific Daylight Time)","133124","","null","","","","FIX","","<div class='trialBorder'><div class='vertical-center'><img style='vertical-align:center; align:center' src=img/fixation3.jpg></div></div>","null","","","","","",""
"html-keyboard-response","125","98089","0.0-5.0-2.40","5efc1d4ee23e2a011ded073e","bdp_rd","Sun Apr 09 2023 15:43:45 GMT-0700 (Pacific Daylight Time)","133124","","699","","","","offer","","<div class='trialBorder'><div class='vertical-center'><img style='vertical-align:center; align:center' src=img/fixation3.jpg></div><div class='cl'><div class='vertical-center'>$28<br>for<br>sure</div></div><div class='cr'><div class='vertical-center'>$89<br>with a<br>50% chance</div></div><div class='respDivL'><div class='vertical-center'>(E)</div></div><div class='respDivR'><div class='vertical-center'>(I)</div></div></div>","E","$28","$89","0","28","89","SURE"
"html-keyboard-response","126","98341","0.0-5.0-3.40","5efc1d4ee23e2a011ded073e","bdp_rd","Sun Apr 09 2023 15:43:45 GMT-0700 (Pacific Daylight Time)","133124","","null","","","","offerFB","","<div class='trialBorder'><div class='vertical-center'><img style='vertical-align:center; align:center' src=img/fixation3.jpg></div><div class='cl'><div class='vertical-center'><font style='color:orange'>$28<br>for<br>sure</font></div></div><div class='cr'><div class='vertical-center'>$89<br>with a<br>50% chance</div></div><div class='respDivL'><div class='vertical-center'><font style='color:orange'>(E)</font></div></div><div class='respDivR'><div class='vertical-center'>(I)</div></div></div>","null","$28","$89","0","28","89",""
"html-keyboard-response","127","98843","0.0-5.0-1.41","5efc1d4ee23e2a011ded073e","bdp_rd","Sun Apr 09 2023 15:43:45 GMT-0700 (Pacific Daylight Time)","133124","","null","","","","FIX","","<div class='trialBorder'><div class='vertical-center'><img style='vertical-align:center; align:center' src=img/fixation3.jpg></div></div>","null","","","","","",""
"html-keyboard-response","128","99500","0.0-5.0-2.41","5efc1d4ee23e2a011ded073e","bdp_rd","Sun Apr 09 2023 15:43:45 GMT-0700 (Pacific Daylight Time)","133124","","656","","","","offer","","<div class='trialBorder'><div class='vertical-center'><img style='vertical-align:center; align:center' src=img/fixation3.jpg></div><div class='cl'><div class='vertical-center'>$73<br>with a<br>50% chance</div></div><div class='cr'><div class='vertical-center'>$42<br>for<br>sure</div></div><div class='respDivL'><div class='vertical-center'>(E)</div></div><div class='respDivR'><div class='vertical-center'>(I)</div></div></div>","I","$42","$73","1","42","73","SURE"
"html-keyboard-response","129","99752","0.0-5.0-3.41","5efc1d4ee23e2a011ded073e","bdp_rd","Sun Apr 09 2023 15:43:45 GMT-0700 (Pacific Daylight Time)","133124","","null","","","","offerFB","","<div class='trialBorder'><div class='vertical-center'><img style='vertical-align:center; align:center' src=img/fixation3.jpg></div><div class='cl'><div class='vertical-center'>$73<br>with a<br>50% chance</div></div><div class='cr'><div class='vertical-center'><font style='color:orange'>$42<br>for<br>sure</font></div></div><div class='respDivL'><div class='vertical-center'>(E)</div></div><div class='respDivR'><div class='vertical-center'><font style='color:orange'>(I)</font></div></div></div>","null","$42","$73","1","42","73",""
"html-keyboard-response","130","100253","0.0-5.0-1.42","5efc1d4ee23e2a011ded073e","bdp_rd","Sun Apr 09 2023 15:43:45 GMT-0700 (Pacific Daylight Time)","133124","","null","","","","FIX","","<div class='trialBorder'><div class='vertical-center'><img style='vertical-align:center; align:center' src=img/fixation3.jpg></div></div>","null","","","","","",""
"html-keyboard-response","131","101042","0.0-5.0-2.42","5efc1d4ee23e2a011ded073e","bdp_rd","Sun Apr 09 2023 15:43:45 GMT-0700 (Pacific Daylight Time)","133124","","788","","","","offer","","<div class='trialBorder'><div class='vertical-center'><img style='vertical-align:center; align:center' src=img/fixation3.jpg></div><div class='cl'><div class='vertical-center'>$81<br>with a<br>50% chance</div></div><div class='cr'><div class='vertical-center'>$39<br>for<br>sure</div></div><div class='respDivL'><div class='vertical-center'>(E)</div></div><div class='respDivR'><div class='vertical-center'>(I)</div></div></div>","I","$39","$81","1","39","81","SURE"
"html-keyboard-response","132","101295","0.0-5.0-3.42","5efc1d4ee23e2a011ded073e","bdp_rd","Sun Apr 09 2023 15:43:45 GMT-0700 (Pacific Daylight Time)","133124","","null","","","","offerFB","","<div class='trialBorder'><div class='vertical-center'><img style='vertical-align:center; align:center' src=img/fixation3.jpg></div><div class='cl'><div class='vertical-center'>$81<br>with a<br>50% chance</div></div><div class='cr'><div class='vertical-center'><font style='color:orange'>$39<br>for<br>sure</font></div></div><div class='respDivL'><div class='vertical-center'>(E)</div></div><div class='respDivR'><div class='vertical-center'><font style='color:orange'>(I)</font></div></div></div>","null","$39","$81","1","39","81",""
"html-keyboard-response","133","101796","0.0-5.0-1.43","5efc1d4ee23e2a011ded073e","bdp_rd","Sun Apr 09 2023 15:43:45 GMT-0700 (Pacific Daylight Time)","133124","","null","","","","FIX","","<div class='trialBorder'><div class='vertical-center'><img style='vertical-align:center; align:center' src=img/fixation3.jpg></div></div>","null","","","","","",""
"html-keyboard-response","134","102575","0.0-5.0-2.43","5efc1d4ee23e2a011ded073e","bdp_rd","Sun Apr 09 2023 15:43:45 GMT-0700 (Pacific Daylight Time)","133124","","778","","","","offer","","<div class='trialBorder'><div class='vertical-center'><img style='vertical-align:center; align:center' src=img/fixation3.jpg></div><div class='cl'><div class='vertical-center'>$13<br>for<br>sure</div></div><div class='cr'><div class='vertical-center'>$41<br>with a<br>50% chance</div></div><div class='respDivL'><div class='vertical-center'>(E)</div></div><div class='respDivR'><div class='vertical-center'>(I)</div></div></div>","E","$13","$41","0","13","41","SURE"
"html-keyboard-response","135","102828","0.0-5.0-3.43","5efc1d4ee23e2a011ded073e","bdp_rd","Sun Apr 09 2023 15:43:45 GMT-0700 (Pacific Daylight Time)","133124","","null","","","","offerFB","","<div class='trialBorder'><div class='vertical-center'><img style='vertical-align:center; align:center' src=img/fixation3.jpg></div><div class='cl'><div class='vertical-center'><font style='color:orange'>$13<br>for<br>sure</font></div></div><div class='cr'><div class='vertical-center'>$41<br>with a<br>50% chance</div></div><div class='respDivL'><div class='vertical-center'><font style='color:orange'>(E)</font></div></div><div class='respDivR'><div class='vertical-center'>(I)</div></div></div>","null","$13","$41","0","13","41",""
"html-keyboard-response","136","103329","0.0-5.0-1.44","5efc1d4ee23e2a011ded073e","bdp_rd","Sun Apr 09 2023 15:43:45 GMT-0700 (Pacific Daylight Time)","133124","","null","","","","FIX","","<div class='trialBorder'><div class='vertical-center'><img style='vertical-align:center; align:center' src=img/fixation3.jpg></div></div>","null","","","","","",""
"html-keyboard-response","137","103801","0.0-5.0-2.44","5efc1d4ee23e2a011ded073e","bdp_rd","Sun Apr 09 2023 15:43:45 GMT-0700 (Pacific Daylight Time)","133124","","471","","","","offer","","<div class='trialBorder'><div class='vertical-center'><img style='vertical-align:center; align:center' src=img/fixation3.jpg></div><div class='cl'><div class='vertical-center'>$92<br>with a<br>50% chance</div></div><div class='cr'><div class='vertical-center'>$26<br>for<br>sure</div></div><div class='respDivL'><div class='vertical-center'>(E)</div></div><div class='respDivR'><div class='vertical-center'>(I)</div></div></div>","I","$26","$92","1","26","92","SURE"
"html-keyboard-response","138","104053","0.0-5.0-3.44","5efc1d4ee23e2a011ded073e","bdp_rd","Sun Apr 09 2023 15:43:45 GMT-0700 (Pacific Daylight Time)","133124","","null","","","","offerFB","","<div class='trialBorder'><div class='vertical-center'><img style='vertical-align:center; align:center' src=img/fixation3.jpg></div><div class='cl'><div class='vertical-center'>$92<br>with a<br>50% chance</div></div><div class='cr'><div class='vertical-center'><font style='color:orange'>$26<br>for<br>sure</font></div></div><div class='respDivL'><div class='vertical-center'>(E)</div></div><div class='respDivR'><div class='vertical-center'><font style='color:orange'>(I)</font></div></div></div>","null","$26","$92","1","26","92",""
"html-keyboard-response","139","104555","0.0-5.0-1.45","5efc1d4ee23e2a011ded073e","bdp_rd","Sun Apr 09 2023 15:43:45 GMT-0700 (Pacific Daylight Time)","133124","","null","","","","FIX","","<div class='trialBorder'><div class='vertical-center'><img style='vertical-align:center; align:center' src=img/fixation3.jpg></div></div>","null","","","","","",""
"html-keyboard-response","140","106020","0.0-5.0-2.45","5efc1d4ee23e2a011ded073e","bdp_rd","Sun Apr 09 2023 15:43:45 GMT-0700 (Pacific Daylight Time)","133124","","1464","","","","offer","","<div class='trialBorder'><div class='vertical-center'><img style='vertical-align:center; align:center' src=img/fixation3.jpg></div><div class='cl'><div class='vertical-center'>$17<br>for<br>sure</div></div><div class='cr'><div class='vertical-center'>$43<br>with a<br>50% chance</div></div><div class='respDivL'><div class='vertical-center'>(E)</div></div><div class='respDivR'><div class='vertical-center'>(I)</div></div></div>","E","$17","$43","0","17","43","SURE"
"html-keyboard-response","141","106273","0.0-5.0-3.45","5efc1d4ee23e2a011ded073e","bdp_rd","Sun Apr 09 2023 15:43:45 GMT-0700 (Pacific Daylight Time)","133124","","null","","","","offerFB","","<div class='trialBorder'><div class='vertical-center'><img style='vertical-align:center; align:center' src=img/fixation3.jpg></div><div class='cl'><div class='vertical-center'><font style='color:orange'>$17<br>for<br>sure</font></div></div><div class='cr'><div class='vertical-center'>$43<br>with a<br>50% chance</div></div><div class='respDivL'><div class='vertical-center'><font style='color:orange'>(E)</font></div></div><div class='respDivR'><div class='vertical-center'>(I)</div></div></div>","null","$17","$43","0","17","43",""
"html-keyboard-response","142","106775","0.0-5.0-1.46","5efc1d4ee23e2a011ded073e","bdp_rd","Sun Apr 09 2023 15:43:45 GMT-0700 (Pacific Daylight Time)","133124","","null","","","","FIX","","<div class='trialBorder'><div class='vertical-center'><img style='vertical-align:center; align:center' src=img/fixation3.jpg></div></div>","null","","","","","",""
"html-keyboard-response","143","107444","0.0-5.0-2.46","5efc1d4ee23e2a011ded073e","bdp_rd","Sun Apr 09 2023 15:43:45 GMT-0700 (Pacific Daylight Time)","133124","","667","","","","offer","","<div class='trialBorder'><div class='vertical-center'><img style='vertical-align:center; align:center' src=img/fixation3.jpg></div><div class='cl'><div class='vertical-center'>$70<br>with a<br>50% chance</div></div><div class='cr'><div class='vertical-center'>$24<br>for<br>sure</div></div><div class='respDivL'><div class='vertical-center'>(E)</div></div><div class='respDivR'><div class='vertical-center'>(I)</div></div></div>","I","$24","$70","1","24","70","SURE"
"html-keyboard-response","144","107695","0.0-5.0-3.46","5efc1d4ee23e2a011ded073e","bdp_rd","Sun Apr 09 2023 15:43:45 GMT-0700 (Pacific Daylight Time)","133124","","null","","","","offerFB","","<div class='trialBorder'><div class='vertical-center'><img style='vertical-align:center; align:center' src=img/fixation3.jpg></div><div class='cl'><div class='vertical-center'>$70<br>with a<br>50% chance</div></div><div class='cr'><div class='vertical-center'><font style='color:orange'>$24<br>for<br>sure</font></div></div><div class='respDivL'><div class='vertical-center'>(E)</div></div><div class='respDivR'><div class='vertical-center'><font style='color:orange'>(I)</font></div></div></div>","null","$24","$70","1","24","70",""
"html-keyboard-response","145","108197","0.0-5.0-1.47","5efc1d4ee23e2a011ded073e","bdp_rd","Sun Apr 09 2023 15:43:45 GMT-0700 (Pacific Daylight Time)","133124","","null","","","","FIX","","<div class='trialBorder'><div class='vertical-center'><img style='vertical-align:center; align:center' src=img/fixation3.jpg></div></div>","null","","","","","",""
"html-keyboard-response","146","109309","0.0-5.0-2.47","5efc1d4ee23e2a011ded073e","bdp_rd","Sun Apr 09 2023 15:43:45 GMT-0700 (Pacific Daylight Time)","133124","","1111","","","","offer","","<div class='trialBorder'><div class='vertical-center'><img style='vertical-align:center; align:center' src=img/fixation3.jpg></div><div class='cl'><div class='vertical-center'>$33<br>with a<br>50% chance</div></div><div class='cr'><div class='vertical-center'>$1<br>for<br>sure</div></div><div class='respDivL'><div class='vertical-center'>(E)</div></div><div class='respDivR'><div class='vertical-center'>(I)</div></div></div>","E","$1","$33","1","1","33","RISKY"
"html-keyboard-response","147","109561","0.0-5.0-3.47","5efc1d4ee23e2a011ded073e","bdp_rd","Sun Apr 09 2023 15:43:45 GMT-0700 (Pacific Daylight Time)","133124","","null","","","","offerFB","","<div class='trialBorder'><div class='vertical-center'><img style='vertical-align:center; align:center' src=img/fixation3.jpg></div><div class='cl'><div class='vertical-center'><font style='color:orange'>$33<br>with a<br>50% chance</font></div></div><div class='cr'><div class='vertical-center'>$1<br>for<br>sure</div></div><div class='respDivL'><div class='vertical-center'><font style='color:orange'>(E)</font></div></div><div class='respDivR'><div class='vertical-center'>(I)</div></div></div>","null","$1","$33","1","1","33",""
"html-keyboard-response","148","110064","0.0-5.0-1.48","5efc1d4ee23e2a011ded073e","bdp_rd","Sun Apr 09 2023 15:43:45 GMT-0700 (Pacific Daylight Time)","133124","","null","","","","FIX","","<div class='trialBorder'><div class='vertical-center'><img style='vertical-align:center; align:center' src=img/fixation3.jpg></div></div>","null","","","","","",""
"html-keyboard-response","149","111243","0.0-5.0-2.48","5efc1d4ee23e2a011ded073e","bdp_rd","Sun Apr 09 2023 15:43:45 GMT-0700 (Pacific Daylight Time)","133124","","1178","","","","offer","","<div class='trialBorder'><div class='vertical-center'><img style='vertical-align:center; align:center' src=img/fixation3.jpg></div><div class='cl'><div class='vertical-center'>$25<br>for<br>sure</div></div><div class='cr'><div class='vertical-center'>$54<br>with a<br>50% chance</div></div><div class='respDivL'><div class='vertical-center'>(E)</div></div><div class='respDivR'><div class='vertical-center'>(I)</div></div></div>","E","$25","$54","0","25","54","SURE"
"html-keyboard-response","150","111495","0.0-5.0-3.48","5efc1d4ee23e2a011ded073e","bdp_rd","Sun Apr 09 2023 15:43:45 GMT-0700 (Pacific Daylight Time)","133124","","null","","","","offerFB","","<div class='trialBorder'><div class='vertical-center'><img style='vertical-align:center; align:center' src=img/fixation3.jpg></div><div class='cl'><div class='vertical-center'><font style='color:orange'>$25<br>for<br>sure</font></div></div><div class='cr'><div class='vertical-center'>$54<br>with a<br>50% chance</div></div><div class='respDivL'><div class='vertical-center'><font style='color:orange'>(E)</font></div></div><div class='respDivR'><div class='vertical-center'>(I)</div></div></div>","null","$25","$54","0","25","54",""
"html-keyboard-response","151","111997","0.0-5.0-1.49","5efc1d4ee23e2a011ded073e","bdp_rd","Sun Apr 09 2023 15:43:45 GMT-0700 (Pacific Daylight Time)","133124","","null","","","","FIX","","<div class='trialBorder'><div class='vertical-center'><img style='vertical-align:center; align:center' src=img/fixation3.jpg></div></div>","null","","","","","",""
"html-keyboard-response","152","112830","0.0-5.0-2.49","5efc1d4ee23e2a011ded073e","bdp_rd","Sun Apr 09 2023 15:43:45 GMT-0700 (Pacific Daylight Time)","133124","","833","","","","offer","","<div class='trialBorder'><div class='vertical-center'><img style='vertical-align:center; align:center' src=img/fixation3.jpg></div><div class='cl'><div class='vertical-center'>$18<br>for<br>sure</div></div><div class='cr'><div class='vertical-center'>$39<br>with a<br>50% chance</div></div><div class='respDivL'><div class='vertical-center'>(E)</div></div><div class='respDivR'><div class='vertical-center'>(I)</div></div></div>","E","$18","$39","0","18","39","SURE"
"html-keyboard-response","153","113083","0.0-5.0-3.49","5efc1d4ee23e2a011ded073e","bdp_rd","Sun Apr 09 2023 15:43:45 GMT-0700 (Pacific Daylight Time)","133124","","null","","","","offerFB","","<div class='trialBorder'><div class='vertical-center'><img style='vertical-align:center; align:center' src=img/fixation3.jpg></div><div class='cl'><div class='vertical-center'><font style='color:orange'>$18<br>for<br>sure</font></div></div><div class='cr'><div class='vertical-center'>$39<br>with a<br>50% chance</div></div><div class='respDivL'><div class='vertical-center'><font style='color:orange'>(E)</font></div></div><div class='respDivR'><div class='vertical-center'>(I)</div></div></div>","null","$18","$39","0","18","39",""
"html-keyboard-response","154","113584","0.0-5.0-1.50","5efc1d4ee23e2a011ded073e","bdp_rd","Sun Apr 09 2023 15:43:45 GMT-0700 (Pacific Daylight Time)","133124","","null","","","","FIX","","<div class='trialBorder'><div class='vertical-center'><img style='vertical-align:center; align:center' src=img/fixation3.jpg></div></div>","null","","","","","",""
"html-keyboard-response","155","114174","0.0-5.0-2.50","5efc1d4ee23e2a011ded073e","bdp_rd","Sun Apr 09 2023 15:43:45 GMT-0700 (Pacific Daylight Time)","133124","","588","","","","offer","","<div class='trialBorder'><div class='vertical-center'><img style='vertical-align:center; align:center' src=img/fixation3.jpg></div><div class='cl'><div class='vertical-center'>$17<br>with a<br>50% chance</div></div><div class='cr'><div class='vertical-center'>$3<br>for<br>sure</div></div><div class='respDivL'><div class='vertical-center'>(E)</div></div><div class='respDivR'><div class='vertical-center'>(I)</div></div></div>","I","$3","$17","1","3","17","SURE"
"html-keyboard-response","156","114425","0.0-5.0-3.50","5efc1d4ee23e2a011ded073e","bdp_rd","Sun Apr 09 2023 15:43:45 GMT-0700 (Pacific Daylight Time)","133124","","null","","","","offerFB","","<div class='trialBorder'><div class='vertical-center'><img style='vertical-align:center; align:center' src=img/fixation3.jpg></div><div class='cl'><div class='vertical-center'>$17<br>with a<br>50% chance</div></div><div class='cr'><div class='vertical-center'><font style='color:orange'>$3<br>for<br>sure</font></div></div><div class='respDivL'><div class='vertical-center'>(E)</div></div><div class='respDivR'><div class='vertical-center'><font style='color:orange'>(I)</font></div></div></div>","null","$3","$17","1","3","17",""
"html-keyboard-response","157","114927","0.0-5.0-1.51","5efc1d4ee23e2a011ded073e","bdp_rd","Sun Apr 09 2023 15:43:45 GMT-0700 (Pacific Daylight Time)","133124","","null","","","","FIX","","<div class='trialBorder'><div class='vertical-center'><img style='vertical-align:center; align:center' src=img/fixation3.jpg></div></div>","null","","","","","",""
"html-keyboard-response","158","115661","0.0-5.0-2.51","5efc1d4ee23e2a011ded073e","bdp_rd","Sun Apr 09 2023 15:43:45 GMT-0700 (Pacific Daylight Time)","133124","","733","","","","offer","","<div class='trialBorder'><div class='vertical-center'><img style='vertical-align:center; align:center' src=img/fixation3.jpg></div><div class='cl'><div class='vertical-center'>$80<br>with a<br>50% chance</div></div><div class='cr'><div class='vertical-center'>$20<br>for<br>sure</div></div><div class='respDivL'><div class='vertical-center'>(E)</div></div><div class='respDivR'><div class='vertical-center'>(I)</div></div></div>","I","$20","$80","1","20","80","SURE"
"html-keyboard-response","159","115913","0.0-5.0-3.51","5efc1d4ee23e2a011ded073e","bdp_rd","Sun Apr 09 2023 15:43:45 GMT-0700 (Pacific Daylight Time)","133124","","null","","","","offerFB","","<div class='trialBorder'><div class='vertical-center'><img style='vertical-align:center; align:center' src=img/fixation3.jpg></div><div class='cl'><div class='vertical-center'>$80<br>with a<br>50% chance</div></div><div class='cr'><div class='vertical-center'><font style='color:orange'>$20<br>for<br>sure</font></div></div><div class='respDivL'><div class='vertical-center'>(E)</div></div><div class='respDivR'><div class='vertical-center'><font style='color:orange'>(I)</font></div></div></div>","null","$20","$80","1","20","80",""
"html-keyboard-response","160","116415","0.0-5.0-1.52","5efc1d4ee23e2a011ded073e","bdp_rd","Sun Apr 09 2023 15:43:45 GMT-0700 (Pacific Daylight Time)","133124","","null","","","","FIX","","<div class='trialBorder'><div class='vertical-center'><img style='vertical-align:center; align:center' src=img/fixation3.jpg></div></div>","null","","","","","",""
"html-keyboard-response","161","117398","0.0-5.0-2.52","5efc1d4ee23e2a011ded073e","bdp_rd","Sun Apr 09 2023 15:43:45 GMT-0700 (Pacific Daylight Time)","133124","","982","","","","offer","","<div class='trialBorder'><div class='vertical-center'><img style='vertical-align:center; align:center' src=img/fixation3.jpg></div><div class='cl'><div class='vertical-center'>$7<br>for<br>sure</div></div><div class='cr'><div class='vertical-center'>$71<br>with a<br>50% chance</div></div><div class='respDivL'><div class='vertical-center'>(E)</div></div><div class='respDivR'><div class='vertical-center'>(I)</div></div></div>","E","$7","$71","0","7","71","SURE"
"html-keyboard-response","162","117650","0.0-5.0-3.52","5efc1d4ee23e2a011ded073e","bdp_rd","Sun Apr 09 2023 15:43:45 GMT-0700 (Pacific Daylight Time)","133124","","null","","","","offerFB","","<div class='trialBorder'><div class='vertical-center'><img style='vertical-align:center; align:center' src=img/fixation3.jpg></div><div class='cl'><div class='vertical-center'><font style='color:orange'>$7<br>for<br>sure</font></div></div><div class='cr'><div class='vertical-center'>$71<br>with a<br>50% chance</div></div><div class='respDivL'><div class='vertical-center'><font style='color:orange'>(E)</font></div></div><div class='respDivR'><div class='vertical-center'>(I)</div></div></div>","null","$7","$71","0","7","71",""
"html-keyboard-response","163","118153","0.0-5.0-1.53","5efc1d4ee23e2a011ded073e","bdp_rd","Sun Apr 09 2023 15:43:45 GMT-0700 (Pacific Daylight Time)","133124","","null","","","","FIX","","<div class='trialBorder'><div class='vertical-center'><img style='vertical-align:center; align:center' src=img/fixation3.jpg></div></div>","null","","","","","",""
"html-keyboard-response","164","119421","0.0-5.0-2.53","5efc1d4ee23e2a011ded073e","bdp_rd","Sun Apr 09 2023 15:43:45 GMT-0700 (Pacific Daylight Time)","133124","","1266","","","","offer","","<div class='trialBorder'><div class='vertical-center'><img style='vertical-align:center; align:center' src=img/fixation3.jpg></div><div class='cl'><div class='vertical-center'>$19<br>with a<br>50% chance</div></div><div class='cr'><div class='vertical-center'>$10<br>for<br>sure</div></div><div class='respDivL'><div class='vertical-center'>(E)</div></div><div class='respDivR'><div class='vertical-center'>(I)</div></div></div>","I","$10","$19","1","10","19","SURE"
"html-keyboard-response","165","119674","0.0-5.0-3.53","5efc1d4ee23e2a011ded073e","bdp_rd","Sun Apr 09 2023 15:43:45 GMT-0700 (Pacific Daylight Time)","133124","","null","","","","offerFB","","<div class='trialBorder'><div class='vertical-center'><img style='vertical-align:center; align:center' src=img/fixation3.jpg></div><div class='cl'><div class='vertical-center'>$19<br>with a<br>50% chance</div></div><div class='cr'><div class='vertical-center'><font style='color:orange'>$10<br>for<br>sure</font></div></div><div class='respDivL'><div class='vertical-center'>(E)</div></div><div class='respDivR'><div class='vertical-center'><font style='color:orange'>(I)</font></div></div></div>","null","$10","$19","1","10","19",""
"html-keyboard-response","166","120175","0.0-5.0-1.54","5efc1d4ee23e2a011ded073e","bdp_rd","Sun Apr 09 2023 15:43:45 GMT-0700 (Pacific Daylight Time)","133124","","null","","","","FIX","","<div class='trialBorder'><div class='vertical-center'><img style='vertical-align:center; align:center' src=img/fixation3.jpg></div></div>","null","","","","","",""
"html-keyboard-response","167","122169","0.0-5.0-2.54","5efc1d4ee23e2a011ded073e","bdp_rd","Sun Apr 09 2023 15:43:45 GMT-0700 (Pacific Daylight Time)","133124","","1993","","","","offer","","<div class='trialBorder'><div class='vertical-center'><img style='vertical-align:center; align:center' src=img/fixation3.jpg></div><div class='cl'><div class='vertical-center'>$32<br>with a<br>50% chance</div></div><div class='cr'><div class='vertical-center'>$9<br>for<br>sure</div></div><div class='respDivL'><div class='vertical-center'>(E)</div></div><div class='respDivR'><div class='vertical-center'>(I)</div></div></div>","E","$9","$32","1","9","32","RISKY"
"html-keyboard-response","168","122421","0.0-5.0-3.54","5efc1d4ee23e2a011ded073e","bdp_rd","Sun Apr 09 2023 15:43:45 GMT-0700 (Pacific Daylight Time)","133124","","null","","","","offerFB","","<div class='trialBorder'><div class='vertical-center'><img style='vertical-align:center; align:center' src=img/fixation3.jpg></div><div class='cl'><div class='vertical-center'><font style='color:orange'>$32<br>with a<br>50% chance</font></div></div><div class='cr'><div class='vertical-center'>$9<br>for<br>sure</div></div><div class='respDivL'><div class='vertical-center'><font style='color:orange'>(E)</font></div></div><div class='respDivR'><div class='vertical-center'>(I)</div></div></div>","null","$9","$32","1","9","32",""
"html-keyboard-response","169","122923","0.0-5.0-1.55","5efc1d4ee23e2a011ded073e","bdp_rd","Sun Apr 09 2023 15:43:45 GMT-0700 (Pacific Daylight Time)","133124","","null","","","","FIX","","<div class='trialBorder'><div class='vertical-center'><img style='vertical-align:center; align:center' src=img/fixation3.jpg></div></div>","null","","","","","",""
"html-keyboard-response","170","124142","0.0-5.0-2.55","5efc1d4ee23e2a011ded073e","bdp_rd","Sun Apr 09 2023 15:43:45 GMT-0700 (Pacific Daylight Time)","133124","","1217","","","","offer","","<div class='trialBorder'><div class='vertical-center'><img style='vertical-align:center; align:center' src=img/fixation3.jpg></div><div class='cl'><div class='vertical-center'>$11<br>for<br>sure</div></div><div class='cr'><div class='vertical-center'>$26<br>with a<br>50% chance</div></div><div class='respDivL'><div class='vertical-center'>(E)</div></div><div class='respDivR'><div class='vertical-center'>(I)</div></div></div>","I","$11","$26","0","11","26","RISKY"
"html-keyboard-response","171","124394","0.0-5.0-3.55","5efc1d4ee23e2a011ded073e","bdp_rd","Sun Apr 09 2023 15:43:45 GMT-0700 (Pacific Daylight Time)","133124","","null","","","","offerFB","","<div class='trialBorder'><div class='vertical-center'><img style='vertical-align:center; align:center' src=img/fixation3.jpg></div><div class='cl'><div class='vertical-center'>$11<br>for<br>sure</div></div><div class='cr'><div class='vertical-center'><font style='color:orange'>$26<br>with a<br>50% chance</font></div></div><div class='respDivL'><div class='vertical-center'>(E)</div></div><div class='respDivR'><div class='vertical-center'><font style='color:orange'>(I)</font></div></div></div>","null","$11","$26","0","11","26",""
"html-keyboard-response","172","124896","0.0-5.0-1.56","5efc1d4ee23e2a011ded073e","bdp_rd","Sun Apr 09 2023 15:43:45 GMT-0700 (Pacific Daylight Time)","133124","","null","","","","FIX","","<div class='trialBorder'><div class='vertical-center'><img style='vertical-align:center; align:center' src=img/fixation3.jpg></div></div>","null","","","","","",""
"html-keyboard-response","173","127463","0.0-5.0-2.56","5efc1d4ee23e2a011ded073e","bdp_rd","Sun Apr 09 2023 15:43:45 GMT-0700 (Pacific Daylight Time)","133124","","2565","","","","offer","","<div class='trialBorder'><div class='vertical-center'><img style='vertical-align:center; align:center' src=img/fixation3.jpg></div><div class='cl'><div class='vertical-center'>$14<br>for<br>sure</div></div><div class='cr'><div class='vertical-center'>$22<br>with a<br>50% chance</div></div><div class='respDivL'><div class='vertical-center'>(E)</div></div><div class='respDivR'><div class='vertical-center'>(I)</div></div></div>","E","$14","$22","0","14","22","SURE"
