"event","trial","time","trialtype","subject_id","task","startTime","totalTime","trial_type","trial_index","time_elapsed","internal_node_id","view_history","rt","success","stimulus","key_press","sureOffer","riskyOffer","riskyLeft","sureAmt","riskyAmt","chosen"
"focus","0","0","focusevent","5e55e83cc65ccb5ed547cb04","bdp_rd","Tue Mar 28 2023 21:40:27 GMT-0700 (Pacific Daylight Time)","194120","","","","","","","","","","","","","","",""
"","","","","5e55e83cc65ccb5ed547cb04","bdp_rd","Tue Mar 28 2023 21:40:27 GMT-0700 (Pacific Daylight Time)","194120","pavlovia","0","2","0.0-0.0","","","","","","","","","","",""
"","","","","5e55e83cc65ccb5ed547cb04","bdp_rd","Tue Mar 28 2023 21:40:27 GMT-0700 (Pacific Daylight Time)","194120","instructions","1","1646","0.0-1.0","[{""page_index"":0,""viewing_time"":1643}]","1643","","","","","","","","",""
"fullscreenexit","2","4405","fullscreenexit","5e55e83cc65ccb5ed547cb04","bdp_rd","Tue Mar 28 2023 21:40:27 GMT-0700 (Pacific Daylight Time)","194120","","","","","","","","","","","","","","",""
"","","","","5e55e83cc65ccb5ed547cb04","bdp_rd","Tue Mar 28 2023 21:40:27 GMT-0700 (Pacific Daylight Time)","194120","fullscreen","2","5193","0.0-2.0","","","true","","","","","","","",""
"","","","fullscreenfail","5e55e83cc65ccb5ed547cb04","bdp_rd","Tue Mar 28 2023 21:40:27 GMT-0700 (Pacific Daylight Time)","194120","image-keyboard-response","3","95547","0.0-3.0-0.0","","90351","","","32","","","","","",""
"","","","","5e55e83cc65ccb5ed547cb04","bdp_rd","Tue Mar 28 2023 21:40:27 GMT-0700 (Pacific Daylight Time)","194120","instructions","4","109773","0.0-4.0","[{""page_index"":0,""viewing_time"":5365},{""page_index"":1,""viewing_time"":7301},{""page_index"":2,""viewing_time"":1296}]","13962","","","","","","","","",""
"","","","FIX","5e55e83cc65ccb5ed547cb04","bdp_rd","Tue Mar 28 2023 21:40:27 GMT-0700 (Pacific Daylight Time)","194120","html-keyboard-response","5","110284","0.0-5.0-1.0","","null","","<div class='trialBorder'><div class='vertical-center'><img style='vertical-align:center; align:center' src=img/fixation3.jpg></div></div>","null","","","","","",""
"","","","offer","5e55e83cc65ccb5ed547cb04","bdp_rd","Tue Mar 28 2023 21:40:27 GMT-0700 (Pacific Daylight Time)","194120","html-keyboard-response","6","114060","0.0-5.0-2.0","","3775","","<div class='trialBorder'><div class='vertical-center'><img style='vertical-align:center; align:center' src=img/fixation3.jpg></div><div class='cl'><div class='vertical-center'>$89<br>with a<br>50% chance</div></div><div class='cr'><div class='vertical-center'>$28<br>for<br>sure</div></div><div class='respDivL'><div class='vertical-center'>(E)</div></div><div class='respDivR'><div class='vertical-center'>(I)</div></div></div>","I","$28","$89","1","28","89","SURE"
"","","","offerFB","5e55e83cc65ccb5ed547cb04","bdp_rd","Tue Mar 28 2023 21:40:27 GMT-0700 (Pacific Daylight Time)","194120","html-keyboard-response","7","114326","0.0-5.0-3.0","","null","","<div class='trialBorder'><div class='vertical-center'><img style='vertical-align:center; align:center' src=img/fixation3.jpg></div><div class='cl'><div class='vertical-center'>$89<br>with a<br>50% chance</div></div><div class='cr'><div class='vertical-center'><font style='color:orange'>$28<br>for<br>sure</font></div></div><div class='respDivL'><div class='vertical-center'>(E)</div></div><div class='respDivR'><div class='vertical-center'><font style='color:orange'>(I)</font></div></div></div>","null","$28","$89","1","28","89",""
"","","","FIX","5e55e83cc65ccb5ed547cb04","bdp_rd","Tue Mar 28 2023 21:40:27 GMT-0700 (Pacific Daylight Time)","194120","html-keyboard-response","8","114841","0.0-5.0-1.1","","null","","<div class='trialBorder'><div class='vertical-center'><img style='vertical-align:center; align:center' src=img/fixation3.jpg></div></div>","null","","","","","",""
"","","","offer","5e55e83cc65ccb5ed547cb04","bdp_rd","Tue Mar 28 2023 21:40:27 GMT-0700 (Pacific Daylight Time)","194120","html-keyboard-response","9","115594","0.0-5.0-2.1","","753","","<div class='trialBorder'><div class='vertical-center'><img style='vertical-align:center; align:center' src=img/fixation3.jpg></div><div class='cl'><div class='vertical-center'>$86<br>with a<br>50% chance</div></div><div class='cr'><div class='vertical-center'>$45<br>for<br>sure</div></div><div class='respDivL'><div class='vertical-center'>(E)</div></div><div class='respDivR'><div class='vertical-center'>(I)</div></div></div>","I","$45","$86","1","45","86","SURE"
"","","","offerFB","5e55e83cc65ccb5ed547cb04","bdp_rd","Tue Mar 28 2023 21:40:27 GMT-0700 (Pacific Daylight Time)","194120","html-keyboard-response","10","115850","0.0-5.0-3.1","","null","","<div class='trialBorder'><div class='vertical-center'><img style='vertical-align:center; align:center' src=img/fixation3.jpg></div><div class='cl'><div class='vertical-center'>$86<br>with a<br>50% chance</div></div><div class='cr'><div class='vertical-center'><font style='color:orange'>$45<br>for<br>sure</font></div></div><div class='respDivL'><div class='vertical-center'>(E)</div></div><div class='respDivR'><div class='vertical-center'><font style='color:orange'>(I)</font></div></div></div>","null","$45","$86","1","45","86",""
"","","","FIX","5e55e83cc65ccb5ed547cb04","bdp_rd","Tue Mar 28 2023 21:40:27 GMT-0700 (Pacific Daylight Time)","194120","html-keyboard-response","11","116366","0.0-5.0-1.2","","null","","<div class='trialBorder'><div class='vertical-center'><img style='vertical-align:center; align:center' src=img/fixation3.jpg></div></div>","null","","","","","",""
"","","","offer","5e55e83cc65ccb5ed547cb04","bdp_rd","Tue Mar 28 2023 21:40:27 GMT-0700 (Pacific Daylight Time)","194120","html-keyboard-response","12","117381","0.0-5.0-2.2","","1015","","<div class='trialBorder'><div class='vertical-center'><img style='vertical-align:center; align:center' src=img/fixation3.jpg></div><div class='cl'><div class='vertical-center'>$25<br>for<br>sure</div></div><div class='cr'><div class='vertical-center'>$54<br>with a<br>50% chance</div></div><div class='respDivL'><div class='vertical-center'>(E)</div></div><div class='respDivR'><div class='vertical-center'>(I)</div></div></div>","E","$25","$54","0","25","54","SURE"
"","","","offerFB","5e55e83cc65ccb5ed547cb04","bdp_rd","Tue Mar 28 2023 21:40:27 GMT-0700 (Pacific Daylight Time)","194120","html-keyboard-response","13","117639","0.0-5.0-3.2","","null","","<div class='trialBorder'><div class='vertical-center'><img style='vertical-align:center; align:center' src=img/fixation3.jpg></div><div class='cl'><div class='vertical-center'><font style='color:orange'>$25<br>for<br>sure</font></div></div><div class='cr'><div class='vertical-center'>$54<br>with a<br>50% chance</div></div><div class='respDivL'><div class='vertical-center'><font style='color:orange'>(E)</font></div></div><div class='respDivR'><div class='vertical-center'>(I)</div></div></div>","null","$25","$54","0","25","54",""
"","","","FIX","5e55e83cc65ccb5ed547cb04","bdp_rd","Tue Mar 28 2023 21:40:27 GMT-0700 (Pacific Daylight Time)","194120","html-keyboard-response","14","118151","0.0-5.0-1.3","","null","","<div class='trialBorder'><div class='vertical-center'><img style='vertical-align:center; align:center' src=img/fixation3.jpg></div></div>","null","","","","","",""
"","","","offer","5e55e83cc65ccb5ed547cb04","bdp_rd","Tue Mar 28 2023 21:40:27 GMT-0700 (Pacific Daylight Time)","194120","html-keyboard-response","15","119366","0.0-5.0-2.3","","1213","","<div class='trialBorder'><div class='vertical-center'><img style='vertical-align:center; align:center' src=img/fixation3.jpg></div><div class='cl'><div class='vertical-center'>$37<br>for<br>sure</div></div><div class='cr'><div class='vertical-center'>$44<br>with a<br>50% chance</div></div><div class='respDivL'><div class='vertical-center'>(E)</div></div><div class='respDivR'><div class='vertical-center'>(I)</div></div></div>","E","$37","$44","0","37","44","SURE"
"","","","offerFB","5e55e83cc65ccb5ed547cb04","bdp_rd","Tue Mar 28 2023 21:40:27 GMT-0700 (Pacific Daylight Time)","194120","html-keyboard-response","16","119628","0.0-5.0-3.3","","null","","<div class='trialBorder'><div class='vertical-center'><img style='vertical-align:center; align:center' src=img/fixation3.jpg></div><div class='cl'><div class='vertical-center'><font style='color:orange'>$37<br>for<br>sure</font></div></div><div class='cr'><div class='vertical-center'>$44<br>with a<br>50% chance</div></div><div class='respDivL'><div class='vertical-center'><font style='color:orange'>(E)</font></div></div><div class='respDivR'><div class='vertical-center'>(I)</div></div></div>","null","$37","$44","0","37","44",""
"","","","FIX","5e55e83cc65ccb5ed547cb04","bdp_rd","Tue Mar 28 2023 21:40:27 GMT-0700 (Pacific Daylight Time)","194120","html-keyboard-response","17","120139","0.0-5.0-1.4","","null","","<div class='trialBorder'><div class='vertical-center'><img style='vertical-align:center; align:center' src=img/fixation3.jpg></div></div>","null","","","","","",""
"","","","offer","5e55e83cc65ccb5ed547cb04","bdp_rd","Tue Mar 28 2023 21:40:27 GMT-0700 (Pacific Daylight Time)","194120","html-keyboard-response","18","120774","0.0-5.0-2.4","","634","","<div class='trialBorder'><div class='vertical-center'><img style='vertical-align:center; align:center' src=img/fixation3.jpg></div><div class='cl'><div class='vertical-center'>$92<br>with a<br>50% chance</div></div><div class='cr'><div class='vertical-center'>$26<br>for<br>sure</div></div><div class='respDivL'><div class='vertical-center'>(E)</div></div><div class='respDivR'><div class='vertical-center'>(I)</div></div></div>","I","$26","$92","1","26","92","SURE"
"","","","offerFB","5e55e83cc65ccb5ed547cb04","bdp_rd","Tue Mar 28 2023 21:40:27 GMT-0700 (Pacific Daylight Time)","194120","html-keyboard-response","19","121028","0.0-5.0-3.4","","null","","<div class='trialBorder'><div class='vertical-center'><img style='vertical-align:center; align:center' src=img/fixation3.jpg></div><div class='cl'><div class='vertical-center'>$92<br>with a<br>50% chance</div></div><div class='cr'><div class='vertical-center'><font style='color:orange'>$26<br>for<br>sure</font></div></div><div class='respDivL'><div class='vertical-center'>(E)</div></div><div class='respDivR'><div class='vertical-center'><font style='color:orange'>(I)</font></div></div></div>","null","$26","$92","1","26","92",""
"","","","FIX","5e55e83cc65ccb5ed547cb04","bdp_rd","Tue Mar 28 2023 21:40:27 GMT-0700 (Pacific Daylight Time)","194120","html-keyboard-response","20","121536","0.0-5.0-1.5","","null","","<div class='trialBorder'><div class='vertical-center'><img style='vertical-align:center; align:center' src=img/fixation3.jpg></div></div>","null","","","","","",""
"","","","offer","5e55e83cc65ccb5ed547cb04","bdp_rd","Tue Mar 28 2023 21:40:27 GMT-0700 (Pacific Daylight Time)","194120","html-keyboard-response","21","122011","0.0-5.0-2.5","","475","","<div class='trialBorder'><div class='vertical-center'><img style='vertical-align:center; align:center' src=img/fixation3.jpg></div><div class='cl'><div class='vertical-center'>$40<br>for<br>sure</div></div><div class='cr'><div class='vertical-center'>$95<br>with a<br>50% chance</div></div><div class='respDivL'><div class='vertical-center'>(E)</div></div><div class='respDivR'><div class='vertical-center'>(I)</div></div></div>","E","$40","$95","0","40","95","SURE"
"","","","offerFB","5e55e83cc65ccb5ed547cb04","bdp_rd","Tue Mar 28 2023 21:40:27 GMT-0700 (Pacific Daylight Time)","194120","html-keyboard-response","22","122265","0.0-5.0-3.5","","null","","<div class='trialBorder'><div class='vertical-center'><img style='vertical-align:center; align:center' src=img/fixation3.jpg></div><div class='cl'><div class='vertical-center'><font style='color:orange'>$40<br>for<br>sure</font></div></div><div class='cr'><div class='vertical-center'>$95<br>with a<br>50% chance</div></div><div class='respDivL'><div class='vertical-center'><font style='color:orange'>(E)</font></div></div><div class='respDivR'><div class='vertical-center'>(I)</div></div></div>","null","$40","$95","0","40","95",""
"","","","FIX","5e55e83cc65ccb5ed547cb04","bdp_rd","Tue Mar 28 2023 21:40:27 GMT-0700 (Pacific Daylight Time)","194120","html-keyboard-response","23","122775","0.0-5.0-1.6","","null","","<div class='trialBorder'><div class='vertical-center'><img style='vertical-align:center; align:center' src=img/fixation3.jpg></div></div>","null","","","","","",""
"","","","offer","5e55e83cc65ccb5ed547cb04","bdp_rd","Tue Mar 28 2023 21:40:27 GMT-0700 (Pacific Daylight Time)","194120","html-keyboard-response","24","123239","0.0-5.0-2.6","","464","","<div class='trialBorder'><div class='vertical-center'><img style='vertical-align:center; align:center' src=img/fixation3.jpg></div><div class='cl'><div class='vertical-center'>$9<br>for<br>sure</div></div><div class='cr'><div class='vertical-center'>$32<br>with a<br>50% chance</div></div><div class='respDivL'><div class='vertical-center'>(E)</div></div><div class='respDivR'><div class='vertical-center'>(I)</div></div></div>","E","$9","$32","0","9","32","SURE"
"","","","offerFB","5e55e83cc65ccb5ed547cb04","bdp_rd","Tue Mar 28 2023 21:40:27 GMT-0700 (Pacific Daylight Time)","194120","html-keyboard-response","25","123493","0.0-5.0-3.6","","null","","<div class='trialBorder'><div class='vertical-center'><img style='vertical-align:center; align:center' src=img/fixation3.jpg></div><div class='cl'><div class='vertical-center'><font style='color:orange'>$9<br>for<br>sure</font></div></div><div class='cr'><div class='vertical-center'>$32<br>with a<br>50% chance</div></div><div class='respDivL'><div class='vertical-center'><font style='color:orange'>(E)</font></div></div><div class='respDivR'><div class='vertical-center'>(I)</div></div></div>","null","$9","$32","0","9","32",""
"","","","FIX","5e55e83cc65ccb5ed547cb04","bdp_rd","Tue Mar 28 2023 21:40:27 GMT-0700 (Pacific Daylight Time)","194120","html-keyboard-response","26","124007","0.0-5.0-1.7","","null","","<div class='trialBorder'><div class='vertical-center'><img style='vertical-align:center; align:center' src=img/fixation3.jpg></div></div>","null","","","","","",""
"","","","offer","5e55e83cc65ccb5ed547cb04","bdp_rd","Tue Mar 28 2023 21:40:27 GMT-0700 (Pacific Daylight Time)","194120","html-keyboard-response","27","124580","0.0-5.0-2.7","","573","","<div class='trialBorder'><div class='vertical-center'><img style='vertical-align:center; align:center' src=img/fixation3.jpg></div><div class='cl'><div class='vertical-center'>$59<br>with a<br>50% chance</div></div><div class='cr'><div class='vertical-center'>$22<br>for<br>sure</div></div><div class='respDivL'><div class='vertical-center'>(E)</div></div><div class='respDivR'><div class='vertical-center'>(I)</div></div></div>","I","$22","$59","1","22","59","SURE"
"","","","offerFB","5e55e83cc65ccb5ed547cb04","bdp_rd","Tue Mar 28 2023 21:40:27 GMT-0700 (Pacific Daylight Time)","194120","html-keyboard-response","28","124832","0.0-5.0-3.7","","null","","<div class='trialBorder'><div class='vertical-center'><img style='vertical-align:center; align:center' src=img/fixation3.jpg></div><div class='cl'><div class='vertical-center'>$59<br>with a<br>50% chance</div></div><div class='cr'><div class='vertical-center'><font style='color:orange'>$22<br>for<br>sure</font></div></div><div class='respDivL'><div class='vertical-center'>(E)</div></div><div class='respDivR'><div class='vertical-center'><font style='color:orange'>(I)</font></div></div></div>","null","$22","$59","1","22","59",""
"","","","FIX","5e55e83cc65ccb5ed547cb04","bdp_rd","Tue Mar 28 2023 21:40:27 GMT-0700 (Pacific Daylight Time)","194120","html-keyboard-response","29","125346","0.0-5.0-1.8","","null","","<div class='trialBorder'><div class='vertical-center'><img style='vertical-align:center; align:center' src=img/fixation3.jpg></div></div>","null","","","","","",""
"","","","offer","5e55e83cc65ccb5ed547cb04","bdp_rd","Tue Mar 28 2023 21:40:27 GMT-0700 (Pacific Daylight Time)","194120","html-keyboard-response","30","125847","0.0-5.0-2.8","","501","","<div class='trialBorder'><div class='vertical-center'><img style='vertical-align:center; align:center' src=img/fixation3.jpg></div><div class='cl'><div class='vertical-center'>$2<br>for<br>sure</div></div><div class='cr'><div class='vertical-center'>$64<br>with a<br>50% chance</div></div><div class='respDivL'><div class='vertical-center'>(E)</div></div><div class='respDivR'><div class='vertical-center'>(I)</div></div></div>","E","$2","$64","0","2","64","SURE"
"","","","offerFB","5e55e83cc65ccb5ed547cb04","bdp_rd","Tue Mar 28 2023 21:40:27 GMT-0700 (Pacific Daylight Time)","194120","html-keyboard-response","31","126111","0.0-5.0-3.8","","null","","<div class='trialBorder'><div class='vertical-center'><img style='vertical-align:center; align:center' src=img/fixation3.jpg></div><div class='cl'><div class='vertical-center'><font style='color:orange'>$2<br>for<br>sure</font></div></div><div class='cr'><div class='vertical-center'>$64<br>with a<br>50% chance</div></div><div class='respDivL'><div class='vertical-center'><font style='color:orange'>(E)</font></div></div><div class='respDivR'><div class='vertical-center'>(I)</div></div></div>","null","$2","$64","0","2","64",""
"","","","FIX","5e55e83cc65ccb5ed547cb04","bdp_rd","Tue Mar 28 2023 21:40:27 GMT-0700 (Pacific Daylight Time)","194120","html-keyboard-response","32","126625","0.0-5.0-1.9","","null","","<div class='trialBorder'><div class='vertical-center'><img style='vertical-align:center; align:center' src=img/fixation3.jpg></div></div>","null","","","","","",""
"","","","offer","5e55e83cc65ccb5ed547cb04","bdp_rd","Tue Mar 28 2023 21:40:27 GMT-0700 (Pacific Daylight Time)","194120","html-keyboard-response","33","127129","0.0-5.0-2.9","","503","","<div class='trialBorder'><div class='vertical-center'><img style='vertical-align:center; align:center' src=img/fixation3.jpg></div><div class='cl'><div class='vertical-center'>$15<br>with a<br>50% chance</div></div><div class='cr'><div class='vertical-center'>$6<br>for<br>sure</div></div><div class='respDivL'><div class='vertical-center'>(E)</div></div><div class='respDivR'><div class='vertical-center'>(I)</div></div></div>","I","$6","$15","1","6","15","SURE"
"","","","offerFB","5e55e83cc65ccb5ed547cb04","bdp_rd","Tue Mar 28 2023 21:40:27 GMT-0700 (Pacific Daylight Time)","194120","html-keyboard-response","34","127388","0.0-5.0-3.9","","null","","<div class='trialBorder'><div class='vertical-center'><img style='vertical-align:center; align:center' src=img/fixation3.jpg></div><div class='cl'><div class='vertical-center'>$15<br>with a<br>50% chance</div></div><div class='cr'><div class='vertical-center'><font style='color:orange'>$6<br>for<br>sure</font></div></div><div class='respDivL'><div class='vertical-center'>(E)</div></div><div class='respDivR'><div class='vertical-center'><font style='color:orange'>(I)</font></div></div></div>","null","$6","$15","1","6","15",""
"","","","FIX","5e55e83cc65ccb5ed547cb04","bdp_rd","Tue Mar 28 2023 21:40:27 GMT-0700 (Pacific Daylight Time)","194120","html-keyboard-response","35","127901","0.0-5.0-1.10","","null","","<div class='trialBorder'><div class='vertical-center'><img style='vertical-align:center; align:center' src=img/fixation3.jpg></div></div>","null","","","","","",""
"","","","offer","5e55e83cc65ccb5ed547cb04","bdp_rd","Tue Mar 28 2023 21:40:27 GMT-0700 (Pacific Daylight Time)","194120","html-keyboard-response","36","128318","0.0-5.0-2.10","","416","","<div class='trialBorder'><div class='vertical-center'><img style='vertical-align:center; align:center' src=img/fixation3.jpg></div><div class='cl'><div class='vertical-center'>$10<br>for<br>sure</div></div><div class='cr'><div class='vertical-center'>$40<br>with a<br>50% chance</div></div><div class='respDivL'><div class='vertical-center'>(E)</div></div><div class='respDivR'><div class='vertical-center'>(I)</div></div></div>","E","$10","$40","0","10","40","SURE"
"","","","offerFB","5e55e83cc65ccb5ed547cb04","bdp_rd","Tue Mar 28 2023 21:40:27 GMT-0700 (Pacific Daylight Time)","194120","html-keyboard-response","37","128569","0.0-5.0-3.10","","null","","<div class='trialBorder'><div class='vertical-center'><img style='vertical-align:center; align:center' src=img/fixation3.jpg></div><div class='cl'><div class='vertical-center'><font style='color:orange'>$10<br>for<br>sure</font></div></div><div class='cr'><div class='vertical-center'>$40<br>with a<br>50% chance</div></div><div class='respDivL'><div class='vertical-center'><font style='color:orange'>(E)</font></div></div><div class='respDivR'><div class='vertical-center'>(I)</div></div></div>","null","$10","$40","0","10","40",""
"","","","FIX","5e55e83cc65ccb5ed547cb04","bdp_rd","Tue Mar 28 2023 21:40:27 GMT-0700 (Pacific Daylight Time)","194120","html-keyboard-response","38","129082","0.0-5.0-1.11","","null","","<div class='trialBorder'><div class='vertical-center'><img style='vertical-align:center; align:center' src=img/fixation3.jpg></div></div>","null","","","","","",""
"","","","offer","5e55e83cc65ccb5ed547cb04","bdp_rd","Tue Mar 28 2023 21:40:27 GMT-0700 (Pacific Daylight Time)","194120","html-keyboard-response","39","129564","0.0-5.0-2.11","","481","","<div class='trialBorder'><div class='vertical-center'><img style='vertical-align:center; align:center' src=img/fixation3.jpg></div><div class='cl'><div class='vertical-center'>$20<br>for<br>sure</div></div><div class='cr'><div class='vertical-center'>$80<br>with a<br>50% chance</div></div><div class='respDivL'><div class='vertical-center'>(E)</div></div><div class='respDivR'><div class='vertical-center'>(I)</div></div></div>","E","$20","$80","0","20","80","SURE"
"","","","offerFB","5e55e83cc65ccb5ed547cb04","bdp_rd","Tue Mar 28 2023 21:40:27 GMT-0700 (Pacific Daylight Time)","194120","html-keyboard-response","40","129830","0.0-5.0-3.11","","null","","<div class='trialBorder'><div class='vertical-center'><img style='vertical-align:center; align:center' src=img/fixation3.jpg></div><div class='cl'><div class='vertical-center'><font style='color:orange'>$20<br>for<br>sure</font></div></div><div class='cr'><div class='vertical-center'>$80<br>with a<br>50% chance</div></div><div class='respDivL'><div class='vertical-center'><font style='color:orange'>(E)</font></div></div><div class='respDivR'><div class='vertical-center'>(I)</div></div></div>","null","$20","$80","0","20","80",""
"","","","FIX","5e55e83cc65ccb5ed547cb04","bdp_rd","Tue Mar 28 2023 21:40:27 GMT-0700 (Pacific Daylight Time)","194120","html-keyboard-response","41","130342","0.0-5.0-1.12","","null","","<div class='trialBorder'><div class='vertical-center'><img style='vertical-align:center; align:center' src=img/fixation3.jpg></div></div>","null","","","","","",""
"","","","offer","5e55e83cc65ccb5ed547cb04","bdp_rd","Tue Mar 28 2023 21:40:27 GMT-0700 (Pacific Daylight Time)","194120","html-keyboard-response","42","130862","0.0-5.0-2.12","","520","","<div class='trialBorder'><div class='vertical-center'><img style='vertical-align:center; align:center' src=img/fixation3.jpg></div><div class='cl'><div class='vertical-center'>$33<br>for<br>sure</div></div><div class='cr'><div class='vertical-center'>$66<br>with a<br>50% chance</div></div><div class='respDivL'><div class='vertical-center'>(E)</div></div><div class='respDivR'><div class='vertical-center'>(I)</div></div></div>","E","$33","$66","0","33","66","SURE"
"","","","offerFB","5e55e83cc65ccb5ed547cb04","bdp_rd","Tue Mar 28 2023 21:40:27 GMT-0700 (Pacific Daylight Time)","194120","html-keyboard-response","43","131122","0.0-5.0-3.12","","null","","<div class='trialBorder'><div class='vertical-center'><img style='vertical-align:center; align:center' src=img/fixation3.jpg></div><div class='cl'><div class='vertical-center'><font style='color:orange'>$33<br>for<br>sure</font></div></div><div class='cr'><div class='vertical-center'>$66<br>with a<br>50% chance</div></div><div class='respDivL'><div class='vertical-center'><font style='color:orange'>(E)</font></div></div><div class='respDivR'><div class='vertical-center'>(I)</div></div></div>","null","$33","$66","0","33","66",""
"","","","FIX","5e55e83cc65ccb5ed547cb04","bdp_rd","Tue Mar 28 2023 21:40:27 GMT-0700 (Pacific Daylight Time)","194120","html-keyboard-response","44","131635","0.0-5.0-1.13","","null","","<div class='trialBorder'><div class='vertical-center'><img style='vertical-align:center; align:center' src=img/fixation3.jpg></div></div>","null","","","","","",""
"","","","offer","5e55e83cc65ccb5ed547cb04","bdp_rd","Tue Mar 28 2023 21:40:27 GMT-0700 (Pacific Daylight Time)","194120","html-keyboard-response","45","132123","0.0-5.0-2.13","","487","","<div class='trialBorder'><div class='vertical-center'><img style='vertical-align:center; align:center' src=img/fixation3.jpg></div><div class='cl'><div class='vertical-center'>$48<br>with a<br>50% chance</div></div><div class='cr'><div class='vertical-center'>$34<br>for<br>sure</div></div><div class='respDivL'><div class='vertical-center'>(E)</div></div><div class='respDivR'><div class='vertical-center'>(I)</div></div></div>","I","$34","$48","1","34","48","SURE"
"","","","offerFB","5e55e83cc65ccb5ed547cb04","bdp_rd","Tue Mar 28 2023 21:40:27 GMT-0700 (Pacific Daylight Time)","194120","html-keyboard-response","46","132383","0.0-5.0-3.13","","null","","<div class='trialBorder'><div class='vertical-center'><img style='vertical-align:center; align:center' src=img/fixation3.jpg></div><div class='cl'><div class='vertical-center'>$48<br>with a<br>50% chance</div></div><div class='cr'><div class='vertical-center'><font style='color:orange'>$34<br>for<br>sure</font></div></div><div class='respDivL'><div class='vertical-center'>(E)</div></div><div class='respDivR'><div class='vertical-center'><font style='color:orange'>(I)</font></div></div></div>","null","$34","$48","1","34","48",""
"","","","FIX","5e55e83cc65ccb5ed547cb04","bdp_rd","Tue Mar 28 2023 21:40:27 GMT-0700 (Pacific Daylight Time)","194120","html-keyboard-response","47","132896","0.0-5.0-1.14","","null","","<div class='trialBorder'><div class='vertical-center'><img style='vertical-align:center; align:center' src=img/fixation3.jpg></div></div>","null","","","","","",""
"","","","offer","5e55e83cc65ccb5ed547cb04","bdp_rd","Tue Mar 28 2023 21:40:27 GMT-0700 (Pacific Daylight Time)","194120","html-keyboard-response","48","133361","0.0-5.0-2.14","","465","","<div class='trialBorder'><div class='vertical-center'><img style='vertical-align:center; align:center' src=img/fixation3.jpg></div><div class='cl'><div class='vertical-center'>$29<br>for<br>sure</div></div><div class='cr'><div class='vertical-center'>$46<br>with a<br>50% chance</div></div><div class='respDivL'><div class='vertical-center'>(E)</div></div><div class='respDivR'><div class='vertical-center'>(I)</div></div></div>","E","$29","$46","0","29","46","SURE"
"","","","offerFB","5e55e83cc65ccb5ed547cb04","bdp_rd","Tue Mar 28 2023 21:40:27 GMT-0700 (Pacific Daylight Time)","194120","html-keyboard-response","49","133624","0.0-5.0-3.14","","null","","<div class='trialBorder'><div class='vertical-center'><img style='vertical-align:center; align:center' src=img/fixation3.jpg></div><div class='cl'><div class='vertical-center'><font style='color:orange'>$29<br>for<br>sure</font></div></div><div class='cr'><div class='vertical-center'>$46<br>with a<br>50% chance</div></div><div class='respDivL'><div class='vertical-center'><font style='color:orange'>(E)</font></div></div><div class='respDivR'><div class='vertical-center'>(I)</div></div></div>","null","$29","$46","0","29","46",""
"","","","FIX","5e55e83cc65ccb5ed547cb04","bdp_rd","Tue Mar 28 2023 21:40:27 GMT-0700 (Pacific Daylight Time)","194120","html-keyboard-response","50","134137","0.0-5.0-1.15","","null","","<div class='trialBorder'><div class='vertical-center'><img style='vertical-align:center; align:center' src=img/fixation3.jpg></div></div>","null","","","","","",""
"","","","offer","5e55e83cc65ccb5ed547cb04","bdp_rd","Tue Mar 28 2023 21:40:27 GMT-0700 (Pacific Daylight Time)","194120","html-keyboard-response","51","134491","0.0-5.0-2.15","","354","","<div class='trialBorder'><div class='vertical-center'><img style='vertical-align:center; align:center' src=img/fixation3.jpg></div><div class='cl'><div class='vertical-center'>$14<br>for<br>sure</div></div><div class='cr'><div class='vertical-center'>$29<br>with a<br>50% chance</div></div><div class='respDivL'><div class='vertical-center'>(E)</div></div><div class='respDivR'><div class='vertical-center'>(I)</div></div></div>","E","$14","$29","0","14","29","SURE"
"","","","offerFB","5e55e83cc65ccb5ed547cb04","bdp_rd","Tue Mar 28 2023 21:40:27 GMT-0700 (Pacific Daylight Time)","194120","html-keyboard-response","52","134743","0.0-5.0-3.15","","null","","<div class='trialBorder'><div class='vertical-center'><img style='vertical-align:center; align:center' src=img/fixation3.jpg></div><div class='cl'><div class='vertical-center'><font style='color:orange'>$14<br>for<br>sure</font></div></div><div class='cr'><div class='vertical-center'>$29<br>with a<br>50% chance</div></div><div class='respDivL'><div class='vertical-center'><font style='color:orange'>(E)</font></div></div><div class='respDivR'><div class='vertical-center'>(I)</div></div></div>","null","$14","$29","0","14","29",""
"","","","FIX","5e55e83cc65ccb5ed547cb04","bdp_rd","Tue Mar 28 2023 21:40:27 GMT-0700 (Pacific Daylight Time)","194120","html-keyboard-response","53","135255","0.0-5.0-1.16","","null","","<div class='trialBorder'><div class='vertical-center'><img style='vertical-align:center; align:center' src=img/fixation3.jpg></div></div>","null","","","","","",""
"","","","offer","5e55e83cc65ccb5ed547cb04","bdp_rd","Tue Mar 28 2023 21:40:27 GMT-0700 (Pacific Daylight Time)","194120","html-keyboard-response","54","135914","0.0-5.0-2.16","","658","","<div class='trialBorder'><div class='vertical-center'><img style='vertical-align:center; align:center' src=img/fixation3.jpg></div><div class='cl'><div class='vertical-center'>$17<br>with a<br>50% chance</div></div><div class='cr'><div class='vertical-center'>$3<br>for<br>sure</div></div><div class='respDivL'><div class='vertical-center'>(E)</div></div><div class='respDivR'><div class='vertical-center'>(I)</div></div></div>","I","$3","$17","1","3","17","SURE"
"","","","offerFB","5e55e83cc65ccb5ed547cb04","bdp_rd","Tue Mar 28 2023 21:40:27 GMT-0700 (Pacific Daylight Time)","194120","html-keyboard-response","55","136171","0.0-5.0-3.16","","null","","<div class='trialBorder'><div class='vertical-center'><img style='vertical-align:center; align:center' src=img/fixation3.jpg></div><div class='cl'><div class='vertical-center'>$17<br>with a<br>50% chance</div></div><div class='cr'><div class='vertical-center'><font style='color:orange'>$3<br>for<br>sure</font></div></div><div class='respDivL'><div class='vertical-center'>(E)</div></div><div class='respDivR'><div class='vertical-center'><font style='color:orange'>(I)</font></div></div></div>","null","$3","$17","1","3","17",""
"","","","FIX","5e55e83cc65ccb5ed547cb04","bdp_rd","Tue Mar 28 2023 21:40:27 GMT-0700 (Pacific Daylight Time)","194120","html-keyboard-response","56","136685","0.0-5.0-1.17","","null","","<div class='trialBorder'><div class='vertical-center'><img style='vertical-align:center; align:center' src=img/fixation3.jpg></div></div>","null","","","","","",""
"","","","offer","5e55e83cc65ccb5ed547cb04","bdp_rd","Tue Mar 28 2023 21:40:27 GMT-0700 (Pacific Daylight Time)","194120","html-keyboard-response","57","137453","0.0-5.0-2.17","","767","","<div class='trialBorder'><div class='vertical-center'><img style='vertical-align:center; align:center' src=img/fixation3.jpg></div><div class='cl'><div class='vertical-center'>$10<br>with a<br>50% chance</div></div><div class='cr'><div class='vertical-center'>$7<br>for<br>sure</div></div><div class='respDivL'><div class='vertical-center'>(E)</div></div><div class='respDivR'><div class='vertical-center'>(I)</div></div></div>","I","$7","$10","1","7","10","SURE"
"","","","offerFB","5e55e83cc65ccb5ed547cb04","bdp_rd","Tue Mar 28 2023 21:40:27 GMT-0700 (Pacific Daylight Time)","194120","html-keyboard-response","58","137713","0.0-5.0-3.17","","null","","<div class='trialBorder'><div class='vertical-center'><img style='vertical-align:center; align:center' src=img/fixation3.jpg></div><div class='cl'><div class='vertical-center'>$10<br>with a<br>50% chance</div></div><div class='cr'><div class='vertical-center'><font style='color:orange'>$7<br>for<br>sure</font></div></div><div class='respDivL'><div class='vertical-center'>(E)</div></div><div class='respDivR'><div class='vertical-center'><font style='color:orange'>(I)</font></div></div></div>","null","$7","$10","1","7","10",""
"","","","FIX","5e55e83cc65ccb5ed547cb04","bdp_rd","Tue Mar 28 2023 21:40:27 GMT-0700 (Pacific Daylight Time)","194120","html-keyboard-response","59","138227","0.0-5.0-1.18","","null","","<div class='trialBorder'><div class='vertical-center'><img style='vertical-align:center; align:center' src=img/fixation3.jpg></div></div>","null","","","","","",""
"","","","offer","5e55e83cc65ccb5ed547cb04","bdp_rd","Tue Mar 28 2023 21:40:27 GMT-0700 (Pacific Daylight Time)","194120","html-keyboard-response","60","139191","0.0-5.0-2.18","","963","","<div class='trialBorder'><div class='vertical-center'><img style='vertical-align:center; align:center' src=img/fixation3.jpg></div><div class='cl'><div class='vertical-center'>$98<br>with a<br>50% chance</div></div><div class='cr'><div class='vertical-center'>$53<br>for<br>sure</div></div><div class='respDivL'><div class='vertical-center'>(E)</div></div><div class='respDivR'><div class='vertical-center'>(I)</div></div></div>","I","$53","$98","1","53","98","SURE"
"","","","offerFB","5e55e83cc65ccb5ed547cb04","bdp_rd","Tue Mar 28 2023 21:40:27 GMT-0700 (Pacific Daylight Time)","194120","html-keyboard-response","61","139443","0.0-5.0-3.18","","null","","<div class='trialBorder'><div class='vertical-center'><img style='vertical-align:center; align:center' src=img/fixation3.jpg></div><div class='cl'><div class='vertical-center'>$98<br>with a<br>50% chance</div></div><div class='cr'><div class='vertical-center'><font style='color:orange'>$53<br>for<br>sure</font></div></div><div class='respDivL'><div class='vertical-center'>(E)</div></div><div class='respDivR'><div class='vertical-center'><font style='color:orange'>(I)</font></div></div></div>","null","$53","$98","1","53","98",""
"","","","FIX","5e55e83cc65ccb5ed547cb04","bdp_rd","Tue Mar 28 2023 21:40:27 GMT-0700 (Pacific Daylight Time)","194120","html-keyboard-response","62","139954","0.0-5.0-1.19","","null","","<div class='trialBorder'><div class='vertical-center'><img style='vertical-align:center; align:center' src=img/fixation3.jpg></div></div>","null","","","","","",""
"","","","offer","5e55e83cc65ccb5ed547cb04","bdp_rd","Tue Mar 28 2023 21:40:27 GMT-0700 (Pacific Daylight Time)","194120","html-keyboard-response","63","140453","0.0-5.0-2.19","","498","","<div class='trialBorder'><div class='vertical-center'><img style='vertical-align:center; align:center' src=img/fixation3.jpg></div><div class='cl'><div class='vertical-center'>$9<br>for<br>sure</div></div><div class='cr'><div class='vertical-center'>$18<br>with a<br>50% chance</div></div><div class='respDivL'><div class='vertical-center'>(E)</div></div><div class='respDivR'><div class='vertical-center'>(I)</div></div></div>","E","$9","$18","0","9","18","SURE"
"","","","offerFB","5e55e83cc65ccb5ed547cb04","bdp_rd","Tue Mar 28 2023 21:40:27 GMT-0700 (Pacific Daylight Time)","194120","html-keyboard-response","64","140713","0.0-5.0-3.19","","null","","<div class='trialBorder'><div class='vertical-center'><img style='vertical-align:center; align:center' src=img/fixation3.jpg></div><div class='cl'><div class='vertical-center'><font style='color:orange'>$9<br>for<br>sure</font></div></div><div class='cr'><div class='vertical-center'>$18<br>with a<br>50% chance</div></div><div class='respDivL'><div class='vertical-center'><font style='color:orange'>(E)</font></div></div><div class='respDivR'><div class='vertical-center'>(I)</div></div></div>","null","$9","$18","0","9","18",""
"","","","FIX","5e55e83cc65ccb5ed547cb04","bdp_rd","Tue Mar 28 2023 21:40:27 GMT-0700 (Pacific Daylight Time)","194120","html-keyboard-response","65","141225","0.0-5.0-1.20","","null","","<div class='trialBorder'><div class='vertical-center'><img style='vertical-align:center; align:center' src=img/fixation3.jpg></div></div>","null","","","","","",""
"","","","offer","5e55e83cc65ccb5ed547cb04","bdp_rd","Tue Mar 28 2023 21:40:27 GMT-0700 (Pacific Daylight Time)","194120","html-keyboard-response","66","141736","0.0-5.0-2.20","","510","","<div class='trialBorder'><div class='vertical-center'><img style='vertical-align:center; align:center' src=img/fixation3.jpg></div><div class='cl'><div class='vertical-center'>$73<br>with a<br>50% chance</div></div><div class='cr'><div class='vertical-center'>$42<br>for<br>sure</div></div><div class='respDivL'><div class='vertical-center'>(E)</div></div><div class='respDivR'><div class='vertical-center'>(I)</div></div></div>","I","$42","$73","1","42","73","SURE"
"","","","offerFB","5e55e83cc65ccb5ed547cb04","bdp_rd","Tue Mar 28 2023 21:40:27 GMT-0700 (Pacific Daylight Time)","194120","html-keyboard-response","67","141987","0.0-5.0-3.20","","null","","<div class='trialBorder'><div class='vertical-center'><img style='vertical-align:center; align:center' src=img/fixation3.jpg></div><div class='cl'><div class='vertical-center'>$73<br>with a<br>50% chance</div></div><div class='cr'><div class='vertical-center'><font style='color:orange'>$42<br>for<br>sure</font></div></div><div class='respDivL'><div class='vertical-center'>(E)</div></div><div class='respDivR'><div class='vertical-center'><font style='color:orange'>(I)</font></div></div></div>","null","$42","$73","1","42","73",""
"","","","FIX","5e55e83cc65ccb5ed547cb04","bdp_rd","Tue Mar 28 2023 21:40:27 GMT-0700 (Pacific Daylight Time)","194120","html-keyboard-response","68","142499","0.0-5.0-1.21","","null","","<div class='trialBorder'><div class='vertical-center'><img style='vertical-align:center; align:center' src=img/fixation3.jpg></div></div>","null","","","","","",""
"","","","offer","5e55e83cc65ccb5ed547cb04","bdp_rd","Tue Mar 28 2023 21:40:27 GMT-0700 (Pacific Daylight Time)","194120","html-keyboard-response","69","143111","0.0-5.0-2.21","","611","","<div class='trialBorder'><div class='vertical-center'><img style='vertical-align:center; align:center' src=img/fixation3.jpg></div><div class='cl'><div class='vertical-center'>$50<br>with a<br>50% chance</div></div><div class='cr'><div class='vertical-center'>$5<br>for<br>sure</div></div><div class='respDivL'><div class='vertical-center'>(E)</div></div><div class='respDivR'><div class='vertical-center'>(I)</div></div></div>","I","$5","$50","1","5","50","SURE"
"","","","offerFB","5e55e83cc65ccb5ed547cb04","bdp_rd","Tue Mar 28 2023 21:40:27 GMT-0700 (Pacific Daylight Time)","194120","html-keyboard-response","70","143374","0.0-5.0-3.21","","null","","<div class='trialBorder'><div class='vertical-center'><img style='vertical-align:center; align:center' src=img/fixation3.jpg></div><div class='cl'><div class='vertical-center'>$50<br>with a<br>50% chance</div></div><div class='cr'><div class='vertical-center'><font style='color:orange'>$5<br>for<br>sure</font></div></div><div class='respDivL'><div class='vertical-center'>(E)</div></div><div class='respDivR'><div class='vertical-center'><font style='color:orange'>(I)</font></div></div></div>","null","$5","$50","1","5","50",""
"","","","FIX","5e55e83cc65ccb5ed547cb04","bdp_rd","Tue Mar 28 2023 21:40:27 GMT-0700 (Pacific Daylight Time)","194120","html-keyboard-response","71","143886","0.0-5.0-1.22","","null","","<div class='trialBorder'><div class='vertical-center'><img style='vertical-align:center; align:center' src=img/fixation3.jpg></div></div>","null","","","","","",""
"","","","offer","5e55e83cc65ccb5ed547cb04","bdp_rd","Tue Mar 28 2023 21:40:27 GMT-0700 (Pacific Daylight Time)","194120","html-keyboard-response","72","144520","0.0-5.0-2.22","","634","","<div class='trialBorder'><div class='vertical-center'><img style='vertical-align:center; align:center' src=img/fixation3.jpg></div><div class='cl'><div class='vertical-center'>$13<br>with a<br>50% chance</div></div><div class='cr'><div class='vertical-center'>$6<br>for<br>sure</div></div><div class='respDivL'><div class='vertical-center'>(E)</div></div><div class='respDivR'><div class='vertical-center'>(I)</div></div></div>","I","$6","$13","1","6","13","SURE"
"","","","offerFB","5e55e83cc65ccb5ed547cb04","bdp_rd","Tue Mar 28 2023 21:40:27 GMT-0700 (Pacific Daylight Time)","194120","html-keyboard-response","73","144771","0.0-5.0-3.22","","null","","<div class='trialBorder'><div class='vertical-center'><img style='vertical-align:center; align:center' src=img/fixation3.jpg></div><div class='cl'><div class='vertical-center'>$13<br>with a<br>50% chance</div></div><div class='cr'><div class='vertical-center'><font style='color:orange'>$6<br>for<br>sure</font></div></div><div class='respDivL'><div class='vertical-center'>(E)</div></div><div class='respDivR'><div class='vertical-center'><font style='color:orange'>(I)</font></div></div></div>","null","$6","$13","1","6","13",""
"","","","FIX","5e55e83cc65ccb5ed547cb04","bdp_rd","Tue Mar 28 2023 21:40:27 GMT-0700 (Pacific Daylight Time)","194120","html-keyboard-response","74","145283","0.0-5.0-1.23","","null","","<div class='trialBorder'><div class='vertical-center'><img style='vertical-align:center; align:center' src=img/fixation3.jpg></div></div>","null","","","","","",""
"","","","offer","5e55e83cc65ccb5ed547cb04","bdp_rd","Tue Mar 28 2023 21:40:27 GMT-0700 (Pacific Daylight Time)","194120","html-keyboard-response","75","145779","0.0-5.0-2.23","","496","","<div class='trialBorder'><div class='vertical-center'><img style='vertical-align:center; align:center' src=img/fixation3.jpg></div><div class='cl'><div class='vertical-center'>$34<br>with a<br>50% chance</div></div><div class='cr'><div class='vertical-center'>$15<br>for<br>sure</div></div><div class='respDivL'><div class='vertical-center'>(E)</div></div><div class='respDivR'><div class='vertical-center'>(I)</div></div></div>","I","$15","$34","1","15","34","SURE"
"","","","offerFB","5e55e83cc65ccb5ed547cb04","bdp_rd","Tue Mar 28 2023 21:40:27 GMT-0700 (Pacific Daylight Time)","194120","html-keyboard-response","76","146044","0.0-5.0-3.23","","null","","<div class='trialBorder'><div class='vertical-center'><img style='vertical-align:center; align:center' src=img/fixation3.jpg></div><div class='cl'><div class='vertical-center'>$34<br>with a<br>50% chance</div></div><div class='cr'><div class='vertical-center'><font style='color:orange'>$15<br>for<br>sure</font></div></div><div class='respDivL'><div class='vertical-center'>(E)</div></div><div class='respDivR'><div class='vertical-center'><font style='color:orange'>(I)</font></div></div></div>","null","$15","$34","1","15","34",""
"","","","FIX","5e55e83cc65ccb5ed547cb04","bdp_rd","Tue Mar 28 2023 21:40:27 GMT-0700 (Pacific Daylight Time)","194120","html-keyboard-response","77","146558","0.0-5.0-1.24","","null","","<div class='trialBorder'><div class='vertical-center'><img style='vertical-align:center; align:center' src=img/fixation3.jpg></div></div>","null","","","","","",""
"","","","offer","5e55e83cc65ccb5ed547cb04","bdp_rd","Tue Mar 28 2023 21:40:27 GMT-0700 (Pacific Daylight Time)","194120","html-keyboard-response","78","147113","0.0-5.0-2.24","","555","","<div class='trialBorder'><div class='vertical-center'><img style='vertical-align:center; align:center' src=img/fixation3.jpg></div><div class='cl'><div class='vertical-center'>$31<br>with a<br>50% chance</div></div><div class='cr'><div class='vertical-center'>$15<br>for<br>sure</div></div><div class='respDivL'><div class='vertical-center'>(E)</div></div><div class='respDivR'><div class='vertical-center'>(I)</div></div></div>","I","$15","$31","1","15","31","SURE"
"","","","offerFB","5e55e83cc65ccb5ed547cb04","bdp_rd","Tue Mar 28 2023 21:40:27 GMT-0700 (Pacific Daylight Time)","194120","html-keyboard-response","79","147367","0.0-5.0-3.24","","null","","<div class='trialBorder'><div class='vertical-center'><img style='vertical-align:center; align:center' src=img/fixation3.jpg></div><div class='cl'><div class='vertical-center'>$31<br>with a<br>50% chance</div></div><div class='cr'><div class='vertical-center'><font style='color:orange'>$15<br>for<br>sure</font></div></div><div class='respDivL'><div class='vertical-center'>(E)</div></div><div class='respDivR'><div class='vertical-center'><font style='color:orange'>(I)</font></div></div></div>","null","$15","$31","1","15","31",""
"","","","FIX","5e55e83cc65ccb5ed547cb04","bdp_rd","Tue Mar 28 2023 21:40:27 GMT-0700 (Pacific Daylight Time)","194120","html-keyboard-response","80","147881","0.0-5.0-1.25","","null","","<div class='trialBorder'><div class='vertical-center'><img style='vertical-align:center; align:center' src=img/fixation3.jpg></div></div>","null","","","","","",""
"","","","offer","5e55e83cc65ccb5ed547cb04","bdp_rd","Tue Mar 28 2023 21:40:27 GMT-0700 (Pacific Daylight Time)","194120","html-keyboard-response","81","148347","0.0-5.0-2.25","","466","","<div class='trialBorder'><div class='vertical-center'><img style='vertical-align:center; align:center' src=img/fixation3.jpg></div><div class='cl'><div class='vertical-center'>$10<br>for<br>sure</div></div><div class='cr'><div class='vertical-center'>$19<br>with a<br>50% chance</div></div><div class='respDivL'><div class='vertical-center'>(E)</div></div><div class='respDivR'><div class='vertical-center'>(I)</div></div></div>","E","$10","$19","0","10","19","SURE"
"","","","offerFB","5e55e83cc65ccb5ed547cb04","bdp_rd","Tue Mar 28 2023 21:40:27 GMT-0700 (Pacific Daylight Time)","194120","html-keyboard-response","82","148600","0.0-5.0-3.25","","null","","<div class='trialBorder'><div class='vertical-center'><img style='vertical-align:center; align:center' src=img/fixation3.jpg></div><div class='cl'><div class='vertical-center'><font style='color:orange'>$10<br>for<br>sure</font></div></div><div class='cr'><div class='vertical-center'>$19<br>with a<br>50% chance</div></div><div class='respDivL'><div class='vertical-center'><font style='color:orange'>(E)</font></div></div><div class='respDivR'><div class='vertical-center'>(I)</div></div></div>","null","$10","$19","0","10","19",""
"","","","FIX","5e55e83cc65ccb5ed547cb04","bdp_rd","Tue Mar 28 2023 21:40:27 GMT-0700 (Pacific Daylight Time)","194120","html-keyboard-response","83","149115","0.0-5.0-1.26","","null","","<div class='trialBorder'><div class='vertical-center'><img style='vertical-align:center; align:center' src=img/fixation3.jpg></div></div>","null","","","","","",""
"","","","offer","5e55e83cc65ccb5ed547cb04","bdp_rd","Tue Mar 28 2023 21:40:27 GMT-0700 (Pacific Daylight Time)","194120","html-keyboard-response","84","149574","0.0-5.0-2.26","","458","","<div class='trialBorder'><div class='vertical-center'><img style='vertical-align:center; align:center' src=img/fixation3.jpg></div><div class='cl'><div class='vertical-center'>$1<br>for<br>sure</div></div><div class='cr'><div class='vertical-center'>$30<br>with a<br>50% chance</div></div><div class='respDivL'><div class='vertical-center'>(E)</div></div><div class='respDivR'><div class='vertical-center'>(I)</div></div></div>","E","$1","$30","0","1","30","SURE"
"","","","offerFB","5e55e83cc65ccb5ed547cb04","bdp_rd","Tue Mar 28 2023 21:40:27 GMT-0700 (Pacific Daylight Time)","194120","html-keyboard-response","85","149837","0.0-5.0-3.26","","null","","<div class='trialBorder'><div class='vertical-center'><img style='vertical-align:center; align:center' src=img/fixation3.jpg></div><div class='cl'><div class='vertical-center'><font style='color:orange'>$1<br>for<br>sure</font></div></div><div class='cr'><div class='vertical-center'>$30<br>with a<br>50% chance</div></div><div class='respDivL'><div class='vertical-center'><font style='color:orange'>(E)</font></div></div><div class='respDivR'><div class='vertical-center'>(I)</div></div></div>","null","$1","$30","0","1","30",""
"","","","FIX","5e55e83cc65ccb5ed547cb04","bdp_rd","Tue Mar 28 2023 21:40:27 GMT-0700 (Pacific Daylight Time)","194120","html-keyboard-response","86","150342","0.0-5.0-1.27","","null","","<div class='trialBorder'><div class='vertical-center'><img style='vertical-align:center; align:center' src=img/fixation3.jpg></div></div>","null","","","","","",""
"","","","offer","5e55e83cc65ccb5ed547cb04","bdp_rd","Tue Mar 28 2023 21:40:27 GMT-0700 (Pacific Daylight Time)","194120","html-keyboard-response","87","150835","0.0-5.0-2.27","","493","","<div class='trialBorder'><div class='vertical-center'><img style='vertical-align:center; align:center' src=img/fixation3.jpg></div><div class='cl'><div class='vertical-center'>$21<br>for<br>sure</div></div><div class='cr'><div class='vertical-center'>$25<br>with a<br>50% chance</div></div><div class='respDivL'><div class='vertical-center'>(E)</div></div><div class='respDivR'><div class='vertical-center'>(I)</div></div></div>","E","$21","$25","0","21","25","SURE"
"","","","offerFB","5e55e83cc65ccb5ed547cb04","bdp_rd","Tue Mar 28 2023 21:40:27 GMT-0700 (Pacific Daylight Time)","194120","html-keyboard-response","88","151088","0.0-5.0-3.27","","null","","<div class='trialBorder'><div class='vertical-center'><img style='vertical-align:center; align:center' src=img/fixation3.jpg></div><div class='cl'><div class='vertical-center'><font style='color:orange'>$21<br>for<br>sure</font></div></div><div class='cr'><div class='vertical-center'>$25<br>with a<br>50% chance</div></div><div class='respDivL'><div class='vertical-center'><font style='color:orange'>(E)</font></div></div><div class='respDivR'><div class='vertical-center'>(I)</div></div></div>","null","$21","$25","0","21","25",""
"","","","FIX","5e55e83cc65ccb5ed547cb04","bdp_rd","Tue Mar 28 2023 21:40:27 GMT-0700 (Pacific Daylight Time)","194120","html-keyboard-response","89","151598","0.0-5.0-1.28","","null","","<div class='trialBorder'><div class='vertical-center'><img style='vertical-align:center; align:center' src=img/fixation3.jpg></div></div>","null","","","","","",""
"","","","offer","5e55e83cc65ccb5ed547cb04","bdp_rd","Tue Mar 28 2023 21:40:27 GMT-0700 (Pacific Daylight Time)","194120","html-keyboard-response","90","152031","0.0-5.0-2.28","","431","","<div class='trialBorder'><div class='vertical-center'><img style='vertical-align:center; align:center' src=img/fixation3.jpg></div><div class='cl'><div class='vertical-center'>$39<br>with a<br>50% chance</div></div><div class='cr'><div class='vertical-center'>$18<br>for<br>sure</div></div><div class='respDivL'><div class='vertical-center'>(E)</div></div><div class='respDivR'><div class='vertical-center'>(I)</div></div></div>","I","$18","$39","1","18","39","SURE"
"","","","offerFB","5e55e83cc65ccb5ed547cb04","bdp_rd","Tue Mar 28 2023 21:40:27 GMT-0700 (Pacific Daylight Time)","194120","html-keyboard-response","91","152285","0.0-5.0-3.28","","null","","<div class='trialBorder'><div class='vertical-center'><img style='vertical-align:center; align:center' src=img/fixation3.jpg></div><div class='cl'><div class='vertical-center'>$39<br>with a<br>50% chance</div></div><div class='cr'><div class='vertical-center'><font style='color:orange'>$18<br>for<br>sure</font></div></div><div class='respDivL'><div class='vertical-center'>(E)</div></div><div class='respDivR'><div class='vertical-center'><font style='color:orange'>(I)</font></div></div></div>","null","$18","$39","1","18","39",""
"","","","FIX","5e55e83cc65ccb5ed547cb04","bdp_rd","Tue Mar 28 2023 21:40:27 GMT-0700 (Pacific Daylight Time)","194120","html-keyboard-response","92","152799","0.0-5.0-1.29","","null","","<div class='trialBorder'><div class='vertical-center'><img style='vertical-align:center; align:center' src=img/fixation3.jpg></div></div>","null","","","","","",""
"","","","offer","5e55e83cc65ccb5ed547cb04","bdp_rd","Tue Mar 28 2023 21:40:27 GMT-0700 (Pacific Daylight Time)","194120","html-keyboard-response","93","153421","0.0-5.0-2.29","","622","","<div class='trialBorder'><div class='vertical-center'><img style='vertical-align:center; align:center' src=img/fixation3.jpg></div><div class='cl'><div class='vertical-center'>$13<br>for<br>sure</div></div><div class='cr'><div class='vertical-center'>$24<br>with a<br>50% chance</div></div><div class='respDivL'><div class='vertical-center'>(E)</div></div><div class='respDivR'><div class='vertical-center'>(I)</div></div></div>","E","$13","$24","0","13","24","SURE"
"","","","offerFB","5e55e83cc65ccb5ed547cb04","bdp_rd","Tue Mar 28 2023 21:40:27 GMT-0700 (Pacific Daylight Time)","194120","html-keyboard-response","94","153672","0.0-5.0-3.29","","null","","<div class='trialBorder'><div class='vertical-center'><img style='vertical-align:center; align:center' src=img/fixation3.jpg></div><div class='cl'><div class='vertical-center'><font style='color:orange'>$13<br>for<br>sure</font></div></div><div class='cr'><div class='vertical-center'>$24<br>with a<br>50% chance</div></div><div class='respDivL'><div class='vertical-center'><font style='color:orange'>(E)</font></div></div><div class='respDivR'><div class='vertical-center'>(I)</div></div></div>","null","$13","$24","0","13","24",""
"","","","FIX","5e55e83cc65ccb5ed547cb04","bdp_rd","Tue Mar 28 2023 21:40:27 GMT-0700 (Pacific Daylight Time)","194120","html-keyboard-response","95","154184","0.0-5.0-1.30","","null","","<div class='trialBorder'><div class='vertical-center'><img style='vertical-align:center; align:center' src=img/fixation3.jpg></div></div>","null","","","","","",""
"","","","offer","5e55e83cc65ccb5ed547cb04","bdp_rd","Tue Mar 28 2023 21:40:27 GMT-0700 (Pacific Daylight Time)","194120","html-keyboard-response","96","154830","0.0-5.0-2.30","","646","","<div class='trialBorder'><div class='vertical-center'><img style='vertical-align:center; align:center' src=img/fixation3.jpg></div><div class='cl'><div class='vertical-center'>$4<br>for<br>sure</div></div><div class='cr'><div class='vertical-center'>$14<br>with a<br>50% chance</div></div><div class='respDivL'><div class='vertical-center'>(E)</div></div><div class='respDivR'><div class='vertical-center'>(I)</div></div></div>","E","$4","$14","0","4","14","SURE"
"","","","offerFB","5e55e83cc65ccb5ed547cb04","bdp_rd","Tue Mar 28 2023 21:40:27 GMT-0700 (Pacific Daylight Time)","194120","html-keyboard-response","97","155092","0.0-5.0-3.30","","null","","<div class='trialBorder'><div class='vertical-center'><img style='vertical-align:center; align:center' src=img/fixation3.jpg></div><div class='cl'><div class='vertical-center'><font style='color:orange'>$4<br>for<br>sure</font></div></div><div class='cr'><div class='vertical-center'>$14<br>with a<br>50% chance</div></div><div class='respDivL'><div class='vertical-center'><font style='color:orange'>(E)</font></div></div><div class='respDivR'><div class='vertical-center'>(I)</div></div></div>","null","$4","$14","0","4","14",""
"","","","FIX","5e55e83cc65ccb5ed547cb04","bdp_rd","Tue Mar 28 2023 21:40:27 GMT-0700 (Pacific Daylight Time)","194120","html-keyboard-response","98","155596","0.0-5.0-1.31","","null","","<div class='trialBorder'><div class='vertical-center'><img style='vertical-align:center; align:center' src=img/fixation3.jpg></div></div>","null","","","","","",""
"","","","offer","5e55e83cc65ccb5ed547cb04","bdp_rd","Tue Mar 28 2023 21:40:27 GMT-0700 (Pacific Daylight Time)","194120","html-keyboard-response","99","155964","0.0-5.0-2.31","","368","","<div class='trialBorder'><div class='vertical-center'><img style='vertical-align:center; align:center' src=img/fixation3.jpg></div><div class='cl'><div class='vertical-center'>$12<br>for<br>sure</div></div><div class='cr'><div class='vertical-center'>$35<br>with a<br>50% chance</div></div><div class='respDivL'><div class='vertical-center'>(E)</div></div><div class='respDivR'><div class='vertical-center'>(I)</div></div></div>","E","$12","$35","0","12","35","SURE"
"","","","offerFB","5e55e83cc65ccb5ed547cb04","bdp_rd","Tue Mar 28 2023 21:40:27 GMT-0700 (Pacific Daylight Time)","194120","html-keyboard-response","100","156221","0.0-5.0-3.31","","null","","<div class='trialBorder'><div class='vertical-center'><img style='vertical-align:center; align:center' src=img/fixation3.jpg></div><div class='cl'><div class='vertical-center'><font style='color:orange'>$12<br>for<br>sure</font></div></div><div class='cr'><div class='vertical-center'>$35<br>with a<br>50% chance</div></div><div class='respDivL'><div class='vertical-center'><font style='color:orange'>(E)</font></div></div><div class='respDivR'><div class='vertical-center'>(I)</div></div></div>","null","$12","$35","0","12","35",""
"","","","FIX","5e55e83cc65ccb5ed547cb04","bdp_rd","Tue Mar 28 2023 21:40:27 GMT-0700 (Pacific Daylight Time)","194120","html-keyboard-response","101","156732","0.0-5.0-1.32","","null","","<div class='trialBorder'><div class='vertical-center'><img style='vertical-align:center; align:center' src=img/fixation3.jpg></div></div>","null","","","","","",""
"","","","offer","5e55e83cc65ccb5ed547cb04","bdp_rd","Tue Mar 28 2023 21:40:27 GMT-0700 (Pacific Daylight Time)","194120","html-keyboard-response","102","157083","0.0-5.0-2.32","","351","","<div class='trialBorder'><div class='vertical-center'><img style='vertical-align:center; align:center' src=img/fixation3.jpg></div><div class='cl'><div class='vertical-center'>$4<br>for<br>sure</div></div><div class='cr'><div class='vertical-center'>$11<br>with a<br>50% chance</div></div><div class='respDivL'><div class='vertical-center'>(E)</div></div><div class='respDivR'><div class='vertical-center'>(I)</div></div></div>","E","$4","$11","0","4","11","SURE"
"","","","offerFB","5e55e83cc65ccb5ed547cb04","bdp_rd","Tue Mar 28 2023 21:40:27 GMT-0700 (Pacific Daylight Time)","194120","html-keyboard-response","103","157339","0.0-5.0-3.32","","null","","<div class='trialBorder'><div class='vertical-center'><img style='vertical-align:center; align:center' src=img/fixation3.jpg></div><div class='cl'><div class='vertical-center'><font style='color:orange'>$4<br>for<br>sure</font></div></div><div class='cr'><div class='vertical-center'>$11<br>with a<br>50% chance</div></div><div class='respDivL'><div class='vertical-center'><font style='color:orange'>(E)</font></div></div><div class='respDivR'><div class='vertical-center'>(I)</div></div></div>","null","$4","$11","0","4","11",""
"","","","FIX","5e55e83cc65ccb5ed547cb04","bdp_rd","Tue Mar 28 2023 21:40:27 GMT-0700 (Pacific Daylight Time)","194120","html-keyboard-response","104","157854","0.0-5.0-1.33","","null","","<div class='trialBorder'><div class='vertical-center'><img style='vertical-align:center; align:center' src=img/fixation3.jpg></div></div>","null","","","","","",""
"","","","offer","5e55e83cc65ccb5ed547cb04","bdp_rd","Tue Mar 28 2023 21:40:27 GMT-0700 (Pacific Daylight Time)","194120","html-keyboard-response","105","158259","0.0-5.0-2.33","","404","","<div class='trialBorder'><div class='vertical-center'><img style='vertical-align:center; align:center' src=img/fixation3.jpg></div><div class='cl'><div class='vertical-center'>$3<br>for<br>sure</div></div><div class='cr'><div class='vertical-center'>$12<br>with a<br>50% chance</div></div><div class='respDivL'><div class='vertical-center'>(E)</div></div><div class='respDivR'><div class='vertical-center'>(I)</div></div></div>","E","$3","$12","0","3","12","SURE"
"","","","offerFB","5e55e83cc65ccb5ed547cb04","bdp_rd","Tue Mar 28 2023 21:40:27 GMT-0700 (Pacific Daylight Time)","194120","html-keyboard-response","106","158521","0.0-5.0-3.33","","null","","<div class='trialBorder'><div class='vertical-center'><img style='vertical-align:center; align:center' src=img/fixation3.jpg></div><div class='cl'><div class='vertical-center'><font style='color:orange'>$3<br>for<br>sure</font></div></div><div class='cr'><div class='vertical-center'>$12<br>with a<br>50% chance</div></div><div class='respDivL'><div class='vertical-center'><font style='color:orange'>(E)</font></div></div><div class='respDivR'><div class='vertical-center'>(I)</div></div></div>","null","$3","$12","0","3","12",""
"","","","FIX","5e55e83cc65ccb5ed547cb04","bdp_rd","Tue Mar 28 2023 21:40:27 GMT-0700 (Pacific Daylight Time)","194120","html-keyboard-response","107","159036","0.0-5.0-1.34","","null","","<div class='trialBorder'><div class='vertical-center'><img style='vertical-align:center; align:center' src=img/fixation3.jpg></div></div>","null","","","","","",""
"","","","offer","5e55e83cc65ccb5ed547cb04","bdp_rd","Tue Mar 28 2023 21:40:27 GMT-0700 (Pacific Daylight Time)","194120","html-keyboard-response","108","159426","0.0-5.0-2.34","","390","","<div class='trialBorder'><div class='vertical-center'><img style='vertical-align:center; align:center' src=img/fixation3.jpg></div><div class='cl'><div class='vertical-center'>$27<br>with a<br>50% chance</div></div><div class='cr'><div class='vertical-center'>$12<br>for<br>sure</div></div><div class='respDivL'><div class='vertical-center'>(E)</div></div><div class='respDivR'><div class='vertical-center'>(I)</div></div></div>","I","$12","$27","1","12","27","SURE"
"","","","offerFB","5e55e83cc65ccb5ed547cb04","bdp_rd","Tue Mar 28 2023 21:40:27 GMT-0700 (Pacific Daylight Time)","194120","html-keyboard-response","109","159690","0.0-5.0-3.34","","null","","<div class='trialBorder'><div class='vertical-center'><img style='vertical-align:center; align:center' src=img/fixation3.jpg></div><div class='cl'><div class='vertical-center'>$27<br>with a<br>50% chance</div></div><div class='cr'><div class='vertical-center'><font style='color:orange'>$12<br>for<br>sure</font></div></div><div class='respDivL'><div class='vertical-center'>(E)</div></div><div class='respDivR'><div class='vertical-center'><font style='color:orange'>(I)</font></div></div></div>","null","$12","$27","1","12","27",""
"","","","FIX","5e55e83cc65ccb5ed547cb04","bdp_rd","Tue Mar 28 2023 21:40:27 GMT-0700 (Pacific Daylight Time)","194120","html-keyboard-response","110","160201","0.0-5.0-1.35","","null","","<div class='trialBorder'><div class='vertical-center'><img style='vertical-align:center; align:center' src=img/fixation3.jpg></div></div>","null","","","","","",""
"","","","offer","5e55e83cc65ccb5ed547cb04","bdp_rd","Tue Mar 28 2023 21:40:27 GMT-0700 (Pacific Daylight Time)","194120","html-keyboard-response","111","161446","0.0-5.0-2.35","","1245","","<div class='trialBorder'><div class='vertical-center'><img style='vertical-align:center; align:center' src=img/fixation3.jpg></div><div class='cl'><div class='vertical-center'>$58<br>for<br>sure</div></div><div class='cr'><div class='vertical-center'>$69<br>with a<br>50% chance</div></div><div class='respDivL'><div class='vertical-center'>(E)</div></div><div class='respDivR'><div class='vertical-center'>(I)</div></div></div>","E","$58","$69","0","58","69","SURE"
"","","","offerFB","5e55e83cc65ccb5ed547cb04","bdp_rd","Tue Mar 28 2023 21:40:27 GMT-0700 (Pacific Daylight Time)","194120","html-keyboard-response","112","161707","0.0-5.0-3.35","","null","","<div class='trialBorder'><div class='vertical-center'><img style='vertical-align:center; align:center' src=img/fixation3.jpg></div><div class='cl'><div class='vertical-center'><font style='color:orange'>$58<br>for<br>sure</font></div></div><div class='cr'><div class='vertical-center'>$69<br>with a<br>50% chance</div></div><div class='respDivL'><div class='vertical-center'><font style='color:orange'>(E)</font></div></div><div class='respDivR'><div class='vertical-center'>(I)</div></div></div>","null","$58","$69","0","58","69",""
"","","","FIX","5e55e83cc65ccb5ed547cb04","bdp_rd","Tue Mar 28 2023 21:40:27 GMT-0700 (Pacific Daylight Time)","194120","html-keyboard-response","113","162222","0.0-5.0-1.36","","null","","<div class='trialBorder'><div class='vertical-center'><img style='vertical-align:center; align:center' src=img/fixation3.jpg></div></div>","null","","","","","",""
"","","","offer","5e55e83cc65ccb5ed547cb04","bdp_rd","Tue Mar 28 2023 21:40:27 GMT-0700 (Pacific Daylight Time)","194120","html-keyboard-response","114","162746","0.0-5.0-2.36","","524","","<div class='trialBorder'><div class='vertical-center'><img style='vertical-align:center; align:center' src=img/fixation3.jpg></div><div class='cl'><div class='vertical-center'>$18<br>for<br>sure</div></div><div class='cr'><div class='vertical-center'>$36<br>with a<br>50% chance</div></div><div class='respDivL'><div class='vertical-center'>(E)</div></div><div class='respDivR'><div class='vertical-center'>(I)</div></div></div>","E","$18","$36","0","18","36","SURE"
"","","","offerFB","5e55e83cc65ccb5ed547cb04","bdp_rd","Tue Mar 28 2023 21:40:27 GMT-0700 (Pacific Daylight Time)","194120","html-keyboard-response","115","162999","0.0-5.0-3.36","","null","","<div class='trialBorder'><div class='vertical-center'><img style='vertical-align:center; align:center' src=img/fixation3.jpg></div><div class='cl'><div class='vertical-center'><font style='color:orange'>$18<br>for<br>sure</font></div></div><div class='cr'><div class='vertical-center'>$36<br>with a<br>50% chance</div></div><div class='respDivL'><div class='vertical-center'><font style='color:orange'>(E)</font></div></div><div class='respDivR'><div class='vertical-center'>(I)</div></div></div>","null","$18","$36","0","18","36",""
"","","","FIX","5e55e83cc65ccb5ed547cb04","bdp_rd","Tue Mar 28 2023 21:40:27 GMT-0700 (Pacific Daylight Time)","194120","html-keyboard-response","116","163500","0.0-5.0-1.37","","null","","<div class='trialBorder'><div class='vertical-center'><img style='vertical-align:center; align:center' src=img/fixation3.jpg></div></div>","null","","","","","",""
"","","","offer","5e55e83cc65ccb5ed547cb04","bdp_rd","Tue Mar 28 2023 21:40:27 GMT-0700 (Pacific Daylight Time)","194120","html-keyboard-response","117","163944","0.0-5.0-2.37","","443","","<div class='trialBorder'><div class='vertical-center'><img style='vertical-align:center; align:center' src=img/fixation3.jpg></div><div class='cl'><div class='vertical-center'>$19<br>for<br>sure</div></div><div class='cr'><div class='vertical-center'>$51<br>with a<br>50% chance</div></div><div class='respDivL'><div class='vertical-center'>(E)</div></div><div class='respDivR'><div class='vertical-center'>(I)</div></div></div>","E","$19","$51","0","19","51","SURE"
"","","","offerFB","5e55e83cc65ccb5ed547cb04","bdp_rd","Tue Mar 28 2023 21:40:27 GMT-0700 (Pacific Daylight Time)","194120","html-keyboard-response","118","164197","0.0-5.0-3.37","","null","","<div class='trialBorder'><div class='vertical-center'><img style='vertical-align:center; align:center' src=img/fixation3.jpg></div><div class='cl'><div class='vertical-center'><font style='color:orange'>$19<br>for<br>sure</font></div></div><div class='cr'><div class='vertical-center'>$51<br>with a<br>50% chance</div></div><div class='respDivL'><div class='vertical-center'><font style='color:orange'>(E)</font></div></div><div class='respDivR'><div class='vertical-center'>(I)</div></div></div>","null","$19","$51","0","19","51",""
"","","","FIX","5e55e83cc65ccb5ed547cb04","bdp_rd","Tue Mar 28 2023 21:40:27 GMT-0700 (Pacific Daylight Time)","194120","html-keyboard-response","119","164711","0.0-5.0-1.38","","null","","<div class='trialBorder'><div class='vertical-center'><img style='vertical-align:center; align:center' src=img/fixation3.jpg></div></div>","null","","","","","",""
"","","","offer","5e55e83cc65ccb5ed547cb04","bdp_rd","Tue Mar 28 2023 21:40:27 GMT-0700 (Pacific Daylight Time)","194120","html-keyboard-response","120","165221","0.0-5.0-2.38","","510","","<div class='trialBorder'><div class='vertical-center'><img style='vertical-align:center; align:center' src=img/fixation3.jpg></div><div class='cl'><div class='vertical-center'>$68<br>with a<br>50% chance</div></div><div class='cr'><div class='vertical-center'>$30<br>for<br>sure</div></div><div class='respDivL'><div class='vertical-center'>(E)</div></div><div class='respDivR'><div class='vertical-center'>(I)</div></div></div>","I","$30","$68","1","30","68","SURE"
"","","","offerFB","5e55e83cc65ccb5ed547cb04","bdp_rd","Tue Mar 28 2023 21:40:27 GMT-0700 (Pacific Daylight Time)","194120","html-keyboard-response","121","165486","0.0-5.0-3.38","","null","","<div class='trialBorder'><div class='vertical-center'><img style='vertical-align:center; align:center' src=img/fixation3.jpg></div><div class='cl'><div class='vertical-center'>$68<br>with a<br>50% chance</div></div><div class='cr'><div class='vertical-center'><font style='color:orange'>$30<br>for<br>sure</font></div></div><div class='respDivL'><div class='vertical-center'>(E)</div></div><div class='respDivR'><div class='vertical-center'><font style='color:orange'>(I)</font></div></div></div>","null","$30","$68","1","30","68",""
"","","","FIX","5e55e83cc65ccb5ed547cb04","bdp_rd","Tue Mar 28 2023 21:40:27 GMT-0700 (Pacific Daylight Time)","194120","html-keyboard-response","122","166000","0.0-5.0-1.39","","null","","<div class='trialBorder'><div class='vertical-center'><img style='vertical-align:center; align:center' src=img/fixation3.jpg></div></div>","null","","","","","",""
"","","","offer","5e55e83cc65ccb5ed547cb04","bdp_rd","Tue Mar 28 2023 21:40:27 GMT-0700 (Pacific Daylight Time)","194120","html-keyboard-response","123","166605","0.0-5.0-2.39","","604","","<div class='trialBorder'><div class='vertical-center'><img style='vertical-align:center; align:center' src=img/fixation3.jpg></div><div class='cl'><div class='vertical-center'>$37<br>with a<br>50% chance</div></div><div class='cr'><div class='vertical-center'>$20<br>for<br>sure</div></div><div class='respDivL'><div class='vertical-center'>(E)</div></div><div class='respDivR'><div class='vertical-center'>(I)</div></div></div>","I","$20","$37","1","20","37","SURE"
"","","","offerFB","5e55e83cc65ccb5ed547cb04","bdp_rd","Tue Mar 28 2023 21:40:27 GMT-0700 (Pacific Daylight Time)","194120","html-keyboard-response","124","166856","0.0-5.0-3.39","","null","","<div class='trialBorder'><div class='vertical-center'><img style='vertical-align:center; align:center' src=img/fixation3.jpg></div><div class='cl'><div class='vertical-center'>$37<br>with a<br>50% chance</div></div><div class='cr'><div class='vertical-center'><font style='color:orange'>$20<br>for<br>sure</font></div></div><div class='respDivL'><div class='vertical-center'>(E)</div></div><div class='respDivR'><div class='vertical-center'><font style='color:orange'>(I)</font></div></div></div>","null","$20","$37","1","20","37",""
"","","","FIX","5e55e83cc65ccb5ed547cb04","bdp_rd","Tue Mar 28 2023 21:40:27 GMT-0700 (Pacific Daylight Time)","194120","html-keyboard-response","125","167366","0.0-5.0-1.40","","null","","<div class='trialBorder'><div class='vertical-center'><img style='vertical-align:center; align:center' src=img/fixation3.jpg></div></div>","null","","","","","",""
"","","","offer","5e55e83cc65ccb5ed547cb04","bdp_rd","Tue Mar 28 2023 21:40:27 GMT-0700 (Pacific Daylight Time)","194120","html-keyboard-response","126","167854","0.0-5.0-2.40","","487","","<div class='trialBorder'><div class='vertical-center'><img style='vertical-align:center; align:center' src=img/fixation3.jpg></div><div class='cl'><div class='vertical-center'>$2<br>for<br>sure</div></div><div class='cr'><div class='vertical-center'>$21<br>with a<br>50% chance</div></div><div class='respDivL'><div class='vertical-center'>(E)</div></div><div class='respDivR'><div class='vertical-center'>(I)</div></div></div>","E","$2","$21","0","2","21","SURE"
"","","","offerFB","5e55e83cc65ccb5ed547cb04","bdp_rd","Tue Mar 28 2023 21:40:27 GMT-0700 (Pacific Daylight Time)","194120","html-keyboard-response","127","168111","0.0-5.0-3.40","","null","","<div class='trialBorder'><div class='vertical-center'><img style='vertical-align:center; align:center' src=img/fixation3.jpg></div><div class='cl'><div class='vertical-center'><font style='color:orange'>$2<br>for<br>sure</font></div></div><div class='cr'><div class='vertical-center'>$21<br>with a<br>50% chance</div></div><div class='respDivL'><div class='vertical-center'><font style='color:orange'>(E)</font></div></div><div class='respDivR'><div class='vertical-center'>(I)</div></div></div>","null","$2","$21","0","2","21",""
"","","","FIX","5e55e83cc65ccb5ed547cb04","bdp_rd","Tue Mar 28 2023 21:40:27 GMT-0700 (Pacific Daylight Time)","194120","html-keyboard-response","128","168623","0.0-5.0-1.41","","null","","<div class='trialBorder'><div class='vertical-center'><img style='vertical-align:center; align:center' src=img/fixation3.jpg></div></div>","null","","","","","",""
"","","","offer","5e55e83cc65ccb5ed547cb04","bdp_rd","Tue Mar 28 2023 21:40:27 GMT-0700 (Pacific Daylight Time)","194120","html-keyboard-response","129","169193","0.0-5.0-2.41","","569","","<div class='trialBorder'><div class='vertical-center'><img style='vertical-align:center; align:center' src=img/fixation3.jpg></div><div class='cl'><div class='vertical-center'>$81<br>with a<br>50% chance</div></div><div class='cr'><div class='vertical-center'>$39<br>for<br>sure</div></div><div class='respDivL'><div class='vertical-center'>(E)</div></div><div class='respDivR'><div class='vertical-center'>(I)</div></div></div>","I","$39","$81","1","39","81","SURE"
"","","","offerFB","5e55e83cc65ccb5ed547cb04","bdp_rd","Tue Mar 28 2023 21:40:27 GMT-0700 (Pacific Daylight Time)","194120","html-keyboard-response","130","169452","0.0-5.0-3.41","","null","","<div class='trialBorder'><div class='vertical-center'><img style='vertical-align:center; align:center' src=img/fixation3.jpg></div><div class='cl'><div class='vertical-center'>$81<br>with a<br>50% chance</div></div><div class='cr'><div class='vertical-center'><font style='color:orange'>$39<br>for<br>sure</font></div></div><div class='respDivL'><div class='vertical-center'>(E)</div></div><div class='respDivR'><div class='vertical-center'><font style='color:orange'>(I)</font></div></div></div>","null","$39","$81","1","39","81",""
"","","","FIX","5e55e83cc65ccb5ed547cb04","bdp_rd","Tue Mar 28 2023 21:40:27 GMT-0700 (Pacific Daylight Time)","194120","html-keyboard-response","131","169963","0.0-5.0-1.42","","null","","<div class='trialBorder'><div class='vertical-center'><img style='vertical-align:center; align:center' src=img/fixation3.jpg></div></div>","null","","","","","",""
"","","","offer","5e55e83cc65ccb5ed547cb04","bdp_rd","Tue Mar 28 2023 21:40:27 GMT-0700 (Pacific Daylight Time)","194120","html-keyboard-response","132","170382","0.0-5.0-2.42","","418","","<div class='trialBorder'><div class='vertical-center'><img style='vertical-align:center; align:center' src=img/fixation3.jpg></div><div class='cl'><div class='vertical-center'>$70<br>with a<br>50% chance</div></div><div class='cr'><div class='vertical-center'>$24<br>for<br>sure</div></div><div class='respDivL'><div class='vertical-center'>(E)</div></div><div class='respDivR'><div class='vertical-center'>(I)</div></div></div>","I","$24","$70","1","24","70","SURE"
"","","","offerFB","5e55e83cc65ccb5ed547cb04","bdp_rd","Tue Mar 28 2023 21:40:27 GMT-0700 (Pacific Daylight Time)","194120","html-keyboard-response","133","170644","0.0-5.0-3.42","","null","","<div class='trialBorder'><div class='vertical-center'><img style='vertical-align:center; align:center' src=img/fixation3.jpg></div><div class='cl'><div class='vertical-center'>$70<br>with a<br>50% chance</div></div><div class='cr'><div class='vertical-center'><font style='color:orange'>$24<br>for<br>sure</font></div></div><div class='respDivL'><div class='vertical-center'>(E)</div></div><div class='respDivR'><div class='vertical-center'><font style='color:orange'>(I)</font></div></div></div>","null","$24","$70","1","24","70",""
"","","","FIX","5e55e83cc65ccb5ed547cb04","bdp_rd","Tue Mar 28 2023 21:40:27 GMT-0700 (Pacific Daylight Time)","194120","html-keyboard-response","134","171157","0.0-5.0-1.43","","null","","<div class='trialBorder'><div class='vertical-center'><img style='vertical-align:center; align:center' src=img/fixation3.jpg></div></div>","null","","","","","",""
"","","","offer","5e55e83cc65ccb5ed547cb04","bdp_rd","Tue Mar 28 2023 21:40:27 GMT-0700 (Pacific Daylight Time)","194120","html-keyboard-response","135","171708","0.0-5.0-2.43","","551","","<div class='trialBorder'><div class='vertical-center'><img style='vertical-align:center; align:center' src=img/fixation3.jpg></div><div class='cl'><div class='vertical-center'>$45<br>with a<br>50% chance</div></div><div class='cr'><div class='vertical-center'>$8<br>for<br>sure</div></div><div class='respDivL'><div class='vertical-center'>(E)</div></div><div class='respDivR'><div class='vertical-center'>(I)</div></div></div>","I","$8","$45","1","8","45","SURE"
"","","","offerFB","5e55e83cc65ccb5ed547cb04","bdp_rd","Tue Mar 28 2023 21:40:27 GMT-0700 (Pacific Daylight Time)","194120","html-keyboard-response","136","171968","0.0-5.0-3.43","","null","","<div class='trialBorder'><div class='vertical-center'><img style='vertical-align:center; align:center' src=img/fixation3.jpg></div><div class='cl'><div class='vertical-center'>$45<br>with a<br>50% chance</div></div><div class='cr'><div class='vertical-center'><font style='color:orange'>$8<br>for<br>sure</font></div></div><div class='respDivL'><div class='vertical-center'>(E)</div></div><div class='respDivR'><div class='vertical-center'><font style='color:orange'>(I)</font></div></div></div>","null","$8","$45","1","8","45",""
"","","","FIX","5e55e83cc65ccb5ed547cb04","bdp_rd","Tue Mar 28 2023 21:40:27 GMT-0700 (Pacific Daylight Time)","194120","html-keyboard-response","137","172480","0.0-5.0-1.44","","null","","<div class='trialBorder'><div class='vertical-center'><img style='vertical-align:center; align:center' src=img/fixation3.jpg></div></div>","null","","","","","",""
"","","","offer","5e55e83cc65ccb5ed547cb04","bdp_rd","Tue Mar 28 2023 21:40:27 GMT-0700 (Pacific Daylight Time)","194120","html-keyboard-response","138","172915","0.0-5.0-2.44","","434","","<div class='trialBorder'><div class='vertical-center'><img style='vertical-align:center; align:center' src=img/fixation3.jpg></div><div class='cl'><div class='vertical-center'>$38<br>with a<br>50% chance</div></div><div class='cr'><div class='vertical-center'>$16<br>for<br>sure</div></div><div class='respDivL'><div class='vertical-center'>(E)</div></div><div class='respDivR'><div class='vertical-center'>(I)</div></div></div>","I","$16","$38","1","16","38","SURE"
"","","","offerFB","5e55e83cc65ccb5ed547cb04","bdp_rd","Tue Mar 28 2023 21:40:27 GMT-0700 (Pacific Daylight Time)","194120","html-keyboard-response","139","173181","0.0-5.0-3.44","","null","","<div class='trialBorder'><div class='vertical-center'><img style='vertical-align:center; align:center' src=img/fixation3.jpg></div><div class='cl'><div class='vertical-center'>$38<br>with a<br>50% chance</div></div><div class='cr'><div class='vertical-center'><font style='color:orange'>$16<br>for<br>sure</font></div></div><div class='respDivL'><div class='vertical-center'>(E)</div></div><div class='respDivR'><div class='vertical-center'><font style='color:orange'>(I)</font></div></div></div>","null","$16","$38","1","16","38",""
"","","","FIX","5e55e83cc65ccb5ed547cb04","bdp_rd","Tue Mar 28 2023 21:40:27 GMT-0700 (Pacific Daylight Time)","194120","html-keyboard-response","140","173690","0.0-5.0-1.45","","null","","<div class='trialBorder'><div class='vertical-center'><img style='vertical-align:center; align:center' src=img/fixation3.jpg></div></div>","null","","","","","",""
"","","","offer","5e55e83cc65ccb5ed547cb04","bdp_rd","Tue Mar 28 2023 21:40:27 GMT-0700 (Pacific Daylight Time)","194120","html-keyboard-response","141","174194","0.0-5.0-2.45","","503","","<div class='trialBorder'><div class='vertical-center'><img style='vertical-align:center; align:center' src=img/fixation3.jpg></div><div class='cl'><div class='vertical-center'>$26<br>with a<br>50% chance</div></div><div class='cr'><div class='vertical-center'>$11<br>for<br>sure</div></div><div class='respDivL'><div class='vertical-center'>(E)</div></div><div class='respDivR'><div class='vertical-center'>(I)</div></div></div>","I","$11","$26","1","11","26","SURE"
"","","","offerFB","5e55e83cc65ccb5ed547cb04","bdp_rd","Tue Mar 28 2023 21:40:27 GMT-0700 (Pacific Daylight Time)","194120","html-keyboard-response","142","174449","0.0-5.0-3.45","","null","","<div class='trialBorder'><div class='vertical-center'><img style='vertical-align:center; align:center' src=img/fixation3.jpg></div><div class='cl'><div class='vertical-center'>$26<br>with a<br>50% chance</div></div><div class='cr'><div class='vertical-center'><font style='color:orange'>$11<br>for<br>sure</font></div></div><div class='respDivL'><div class='vertical-center'>(E)</div></div><div class='respDivR'><div class='vertical-center'><font style='color:orange'>(I)</font></div></div></div>","null","$11","$26","1","11","26",""
"","","","FIX","5e55e83cc65ccb5ed547cb04","bdp_rd","Tue Mar 28 2023 21:40:27 GMT-0700 (Pacific Daylight Time)","194120","html-keyboard-response","143","174963","0.0-5.0-1.46","","null","","<div class='trialBorder'><div class='vertical-center'><img style='vertical-align:center; align:center' src=img/fixation3.jpg></div></div>","null","","","","","",""
"","","","offer","5e55e83cc65ccb5ed547cb04","bdp_rd","Tue Mar 28 2023 21:40:27 GMT-0700 (Pacific Daylight Time)","194120","html-keyboard-response","144","175503","0.0-5.0-2.46","","540","","<div class='trialBorder'><div class='vertical-center'><img style='vertical-align:center; align:center' src=img/fixation3.jpg></div><div class='cl'><div class='vertical-center'>$27<br>for<br>sure</div></div><div class='cr'><div class='vertical-center'>$47<br>with a<br>50% chance</div></div><div class='respDivL'><div class='vertical-center'>(E)</div></div><div class='respDivR'><div class='vertical-center'>(I)</div></div></div>","E","$27","$47","0","27","47","SURE"
"","","","offerFB","5e55e83cc65ccb5ed547cb04","bdp_rd","Tue Mar 28 2023 21:40:27 GMT-0700 (Pacific Daylight Time)","194120","html-keyboard-response","145","175759","0.0-5.0-3.46","","null","","<div class='trialBorder'><div class='vertical-center'><img style='vertical-align:center; align:center' src=img/fixation3.jpg></div><div class='cl'><div class='vertical-center'><font style='color:orange'>$27<br>for<br>sure</font></div></div><div class='cr'><div class='vertical-center'>$47<br>with a<br>50% chance</div></div><div class='respDivL'><div class='vertical-center'><font style='color:orange'>(E)</font></div></div><div class='respDivR'><div class='vertical-center'>(I)</div></div></div>","null","$27","$47","0","27","47",""
"","","","FIX","5e55e83cc65ccb5ed547cb04","bdp_rd","Tue Mar 28 2023 21:40:27 GMT-0700 (Pacific Daylight Time)","194120","html-keyboard-response","146","176274","0.0-5.0-1.47","","null","","<div class='trialBorder'><div class='vertical-center'><img style='vertical-align:center; align:center' src=img/fixation3.jpg></div></div>","null","","","","","",""
"","","","offer","5e55e83cc65ccb5ed547cb04","bdp_rd","Tue Mar 28 2023 21:40:27 GMT-0700 (Pacific Daylight Time)","194120","html-keyboard-response","147","176687","0.0-5.0-2.47","","413","","<div class='trialBorder'><div class='vertical-center'><img style='vertical-align:center; align:center' src=img/fixation3.jpg></div><div class='cl'><div class='vertical-center'>$1<br>for<br>sure</div></div><div class='cr'><div class='vertical-center'>$33<br>with a<br>50% chance</div></div><div class='respDivL'><div class='vertical-center'>(E)</div></div><div class='respDivR'><div class='vertical-center'>(I)</div></div></div>","E","$1","$33","0","1","33","SURE"
"","","","offerFB","5e55e83cc65ccb5ed547cb04","bdp_rd","Tue Mar 28 2023 21:40:27 GMT-0700 (Pacific Daylight Time)","194120","html-keyboard-response","148","176944","0.0-5.0-3.47","","null","","<div class='trialBorder'><div class='vertical-center'><img style='vertical-align:center; align:center' src=img/fixation3.jpg></div><div class='cl'><div class='vertical-center'><font style='color:orange'>$1<br>for<br>sure</font></div></div><div class='cr'><div class='vertical-center'>$33<br>with a<br>50% chance</div></div><div class='respDivL'><div class='vertical-center'><font style='color:orange'>(E)</font></div></div><div class='respDivR'><div class='vertical-center'>(I)</div></div></div>","null","$1","$33","0","1","33",""
"","","","FIX","5e55e83cc65ccb5ed547cb04","bdp_rd","Tue Mar 28 2023 21:40:27 GMT-0700 (Pacific Daylight Time)","194120","html-keyboard-response","149","177461","0.0-5.0-1.48","","null","","<div class='trialBorder'><div class='vertical-center'><img style='vertical-align:center; align:center' src=img/fixation3.jpg></div></div>","null","","","","","",""
"","","","offer","5e55e83cc65ccb5ed547cb04","bdp_rd","Tue Mar 28 2023 21:40:27 GMT-0700 (Pacific Daylight Time)","194120","html-keyboard-response","150","177890","0.0-5.0-2.48","","428","","<div class='trialBorder'><div class='vertical-center'><img style='vertical-align:center; align:center' src=img/fixation3.jpg></div><div class='cl'><div class='vertical-center'>$16<br>with a<br>50% chance</div></div><div class='cr'><div class='vertical-center'>$5<br>for<br>sure</div></div><div class='respDivL'><div class='vertical-center'>(E)</div></div><div class='respDivR'><div class='vertical-center'>(I)</div></div></div>","I","$5","$16","1","5","16","SURE"
"","","","offerFB","5e55e83cc65ccb5ed547cb04","bdp_rd","Tue Mar 28 2023 21:40:27 GMT-0700 (Pacific Daylight Time)","194120","html-keyboard-response","151","178144","0.0-5.0-3.48","","null","","<div class='trialBorder'><div class='vertical-center'><img style='vertical-align:center; align:center' src=img/fixation3.jpg></div><div class='cl'><div class='vertical-center'>$16<br>with a<br>50% chance</div></div><div class='cr'><div class='vertical-center'><font style='color:orange'>$5<br>for<br>sure</font></div></div><div class='respDivL'><div class='vertical-center'>(E)</div></div><div class='respDivR'><div class='vertical-center'><font style='color:orange'>(I)</font></div></div></div>","null","$5","$16","1","5","16",""
"","","","FIX","5e55e83cc65ccb5ed547cb04","bdp_rd","Tue Mar 28 2023 21:40:27 GMT-0700 (Pacific Daylight Time)","194120","html-keyboard-response","152","178655","0.0-5.0-1.49","","null","","<div class='trialBorder'><div class='vertical-center'><img style='vertical-align:center; align:center' src=img/fixation3.jpg></div></div>","null","","","","","",""
"","","","offer","5e55e83cc65ccb5ed547cb04","bdp_rd","Tue Mar 28 2023 21:40:27 GMT-0700 (Pacific Daylight Time)","194120","html-keyboard-response","153","179157","0.0-5.0-2.49","","502","","<div class='trialBorder'><div class='vertical-center'><img style='vertical-align:center; align:center' src=img/fixation3.jpg></div><div class='cl'><div class='vertical-center'>$78<br>with a<br>50% chance</div></div><div class='cr'><div class='vertical-center'>$31<br>for<br>sure</div></div><div class='respDivL'><div class='vertical-center'>(E)</div></div><div class='respDivR'><div class='vertical-center'>(I)</div></div></div>","I","$31","$78","1","31","78","SURE"
"","","","offerFB","5e55e83cc65ccb5ed547cb04","bdp_rd","Tue Mar 28 2023 21:40:27 GMT-0700 (Pacific Daylight Time)","194120","html-keyboard-response","154","179417","0.0-5.0-3.49","","null","","<div class='trialBorder'><div class='vertical-center'><img style='vertical-align:center; align:center' src=img/fixation3.jpg></div><div class='cl'><div class='vertical-center'>$78<br>with a<br>50% chance</div></div><div class='cr'><div class='vertical-center'><font style='color:orange'>$31<br>for<br>sure</font></div></div><div class='respDivL'><div class='vertical-center'>(E)</div></div><div class='respDivR'><div class='vertical-center'><font style='color:orange'>(I)</font></div></div></div>","null","$31","$78","1","31","78",""
"","","","FIX","5e55e83cc65ccb5ed547cb04","bdp_rd","Tue Mar 28 2023 21:40:27 GMT-0700 (Pacific Daylight Time)","194120","html-keyboard-response","155","179932","0.0-5.0-1.50","","null","","<div class='trialBorder'><div class='vertical-center'><img style='vertical-align:center; align:center' src=img/fixation3.jpg></div></div>","null","","","","","",""
"","","","offer","5e55e83cc65ccb5ed547cb04","bdp_rd","Tue Mar 28 2023 21:40:27 GMT-0700 (Pacific Daylight Time)","194120","html-keyboard-response","156","180492","0.0-5.0-2.50","","560","","<div class='trialBorder'><div class='vertical-center'><img style='vertical-align:center; align:center' src=img/fixation3.jpg></div><div class='cl'><div class='vertical-center'>$14<br>for<br>sure</div></div><div class='cr'><div class='vertical-center'>$22<br>with a<br>50% chance</div></div><div class='respDivL'><div class='vertical-center'>(E)</div></div><div class='respDivR'><div class='vertical-center'>(I)</div></div></div>","E","$14","$22","0","14","22","SURE"
"","","","offerFB","5e55e83cc65ccb5ed547cb04","bdp_rd","Tue Mar 28 2023 21:40:27 GMT-0700 (Pacific Daylight Time)","194120","html-keyboard-response","157","180757","0.0-5.0-3.50","","null","","<div class='trialBorder'><div class='vertical-center'><img style='vertical-align:center; align:center' src=img/fixation3.jpg></div><div class='cl'><div class='vertical-center'><font style='color:orange'>$14<br>for<br>sure</font></div></div><div class='cr'><div class='vertical-center'>$22<br>with a<br>50% chance</div></div><div class='respDivL'><div class='vertical-center'><font style='color:orange'>(E)</font></div></div><div class='respDivR'><div class='vertical-center'>(I)</div></div></div>","null","$14","$22","0","14","22",""
"","","","FIX","5e55e83cc65ccb5ed547cb04","bdp_rd","Tue Mar 28 2023 21:40:27 GMT-0700 (Pacific Daylight Time)","194120","html-keyboard-response","158","181271","0.0-5.0-1.51","","null","","<div class='trialBorder'><div class='vertical-center'><img style='vertical-align:center; align:center' src=img/fixation3.jpg></div></div>","null","","","","","",""
"","","","offer","5e55e83cc65ccb5ed547cb04","bdp_rd","Tue Mar 28 2023 21:40:27 GMT-0700 (Pacific Daylight Time)","194120","html-keyboard-response","159","181731","0.0-5.0-2.51","","460","","<div class='trialBorder'><div class='vertical-center'><img style='vertical-align:center; align:center' src=img/fixation3.jpg></div><div class='cl'><div class='vertical-center'>$65<br>with a<br>50% chance</div></div><div class='cr'><div class='vertical-center'>$46<br>for<br>sure</div></div><div class='respDivL'><div class='vertical-center'>(E)</div></div><div class='respDivR'><div class='vertical-center'>(I)</div></div></div>","I","$46","$65","1","46","65","SURE"
"","","","offerFB","5e55e83cc65ccb5ed547cb04","bdp_rd","Tue Mar 28 2023 21:40:27 GMT-0700 (Pacific Daylight Time)","194120","html-keyboard-response","160","181986","0.0-5.0-3.51","","null","","<div class='trialBorder'><div class='vertical-center'><img style='vertical-align:center; align:center' src=img/fixation3.jpg></div><div class='cl'><div class='vertical-center'>$65<br>with a<br>50% chance</div></div><div class='cr'><div class='vertical-center'><font style='color:orange'>$46<br>for<br>sure</font></div></div><div class='respDivL'><div class='vertical-center'>(E)</div></div><div class='respDivR'><div class='vertical-center'><font style='color:orange'>(I)</font></div></div></div>","null","$46","$65","1","46","65",""
"","","","FIX","5e55e83cc65ccb5ed547cb04","bdp_rd","Tue Mar 28 2023 21:40:27 GMT-0700 (Pacific Daylight Time)","194120","html-keyboard-response","161","182500","0.0-5.0-1.52","","null","","<div class='trialBorder'><div class='vertical-center'><img style='vertical-align:center; align:center' src=img/fixation3.jpg></div></div>","null","","","","","",""
"","","","offer","5e55e83cc65ccb5ed547cb04","bdp_rd","Tue Mar 28 2023 21:40:27 GMT-0700 (Pacific Daylight Time)","194120","html-keyboard-response","162","182950","0.0-5.0-2.52","","448","","<div class='trialBorder'><div class='vertical-center'><img style='vertical-align:center; align:center' src=img/fixation3.jpg></div><div class='cl'><div class='vertical-center'>$13<br>for<br>sure</div></div><div class='cr'><div class='vertical-center'>$41<br>with a<br>50% chance</div></div><div class='respDivL'><div class='vertical-center'>(E)</div></div><div class='respDivR'><div class='vertical-center'>(I)</div></div></div>","E","$13","$41","0","13","41","SURE"
"","","","offerFB","5e55e83cc65ccb5ed547cb04","bdp_rd","Tue Mar 28 2023 21:40:27 GMT-0700 (Pacific Daylight Time)","194120","html-keyboard-response","163","183203","0.0-5.0-3.52","","null","","<div class='trialBorder'><div class='vertical-center'><img style='vertical-align:center; align:center' src=img/fixation3.jpg></div><div class='cl'><div class='vertical-center'><font style='color:orange'>$13<br>for<br>sure</font></div></div><div class='cr'><div class='vertical-center'>$41<br>with a<br>50% chance</div></div><div class='respDivL'><div class='vertical-center'><font style='color:orange'>(E)</font></div></div><div class='respDivR'><div class='vertical-center'>(I)</div></div></div>","null","$13","$41","0","13","41",""
"","","","FIX","5e55e83cc65ccb5ed547cb04","bdp_rd","Tue Mar 28 2023 21:40:27 GMT-0700 (Pacific Daylight Time)","194120","html-keyboard-response","164","183716","0.0-5.0-1.53","","null","","<div class='trialBorder'><div class='vertical-center'><img style='vertical-align:center; align:center' src=img/fixation3.jpg></div></div>","null","","","","","",""
"","","","offer","5e55e83cc65ccb5ed547cb04","bdp_rd","Tue Mar 28 2023 21:40:27 GMT-0700 (Pacific Daylight Time)","194120","html-keyboard-response","165","184206","0.0-5.0-2.53","","490","","<div class='trialBorder'><div class='vertical-center'><img style='vertical-align:center; align:center' src=img/fixation3.jpg></div><div class='cl'><div class='vertical-center'>$28<br>with a<br>50% chance</div></div><div class='cr'><div class='vertical-center'>$16<br>for<br>sure</div></div><div class='respDivL'><div class='vertical-center'>(E)</div></div><div class='respDivR'><div class='vertical-center'>(I)</div></div></div>","I","$16","$28","1","16","28","SURE"
"","","","offerFB","5e55e83cc65ccb5ed547cb04","bdp_rd","Tue Mar 28 2023 21:40:27 GMT-0700 (Pacific Daylight Time)","194120","html-keyboard-response","166","184462","0.0-5.0-3.53","","null","","<div class='trialBorder'><div class='vertical-center'><img style='vertical-align:center; align:center' src=img/fixation3.jpg></div><div class='cl'><div class='vertical-center'>$28<br>with a<br>50% chance</div></div><div class='cr'><div class='vertical-center'><font style='color:orange'>$16<br>for<br>sure</font></div></div><div class='respDivL'><div class='vertical-center'>(E)</div></div><div class='respDivR'><div class='vertical-center'><font style='color:orange'>(I)</font></div></div></div>","null","$16","$28","1","16","28",""
"","","","FIX","5e55e83cc65ccb5ed547cb04","bdp_rd","Tue Mar 28 2023 21:40:27 GMT-0700 (Pacific Daylight Time)","194120","html-keyboard-response","167","184973","0.0-5.0-1.54","","null","","<div class='trialBorder'><div class='vertical-center'><img style='vertical-align:center; align:center' src=img/fixation3.jpg></div></div>","null","","","","","",""
"","","","offer","5e55e83cc65ccb5ed547cb04","bdp_rd","Tue Mar 28 2023 21:40:27 GMT-0700 (Pacific Daylight Time)","194120","html-keyboard-response","168","185323","0.0-5.0-2.54","","348","","<div class='trialBorder'><div class='vertical-center'><img style='vertical-align:center; align:center' src=img/fixation3.jpg></div><div class='cl'><div class='vertical-center'>$62<br>with a<br>50% chance</div></div><div class='cr'><div class='vertical-center'>$11<br>for<br>sure</div></div><div class='respDivL'><div class='vertical-center'>(E)</div></div><div class='respDivR'><div class='vertical-center'>(I)</div></div></div>","E","$11","$62","1","11","62","RISKY"
"","","","offerFB","5e55e83cc65ccb5ed547cb04","bdp_rd","Tue Mar 28 2023 21:40:27 GMT-0700 (Pacific Daylight Time)","194120","html-keyboard-response","169","185581","0.0-5.0-3.54","","null","","<div class='trialBorder'><div class='vertical-center'><img style='vertical-align:center; align:center' src=img/fixation3.jpg></div><div class='cl'><div class='vertical-center'><font style='color:orange'>$62<br>with a<br>50% chance</font></div></div><div class='cr'><div class='vertical-center'>$11<br>for<br>sure</div></div><div class='respDivL'><div class='vertical-center'><font style='color:orange'>(E)</font></div></div><div class='respDivR'><div class='vertical-center'>(I)</div></div></div>","null","$11","$62","1","11","62",""
"","","","FIX","5e55e83cc65ccb5ed547cb04","bdp_rd","Tue Mar 28 2023 21:40:27 GMT-0700 (Pacific Daylight Time)","194120","html-keyboard-response","170","186096","0.0-5.0-1.55","","null","","<div class='trialBorder'><div class='vertical-center'><img style='vertical-align:center; align:center' src=img/fixation3.jpg></div></div>","null","","","","","",""
"","","","offer","5e55e83cc65ccb5ed547cb04","bdp_rd","Tue Mar 28 2023 21:40:27 GMT-0700 (Pacific Daylight Time)","194120","html-keyboard-response","171","187600","0.0-5.0-2.55","","1503","","<div class='trialBorder'><div class='vertical-center'><img style='vertical-align:center; align:center' src=img/fixation3.jpg></div><div class='cl'><div class='vertical-center'>$42<br>with a<br>50% chance</div></div><div class='cr'><div class='vertical-center'>$22<br>for<br>sure</div></div><div class='respDivL'><div class='vertical-center'>(E)</div></div><div class='respDivR'><div class='vertical-center'>(I)</div></div></div>","I","$22","$42","1","22","42","SURE"
"","","","offerFB","5e55e83cc65ccb5ed547cb04","bdp_rd","Tue Mar 28 2023 21:40:27 GMT-0700 (Pacific Daylight Time)","194120","html-keyboard-response","172","187857","0.0-5.0-3.55","","null","","<div class='trialBorder'><div class='vertical-center'><img style='vertical-align:center; align:center' src=img/fixation3.jpg></div><div class='cl'><div class='vertical-center'>$42<br>with a<br>50% chance</div></div><div class='cr'><div class='vertical-center'><font style='color:orange'>$22<br>for<br>sure</font></div></div><div class='respDivL'><div class='vertical-center'>(E)</div></div><div class='respDivR'><div class='vertical-center'><font style='color:orange'>(I)</font></div></div></div>","null","$22","$42","1","22","42",""
"","","","FIX","5e55e83cc65ccb5ed547cb04","bdp_rd","Tue Mar 28 2023 21:40:27 GMT-0700 (Pacific Daylight Time)","194120","html-keyboard-response","173","188371","0.0-5.0-1.56","","null","","<div class='trialBorder'><div class='vertical-center'><img style='vertical-align:center; align:center' src=img/fixation3.jpg></div></div>","null","","","","","",""
"","","","offer","5e55e83cc65ccb5ed547cb04","bdp_rd","Tue Mar 28 2023 21:40:27 GMT-0700 (Pacific Daylight Time)","194120","html-keyboard-response","174","189019","0.0-5.0-2.56","","648","","<div class='trialBorder'><div class='vertical-center'><img style='vertical-align:center; align:center' src=img/fixation3.jpg></div><div class='cl'><div class='vertical-center'>$17<br>for<br>sure</div></div><div class='cr'><div class='vertical-center'>$43<br>with a<br>50% chance</div></div><div class='respDivL'><div class='vertical-center'>(E)</div></div><div class='respDivR'><div class='vertical-center'>(I)</div></div></div>","E","$17","$43","0","17","43","SURE"
