"trial_type","trial_index","time_elapsed","internal_node_id","subject_id","task","startTime","totalTime","view_history","rt","event","trial","time","trialtype","success","stimulus","key_press","sureOffer","riskyOffer","riskyLeft","sureAmt","riskyAmt","chosen"
"pavlovia","0","2","0.0-0.0","63ea6fc5092518554c9b8111","bdp_rd","Sat Mar 25 2023 17:22:13 GMT-0700 (Pacific Daylight Time)","260524","","","","","","","","","","","","","","",""
"instructions","1","3665","0.0-1.0","63ea6fc5092518554c9b8111","bdp_rd","Sat Mar 25 2023 17:22:13 GMT-0700 (Pacific Daylight Time)","260524","[{""page_index"":0,""viewing_time"":3661}]","3661","","","","","","","","","","","","",""
"","","","","63ea6fc5092518554c9b8111","bdp_rd","Sat Mar 25 2023 17:22:13 GMT-0700 (Pacific Daylight Time)","260524","","","fullscreenenter","2","6094","fullscreenenter","","","","","","","","",""
"fullscreen","2","7100","0.0-2.0","63ea6fc5092518554c9b8111","bdp_rd","Sat Mar 25 2023 17:22:13 GMT-0700 (Pacific Daylight Time)","260524","","","","","","","true","","","","","","","",""
"instructions","3","55024","0.0-4.0","63ea6fc5092518554c9b8111","bdp_rd","Sat Mar 25 2023 17:22:13 GMT-0700 (Pacific Daylight Time)","260524","[{""page_index"":0,""viewing_time"":25767},{""page_index"":1,""viewing_time"":13965},{""page_index"":2,""viewing_time"":8191}]","47923","","","","","","","","","","","","",""
"html-keyboard-response","4","55533","0.0-5.0-1.0","63ea6fc5092518554c9b8111","bdp_rd","Sat Mar 25 2023 17:22:13 GMT-0700 (Pacific Daylight Time)","260524","","null","","","","FIX","","<div class='trialBorder'><div class='vertical-center'><img style='vertical-align:center; align:center' src=img/fixation3.jpg></div></div>","null","","","","","",""
"html-keyboard-response","5","66795","0.0-5.0-2.0","63ea6fc5092518554c9b8111","bdp_rd","Sat Mar 25 2023 17:22:13 GMT-0700 (Pacific Daylight Time)","260524","","11261","","","","offer","","<div class='trialBorder'><div class='vertical-center'><img style='vertical-align:center; align:center' src=img/fixation3.jpg></div><div class='cl'><div class='vertical-center'>$16<br>for<br>sure</div></div><div class='cr'><div class='vertical-center'>$38<br>with a<br>50% chance</div></div><div class='respDivL'><div class='vertical-center'>(E)</div></div><div class='respDivR'><div class='vertical-center'>(I)</div></div></div>","E","$16","$38","0","16","38","SURE"
"html-keyboard-response","6","67052","0.0-5.0-3.0","63ea6fc5092518554c9b8111","bdp_rd","Sat Mar 25 2023 17:22:13 GMT-0700 (Pacific Daylight Time)","260524","","null","","","","offerFB","","<div class='trialBorder'><div class='vertical-center'><img style='vertical-align:center; align:center' src=img/fixation3.jpg></div><div class='cl'><div class='vertical-center'><font style='color:orange'>$16<br>for<br>sure</font></div></div><div class='cr'><div class='vertical-center'>$38<br>with a<br>50% chance</div></div><div class='respDivL'><div class='vertical-center'><font style='color:orange'>(E)</font></div></div><div class='respDivR'><div class='vertical-center'>(I)</div></div></div>","null","$16","$38","0","16","38",""
"html-keyboard-response","7","67563","0.0-5.0-1.1","63ea6fc5092518554c9b8111","bdp_rd","Sat Mar 25 2023 17:22:13 GMT-0700 (Pacific Daylight Time)","260524","","null","","","","FIX","","<div class='trialBorder'><div class='vertical-center'><img style='vertical-align:center; align:center' src=img/fixation3.jpg></div></div>","null","","","","","",""
"html-keyboard-response","8","72753","0.0-5.0-2.1","63ea6fc5092518554c9b8111","bdp_rd","Sat Mar 25 2023 17:22:13 GMT-0700 (Pacific Daylight Time)","260524","","5189","","","","offer","","<div class='trialBorder'><div class='vertical-center'><img style='vertical-align:center; align:center' src=img/fixation3.jpg></div><div class='cl'><div class='vertical-center'>$9<br>for<br>sure</div></div><div class='cr'><div class='vertical-center'>$18<br>with a<br>50% chance</div></div><div class='respDivL'><div class='vertical-center'>(E)</div></div><div class='respDivR'><div class='vertical-center'>(I)</div></div></div>","E","$9","$18","0","9","18","SURE"
"html-keyboard-response","9","73010","0.0-5.0-3.1","63ea6fc5092518554c9b8111","bdp_rd","Sat Mar 25 2023 17:22:13 GMT-0700 (Pacific Daylight Time)","260524","","null","","","","offerFB","","<div class='trialBorder'><div class='vertical-center'><img style='vertical-align:center; align:center' src=img/fixation3.jpg></div><div class='cl'><div class='vertical-center'><font style='color:orange'>$9<br>for<br>sure</font></div></div><div class='cr'><div class='vertical-center'>$18<br>with a<br>50% chance</div></div><div class='respDivL'><div class='vertical-center'><font style='color:orange'>(E)</font></div></div><div class='respDivR'><div class='vertical-center'>(I)</div></div></div>","null","$9","$18","0","9","18",""
"html-keyboard-response","10","73516","0.0-5.0-1.2","63ea6fc5092518554c9b8111","bdp_rd","Sat Mar 25 2023 17:22:13 GMT-0700 (Pacific Daylight Time)","260524","","null","","","","FIX","","<div class='trialBorder'><div class='vertical-center'><img style='vertical-align:center; align:center' src=img/fixation3.jpg></div></div>","null","","","","","",""
"html-keyboard-response","11","77950","0.0-5.0-2.2","63ea6fc5092518554c9b8111","bdp_rd","Sat Mar 25 2023 17:22:13 GMT-0700 (Pacific Daylight Time)","260524","","4432","","","","offer","","<div class='trialBorder'><div class='vertical-center'><img style='vertical-align:center; align:center' src=img/fixation3.jpg></div><div class='cl'><div class='vertical-center'>$20<br>for<br>sure</div></div><div class='cr'><div class='vertical-center'>$37<br>with a<br>50% chance</div></div><div class='respDivL'><div class='vertical-center'>(E)</div></div><div class='respDivR'><div class='vertical-center'>(I)</div></div></div>","E","$20","$37","0","20","37","SURE"
"html-keyboard-response","12","78209","0.0-5.0-3.2","63ea6fc5092518554c9b8111","bdp_rd","Sat Mar 25 2023 17:22:13 GMT-0700 (Pacific Daylight Time)","260524","","null","","","","offerFB","","<div class='trialBorder'><div class='vertical-center'><img style='vertical-align:center; align:center' src=img/fixation3.jpg></div><div class='cl'><div class='vertical-center'><font style='color:orange'>$20<br>for<br>sure</font></div></div><div class='cr'><div class='vertical-center'>$37<br>with a<br>50% chance</div></div><div class='respDivL'><div class='vertical-center'><font style='color:orange'>(E)</font></div></div><div class='respDivR'><div class='vertical-center'>(I)</div></div></div>","null","$20","$37","0","20","37",""
"html-keyboard-response","13","78716","0.0-5.0-1.3","63ea6fc5092518554c9b8111","bdp_rd","Sat Mar 25 2023 17:22:13 GMT-0700 (Pacific Daylight Time)","260524","","null","","","","FIX","","<div class='trialBorder'><div class='vertical-center'><img style='vertical-align:center; align:center' src=img/fixation3.jpg></div></div>","null","","","","","",""
"html-keyboard-response","14","81083","0.0-5.0-2.3","63ea6fc5092518554c9b8111","bdp_rd","Sat Mar 25 2023 17:22:13 GMT-0700 (Pacific Daylight Time)","260524","","2365","","","","offer","","<div class='trialBorder'><div class='vertical-center'><img style='vertical-align:center; align:center' src=img/fixation3.jpg></div><div class='cl'><div class='vertical-center'>$9<br>for<br>sure</div></div><div class='cr'><div class='vertical-center'>$32<br>with a<br>50% chance</div></div><div class='respDivL'><div class='vertical-center'>(E)</div></div><div class='respDivR'><div class='vertical-center'>(I)</div></div></div>","I","$9","$32","0","9","32","RISKY"
"html-keyboard-response","15","81340","0.0-5.0-3.3","63ea6fc5092518554c9b8111","bdp_rd","Sat Mar 25 2023 17:22:13 GMT-0700 (Pacific Daylight Time)","260524","","null","","","","offerFB","","<div class='trialBorder'><div class='vertical-center'><img style='vertical-align:center; align:center' src=img/fixation3.jpg></div><div class='cl'><div class='vertical-center'>$9<br>for<br>sure</div></div><div class='cr'><div class='vertical-center'><font style='color:orange'>$32<br>with a<br>50% chance</font></div></div><div class='respDivL'><div class='vertical-center'>(E)</div></div><div class='respDivR'><div class='vertical-center'><font style='color:orange'>(I)</font></div></div></div>","null","$9","$32","0","9","32",""
"html-keyboard-response","16","81852","0.0-5.0-1.4","63ea6fc5092518554c9b8111","bdp_rd","Sat Mar 25 2023 17:22:13 GMT-0700 (Pacific Daylight Time)","260524","","null","","","","FIX","","<div class='trialBorder'><div class='vertical-center'><img style='vertical-align:center; align:center' src=img/fixation3.jpg></div></div>","null","","","","","",""
"html-keyboard-response","17","84722","0.0-5.0-2.4","63ea6fc5092518554c9b8111","bdp_rd","Sat Mar 25 2023 17:22:13 GMT-0700 (Pacific Daylight Time)","260524","","2869","","","","offer","","<div class='trialBorder'><div class='vertical-center'><img style='vertical-align:center; align:center' src=img/fixation3.jpg></div><div class='cl'><div class='vertical-center'>$20<br>for<br>sure</div></div><div class='cr'><div class='vertical-center'>$80<br>with a<br>50% chance</div></div><div class='respDivL'><div class='vertical-center'>(E)</div></div><div class='respDivR'><div class='vertical-center'>(I)</div></div></div>","I","$20","$80","0","20","80","RISKY"
"html-keyboard-response","18","84978","0.0-5.0-3.4","63ea6fc5092518554c9b8111","bdp_rd","Sat Mar 25 2023 17:22:13 GMT-0700 (Pacific Daylight Time)","260524","","null","","","","offerFB","","<div class='trialBorder'><div class='vertical-center'><img style='vertical-align:center; align:center' src=img/fixation3.jpg></div><div class='cl'><div class='vertical-center'>$20<br>for<br>sure</div></div><div class='cr'><div class='vertical-center'><font style='color:orange'>$80<br>with a<br>50% chance</font></div></div><div class='respDivL'><div class='vertical-center'>(E)</div></div><div class='respDivR'><div class='vertical-center'><font style='color:orange'>(I)</font></div></div></div>","null","$20","$80","0","20","80",""
"html-keyboard-response","19","85484","0.0-5.0-1.5","63ea6fc5092518554c9b8111","bdp_rd","Sat Mar 25 2023 17:22:13 GMT-0700 (Pacific Daylight Time)","260524","","null","","","","FIX","","<div class='trialBorder'><div class='vertical-center'><img style='vertical-align:center; align:center' src=img/fixation3.jpg></div></div>","null","","","","","",""
"html-keyboard-response","20","87680","0.0-5.0-2.5","63ea6fc5092518554c9b8111","bdp_rd","Sat Mar 25 2023 17:22:13 GMT-0700 (Pacific Daylight Time)","260524","","2194","","","","offer","","<div class='trialBorder'><div class='vertical-center'><img style='vertical-align:center; align:center' src=img/fixation3.jpg></div><div class='cl'><div class='vertical-center'>$7<br>for<br>sure</div></div><div class='cr'><div class='vertical-center'>$71<br>with a<br>50% chance</div></div><div class='respDivL'><div class='vertical-center'>(E)</div></div><div class='respDivR'><div class='vertical-center'>(I)</div></div></div>","I","$7","$71","0","7","71","RISKY"
"html-keyboard-response","21","87937","0.0-5.0-3.5","63ea6fc5092518554c9b8111","bdp_rd","Sat Mar 25 2023 17:22:13 GMT-0700 (Pacific Daylight Time)","260524","","null","","","","offerFB","","<div class='trialBorder'><div class='vertical-center'><img style='vertical-align:center; align:center' src=img/fixation3.jpg></div><div class='cl'><div class='vertical-center'>$7<br>for<br>sure</div></div><div class='cr'><div class='vertical-center'><font style='color:orange'>$71<br>with a<br>50% chance</font></div></div><div class='respDivL'><div class='vertical-center'>(E)</div></div><div class='respDivR'><div class='vertical-center'><font style='color:orange'>(I)</font></div></div></div>","null","$7","$71","0","7","71",""
"html-keyboard-response","22","88444","0.0-5.0-1.6","63ea6fc5092518554c9b8111","bdp_rd","Sat Mar 25 2023 17:22:13 GMT-0700 (Pacific Daylight Time)","260524","","null","","","","FIX","","<div class='trialBorder'><div class='vertical-center'><img style='vertical-align:center; align:center' src=img/fixation3.jpg></div></div>","null","","","","","",""
"html-keyboard-response","23","89866","0.0-5.0-2.6","63ea6fc5092518554c9b8111","bdp_rd","Sat Mar 25 2023 17:22:13 GMT-0700 (Pacific Daylight Time)","260524","","1421","","","","offer","","<div class='trialBorder'><div class='vertical-center'><img style='vertical-align:center; align:center' src=img/fixation3.jpg></div><div class='cl'><div class='vertical-center'>$27<br>with a<br>50% chance</div></div><div class='cr'><div class='vertical-center'>$12<br>for<br>sure</div></div><div class='respDivL'><div class='vertical-center'>(E)</div></div><div class='respDivR'><div class='vertical-center'>(I)</div></div></div>","E","$12","$27","1","12","27","RISKY"
"html-keyboard-response","24","90124","0.0-5.0-3.6","63ea6fc5092518554c9b8111","bdp_rd","Sat Mar 25 2023 17:22:13 GMT-0700 (Pacific Daylight Time)","260524","","null","","","","offerFB","","<div class='trialBorder'><div class='vertical-center'><img style='vertical-align:center; align:center' src=img/fixation3.jpg></div><div class='cl'><div class='vertical-center'><font style='color:orange'>$27<br>with a<br>50% chance</font></div></div><div class='cr'><div class='vertical-center'>$12<br>for<br>sure</div></div><div class='respDivL'><div class='vertical-center'><font style='color:orange'>(E)</font></div></div><div class='respDivR'><div class='vertical-center'>(I)</div></div></div>","null","$12","$27","1","12","27",""
"html-keyboard-response","25","90636","0.0-5.0-1.7","63ea6fc5092518554c9b8111","bdp_rd","Sat Mar 25 2023 17:22:13 GMT-0700 (Pacific Daylight Time)","260524","","null","","","","FIX","","<div class='trialBorder'><div class='vertical-center'><img style='vertical-align:center; align:center' src=img/fixation3.jpg></div></div>","null","","","","","",""
"html-keyboard-response","26","93986","0.0-5.0-2.7","63ea6fc5092518554c9b8111","bdp_rd","Sat Mar 25 2023 17:22:13 GMT-0700 (Pacific Daylight Time)","260524","","3348","","","","offer","","<div class='trialBorder'><div class='vertical-center'><img style='vertical-align:center; align:center' src=img/fixation3.jpg></div><div class='cl'><div class='vertical-center'>$14<br>for<br>sure</div></div><div class='cr'><div class='vertical-center'>$29<br>with a<br>50% chance</div></div><div class='respDivL'><div class='vertical-center'>(E)</div></div><div class='respDivR'><div class='vertical-center'>(I)</div></div></div>","E","$14","$29","0","14","29","SURE"
"html-keyboard-response","27","94241","0.0-5.0-3.7","63ea6fc5092518554c9b8111","bdp_rd","Sat Mar 25 2023 17:22:13 GMT-0700 (Pacific Daylight Time)","260524","","null","","","","offerFB","","<div class='trialBorder'><div class='vertical-center'><img style='vertical-align:center; align:center' src=img/fixation3.jpg></div><div class='cl'><div class='vertical-center'><font style='color:orange'>$14<br>for<br>sure</font></div></div><div class='cr'><div class='vertical-center'>$29<br>with a<br>50% chance</div></div><div class='respDivL'><div class='vertical-center'><font style='color:orange'>(E)</font></div></div><div class='respDivR'><div class='vertical-center'>(I)</div></div></div>","null","$14","$29","0","14","29",""
"html-keyboard-response","28","94748","0.0-5.0-1.8","63ea6fc5092518554c9b8111","bdp_rd","Sat Mar 25 2023 17:22:13 GMT-0700 (Pacific Daylight Time)","260524","","null","","","","FIX","","<div class='trialBorder'><div class='vertical-center'><img style='vertical-align:center; align:center' src=img/fixation3.jpg></div></div>","null","","","","","",""
"html-keyboard-response","29","97476","0.0-5.0-2.8","63ea6fc5092518554c9b8111","bdp_rd","Sat Mar 25 2023 17:22:13 GMT-0700 (Pacific Daylight Time)","260524","","2727","","","","offer","","<div class='trialBorder'><div class='vertical-center'><img style='vertical-align:center; align:center' src=img/fixation3.jpg></div><div class='cl'><div class='vertical-center'>$17<br>with a<br>50% chance</div></div><div class='cr'><div class='vertical-center'>$3<br>for<br>sure</div></div><div class='respDivL'><div class='vertical-center'>(E)</div></div><div class='respDivR'><div class='vertical-center'>(I)</div></div></div>","E","$3","$17","1","3","17","RISKY"
"html-keyboard-response","30","97729","0.0-5.0-3.8","63ea6fc5092518554c9b8111","bdp_rd","Sat Mar 25 2023 17:22:13 GMT-0700 (Pacific Daylight Time)","260524","","null","","","","offerFB","","<div class='trialBorder'><div class='vertical-center'><img style='vertical-align:center; align:center' src=img/fixation3.jpg></div><div class='cl'><div class='vertical-center'><font style='color:orange'>$17<br>with a<br>50% chance</font></div></div><div class='cr'><div class='vertical-center'>$3<br>for<br>sure</div></div><div class='respDivL'><div class='vertical-center'><font style='color:orange'>(E)</font></div></div><div class='respDivR'><div class='vertical-center'>(I)</div></div></div>","null","$3","$17","1","3","17",""
"html-keyboard-response","31","98236","0.0-5.0-1.9","63ea6fc5092518554c9b8111","bdp_rd","Sat Mar 25 2023 17:22:13 GMT-0700 (Pacific Daylight Time)","260524","","null","","","","FIX","","<div class='trialBorder'><div class='vertical-center'><img style='vertical-align:center; align:center' src=img/fixation3.jpg></div></div>","null","","","","","",""
"html-keyboard-response","32","100941","0.0-5.0-2.9","63ea6fc5092518554c9b8111","bdp_rd","Sat Mar 25 2023 17:22:13 GMT-0700 (Pacific Daylight Time)","260524","","2704","","","","offer","","<div class='trialBorder'><div class='vertical-center'><img style='vertical-align:center; align:center' src=img/fixation3.jpg></div><div class='cl'><div class='vertical-center'>$59<br>with a<br>50% chance</div></div><div class='cr'><div class='vertical-center'>$22<br>for<br>sure</div></div><div class='respDivL'><div class='vertical-center'>(E)</div></div><div class='respDivR'><div class='vertical-center'>(I)</div></div></div>","E","$22","$59","1","22","59","RISKY"
"html-keyboard-response","33","101196","0.0-5.0-3.9","63ea6fc5092518554c9b8111","bdp_rd","Sat Mar 25 2023 17:22:13 GMT-0700 (Pacific Daylight Time)","260524","","null","","","","offerFB","","<div class='trialBorder'><div class='vertical-center'><img style='vertical-align:center; align:center' src=img/fixation3.jpg></div><div class='cl'><div class='vertical-center'><font style='color:orange'>$59<br>with a<br>50% chance</font></div></div><div class='cr'><div class='vertical-center'>$22<br>for<br>sure</div></div><div class='respDivL'><div class='vertical-center'><font style='color:orange'>(E)</font></div></div><div class='respDivR'><div class='vertical-center'>(I)</div></div></div>","null","$22","$59","1","22","59",""
"html-keyboard-response","34","101708","0.0-5.0-1.10","63ea6fc5092518554c9b8111","bdp_rd","Sat Mar 25 2023 17:22:13 GMT-0700 (Pacific Daylight Time)","260524","","null","","","","FIX","","<div class='trialBorder'><div class='vertical-center'><img style='vertical-align:center; align:center' src=img/fixation3.jpg></div></div>","null","","","","","",""
"html-keyboard-response","35","104209","0.0-5.0-2.10","63ea6fc5092518554c9b8111","bdp_rd","Sat Mar 25 2023 17:22:13 GMT-0700 (Pacific Daylight Time)","260524","","2500","","","","offer","","<div class='trialBorder'><div class='vertical-center'><img style='vertical-align:center; align:center' src=img/fixation3.jpg></div><div class='cl'><div class='vertical-center'>$16<br>with a<br>50% chance</div></div><div class='cr'><div class='vertical-center'>$5<br>for<br>sure</div></div><div class='respDivL'><div class='vertical-center'>(E)</div></div><div class='respDivR'><div class='vertical-center'>(I)</div></div></div>","E","$5","$16","1","5","16","RISKY"
"html-keyboard-response","36","104465","0.0-5.0-3.10","63ea6fc5092518554c9b8111","bdp_rd","Sat Mar 25 2023 17:22:13 GMT-0700 (Pacific Daylight Time)","260524","","null","","","","offerFB","","<div class='trialBorder'><div class='vertical-center'><img style='vertical-align:center; align:center' src=img/fixation3.jpg></div><div class='cl'><div class='vertical-center'><font style='color:orange'>$16<br>with a<br>50% chance</font></div></div><div class='cr'><div class='vertical-center'>$5<br>for<br>sure</div></div><div class='respDivL'><div class='vertical-center'><font style='color:orange'>(E)</font></div></div><div class='respDivR'><div class='vertical-center'>(I)</div></div></div>","null","$5","$16","1","5","16",""
"html-keyboard-response","37","104972","0.0-5.0-1.11","63ea6fc5092518554c9b8111","bdp_rd","Sat Mar 25 2023 17:22:13 GMT-0700 (Pacific Daylight Time)","260524","","null","","","","FIX","","<div class='trialBorder'><div class='vertical-center'><img style='vertical-align:center; align:center' src=img/fixation3.jpg></div></div>","null","","","","","",""
"html-keyboard-response","38","109933","0.0-5.0-2.11","63ea6fc5092518554c9b8111","bdp_rd","Sat Mar 25 2023 17:22:13 GMT-0700 (Pacific Daylight Time)","260524","","4960","","","","offer","","<div class='trialBorder'><div class='vertical-center'><img style='vertical-align:center; align:center' src=img/fixation3.jpg></div><div class='cl'><div class='vertical-center'>$28<br>with a<br>50% chance</div></div><div class='cr'><div class='vertical-center'>$16<br>for<br>sure</div></div><div class='respDivL'><div class='vertical-center'>(E)</div></div><div class='respDivR'><div class='vertical-center'>(I)</div></div></div>","I","$16","$28","1","16","28","SURE"
"html-keyboard-response","39","110193","0.0-5.0-3.11","63ea6fc5092518554c9b8111","bdp_rd","Sat Mar 25 2023 17:22:13 GMT-0700 (Pacific Daylight Time)","260524","","null","","","","offerFB","","<div class='trialBorder'><div class='vertical-center'><img style='vertical-align:center; align:center' src=img/fixation3.jpg></div><div class='cl'><div class='vertical-center'>$28<br>with a<br>50% chance</div></div><div class='cr'><div class='vertical-center'><font style='color:orange'>$16<br>for<br>sure</font></div></div><div class='respDivL'><div class='vertical-center'>(E)</div></div><div class='respDivR'><div class='vertical-center'><font style='color:orange'>(I)</font></div></div></div>","null","$16","$28","1","16","28",""
"html-keyboard-response","40","110700","0.0-5.0-1.12","63ea6fc5092518554c9b8111","bdp_rd","Sat Mar 25 2023 17:22:13 GMT-0700 (Pacific Daylight Time)","260524","","null","","","","FIX","","<div class='trialBorder'><div class='vertical-center'><img style='vertical-align:center; align:center' src=img/fixation3.jpg></div></div>","null","","","","","",""
"html-keyboard-response","41","112572","0.0-5.0-2.12","63ea6fc5092518554c9b8111","bdp_rd","Sat Mar 25 2023 17:22:13 GMT-0700 (Pacific Daylight Time)","260524","","1871","","","","offer","","<div class='trialBorder'><div class='vertical-center'><img style='vertical-align:center; align:center' src=img/fixation3.jpg></div><div class='cl'><div class='vertical-center'>$64<br>with a<br>50% chance</div></div><div class='cr'><div class='vertical-center'>$2<br>for<br>sure</div></div><div class='respDivL'><div class='vertical-center'>(E)</div></div><div class='respDivR'><div class='vertical-center'>(I)</div></div></div>","E","$2","$64","1","2","64","RISKY"
"html-keyboard-response","42","112828","0.0-5.0-3.12","63ea6fc5092518554c9b8111","bdp_rd","Sat Mar 25 2023 17:22:13 GMT-0700 (Pacific Daylight Time)","260524","","null","","","","offerFB","","<div class='trialBorder'><div class='vertical-center'><img style='vertical-align:center; align:center' src=img/fixation3.jpg></div><div class='cl'><div class='vertical-center'><font style='color:orange'>$64<br>with a<br>50% chance</font></div></div><div class='cr'><div class='vertical-center'>$2<br>for<br>sure</div></div><div class='respDivL'><div class='vertical-center'><font style='color:orange'>(E)</font></div></div><div class='respDivR'><div class='vertical-center'>(I)</div></div></div>","null","$2","$64","1","2","64",""
"html-keyboard-response","43","113340","0.0-5.0-1.13","63ea6fc5092518554c9b8111","bdp_rd","Sat Mar 25 2023 17:22:13 GMT-0700 (Pacific Daylight Time)","260524","","null","","","","FIX","","<div class='trialBorder'><div class='vertical-center'><img style='vertical-align:center; align:center' src=img/fixation3.jpg></div></div>","null","","","","","",""
"html-keyboard-response","44","114792","0.0-5.0-2.13","63ea6fc5092518554c9b8111","bdp_rd","Sat Mar 25 2023 17:22:13 GMT-0700 (Pacific Daylight Time)","260524","","1451","","","","offer","","<div class='trialBorder'><div class='vertical-center'><img style='vertical-align:center; align:center' src=img/fixation3.jpg></div><div class='cl'><div class='vertical-center'>$5<br>for<br>sure</div></div><div class='cr'><div class='vertical-center'>$50<br>with a<br>50% chance</div></div><div class='respDivL'><div class='vertical-center'>(E)</div></div><div class='respDivR'><div class='vertical-center'>(I)</div></div></div>","I","$5","$50","0","5","50","RISKY"
"html-keyboard-response","45","115052","0.0-5.0-3.13","63ea6fc5092518554c9b8111","bdp_rd","Sat Mar 25 2023 17:22:13 GMT-0700 (Pacific Daylight Time)","260524","","null","","","","offerFB","","<div class='trialBorder'><div class='vertical-center'><img style='vertical-align:center; align:center' src=img/fixation3.jpg></div><div class='cl'><div class='vertical-center'>$5<br>for<br>sure</div></div><div class='cr'><div class='vertical-center'><font style='color:orange'>$50<br>with a<br>50% chance</font></div></div><div class='respDivL'><div class='vertical-center'>(E)</div></div><div class='respDivR'><div class='vertical-center'><font style='color:orange'>(I)</font></div></div></div>","null","$5","$50","0","5","50",""
"html-keyboard-response","46","115564","0.0-5.0-1.14","63ea6fc5092518554c9b8111","bdp_rd","Sat Mar 25 2023 17:22:13 GMT-0700 (Pacific Daylight Time)","260524","","null","","","","FIX","","<div class='trialBorder'><div class='vertical-center'><img style='vertical-align:center; align:center' src=img/fixation3.jpg></div></div>","null","","","","","",""
"html-keyboard-response","47","117253","0.0-5.0-2.14","63ea6fc5092518554c9b8111","bdp_rd","Sat Mar 25 2023 17:22:13 GMT-0700 (Pacific Daylight Time)","260524","","1687","","","","offer","","<div class='trialBorder'><div class='vertical-center'><img style='vertical-align:center; align:center' src=img/fixation3.jpg></div><div class='cl'><div class='vertical-center'>$43<br>with a<br>50% chance</div></div><div class='cr'><div class='vertical-center'>$17<br>for<br>sure</div></div><div class='respDivL'><div class='vertical-center'>(E)</div></div><div class='respDivR'><div class='vertical-center'>(I)</div></div></div>","E","$17","$43","1","17","43","RISKY"
"html-keyboard-response","48","117505","0.0-5.0-3.14","63ea6fc5092518554c9b8111","bdp_rd","Sat Mar 25 2023 17:22:13 GMT-0700 (Pacific Daylight Time)","260524","","null","","","","offerFB","","<div class='trialBorder'><div class='vertical-center'><img style='vertical-align:center; align:center' src=img/fixation3.jpg></div><div class='cl'><div class='vertical-center'><font style='color:orange'>$43<br>with a<br>50% chance</font></div></div><div class='cr'><div class='vertical-center'>$17<br>for<br>sure</div></div><div class='respDivL'><div class='vertical-center'><font style='color:orange'>(E)</font></div></div><div class='respDivR'><div class='vertical-center'>(I)</div></div></div>","null","$17","$43","1","17","43",""
"html-keyboard-response","49","118012","0.0-5.0-1.15","63ea6fc5092518554c9b8111","bdp_rd","Sat Mar 25 2023 17:22:13 GMT-0700 (Pacific Daylight Time)","260524","","null","","","","FIX","","<div class='trialBorder'><div class='vertical-center'><img style='vertical-align:center; align:center' src=img/fixation3.jpg></div></div>","null","","","","","",""
"html-keyboard-response","50","119673","0.0-5.0-2.15","63ea6fc5092518554c9b8111","bdp_rd","Sat Mar 25 2023 17:22:13 GMT-0700 (Pacific Daylight Time)","260524","","1660","","","","offer","","<div class='trialBorder'><div class='vertical-center'><img style='vertical-align:center; align:center' src=img/fixation3.jpg></div><div class='cl'><div class='vertical-center'>$30<br>with a<br>50% chance</div></div><div class='cr'><div class='vertical-center'>$1<br>for<br>sure</div></div><div class='respDivL'><div class='vertical-center'>(E)</div></div><div class='respDivR'><div class='vertical-center'>(I)</div></div></div>","E","$1","$30","1","1","30","RISKY"
"html-keyboard-response","51","119931","0.0-5.0-3.15","63ea6fc5092518554c9b8111","bdp_rd","Sat Mar 25 2023 17:22:13 GMT-0700 (Pacific Daylight Time)","260524","","null","","","","offerFB","","<div class='trialBorder'><div class='vertical-center'><img style='vertical-align:center; align:center' src=img/fixation3.jpg></div><div class='cl'><div class='vertical-center'><font style='color:orange'>$30<br>with a<br>50% chance</font></div></div><div class='cr'><div class='vertical-center'>$1<br>for<br>sure</div></div><div class='respDivL'><div class='vertical-center'><font style='color:orange'>(E)</font></div></div><div class='respDivR'><div class='vertical-center'>(I)</div></div></div>","null","$1","$30","1","1","30",""
"html-keyboard-response","52","120444","0.0-5.0-1.16","63ea6fc5092518554c9b8111","bdp_rd","Sat Mar 25 2023 17:22:13 GMT-0700 (Pacific Daylight Time)","260524","","null","","","","FIX","","<div class='trialBorder'><div class='vertical-center'><img style='vertical-align:center; align:center' src=img/fixation3.jpg></div></div>","null","","","","","",""
"html-keyboard-response","53","122325","0.0-5.0-2.16","63ea6fc5092518554c9b8111","bdp_rd","Sat Mar 25 2023 17:22:13 GMT-0700 (Pacific Daylight Time)","260524","","1880","","","","offer","","<div class='trialBorder'><div class='vertical-center'><img style='vertical-align:center; align:center' src=img/fixation3.jpg></div><div class='cl'><div class='vertical-center'>$41<br>with a<br>50% chance</div></div><div class='cr'><div class='vertical-center'>$13<br>for<br>sure</div></div><div class='respDivL'><div class='vertical-center'>(E)</div></div><div class='respDivR'><div class='vertical-center'>(I)</div></div></div>","E","$13","$41","1","13","41","RISKY"
"html-keyboard-response","54","122588","0.0-5.0-3.16","63ea6fc5092518554c9b8111","bdp_rd","Sat Mar 25 2023 17:22:13 GMT-0700 (Pacific Daylight Time)","260524","","null","","","","offerFB","","<div class='trialBorder'><div class='vertical-center'><img style='vertical-align:center; align:center' src=img/fixation3.jpg></div><div class='cl'><div class='vertical-center'><font style='color:orange'>$41<br>with a<br>50% chance</font></div></div><div class='cr'><div class='vertical-center'>$13<br>for<br>sure</div></div><div class='respDivL'><div class='vertical-center'><font style='color:orange'>(E)</font></div></div><div class='respDivR'><div class='vertical-center'>(I)</div></div></div>","null","$13","$41","1","13","41",""
"html-keyboard-response","55","123100","0.0-5.0-1.17","63ea6fc5092518554c9b8111","bdp_rd","Sat Mar 25 2023 17:22:13 GMT-0700 (Pacific Daylight Time)","260524","","null","","","","FIX","","<div class='trialBorder'><div class='vertical-center'><img style='vertical-align:center; align:center' src=img/fixation3.jpg></div></div>","null","","","","","",""
"html-keyboard-response","56","124457","0.0-5.0-2.17","63ea6fc5092518554c9b8111","bdp_rd","Sat Mar 25 2023 17:22:13 GMT-0700 (Pacific Daylight Time)","260524","","1355","","","","offer","","<div class='trialBorder'><div class='vertical-center'><img style='vertical-align:center; align:center' src=img/fixation3.jpg></div><div class='cl'><div class='vertical-center'>$89<br>with a<br>50% chance</div></div><div class='cr'><div class='vertical-center'>$28<br>for<br>sure</div></div><div class='respDivL'><div class='vertical-center'>(E)</div></div><div class='respDivR'><div class='vertical-center'>(I)</div></div></div>","I","$28","$89","1","28","89","SURE"
"html-keyboard-response","57","124716","0.0-5.0-3.17","63ea6fc5092518554c9b8111","bdp_rd","Sat Mar 25 2023 17:22:13 GMT-0700 (Pacific Daylight Time)","260524","","null","","","","offerFB","","<div class='trialBorder'><div class='vertical-center'><img style='vertical-align:center; align:center' src=img/fixation3.jpg></div><div class='cl'><div class='vertical-center'>$89<br>with a<br>50% chance</div></div><div class='cr'><div class='vertical-center'><font style='color:orange'>$28<br>for<br>sure</font></div></div><div class='respDivL'><div class='vertical-center'>(E)</div></div><div class='respDivR'><div class='vertical-center'><font style='color:orange'>(I)</font></div></div></div>","null","$28","$89","1","28","89",""
"html-keyboard-response","58","125228","0.0-5.0-1.18","63ea6fc5092518554c9b8111","bdp_rd","Sat Mar 25 2023 17:22:13 GMT-0700 (Pacific Daylight Time)","260524","","null","","","","FIX","","<div class='trialBorder'><div class='vertical-center'><img style='vertical-align:center; align:center' src=img/fixation3.jpg></div></div>","null","","","","","",""
"html-keyboard-response","59","127259","0.0-5.0-2.18","63ea6fc5092518554c9b8111","bdp_rd","Sat Mar 25 2023 17:22:13 GMT-0700 (Pacific Daylight Time)","260524","","2030","","","","offer","","<div class='trialBorder'><div class='vertical-center'><img style='vertical-align:center; align:center' src=img/fixation3.jpg></div><div class='cl'><div class='vertical-center'>$8<br>for<br>sure</div></div><div class='cr'><div class='vertical-center'>$23<br>with a<br>50% chance</div></div><div class='respDivL'><div class='vertical-center'>(E)</div></div><div class='respDivR'><div class='vertical-center'>(I)</div></div></div>","I","$8","$23","0","8","23","RISKY"
"html-keyboard-response","60","127516","0.0-5.0-3.18","63ea6fc5092518554c9b8111","bdp_rd","Sat Mar 25 2023 17:22:13 GMT-0700 (Pacific Daylight Time)","260524","","null","","","","offerFB","","<div class='trialBorder'><div class='vertical-center'><img style='vertical-align:center; align:center' src=img/fixation3.jpg></div><div class='cl'><div class='vertical-center'>$8<br>for<br>sure</div></div><div class='cr'><div class='vertical-center'><font style='color:orange'>$23<br>with a<br>50% chance</font></div></div><div class='respDivL'><div class='vertical-center'>(E)</div></div><div class='respDivR'><div class='vertical-center'><font style='color:orange'>(I)</font></div></div></div>","null","$8","$23","0","8","23",""
"html-keyboard-response","61","128028","0.0-5.0-1.19","63ea6fc5092518554c9b8111","bdp_rd","Sat Mar 25 2023 17:22:13 GMT-0700 (Pacific Daylight Time)","260524","","null","","","","FIX","","<div class='trialBorder'><div class='vertical-center'><img style='vertical-align:center; align:center' src=img/fixation3.jpg></div></div>","null","","","","","",""
"html-keyboard-response","62","130437","0.0-5.0-2.19","63ea6fc5092518554c9b8111","bdp_rd","Sat Mar 25 2023 17:22:13 GMT-0700 (Pacific Daylight Time)","260524","","2408","","","","offer","","<div class='trialBorder'><div class='vertical-center'><img style='vertical-align:center; align:center' src=img/fixation3.jpg></div><div class='cl'><div class='vertical-center'>$15<br>for<br>sure</div></div><div class='cr'><div class='vertical-center'>$31<br>with a<br>50% chance</div></div><div class='respDivL'><div class='vertical-center'>(E)</div></div><div class='respDivR'><div class='vertical-center'>(I)</div></div></div>","I","$15","$31","0","15","31","RISKY"
"html-keyboard-response","63","130689","0.0-5.0-3.19","63ea6fc5092518554c9b8111","bdp_rd","Sat Mar 25 2023 17:22:13 GMT-0700 (Pacific Daylight Time)","260524","","null","","","","offerFB","","<div class='trialBorder'><div class='vertical-center'><img style='vertical-align:center; align:center' src=img/fixation3.jpg></div><div class='cl'><div class='vertical-center'>$15<br>for<br>sure</div></div><div class='cr'><div class='vertical-center'><font style='color:orange'>$31<br>with a<br>50% chance</font></div></div><div class='respDivL'><div class='vertical-center'>(E)</div></div><div class='respDivR'><div class='vertical-center'><font style='color:orange'>(I)</font></div></div></div>","null","$15","$31","0","15","31",""
"html-keyboard-response","64","131196","0.0-5.0-1.20","63ea6fc5092518554c9b8111","bdp_rd","Sat Mar 25 2023 17:22:13 GMT-0700 (Pacific Daylight Time)","260524","","null","","","","FIX","","<div class='trialBorder'><div class='vertical-center'><img style='vertical-align:center; align:center' src=img/fixation3.jpg></div></div>","null","","","","","",""
"html-keyboard-response","65","133526","0.0-5.0-2.20","63ea6fc5092518554c9b8111","bdp_rd","Sat Mar 25 2023 17:22:13 GMT-0700 (Pacific Daylight Time)","260524","","2328","","","","offer","","<div class='trialBorder'><div class='vertical-center'><img style='vertical-align:center; align:center' src=img/fixation3.jpg></div><div class='cl'><div class='vertical-center'>$46<br>with a<br>50% chance</div></div><div class='cr'><div class='vertical-center'>$29<br>for<br>sure</div></div><div class='respDivL'><div class='vertical-center'>(E)</div></div><div class='respDivR'><div class='vertical-center'>(I)</div></div></div>","I","$29","$46","1","29","46","SURE"
"html-keyboard-response","66","133788","0.0-5.0-3.20","63ea6fc5092518554c9b8111","bdp_rd","Sat Mar 25 2023 17:22:13 GMT-0700 (Pacific Daylight Time)","260524","","null","","","","offerFB","","<div class='trialBorder'><div class='vertical-center'><img style='vertical-align:center; align:center' src=img/fixation3.jpg></div><div class='cl'><div class='vertical-center'>$46<br>with a<br>50% chance</div></div><div class='cr'><div class='vertical-center'><font style='color:orange'>$29<br>for<br>sure</font></div></div><div class='respDivL'><div class='vertical-center'>(E)</div></div><div class='respDivR'><div class='vertical-center'><font style='color:orange'>(I)</font></div></div></div>","null","$29","$46","1","29","46",""
"html-keyboard-response","67","134300","0.0-5.0-1.21","63ea6fc5092518554c9b8111","bdp_rd","Sat Mar 25 2023 17:22:13 GMT-0700 (Pacific Daylight Time)","260524","","null","","","","FIX","","<div class='trialBorder'><div class='vertical-center'><img style='vertical-align:center; align:center' src=img/fixation3.jpg></div></div>","null","","","","","",""
"html-keyboard-response","68","136215","0.0-5.0-2.21","63ea6fc5092518554c9b8111","bdp_rd","Sat Mar 25 2023 17:22:13 GMT-0700 (Pacific Daylight Time)","260524","","1914","","","","offer","","<div class='trialBorder'><div class='vertical-center'><img style='vertical-align:center; align:center' src=img/fixation3.jpg></div><div class='cl'><div class='vertical-center'>$63<br>for<br>sure</div></div><div class='cr'><div class='vertical-center'>$100<br>with a<br>50% chance</div></div><div class='respDivL'><div class='vertical-center'>(E)</div></div><div class='respDivR'><div class='vertical-center'>(I)</div></div></div>","E","$63","$100","0","63","10","SURE"
"html-keyboard-response","69","136476","0.0-5.0-3.21","63ea6fc5092518554c9b8111","bdp_rd","Sat Mar 25 2023 17:22:13 GMT-0700 (Pacific Daylight Time)","260524","","null","","","","offerFB","","<div class='trialBorder'><div class='vertical-center'><img style='vertical-align:center; align:center' src=img/fixation3.jpg></div><div class='cl'><div class='vertical-center'><font style='color:orange'>$63<br>for<br>sure</font></div></div><div class='cr'><div class='vertical-center'>$100<br>with a<br>50% chance</div></div><div class='respDivL'><div class='vertical-center'><font style='color:orange'>(E)</font></div></div><div class='respDivR'><div class='vertical-center'>(I)</div></div></div>","null","$63","$100","0","63","10",""
"html-keyboard-response","70","136988","0.0-5.0-1.22","63ea6fc5092518554c9b8111","bdp_rd","Sat Mar 25 2023 17:22:13 GMT-0700 (Pacific Daylight Time)","260524","","null","","","","FIX","","<div class='trialBorder'><div class='vertical-center'><img style='vertical-align:center; align:center' src=img/fixation3.jpg></div></div>","null","","","","","",""
"html-keyboard-response","71","139216","0.0-5.0-2.22","63ea6fc5092518554c9b8111","bdp_rd","Sat Mar 25 2023 17:22:13 GMT-0700 (Pacific Daylight Time)","260524","","2227","","","","offer","","<div class='trialBorder'><div class='vertical-center'><img style='vertical-align:center; align:center' src=img/fixation3.jpg></div><div class='cl'><div class='vertical-center'>$18<br>for<br>sure</div></div><div class='cr'><div class='vertical-center'>$39<br>with a<br>50% chance</div></div><div class='respDivL'><div class='vertical-center'>(E)</div></div><div class='respDivR'><div class='vertical-center'>(I)</div></div></div>","E","$18","$39","0","18","39","SURE"
"html-keyboard-response","72","139473","0.0-5.0-3.22","63ea6fc5092518554c9b8111","bdp_rd","Sat Mar 25 2023 17:22:13 GMT-0700 (Pacific Daylight Time)","260524","","null","","","","offerFB","","<div class='trialBorder'><div class='vertical-center'><img style='vertical-align:center; align:center' src=img/fixation3.jpg></div><div class='cl'><div class='vertical-center'><font style='color:orange'>$18<br>for<br>sure</font></div></div><div class='cr'><div class='vertical-center'>$39<br>with a<br>50% chance</div></div><div class='respDivL'><div class='vertical-center'><font style='color:orange'>(E)</font></div></div><div class='respDivR'><div class='vertical-center'>(I)</div></div></div>","null","$18","$39","0","18","39",""
"html-keyboard-response","73","139980","0.0-5.0-1.23","63ea6fc5092518554c9b8111","bdp_rd","Sat Mar 25 2023 17:22:13 GMT-0700 (Pacific Daylight Time)","260524","","null","","","","FIX","","<div class='trialBorder'><div class='vertical-center'><img style='vertical-align:center; align:center' src=img/fixation3.jpg></div></div>","null","","","","","",""
"html-keyboard-response","74","141920","0.0-5.0-2.23","63ea6fc5092518554c9b8111","bdp_rd","Sat Mar 25 2023 17:22:13 GMT-0700 (Pacific Daylight Time)","260524","","1938","","","","offer","","<div class='trialBorder'><div class='vertical-center'><img style='vertical-align:center; align:center' src=img/fixation3.jpg></div><div class='cl'><div class='vertical-center'>$46<br>for<br>sure</div></div><div class='cr'><div class='vertical-center'>$65<br>with a<br>50% chance</div></div><div class='respDivL'><div class='vertical-center'>(E)</div></div><div class='respDivR'><div class='vertical-center'>(I)</div></div></div>","E","$46","$65","0","46","65","SURE"
"html-keyboard-response","75","142177","0.0-5.0-3.23","63ea6fc5092518554c9b8111","bdp_rd","Sat Mar 25 2023 17:22:13 GMT-0700 (Pacific Daylight Time)","260524","","null","","","","offerFB","","<div class='trialBorder'><div class='vertical-center'><img style='vertical-align:center; align:center' src=img/fixation3.jpg></div><div class='cl'><div class='vertical-center'><font style='color:orange'>$46<br>for<br>sure</font></div></div><div class='cr'><div class='vertical-center'>$65<br>with a<br>50% chance</div></div><div class='respDivL'><div class='vertical-center'><font style='color:orange'>(E)</font></div></div><div class='respDivR'><div class='vertical-center'>(I)</div></div></div>","null","$46","$65","0","46","65",""
"html-keyboard-response","76","142684","0.0-5.0-1.24","63ea6fc5092518554c9b8111","bdp_rd","Sat Mar 25 2023 17:22:13 GMT-0700 (Pacific Daylight Time)","260524","","null","","","","FIX","","<div class='trialBorder'><div class='vertical-center'><img style='vertical-align:center; align:center' src=img/fixation3.jpg></div></div>","null","","","","","",""
"html-keyboard-response","77","144345","0.0-5.0-2.24","63ea6fc5092518554c9b8111","bdp_rd","Sat Mar 25 2023 17:22:13 GMT-0700 (Pacific Daylight Time)","260524","","1660","","","","offer","","<div class='trialBorder'><div class='vertical-center'><img style='vertical-align:center; align:center' src=img/fixation3.jpg></div><div class='cl'><div class='vertical-center'>$45<br>for<br>sure</div></div><div class='cr'><div class='vertical-center'>$86<br>with a<br>50% chance</div></div><div class='respDivL'><div class='vertical-center'>(E)</div></div><div class='respDivR'><div class='vertical-center'>(I)</div></div></div>","E","$45","$86","0","45","86","SURE"
"html-keyboard-response","78","144604","0.0-5.0-3.24","63ea6fc5092518554c9b8111","bdp_rd","Sat Mar 25 2023 17:22:13 GMT-0700 (Pacific Daylight Time)","260524","","null","","","","offerFB","","<div class='trialBorder'><div class='vertical-center'><img style='vertical-align:center; align:center' src=img/fixation3.jpg></div><div class='cl'><div class='vertical-center'><font style='color:orange'>$45<br>for<br>sure</font></div></div><div class='cr'><div class='vertical-center'>$86<br>with a<br>50% chance</div></div><div class='respDivL'><div class='vertical-center'><font style='color:orange'>(E)</font></div></div><div class='respDivR'><div class='vertical-center'>(I)</div></div></div>","null","$45","$86","0","45","86",""
"html-keyboard-response","79","145116","0.0-5.0-1.25","63ea6fc5092518554c9b8111","bdp_rd","Sat Mar 25 2023 17:22:13 GMT-0700 (Pacific Daylight Time)","260524","","null","","","","FIX","","<div class='trialBorder'><div class='vertical-center'><img style='vertical-align:center; align:center' src=img/fixation3.jpg></div></div>","null","","","","","",""
"html-keyboard-response","80","150102","0.0-5.0-2.25","63ea6fc5092518554c9b8111","bdp_rd","Sat Mar 25 2023 17:22:13 GMT-0700 (Pacific Daylight Time)","260524","","4985","","","","offer","","<div class='trialBorder'><div class='vertical-center'><img style='vertical-align:center; align:center' src=img/fixation3.jpg></div><div class='cl'><div class='vertical-center'>$40<br>with a<br>50% chance</div></div><div class='cr'><div class='vertical-center'>$10<br>for<br>sure</div></div><div class='respDivL'><div class='vertical-center'>(E)</div></div><div class='respDivR'><div class='vertical-center'>(I)</div></div></div>","I","$10","$40","1","10","40","SURE"
"html-keyboard-response","81","150364","0.0-5.0-3.25","63ea6fc5092518554c9b8111","bdp_rd","Sat Mar 25 2023 17:22:13 GMT-0700 (Pacific Daylight Time)","260524","","null","","","","offerFB","","<div class='trialBorder'><div class='vertical-center'><img style='vertical-align:center; align:center' src=img/fixation3.jpg></div><div class='cl'><div class='vertical-center'>$40<br>with a<br>50% chance</div></div><div class='cr'><div class='vertical-center'><font style='color:orange'>$10<br>for<br>sure</font></div></div><div class='respDivL'><div class='vertical-center'>(E)</div></div><div class='respDivR'><div class='vertical-center'><font style='color:orange'>(I)</font></div></div></div>","null","$10","$40","1","10","40",""
"html-keyboard-response","82","150875","0.0-5.0-1.26","63ea6fc5092518554c9b8111","bdp_rd","Sat Mar 25 2023 17:22:13 GMT-0700 (Pacific Daylight Time)","260524","","null","","","","FIX","","<div class='trialBorder'><div class='vertical-center'><img style='vertical-align:center; align:center' src=img/fixation3.jpg></div></div>","null","","","","","",""
"html-keyboard-response","83","153171","0.0-5.0-2.26","63ea6fc5092518554c9b8111","bdp_rd","Sat Mar 25 2023 17:22:13 GMT-0700 (Pacific Daylight Time)","260524","","2295","","","","offer","","<div class='trialBorder'><div class='vertical-center'><img style='vertical-align:center; align:center' src=img/fixation3.jpg></div><div class='cl'><div class='vertical-center'>$26<br>with a<br>50% chance</div></div><div class='cr'><div class='vertical-center'>$11<br>for<br>sure</div></div><div class='respDivL'><div class='vertical-center'>(E)</div></div><div class='respDivR'><div class='vertical-center'>(I)</div></div></div>","I","$11","$26","1","11","26","SURE"
"html-keyboard-response","84","153425","0.0-5.0-3.26","63ea6fc5092518554c9b8111","bdp_rd","Sat Mar 25 2023 17:22:13 GMT-0700 (Pacific Daylight Time)","260524","","null","","","","offerFB","","<div class='trialBorder'><div class='vertical-center'><img style='vertical-align:center; align:center' src=img/fixation3.jpg></div><div class='cl'><div class='vertical-center'>$26<br>with a<br>50% chance</div></div><div class='cr'><div class='vertical-center'><font style='color:orange'>$11<br>for<br>sure</font></div></div><div class='respDivL'><div class='vertical-center'>(E)</div></div><div class='respDivR'><div class='vertical-center'><font style='color:orange'>(I)</font></div></div></div>","null","$11","$26","1","11","26",""
"html-keyboard-response","85","153932","0.0-5.0-1.27","63ea6fc5092518554c9b8111","bdp_rd","Sat Mar 25 2023 17:22:13 GMT-0700 (Pacific Daylight Time)","260524","","null","","","","FIX","","<div class='trialBorder'><div class='vertical-center'><img style='vertical-align:center; align:center' src=img/fixation3.jpg></div></div>","null","","","","","",""
"html-keyboard-response","86","156100","0.0-5.0-2.27","63ea6fc5092518554c9b8111","bdp_rd","Sat Mar 25 2023 17:22:13 GMT-0700 (Pacific Daylight Time)","260524","","2167","","","","offer","","<div class='trialBorder'><div class='vertical-center'><img style='vertical-align:center; align:center' src=img/fixation3.jpg></div><div class='cl'><div class='vertical-center'>$58<br>for<br>sure</div></div><div class='cr'><div class='vertical-center'>$69<br>with a<br>50% chance</div></div><div class='respDivL'><div class='vertical-center'>(E)</div></div><div class='respDivR'><div class='vertical-center'>(I)</div></div></div>","E","$58","$69","0","58","69","SURE"
"html-keyboard-response","87","156353","0.0-5.0-3.27","63ea6fc5092518554c9b8111","bdp_rd","Sat Mar 25 2023 17:22:13 GMT-0700 (Pacific Daylight Time)","260524","","null","","","","offerFB","","<div class='trialBorder'><div class='vertical-center'><img style='vertical-align:center; align:center' src=img/fixation3.jpg></div><div class='cl'><div class='vertical-center'><font style='color:orange'>$58<br>for<br>sure</font></div></div><div class='cr'><div class='vertical-center'>$69<br>with a<br>50% chance</div></div><div class='respDivL'><div class='vertical-center'><font style='color:orange'>(E)</font></div></div><div class='respDivR'><div class='vertical-center'>(I)</div></div></div>","null","$58","$69","0","58","69",""
"html-keyboard-response","88","156860","0.0-5.0-1.28","63ea6fc5092518554c9b8111","bdp_rd","Sat Mar 25 2023 17:22:13 GMT-0700 (Pacific Daylight Time)","260524","","null","","","","FIX","","<div class='trialBorder'><div class='vertical-center'><img style='vertical-align:center; align:center' src=img/fixation3.jpg></div></div>","null","","","","","",""
"html-keyboard-response","89","159189","0.0-5.0-2.28","63ea6fc5092518554c9b8111","bdp_rd","Sat Mar 25 2023 17:22:13 GMT-0700 (Pacific Daylight Time)","260524","","2328","","","","offer","","<div class='trialBorder'><div class='vertical-center'><img style='vertical-align:center; align:center' src=img/fixation3.jpg></div><div class='cl'><div class='vertical-center'>$8<br>for<br>sure</div></div><div class='cr'><div class='vertical-center'>$45<br>with a<br>50% chance</div></div><div class='respDivL'><div class='vertical-center'>(E)</div></div><div class='respDivR'><div class='vertical-center'>(I)</div></div></div>","I","$8","$45","0","8","45","RISKY"
"html-keyboard-response","90","159441","0.0-5.0-3.28","63ea6fc5092518554c9b8111","bdp_rd","Sat Mar 25 2023 17:22:13 GMT-0700 (Pacific Daylight Time)","260524","","null","","","","offerFB","","<div class='trialBorder'><div class='vertical-center'><img style='vertical-align:center; align:center' src=img/fixation3.jpg></div><div class='cl'><div class='vertical-center'>$8<br>for<br>sure</div></div><div class='cr'><div class='vertical-center'><font style='color:orange'>$45<br>with a<br>50% chance</font></div></div><div class='respDivL'><div class='vertical-center'>(E)</div></div><div class='respDivR'><div class='vertical-center'><font style='color:orange'>(I)</font></div></div></div>","null","$8","$45","0","8","45",""
"html-keyboard-response","91","159947","0.0-5.0-1.29","63ea6fc5092518554c9b8111","bdp_rd","Sat Mar 25 2023 17:22:13 GMT-0700 (Pacific Daylight Time)","260524","","null","","","","FIX","","<div class='trialBorder'><div class='vertical-center'><img style='vertical-align:center; align:center' src=img/fixation3.jpg></div></div>","null","","","","","",""
"html-keyboard-response","92","161800","0.0-5.0-2.29","63ea6fc5092518554c9b8111","bdp_rd","Sat Mar 25 2023 17:22:13 GMT-0700 (Pacific Daylight Time)","260524","","1852","","","","offer","","<div class='trialBorder'><div class='vertical-center'><img style='vertical-align:center; align:center' src=img/fixation3.jpg></div><div class='cl'><div class='vertical-center'>$33<br>with a<br>50% chance</div></div><div class='cr'><div class='vertical-center'>$1<br>for<br>sure</div></div><div class='respDivL'><div class='vertical-center'>(E)</div></div><div class='respDivR'><div class='vertical-center'>(I)</div></div></div>","E","$1","$33","1","1","33","RISKY"
"html-keyboard-response","93","162060","0.0-5.0-3.29","63ea6fc5092518554c9b8111","bdp_rd","Sat Mar 25 2023 17:22:13 GMT-0700 (Pacific Daylight Time)","260524","","null","","","","offerFB","","<div class='trialBorder'><div class='vertical-center'><img style='vertical-align:center; align:center' src=img/fixation3.jpg></div><div class='cl'><div class='vertical-center'><font style='color:orange'>$33<br>with a<br>50% chance</font></div></div><div class='cr'><div class='vertical-center'>$1<br>for<br>sure</div></div><div class='respDivL'><div class='vertical-center'><font style='color:orange'>(E)</font></div></div><div class='respDivR'><div class='vertical-center'>(I)</div></div></div>","null","$1","$33","1","1","33",""
"html-keyboard-response","94","162572","0.0-5.0-1.30","63ea6fc5092518554c9b8111","bdp_rd","Sat Mar 25 2023 17:22:13 GMT-0700 (Pacific Daylight Time)","260524","","null","","","","FIX","","<div class='trialBorder'><div class='vertical-center'><img style='vertical-align:center; align:center' src=img/fixation3.jpg></div></div>","null","","","","","",""
"html-keyboard-response","95","165113","0.0-5.0-2.30","63ea6fc5092518554c9b8111","bdp_rd","Sat Mar 25 2023 17:22:13 GMT-0700 (Pacific Daylight Time)","260524","","2540","","","","offer","","<div class='trialBorder'><div class='vertical-center'><img style='vertical-align:center; align:center' src=img/fixation3.jpg></div><div class='cl'><div class='vertical-center'>$53<br>for<br>sure</div></div><div class='cr'><div class='vertical-center'>$98<br>with a<br>50% chance</div></div><div class='respDivL'><div class='vertical-center'>(E)</div></div><div class='respDivR'><div class='vertical-center'>(I)</div></div></div>","I","$53","$98","0","53","98","RISKY"
"html-keyboard-response","96","165372","0.0-5.0-3.30","63ea6fc5092518554c9b8111","bdp_rd","Sat Mar 25 2023 17:22:13 GMT-0700 (Pacific Daylight Time)","260524","","null","","","","offerFB","","<div class='trialBorder'><div class='vertical-center'><img style='vertical-align:center; align:center' src=img/fixation3.jpg></div><div class='cl'><div class='vertical-center'>$53<br>for<br>sure</div></div><div class='cr'><div class='vertical-center'><font style='color:orange'>$98<br>with a<br>50% chance</font></div></div><div class='respDivL'><div class='vertical-center'>(E)</div></div><div class='respDivR'><div class='vertical-center'><font style='color:orange'>(I)</font></div></div></div>","null","$53","$98","0","53","98",""
"html-keyboard-response","97","165884","0.0-5.0-1.31","63ea6fc5092518554c9b8111","bdp_rd","Sat Mar 25 2023 17:22:13 GMT-0700 (Pacific Daylight Time)","260524","","null","","","","FIX","","<div class='trialBorder'><div class='vertical-center'><img style='vertical-align:center; align:center' src=img/fixation3.jpg></div></div>","null","","","","","",""
"html-keyboard-response","98","167872","0.0-5.0-2.31","63ea6fc5092518554c9b8111","bdp_rd","Sat Mar 25 2023 17:22:13 GMT-0700 (Pacific Daylight Time)","260524","","1987","","","","offer","","<div class='trialBorder'><div class='vertical-center'><img style='vertical-align:center; align:center' src=img/fixation3.jpg></div><div class='cl'><div class='vertical-center'>$13<br>with a<br>50% chance</div></div><div class='cr'><div class='vertical-center'>$6<br>for<br>sure</div></div><div class='respDivL'><div class='vertical-center'>(E)</div></div><div class='respDivR'><div class='vertical-center'>(I)</div></div></div>","I","$6","$13","1","6","13","SURE"
"html-keyboard-response","99","168132","0.0-5.0-3.31","63ea6fc5092518554c9b8111","bdp_rd","Sat Mar 25 2023 17:22:13 GMT-0700 (Pacific Daylight Time)","260524","","null","","","","offerFB","","<div class='trialBorder'><div class='vertical-center'><img style='vertical-align:center; align:center' src=img/fixation3.jpg></div><div class='cl'><div class='vertical-center'>$13<br>with a<br>50% chance</div></div><div class='cr'><div class='vertical-center'><font style='color:orange'>$6<br>for<br>sure</font></div></div><div class='respDivL'><div class='vertical-center'>(E)</div></div><div class='respDivR'><div class='vertical-center'><font style='color:orange'>(I)</font></div></div></div>","null","$6","$13","1","6","13",""
"html-keyboard-response","100","168641","0.0-5.0-1.32","63ea6fc5092518554c9b8111","bdp_rd","Sat Mar 25 2023 17:22:13 GMT-0700 (Pacific Daylight Time)","260524","","null","","","","FIX","","<div class='trialBorder'><div class='vertical-center'><img style='vertical-align:center; align:center' src=img/fixation3.jpg></div></div>","null","","","","","",""
"html-keyboard-response","101","170967","0.0-5.0-2.32","63ea6fc5092518554c9b8111","bdp_rd","Sat Mar 25 2023 17:22:13 GMT-0700 (Pacific Daylight Time)","260524","","2325","","","","offer","","<div class='trialBorder'><div class='vertical-center'><img style='vertical-align:center; align:center' src=img/fixation3.jpg></div><div class='cl'><div class='vertical-center'>$35<br>with a<br>50% chance</div></div><div class='cr'><div class='vertical-center'>$12<br>for<br>sure</div></div><div class='respDivL'><div class='vertical-center'>(E)</div></div><div class='respDivR'><div class='vertical-center'>(I)</div></div></div>","I","$12","$35","1","12","35","SURE"
"html-keyboard-response","102","171228","0.0-5.0-3.32","63ea6fc5092518554c9b8111","bdp_rd","Sat Mar 25 2023 17:22:13 GMT-0700 (Pacific Daylight Time)","260524","","null","","","","offerFB","","<div class='trialBorder'><div class='vertical-center'><img style='vertical-align:center; align:center' src=img/fixation3.jpg></div><div class='cl'><div class='vertical-center'>$35<br>with a<br>50% chance</div></div><div class='cr'><div class='vertical-center'><font style='color:orange'>$12<br>for<br>sure</font></div></div><div class='respDivL'><div class='vertical-center'>(E)</div></div><div class='respDivR'><div class='vertical-center'><font style='color:orange'>(I)</font></div></div></div>","null","$12","$35","1","12","35",""
"html-keyboard-response","103","171740","0.0-5.0-1.33","63ea6fc5092518554c9b8111","bdp_rd","Sat Mar 25 2023 17:22:13 GMT-0700 (Pacific Daylight Time)","260524","","null","","","","FIX","","<div class='trialBorder'><div class='vertical-center'><img style='vertical-align:center; align:center' src=img/fixation3.jpg></div></div>","null","","","","","",""
"html-keyboard-response","104","176895","0.0-5.0-2.33","63ea6fc5092518554c9b8111","bdp_rd","Sat Mar 25 2023 17:22:13 GMT-0700 (Pacific Daylight Time)","260524","","5155","","","","offer","","<div class='trialBorder'><div class='vertical-center'><img style='vertical-align:center; align:center' src=img/fixation3.jpg></div><div class='cl'><div class='vertical-center'>$25<br>for<br>sure</div></div><div class='cr'><div class='vertical-center'>$54<br>with a<br>50% chance</div></div><div class='respDivL'><div class='vertical-center'>(E)</div></div><div class='respDivR'><div class='vertical-center'>(I)</div></div></div>","E","$25","$54","0","25","54","SURE"
"html-keyboard-response","105","177156","0.0-5.0-3.33","63ea6fc5092518554c9b8111","bdp_rd","Sat Mar 25 2023 17:22:13 GMT-0700 (Pacific Daylight Time)","260524","","null","","","","offerFB","","<div class='trialBorder'><div class='vertical-center'><img style='vertical-align:center; align:center' src=img/fixation3.jpg></div><div class='cl'><div class='vertical-center'><font style='color:orange'>$25<br>for<br>sure</font></div></div><div class='cr'><div class='vertical-center'>$54<br>with a<br>50% chance</div></div><div class='respDivL'><div class='vertical-center'><font style='color:orange'>(E)</font></div></div><div class='respDivR'><div class='vertical-center'>(I)</div></div></div>","null","$25","$54","0","25","54",""
"html-keyboard-response","106","177665","0.0-5.0-1.34","63ea6fc5092518554c9b8111","bdp_rd","Sat Mar 25 2023 17:22:13 GMT-0700 (Pacific Daylight Time)","260524","","null","","","","FIX","","<div class='trialBorder'><div class='vertical-center'><img style='vertical-align:center; align:center' src=img/fixation3.jpg></div></div>","null","","","","","",""
"html-keyboard-response","107","182077","0.0-5.0-2.34","63ea6fc5092518554c9b8111","bdp_rd","Sat Mar 25 2023 17:22:13 GMT-0700 (Pacific Daylight Time)","260524","","4411","","","","offer","","<div class='trialBorder'><div class='vertical-center'><img style='vertical-align:center; align:center' src=img/fixation3.jpg></div><div class='cl'><div class='vertical-center'>$15<br>with a<br>50% chance</div></div><div class='cr'><div class='vertical-center'>$6<br>for<br>sure</div></div><div class='respDivL'><div class='vertical-center'>(E)</div></div><div class='respDivR'><div class='vertical-center'>(I)</div></div></div>","I","$6","$15","1","6","15","SURE"
"html-keyboard-response","108","182337","0.0-5.0-3.34","63ea6fc5092518554c9b8111","bdp_rd","Sat Mar 25 2023 17:22:13 GMT-0700 (Pacific Daylight Time)","260524","","null","","","","offerFB","","<div class='trialBorder'><div class='vertical-center'><img style='vertical-align:center; align:center' src=img/fixation3.jpg></div><div class='cl'><div class='vertical-center'>$15<br>with a<br>50% chance</div></div><div class='cr'><div class='vertical-center'><font style='color:orange'>$6<br>for<br>sure</font></div></div><div class='respDivL'><div class='vertical-center'>(E)</div></div><div class='respDivR'><div class='vertical-center'><font style='color:orange'>(I)</font></div></div></div>","null","$6","$15","1","6","15",""
"html-keyboard-response","109","182844","0.0-5.0-1.35","63ea6fc5092518554c9b8111","bdp_rd","Sat Mar 25 2023 17:22:13 GMT-0700 (Pacific Daylight Time)","260524","","null","","","","FIX","","<div class='trialBorder'><div class='vertical-center'><img style='vertical-align:center; align:center' src=img/fixation3.jpg></div></div>","null","","","","","",""
"html-keyboard-response","110","184954","0.0-5.0-2.35","63ea6fc5092518554c9b8111","bdp_rd","Sat Mar 25 2023 17:22:13 GMT-0700 (Pacific Daylight Time)","260524","","2110","","","","offer","","<div class='trialBorder'><div class='vertical-center'><img style='vertical-align:center; align:center' src=img/fixation3.jpg></div><div class='cl'><div class='vertical-center'>$19<br>for<br>sure</div></div><div class='cr'><div class='vertical-center'>$51<br>with a<br>50% chance</div></div><div class='respDivL'><div class='vertical-center'>(E)</div></div><div class='respDivR'><div class='vertical-center'>(I)</div></div></div>","I","$19","$51","0","19","51","RISKY"
"html-keyboard-response","111","185212","0.0-5.0-3.35","63ea6fc5092518554c9b8111","bdp_rd","Sat Mar 25 2023 17:22:13 GMT-0700 (Pacific Daylight Time)","260524","","null","","","","offerFB","","<div class='trialBorder'><div class='vertical-center'><img style='vertical-align:center; align:center' src=img/fixation3.jpg></div><div class='cl'><div class='vertical-center'>$19<br>for<br>sure</div></div><div class='cr'><div class='vertical-center'><font style='color:orange'>$51<br>with a<br>50% chance</font></div></div><div class='respDivL'><div class='vertical-center'>(E)</div></div><div class='respDivR'><div class='vertical-center'><font style='color:orange'>(I)</font></div></div></div>","null","$19","$51","0","19","51",""
"html-keyboard-response","112","185724","0.0-5.0-1.36","63ea6fc5092518554c9b8111","bdp_rd","Sat Mar 25 2023 17:22:13 GMT-0700 (Pacific Daylight Time)","260524","","null","","","","FIX","","<div class='trialBorder'><div class='vertical-center'><img style='vertical-align:center; align:center' src=img/fixation3.jpg></div></div>","null","","","","","",""
"html-keyboard-response","113","187700","0.0-5.0-2.36","63ea6fc5092518554c9b8111","bdp_rd","Sat Mar 25 2023 17:22:13 GMT-0700 (Pacific Daylight Time)","260524","","1976","","","","offer","","<div class='trialBorder'><div class='vertical-center'><img style='vertical-align:center; align:center' src=img/fixation3.jpg></div><div class='cl'><div class='vertical-center'>$14<br>with a<br>50% chance</div></div><div class='cr'><div class='vertical-center'>$4<br>for<br>sure</div></div><div class='respDivL'><div class='vertical-center'>(E)</div></div><div class='respDivR'><div class='vertical-center'>(I)</div></div></div>","I","$4","$14","1","4","14","SURE"
"html-keyboard-response","114","187953","0.0-5.0-3.36","63ea6fc5092518554c9b8111","bdp_rd","Sat Mar 25 2023 17:22:13 GMT-0700 (Pacific Daylight Time)","260524","","null","","","","offerFB","","<div class='trialBorder'><div class='vertical-center'><img style='vertical-align:center; align:center' src=img/fixation3.jpg></div><div class='cl'><div class='vertical-center'>$14<br>with a<br>50% chance</div></div><div class='cr'><div class='vertical-center'><font style='color:orange'>$4<br>for<br>sure</font></div></div><div class='respDivL'><div class='vertical-center'>(E)</div></div><div class='respDivR'><div class='vertical-center'><font style='color:orange'>(I)</font></div></div></div>","null","$4","$14","1","4","14",""
"html-keyboard-response","115","188460","0.0-5.0-1.37","63ea6fc5092518554c9b8111","bdp_rd","Sat Mar 25 2023 17:22:13 GMT-0700 (Pacific Daylight Time)","260524","","null","","","","FIX","","<div class='trialBorder'><div class='vertical-center'><img style='vertical-align:center; align:center' src=img/fixation3.jpg></div></div>","null","","","","","",""
"html-keyboard-response","116","190373","0.0-5.0-2.37","63ea6fc5092518554c9b8111","bdp_rd","Sat Mar 25 2023 17:22:13 GMT-0700 (Pacific Daylight Time)","260524","","1913","","","","offer","","<div class='trialBorder'><div class='vertical-center'><img style='vertical-align:center; align:center' src=img/fixation3.jpg></div><div class='cl'><div class='vertical-center'>$68<br>with a<br>50% chance</div></div><div class='cr'><div class='vertical-center'>$30<br>for<br>sure</div></div><div class='respDivL'><div class='vertical-center'>(E)</div></div><div class='respDivR'><div class='vertical-center'>(I)</div></div></div>","E","$30","$68","1","30","68","RISKY"
"html-keyboard-response","117","190635","0.0-5.0-3.37","63ea6fc5092518554c9b8111","bdp_rd","Sat Mar 25 2023 17:22:13 GMT-0700 (Pacific Daylight Time)","260524","","null","","","","offerFB","","<div class='trialBorder'><div class='vertical-center'><img style='vertical-align:center; align:center' src=img/fixation3.jpg></div><div class='cl'><div class='vertical-center'><font style='color:orange'>$68<br>with a<br>50% chance</font></div></div><div class='cr'><div class='vertical-center'>$30<br>for<br>sure</div></div><div class='respDivL'><div class='vertical-center'><font style='color:orange'>(E)</font></div></div><div class='respDivR'><div class='vertical-center'>(I)</div></div></div>","null","$30","$68","1","30","68",""
"html-keyboard-response","118","191148","0.0-5.0-1.38","63ea6fc5092518554c9b8111","bdp_rd","Sat Mar 25 2023 17:22:13 GMT-0700 (Pacific Daylight Time)","260524","","null","","","","FIX","","<div class='trialBorder'><div class='vertical-center'><img style='vertical-align:center; align:center' src=img/fixation3.jpg></div></div>","null","","","","","",""
"html-keyboard-response","119","194636","0.0-5.0-2.38","63ea6fc5092518554c9b8111","bdp_rd","Sat Mar 25 2023 17:22:13 GMT-0700 (Pacific Daylight Time)","260524","","3487","","","","offer","","<div class='trialBorder'><div class='vertical-center'><img style='vertical-align:center; align:center' src=img/fixation3.jpg></div><div class='cl'><div class='vertical-center'>$39<br>for<br>sure</div></div><div class='cr'><div class='vertical-center'>$81<br>with a<br>50% chance</div></div><div class='respDivL'><div class='vertical-center'>(E)</div></div><div class='respDivR'><div class='vertical-center'>(I)</div></div></div>","E","$39","$81","0","39","81","SURE"
"html-keyboard-response","120","194892","0.0-5.0-3.38","63ea6fc5092518554c9b8111","bdp_rd","Sat Mar 25 2023 17:22:13 GMT-0700 (Pacific Daylight Time)","260524","","null","","","","offerFB","","<div class='trialBorder'><div class='vertical-center'><img style='vertical-align:center; align:center' src=img/fixation3.jpg></div><div class='cl'><div class='vertical-center'><font style='color:orange'>$39<br>for<br>sure</font></div></div><div class='cr'><div class='vertical-center'>$81<br>with a<br>50% chance</div></div><div class='respDivL'><div class='vertical-center'><font style='color:orange'>(E)</font></div></div><div class='respDivR'><div class='vertical-center'>(I)</div></div></div>","null","$39","$81","0","39","81",""
"html-keyboard-response","121","195404","0.0-5.0-1.39","63ea6fc5092518554c9b8111","bdp_rd","Sat Mar 25 2023 17:22:13 GMT-0700 (Pacific Daylight Time)","260524","","null","","","","FIX","","<div class='trialBorder'><div class='vertical-center'><img style='vertical-align:center; align:center' src=img/fixation3.jpg></div></div>","null","","","","","",""
"html-keyboard-response","122","197897","0.0-5.0-2.39","63ea6fc5092518554c9b8111","bdp_rd","Sat Mar 25 2023 17:22:13 GMT-0700 (Pacific Daylight Time)","260524","","2493","","","","offer","","<div class='trialBorder'><div class='vertical-center'><img style='vertical-align:center; align:center' src=img/fixation3.jpg></div><div class='cl'><div class='vertical-center'>$73<br>with a<br>50% chance</div></div><div class='cr'><div class='vertical-center'>$42<br>for<br>sure</div></div><div class='respDivL'><div class='vertical-center'>(E)</div></div><div class='respDivR'><div class='vertical-center'>(I)</div></div></div>","I","$42","$73","1","42","73","SURE"
"html-keyboard-response","123","198156","0.0-5.0-3.39","63ea6fc5092518554c9b8111","bdp_rd","Sat Mar 25 2023 17:22:13 GMT-0700 (Pacific Daylight Time)","260524","","null","","","","offerFB","","<div class='trialBorder'><div class='vertical-center'><img style='vertical-align:center; align:center' src=img/fixation3.jpg></div><div class='cl'><div class='vertical-center'>$73<br>with a<br>50% chance</div></div><div class='cr'><div class='vertical-center'><font style='color:orange'>$42<br>for<br>sure</font></div></div><div class='respDivL'><div class='vertical-center'>(E)</div></div><div class='respDivR'><div class='vertical-center'><font style='color:orange'>(I)</font></div></div></div>","null","$42","$73","1","42","73",""
"html-keyboard-response","124","198668","0.0-5.0-1.40","63ea6fc5092518554c9b8111","bdp_rd","Sat Mar 25 2023 17:22:13 GMT-0700 (Pacific Daylight Time)","260524","","null","","","","FIX","","<div class='trialBorder'><div class='vertical-center'><img style='vertical-align:center; align:center' src=img/fixation3.jpg></div></div>","null","","","","","",""
"html-keyboard-response","125","200836","0.0-5.0-2.40","63ea6fc5092518554c9b8111","bdp_rd","Sat Mar 25 2023 17:22:13 GMT-0700 (Pacific Daylight Time)","260524","","2167","","","","offer","","<div class='trialBorder'><div class='vertical-center'><img style='vertical-align:center; align:center' src=img/fixation3.jpg></div><div class='cl'><div class='vertical-center'>$47<br>with a<br>50% chance</div></div><div class='cr'><div class='vertical-center'>$27<br>for<br>sure</div></div><div class='respDivL'><div class='vertical-center'>(E)</div></div><div class='respDivR'><div class='vertical-center'>(I)</div></div></div>","I","$27","$47","1","27","47","SURE"
"html-keyboard-response","126","201089","0.0-5.0-3.40","63ea6fc5092518554c9b8111","bdp_rd","Sat Mar 25 2023 17:22:13 GMT-0700 (Pacific Daylight Time)","260524","","null","","","","offerFB","","<div class='trialBorder'><div class='vertical-center'><img style='vertical-align:center; align:center' src=img/fixation3.jpg></div><div class='cl'><div class='vertical-center'>$47<br>with a<br>50% chance</div></div><div class='cr'><div class='vertical-center'><font style='color:orange'>$27<br>for<br>sure</font></div></div><div class='respDivL'><div class='vertical-center'>(E)</div></div><div class='respDivR'><div class='vertical-center'><font style='color:orange'>(I)</font></div></div></div>","null","$27","$47","1","27","47",""
"html-keyboard-response","127","201596","0.0-5.0-1.41","63ea6fc5092518554c9b8111","bdp_rd","Sat Mar 25 2023 17:22:13 GMT-0700 (Pacific Daylight Time)","260524","","null","","","","FIX","","<div class='trialBorder'><div class='vertical-center'><img style='vertical-align:center; align:center' src=img/fixation3.jpg></div></div>","null","","","","","",""
"html-keyboard-response","128","203703","0.0-5.0-2.41","63ea6fc5092518554c9b8111","bdp_rd","Sat Mar 25 2023 17:22:13 GMT-0700 (Pacific Daylight Time)","260524","","2107","","","","offer","","<div class='trialBorder'><div class='vertical-center'><img style='vertical-align:center; align:center' src=img/fixation3.jpg></div><div class='cl'><div class='vertical-center'>$11<br>with a<br>50% chance</div></div><div class='cr'><div class='vertical-center'>$4<br>for<br>sure</div></div><div class='respDivL'><div class='vertical-center'>(E)</div></div><div class='respDivR'><div class='vertical-center'>(I)</div></div></div>","E","$4","$11","1","4","11","RISKY"
"html-keyboard-response","129","203964","0.0-5.0-3.41","63ea6fc5092518554c9b8111","bdp_rd","Sat Mar 25 2023 17:22:13 GMT-0700 (Pacific Daylight Time)","260524","","null","","","","offerFB","","<div class='trialBorder'><div class='vertical-center'><img style='vertical-align:center; align:center' src=img/fixation3.jpg></div><div class='cl'><div class='vertical-center'><font style='color:orange'>$11<br>with a<br>50% chance</font></div></div><div class='cr'><div class='vertical-center'>$4<br>for<br>sure</div></div><div class='respDivL'><div class='vertical-center'><font style='color:orange'>(E)</font></div></div><div class='respDivR'><div class='vertical-center'>(I)</div></div></div>","null","$4","$11","1","4","11",""
"html-keyboard-response","130","204476","0.0-5.0-1.42","63ea6fc5092518554c9b8111","bdp_rd","Sat Mar 25 2023 17:22:13 GMT-0700 (Pacific Daylight Time)","260524","","null","","","","FIX","","<div class='trialBorder'><div class='vertical-center'><img style='vertical-align:center; align:center' src=img/fixation3.jpg></div></div>","null","","","","","",""
"html-keyboard-response","131","206765","0.0-5.0-2.42","63ea6fc5092518554c9b8111","bdp_rd","Sat Mar 25 2023 17:22:13 GMT-0700 (Pacific Daylight Time)","260524","","2289","","","","offer","","<div class='trialBorder'><div class='vertical-center'><img style='vertical-align:center; align:center' src=img/fixation3.jpg></div><div class='cl'><div class='vertical-center'>$14<br>for<br>sure</div></div><div class='cr'><div class='vertical-center'>$22<br>with a<br>50% chance</div></div><div class='respDivL'><div class='vertical-center'>(E)</div></div><div class='respDivR'><div class='vertical-center'>(I)</div></div></div>","E","$14","$22","0","14","22","SURE"
"html-keyboard-response","132","207025","0.0-5.0-3.42","63ea6fc5092518554c9b8111","bdp_rd","Sat Mar 25 2023 17:22:13 GMT-0700 (Pacific Daylight Time)","260524","","null","","","","offerFB","","<div class='trialBorder'><div class='vertical-center'><img style='vertical-align:center; align:center' src=img/fixation3.jpg></div><div class='cl'><div class='vertical-center'><font style='color:orange'>$14<br>for<br>sure</font></div></div><div class='cr'><div class='vertical-center'>$22<br>with a<br>50% chance</div></div><div class='respDivL'><div class='vertical-center'><font style='color:orange'>(E)</font></div></div><div class='respDivR'><div class='vertical-center'>(I)</div></div></div>","null","$14","$22","0","14","22",""
"html-keyboard-response","133","207532","0.0-5.0-1.43","63ea6fc5092518554c9b8111","bdp_rd","Sat Mar 25 2023 17:22:13 GMT-0700 (Pacific Daylight Time)","260524","","null","","","","FIX","","<div class='trialBorder'><div class='vertical-center'><img style='vertical-align:center; align:center' src=img/fixation3.jpg></div></div>","null","","","","","",""
"html-keyboard-response","134","210416","0.0-5.0-2.43","63ea6fc5092518554c9b8111","bdp_rd","Sat Mar 25 2023 17:22:13 GMT-0700 (Pacific Daylight Time)","260524","","2884","","","","offer","","<div class='trialBorder'><div class='vertical-center'><img style='vertical-align:center; align:center' src=img/fixation3.jpg></div><div class='cl'><div class='vertical-center'>$13<br>for<br>sure</div></div><div class='cr'><div class='vertical-center'>$24<br>with a<br>50% chance</div></div><div class='respDivL'><div class='vertical-center'>(E)</div></div><div class='respDivR'><div class='vertical-center'>(I)</div></div></div>","E","$13","$24","0","13","24","SURE"
"html-keyboard-response","135","210672","0.0-5.0-3.43","63ea6fc5092518554c9b8111","bdp_rd","Sat Mar 25 2023 17:22:13 GMT-0700 (Pacific Daylight Time)","260524","","null","","","","offerFB","","<div class='trialBorder'><div class='vertical-center'><img style='vertical-align:center; align:center' src=img/fixation3.jpg></div><div class='cl'><div class='vertical-center'><font style='color:orange'>$13<br>for<br>sure</font></div></div><div class='cr'><div class='vertical-center'>$24<br>with a<br>50% chance</div></div><div class='respDivL'><div class='vertical-center'><font style='color:orange'>(E)</font></div></div><div class='respDivR'><div class='vertical-center'>(I)</div></div></div>","null","$13","$24","0","13","24",""
"html-keyboard-response","136","211180","0.0-5.0-1.44","63ea6fc5092518554c9b8111","bdp_rd","Sat Mar 25 2023 17:22:13 GMT-0700 (Pacific Daylight Time)","260524","","null","","","","FIX","","<div class='trialBorder'><div class='vertical-center'><img style='vertical-align:center; align:center' src=img/fixation3.jpg></div></div>","null","","","","","",""
"html-keyboard-response","137","213605","0.0-5.0-2.44","63ea6fc5092518554c9b8111","bdp_rd","Sat Mar 25 2023 17:22:13 GMT-0700 (Pacific Daylight Time)","260524","","2424","","","","offer","","<div class='trialBorder'><div class='vertical-center'><img style='vertical-align:center; align:center' src=img/fixation3.jpg></div><div class='cl'><div class='vertical-center'>$10<br>for<br>sure</div></div><div class='cr'><div class='vertical-center'>$19<br>with a<br>50% chance</div></div><div class='respDivL'><div class='vertical-center'>(E)</div></div><div class='respDivR'><div class='vertical-center'>(I)</div></div></div>","I","$10","$19","0","10","19","RISKY"
"html-keyboard-response","138","213868","0.0-5.0-3.44","63ea6fc5092518554c9b8111","bdp_rd","Sat Mar 25 2023 17:22:13 GMT-0700 (Pacific Daylight Time)","260524","","null","","","","offerFB","","<div class='trialBorder'><div class='vertical-center'><img style='vertical-align:center; align:center' src=img/fixation3.jpg></div><div class='cl'><div class='vertical-center'>$10<br>for<br>sure</div></div><div class='cr'><div class='vertical-center'><font style='color:orange'>$19<br>with a<br>50% chance</font></div></div><div class='respDivL'><div class='vertical-center'>(E)</div></div><div class='respDivR'><div class='vertical-center'><font style='color:orange'>(I)</font></div></div></div>","null","$10","$19","0","10","19",""
"html-keyboard-response","139","214380","0.0-5.0-1.45","63ea6fc5092518554c9b8111","bdp_rd","Sat Mar 25 2023 17:22:13 GMT-0700 (Pacific Daylight Time)","260524","","null","","","","FIX","","<div class='trialBorder'><div class='vertical-center'><img style='vertical-align:center; align:center' src=img/fixation3.jpg></div></div>","null","","","","","",""
"html-keyboard-response","140","218364","0.0-5.0-2.45","63ea6fc5092518554c9b8111","bdp_rd","Sat Mar 25 2023 17:22:13 GMT-0700 (Pacific Daylight Time)","260524","","3984","","","","offer","","<div class='trialBorder'><div class='vertical-center'><img style='vertical-align:center; align:center' src=img/fixation3.jpg></div><div class='cl'><div class='vertical-center'>$36<br>with a<br>50% chance</div></div><div class='cr'><div class='vertical-center'>$18<br>for<br>sure</div></div><div class='respDivL'><div class='vertical-center'>(E)</div></div><div class='respDivR'><div class='vertical-center'>(I)</div></div></div>","I","$18","$36","1","18","36","SURE"
"html-keyboard-response","141","218620","0.0-5.0-3.45","63ea6fc5092518554c9b8111","bdp_rd","Sat Mar 25 2023 17:22:13 GMT-0700 (Pacific Daylight Time)","260524","","null","","","","offerFB","","<div class='trialBorder'><div class='vertical-center'><img style='vertical-align:center; align:center' src=img/fixation3.jpg></div><div class='cl'><div class='vertical-center'>$36<br>with a<br>50% chance</div></div><div class='cr'><div class='vertical-center'><font style='color:orange'>$18<br>for<br>sure</font></div></div><div class='respDivL'><div class='vertical-center'>(E)</div></div><div class='respDivR'><div class='vertical-center'><font style='color:orange'>(I)</font></div></div></div>","null","$18","$36","1","18","36",""
"html-keyboard-response","142","219132","0.0-5.0-1.46","63ea6fc5092518554c9b8111","bdp_rd","Sat Mar 25 2023 17:22:13 GMT-0700 (Pacific Daylight Time)","260524","","null","","","","FIX","","<div class='trialBorder'><div class='vertical-center'><img style='vertical-align:center; align:center' src=img/fixation3.jpg></div></div>","null","","","","","",""
"html-keyboard-response","143","221068","0.0-5.0-2.46","63ea6fc5092518554c9b8111","bdp_rd","Sat Mar 25 2023 17:22:13 GMT-0700 (Pacific Daylight Time)","260524","","1936","","","","offer","","<div class='trialBorder'><div class='vertical-center'><img style='vertical-align:center; align:center' src=img/fixation3.jpg></div><div class='cl'><div class='vertical-center'>$70<br>with a<br>50% chance</div></div><div class='cr'><div class='vertical-center'>$24<br>for<br>sure</div></div><div class='respDivL'><div class='vertical-center'>(E)</div></div><div class='respDivR'><div class='vertical-center'>(I)</div></div></div>","E","$24","$70","1","24","70","RISKY"
"html-keyboard-response","144","221324","0.0-5.0-3.46","63ea6fc5092518554c9b8111","bdp_rd","Sat Mar 25 2023 17:22:13 GMT-0700 (Pacific Daylight Time)","260524","","null","","","","offerFB","","<div class='trialBorder'><div class='vertical-center'><img style='vertical-align:center; align:center' src=img/fixation3.jpg></div><div class='cl'><div class='vertical-center'><font style='color:orange'>$70<br>with a<br>50% chance</font></div></div><div class='cr'><div class='vertical-center'>$24<br>for<br>sure</div></div><div class='respDivL'><div class='vertical-center'><font style='color:orange'>(E)</font></div></div><div class='respDivR'><div class='vertical-center'>(I)</div></div></div>","null","$24","$70","1","24","70",""
"html-keyboard-response","145","221836","0.0-5.0-1.47","63ea6fc5092518554c9b8111","bdp_rd","Sat Mar 25 2023 17:22:13 GMT-0700 (Pacific Daylight Time)","260524","","null","","","","FIX","","<div class='trialBorder'><div class='vertical-center'><img style='vertical-align:center; align:center' src=img/fixation3.jpg></div></div>","null","","","","","",""
"html-keyboard-response","146","224426","0.0-5.0-2.47","63ea6fc5092518554c9b8111","bdp_rd","Sat Mar 25 2023 17:22:13 GMT-0700 (Pacific Daylight Time)","260524","","2590","","","","offer","","<div class='trialBorder'><div class='vertical-center'><img style='vertical-align:center; align:center' src=img/fixation3.jpg></div><div class='cl'><div class='vertical-center'>$11<br>for<br>sure</div></div><div class='cr'><div class='vertical-center'>$62<br>with a<br>50% chance</div></div><div class='respDivL'><div class='vertical-center'>(E)</div></div><div class='respDivR'><div class='vertical-center'>(I)</div></div></div>","I","$11","$62","0","11","62","RISKY"
"html-keyboard-response","147","224684","0.0-5.0-3.47","63ea6fc5092518554c9b8111","bdp_rd","Sat Mar 25 2023 17:22:13 GMT-0700 (Pacific Daylight Time)","260524","","null","","","","offerFB","","<div class='trialBorder'><div class='vertical-center'><img style='vertical-align:center; align:center' src=img/fixation3.jpg></div><div class='cl'><div class='vertical-center'>$11<br>for<br>sure</div></div><div class='cr'><div class='vertical-center'><font style='color:orange'>$62<br>with a<br>50% chance</font></div></div><div class='respDivL'><div class='vertical-center'>(E)</div></div><div class='respDivR'><div class='vertical-center'><font style='color:orange'>(I)</font></div></div></div>","null","$11","$62","0","11","62",""
"html-keyboard-response","148","225196","0.0-5.0-1.48","63ea6fc5092518554c9b8111","bdp_rd","Sat Mar 25 2023 17:22:13 GMT-0700 (Pacific Daylight Time)","260524","","null","","","","FIX","","<div class='trialBorder'><div class='vertical-center'><img style='vertical-align:center; align:center' src=img/fixation3.jpg></div></div>","null","","","","","",""
"html-keyboard-response","149","226768","0.0-5.0-2.48","63ea6fc5092518554c9b8111","bdp_rd","Sat Mar 25 2023 17:22:13 GMT-0700 (Pacific Daylight Time)","260524","","1572","","","","offer","","<div class='trialBorder'><div class='vertical-center'><img style='vertical-align:center; align:center' src=img/fixation3.jpg></div><div class='cl'><div class='vertical-center'>$66<br>with a<br>50% chance</div></div><div class='cr'><div class='vertical-center'>$33<br>for<br>sure</div></div><div class='respDivL'><div class='vertical-center'>(E)</div></div><div class='respDivR'><div class='vertical-center'>(I)</div></div></div>","E","$33","$66","1","33","66","RISKY"
"html-keyboard-response","150","227025","0.0-5.0-3.48","63ea6fc5092518554c9b8111","bdp_rd","Sat Mar 25 2023 17:22:13 GMT-0700 (Pacific Daylight Time)","260524","","null","","","","offerFB","","<div class='trialBorder'><div class='vertical-center'><img style='vertical-align:center; align:center' src=img/fixation3.jpg></div><div class='cl'><div class='vertical-center'><font style='color:orange'>$66<br>with a<br>50% chance</font></div></div><div class='cr'><div class='vertical-center'>$33<br>for<br>sure</div></div><div class='respDivL'><div class='vertical-center'><font style='color:orange'>(E)</font></div></div><div class='respDivR'><div class='vertical-center'>(I)</div></div></div>","null","$33","$66","1","33","66",""
"html-keyboard-response","151","227532","0.0-5.0-1.49","63ea6fc5092518554c9b8111","bdp_rd","Sat Mar 25 2023 17:22:13 GMT-0700 (Pacific Daylight Time)","260524","","null","","","","FIX","","<div class='trialBorder'><div class='vertical-center'><img style='vertical-align:center; align:center' src=img/fixation3.jpg></div></div>","null","","","","","",""
"html-keyboard-response","152","229130","0.0-5.0-2.49","63ea6fc5092518554c9b8111","bdp_rd","Sat Mar 25 2023 17:22:13 GMT-0700 (Pacific Daylight Time)","260524","","1598","","","","offer","","<div class='trialBorder'><div class='vertical-center'><img style='vertical-align:center; align:center' src=img/fixation3.jpg></div><div class='cl'><div class='vertical-center'>$21<br>for<br>sure</div></div><div class='cr'><div class='vertical-center'>$25<br>with a<br>50% chance</div></div><div class='respDivL'><div class='vertical-center'>(E)</div></div><div class='respDivR'><div class='vertical-center'>(I)</div></div></div>","E","$21","$25","0","21","25","SURE"
"html-keyboard-response","153","229385","0.0-5.0-3.49","63ea6fc5092518554c9b8111","bdp_rd","Sat Mar 25 2023 17:22:13 GMT-0700 (Pacific Daylight Time)","260524","","null","","","","offerFB","","<div class='trialBorder'><div class='vertical-center'><img style='vertical-align:center; align:center' src=img/fixation3.jpg></div><div class='cl'><div class='vertical-center'><font style='color:orange'>$21<br>for<br>sure</font></div></div><div class='cr'><div class='vertical-center'>$25<br>with a<br>50% chance</div></div><div class='respDivL'><div class='vertical-center'><font style='color:orange'>(E)</font></div></div><div class='respDivR'><div class='vertical-center'>(I)</div></div></div>","null","$21","$25","0","21","25",""
"html-keyboard-response","154","229889","0.0-5.0-1.50","63ea6fc5092518554c9b8111","bdp_rd","Sat Mar 25 2023 17:22:13 GMT-0700 (Pacific Daylight Time)","260524","","null","","","","FIX","","<div class='trialBorder'><div class='vertical-center'><img style='vertical-align:center; align:center' src=img/fixation3.jpg></div></div>","null","","","","","",""
"html-keyboard-response","155","233125","0.0-5.0-2.50","63ea6fc5092518554c9b8111","bdp_rd","Sat Mar 25 2023 17:22:13 GMT-0700 (Pacific Daylight Time)","260524","","3235","","","","offer","","<div class='trialBorder'><div class='vertical-center'><img style='vertical-align:center; align:center' src=img/fixation3.jpg></div><div class='cl'><div class='vertical-center'>$12<br>with a<br>50% chance</div></div><div class='cr'><div class='vertical-center'>$3<br>for<br>sure</div></div><div class='respDivL'><div class='vertical-center'>(E)</div></div><div class='respDivR'><div class='vertical-center'>(I)</div></div></div>","I","$3","$12","1","3","12","SURE"
"html-keyboard-response","156","233388","0.0-5.0-3.50","63ea6fc5092518554c9b8111","bdp_rd","Sat Mar 25 2023 17:22:13 GMT-0700 (Pacific Daylight Time)","260524","","null","","","","offerFB","","<div class='trialBorder'><div class='vertical-center'><img style='vertical-align:center; align:center' src=img/fixation3.jpg></div><div class='cl'><div class='vertical-center'>$12<br>with a<br>50% chance</div></div><div class='cr'><div class='vertical-center'><font style='color:orange'>$3<br>for<br>sure</font></div></div><div class='respDivL'><div class='vertical-center'>(E)</div></div><div class='respDivR'><div class='vertical-center'><font style='color:orange'>(I)</font></div></div></div>","null","$3","$12","1","3","12",""
"html-keyboard-response","157","233900","0.0-5.0-1.51","63ea6fc5092518554c9b8111","bdp_rd","Sat Mar 25 2023 17:22:13 GMT-0700 (Pacific Daylight Time)","260524","","null","","","","FIX","","<div class='trialBorder'><div class='vertical-center'><img style='vertical-align:center; align:center' src=img/fixation3.jpg></div></div>","null","","","","","",""
"html-keyboard-response","158","236716","0.0-5.0-2.51","63ea6fc5092518554c9b8111","bdp_rd","Sat Mar 25 2023 17:22:13 GMT-0700 (Pacific Daylight Time)","260524","","2816","","","","offer","","<div class='trialBorder'><div class='vertical-center'><img style='vertical-align:center; align:center' src=img/fixation3.jpg></div><div class='cl'><div class='vertical-center'>$95<br>with a<br>50% chance</div></div><div class='cr'><div class='vertical-center'>$40<br>for<br>sure</div></div><div class='respDivL'><div class='vertical-center'>(E)</div></div><div class='respDivR'><div class='vertical-center'>(I)</div></div></div>","E","$40","$95","1","40","95","RISKY"
"html-keyboard-response","159","236972","0.0-5.0-3.51","63ea6fc5092518554c9b8111","bdp_rd","Sat Mar 25 2023 17:22:13 GMT-0700 (Pacific Daylight Time)","260524","","null","","","","offerFB","","<div class='trialBorder'><div class='vertical-center'><img style='vertical-align:center; align:center' src=img/fixation3.jpg></div><div class='cl'><div class='vertical-center'><font style='color:orange'>$95<br>with a<br>50% chance</font></div></div><div class='cr'><div class='vertical-center'>$40<br>for<br>sure</div></div><div class='respDivL'><div class='vertical-center'><font style='color:orange'>(E)</font></div></div><div class='respDivR'><div class='vertical-center'>(I)</div></div></div>","null","$40","$95","1","40","95",""
"html-keyboard-response","160","237483","0.0-5.0-1.52","63ea6fc5092518554c9b8111","bdp_rd","Sat Mar 25 2023 17:22:13 GMT-0700 (Pacific Daylight Time)","260524","","null","","","","FIX","","<div class='trialBorder'><div class='vertical-center'><img style='vertical-align:center; align:center' src=img/fixation3.jpg></div></div>","null","","","","","",""
"html-keyboard-response","161","240812","0.0-5.0-2.52","63ea6fc5092518554c9b8111","bdp_rd","Sat Mar 25 2023 17:22:13 GMT-0700 (Pacific Daylight Time)","260524","","3328","","","","offer","","<div class='trialBorder'><div class='vertical-center'><img style='vertical-align:center; align:center' src=img/fixation3.jpg></div><div class='cl'><div class='vertical-center'>$15<br>for<br>sure</div></div><div class='cr'><div class='vertical-center'>$34<br>with a<br>50% chance</div></div><div class='respDivL'><div class='vertical-center'>(E)</div></div><div class='respDivR'><div class='vertical-center'>(I)</div></div></div>","E","$15","$34","0","15","34","SURE"
"html-keyboard-response","162","241064","0.0-5.0-3.52","63ea6fc5092518554c9b8111","bdp_rd","Sat Mar 25 2023 17:22:13 GMT-0700 (Pacific Daylight Time)","260524","","null","","","","offerFB","","<div class='trialBorder'><div class='vertical-center'><img style='vertical-align:center; align:center' src=img/fixation3.jpg></div><div class='cl'><div class='vertical-center'><font style='color:orange'>$15<br>for<br>sure</font></div></div><div class='cr'><div class='vertical-center'>$34<br>with a<br>50% chance</div></div><div class='respDivL'><div class='vertical-center'><font style='color:orange'>(E)</font></div></div><div class='respDivR'><div class='vertical-center'>(I)</div></div></div>","null","$15","$34","0","15","34",""
"html-keyboard-response","163","241569","0.0-5.0-1.53","63ea6fc5092518554c9b8111","bdp_rd","Sat Mar 25 2023 17:22:13 GMT-0700 (Pacific Daylight Time)","260524","","null","","","","FIX","","<div class='trialBorder'><div class='vertical-center'><img style='vertical-align:center; align:center' src=img/fixation3.jpg></div></div>","null","","","","","",""
"html-keyboard-response","164","244018","0.0-5.0-2.53","63ea6fc5092518554c9b8111","bdp_rd","Sat Mar 25 2023 17:22:13 GMT-0700 (Pacific Daylight Time)","260524","","2448","","","","offer","","<div class='trialBorder'><div class='vertical-center'><img style='vertical-align:center; align:center' src=img/fixation3.jpg></div><div class='cl'><div class='vertical-center'>$22<br>for<br>sure</div></div><div class='cr'><div class='vertical-center'>$42<br>with a<br>50% chance</div></div><div class='respDivL'><div class='vertical-center'>(E)</div></div><div class='respDivR'><div class='vertical-center'>(I)</div></div></div>","I","$22","$42","0","22","42","RISKY"
"html-keyboard-response","165","244273","0.0-5.0-3.53","63ea6fc5092518554c9b8111","bdp_rd","Sat Mar 25 2023 17:22:13 GMT-0700 (Pacific Daylight Time)","260524","","null","","","","offerFB","","<div class='trialBorder'><div class='vertical-center'><img style='vertical-align:center; align:center' src=img/fixation3.jpg></div><div class='cl'><div class='vertical-center'>$22<br>for<br>sure</div></div><div class='cr'><div class='vertical-center'><font style='color:orange'>$42<br>with a<br>50% chance</font></div></div><div class='respDivL'><div class='vertical-center'>(E)</div></div><div class='respDivR'><div class='vertical-center'><font style='color:orange'>(I)</font></div></div></div>","null","$22","$42","0","22","42",""
"html-keyboard-response","166","244779","0.0-5.0-1.54","63ea6fc5092518554c9b8111","bdp_rd","Sat Mar 25 2023 17:22:13 GMT-0700 (Pacific Daylight Time)","260524","","null","","","","FIX","","<div class='trialBorder'><div class='vertical-center'><img style='vertical-align:center; align:center' src=img/fixation3.jpg></div></div>","null","","","","","",""
"html-keyboard-response","167","246184","0.0-5.0-2.54","63ea6fc5092518554c9b8111","bdp_rd","Sat Mar 25 2023 17:22:13 GMT-0700 (Pacific Daylight Time)","260524","","1404","","","","offer","","<div class='trialBorder'><div class='vertical-center'><img style='vertical-align:center; align:center' src=img/fixation3.jpg></div><div class='cl'><div class='vertical-center'>$31<br>for<br>sure</div></div><div class='cr'><div class='vertical-center'>$78<br>with a<br>50% chance</div></div><div class='respDivL'><div class='vertical-center'>(E)</div></div><div class='respDivR'><div class='vertical-center'>(I)</div></div></div>","I","$31","$78","0","31","78","RISKY"
"html-keyboard-response","168","246444","0.0-5.0-3.54","63ea6fc5092518554c9b8111","bdp_rd","Sat Mar 25 2023 17:22:13 GMT-0700 (Pacific Daylight Time)","260524","","null","","","","offerFB","","<div class='trialBorder'><div class='vertical-center'><img style='vertical-align:center; align:center' src=img/fixation3.jpg></div><div class='cl'><div class='vertical-center'>$31<br>for<br>sure</div></div><div class='cr'><div class='vertical-center'><font style='color:orange'>$78<br>with a<br>50% chance</font></div></div><div class='respDivL'><div class='vertical-center'>(E)</div></div><div class='respDivR'><div class='vertical-center'><font style='color:orange'>(I)</font></div></div></div>","null","$31","$78","0","31","78",""
"html-keyboard-response","169","246955","0.0-5.0-1.55","63ea6fc5092518554c9b8111","bdp_rd","Sat Mar 25 2023 17:22:13 GMT-0700 (Pacific Daylight Time)","260524","","null","","","","FIX","","<div class='trialBorder'><div class='vertical-center'><img style='vertical-align:center; align:center' src=img/fixation3.jpg></div></div>","null","","","","","",""
"html-keyboard-response","170","248500","0.0-5.0-2.55","63ea6fc5092518554c9b8111","bdp_rd","Sat Mar 25 2023 17:22:13 GMT-0700 (Pacific Daylight Time)","260524","","1543","","","","offer","","<div class='trialBorder'><div class='vertical-center'><img style='vertical-align:center; align:center' src=img/fixation3.jpg></div><div class='cl'><div class='vertical-center'>$21<br>with a<br>50% chance</div></div><div class='cr'><div class='vertical-center'>$2<br>for<br>sure</div></div><div class='respDivL'><div class='vertical-center'>(E)</div></div><div class='respDivR'><div class='vertical-center'>(I)</div></div></div>","E","$2","$21","1","2","21","RISKY"
"html-keyboard-response","171","248756","0.0-5.0-3.55","63ea6fc5092518554c9b8111","bdp_rd","Sat Mar 25 2023 17:22:13 GMT-0700 (Pacific Daylight Time)","260524","","null","","","","offerFB","","<div class='trialBorder'><div class='vertical-center'><img style='vertical-align:center; align:center' src=img/fixation3.jpg></div><div class='cl'><div class='vertical-center'><font style='color:orange'>$21<br>with a<br>50% chance</font></div></div><div class='cr'><div class='vertical-center'>$2<br>for<br>sure</div></div><div class='respDivL'><div class='vertical-center'><font style='color:orange'>(E)</font></div></div><div class='respDivR'><div class='vertical-center'>(I)</div></div></div>","null","$2","$21","1","2","21",""
"html-keyboard-response","172","249265","0.0-5.0-1.56","63ea6fc5092518554c9b8111","bdp_rd","Sat Mar 25 2023 17:22:13 GMT-0700 (Pacific Daylight Time)","260524","","null","","","","FIX","","<div class='trialBorder'><div class='vertical-center'><img style='vertical-align:center; align:center' src=img/fixation3.jpg></div></div>","null","","","","","",""
"html-keyboard-response","173","250815","0.0-5.0-2.56","63ea6fc5092518554c9b8111","bdp_rd","Sat Mar 25 2023 17:22:13 GMT-0700 (Pacific Daylight Time)","260524","","1548","","","","offer","","<div class='trialBorder'><div class='vertical-center'><img style='vertical-align:center; align:center' src=img/fixation3.jpg></div><div class='cl'><div class='vertical-center'>$7<br>for<br>sure</div></div><div class='cr'><div class='vertical-center'>$10<br>with a<br>50% chance</div></div><div class='respDivL'><div class='vertical-center'>(E)</div></div><div class='respDivR'><div class='vertical-center'>(I)</div></div></div>","E","$7","$10","0","7","10","SURE"
