"trial_type","trial_index","time_elapsed","internal_node_id","subject_id","task","startTime","totalTime","view_history","rt","event","trial","time","trialtype","success","stimulus","key_press","sureOffer","riskyOffer","riskyLeft","sureAmt","riskyAmt","chosen"
"pavlovia","0","5","0.0-0.0","5971640e7ec240000170cb69","bdp_rd","Sat Mar 25 2023 23:04:53 GMT-0500 (Central Daylight Time)","165766","","","","","","","","","","","","","","",""
"instructions","1","825","0.0-1.0","5971640e7ec240000170cb69","bdp_rd","Sat Mar 25 2023 23:04:53 GMT-0500 (Central Daylight Time)","165766","[{""page_index"":0,""viewing_time"":819}]","819","","","","","","","","","","","","",""
"","","","","5971640e7ec240000170cb69","bdp_rd","Sat Mar 25 2023 23:04:53 GMT-0500 (Central Daylight Time)","165766","","","fullscreenenter","2","3836","fullscreenenter","","","","","","","","",""
"fullscreen","2","4792","0.0-2.0","5971640e7ec240000170cb69","bdp_rd","Sat Mar 25 2023 23:04:53 GMT-0500 (Central Daylight Time)","165766","","","","","","","true","","","","","","","",""
"instructions","3","42122","0.0-4.0","5971640e7ec240000170cb69","bdp_rd","Sat Mar 25 2023 23:04:53 GMT-0500 (Central Daylight Time)","165766","[{""page_index"":0,""viewing_time"":23431},{""page_index"":1,""viewing_time"":11657},{""page_index"":2,""viewing_time"":2240}]","37328","","","","","","","","","","","","",""
"html-keyboard-response","4","42627","0.0-5.0-1.0","5971640e7ec240000170cb69","bdp_rd","Sat Mar 25 2023 23:04:53 GMT-0500 (Central Daylight Time)","165766","","null","","","","FIX","","<div class='trialBorder'><div class='vertical-center'><img style='vertical-align:center; align:center' src=img/fixation3.jpg></div></div>","null","","","","","",""
"html-keyboard-response","5","45042","0.0-5.0-2.0","5971640e7ec240000170cb69","bdp_rd","Sat Mar 25 2023 23:04:53 GMT-0500 (Central Daylight Time)","165766","","2412","","","","offer","","<div class='trialBorder'><div class='vertical-center'><img style='vertical-align:center; align:center' src=img/fixation3.jpg></div><div class='cl'><div class='vertical-center'>$6<br>for<br>sure</div></div><div class='cr'><div class='vertical-center'>$13<br>with a<br>50% chance</div></div><div class='respDivL'><div class='vertical-center'>(E)</div></div><div class='respDivR'><div class='vertical-center'>(I)</div></div></div>","E","$6","$13","0","6","13","SURE"
"html-keyboard-response","6","45296","0.0-5.0-3.0","5971640e7ec240000170cb69","bdp_rd","Sat Mar 25 2023 23:04:53 GMT-0500 (Central Daylight Time)","165766","","null","","","","offerFB","","<div class='trialBorder'><div class='vertical-center'><img style='vertical-align:center; align:center' src=img/fixation3.jpg></div><div class='cl'><div class='vertical-center'><font style='color:orange'>$6<br>for<br>sure</font></div></div><div class='cr'><div class='vertical-center'>$13<br>with a<br>50% chance</div></div><div class='respDivL'><div class='vertical-center'><font style='color:orange'>(E)</font></div></div><div class='respDivR'><div class='vertical-center'>(I)</div></div></div>","null","$6","$13","0","6","13",""
"html-keyboard-response","7","45800","0.0-5.0-1.1","5971640e7ec240000170cb69","bdp_rd","Sat Mar 25 2023 23:04:53 GMT-0500 (Central Daylight Time)","165766","","null","","","","FIX","","<div class='trialBorder'><div class='vertical-center'><img style='vertical-align:center; align:center' src=img/fixation3.jpg></div></div>","null","","","","","",""
"html-keyboard-response","8","48395","0.0-5.0-2.1","5971640e7ec240000170cb69","bdp_rd","Sat Mar 25 2023 23:04:53 GMT-0500 (Central Daylight Time)","165766","","2592","","","","offer","","<div class='trialBorder'><div class='vertical-center'><img style='vertical-align:center; align:center' src=img/fixation3.jpg></div><div class='cl'><div class='vertical-center'>$11<br>with a<br>50% chance</div></div><div class='cr'><div class='vertical-center'>$4<br>for<br>sure</div></div><div class='respDivL'><div class='vertical-center'>(E)</div></div><div class='respDivR'><div class='vertical-center'>(I)</div></div></div>","E","$4","$11","1","4","11","RISKY"
"html-keyboard-response","9","48649","0.0-5.0-3.1","5971640e7ec240000170cb69","bdp_rd","Sat Mar 25 2023 23:04:53 GMT-0500 (Central Daylight Time)","165766","","null","","","","offerFB","","<div class='trialBorder'><div class='vertical-center'><img style='vertical-align:center; align:center' src=img/fixation3.jpg></div><div class='cl'><div class='vertical-center'><font style='color:orange'>$11<br>with a<br>50% chance</font></div></div><div class='cr'><div class='vertical-center'>$4<br>for<br>sure</div></div><div class='respDivL'><div class='vertical-center'><font style='color:orange'>(E)</font></div></div><div class='respDivR'><div class='vertical-center'>(I)</div></div></div>","null","$4","$11","1","4","11",""
"html-keyboard-response","10","49152","0.0-5.0-1.2","5971640e7ec240000170cb69","bdp_rd","Sat Mar 25 2023 23:04:53 GMT-0500 (Central Daylight Time)","165766","","null","","","","FIX","","<div class='trialBorder'><div class='vertical-center'><img style='vertical-align:center; align:center' src=img/fixation3.jpg></div></div>","null","","","","","",""
"html-keyboard-response","11","52187","0.0-5.0-2.2","5971640e7ec240000170cb69","bdp_rd","Sat Mar 25 2023 23:04:53 GMT-0500 (Central Daylight Time)","165766","","3032","","","","offer","","<div class='trialBorder'><div class='vertical-center'><img style='vertical-align:center; align:center' src=img/fixation3.jpg></div><div class='cl'><div class='vertical-center'>$38<br>with a<br>50% chance</div></div><div class='cr'><div class='vertical-center'>$16<br>for<br>sure</div></div><div class='respDivL'><div class='vertical-center'>(E)</div></div><div class='respDivR'><div class='vertical-center'>(I)</div></div></div>","E","$16","$38","1","16","38","RISKY"
"html-keyboard-response","12","52441","0.0-5.0-3.2","5971640e7ec240000170cb69","bdp_rd","Sat Mar 25 2023 23:04:53 GMT-0500 (Central Daylight Time)","165766","","null","","","","offerFB","","<div class='trialBorder'><div class='vertical-center'><img style='vertical-align:center; align:center' src=img/fixation3.jpg></div><div class='cl'><div class='vertical-center'><font style='color:orange'>$38<br>with a<br>50% chance</font></div></div><div class='cr'><div class='vertical-center'>$16<br>for<br>sure</div></div><div class='respDivL'><div class='vertical-center'><font style='color:orange'>(E)</font></div></div><div class='respDivR'><div class='vertical-center'>(I)</div></div></div>","null","$16","$38","1","16","38",""
"html-keyboard-response","13","52943","0.0-5.0-1.3","5971640e7ec240000170cb69","bdp_rd","Sat Mar 25 2023 23:04:53 GMT-0500 (Central Daylight Time)","165766","","null","","","","FIX","","<div class='trialBorder'><div class='vertical-center'><img style='vertical-align:center; align:center' src=img/fixation3.jpg></div></div>","null","","","","","",""
"html-keyboard-response","14","54063","0.0-5.0-2.3","5971640e7ec240000170cb69","bdp_rd","Sat Mar 25 2023 23:04:53 GMT-0500 (Central Daylight Time)","165766","","1118","","","","offer","","<div class='trialBorder'><div class='vertical-center'><img style='vertical-align:center; align:center' src=img/fixation3.jpg></div><div class='cl'><div class='vertical-center'>$81<br>with a<br>50% chance</div></div><div class='cr'><div class='vertical-center'>$39<br>for<br>sure</div></div><div class='respDivL'><div class='vertical-center'>(E)</div></div><div class='respDivR'><div class='vertical-center'>(I)</div></div></div>","E","$39","$81","1","39","81","RISKY"
"html-keyboard-response","15","54316","0.0-5.0-3.3","5971640e7ec240000170cb69","bdp_rd","Sat Mar 25 2023 23:04:53 GMT-0500 (Central Daylight Time)","165766","","null","","","","offerFB","","<div class='trialBorder'><div class='vertical-center'><img style='vertical-align:center; align:center' src=img/fixation3.jpg></div><div class='cl'><div class='vertical-center'><font style='color:orange'>$81<br>with a<br>50% chance</font></div></div><div class='cr'><div class='vertical-center'>$39<br>for<br>sure</div></div><div class='respDivL'><div class='vertical-center'><font style='color:orange'>(E)</font></div></div><div class='respDivR'><div class='vertical-center'>(I)</div></div></div>","null","$39","$81","1","39","81",""
"html-keyboard-response","16","54818","0.0-5.0-1.4","5971640e7ec240000170cb69","bdp_rd","Sat Mar 25 2023 23:04:53 GMT-0500 (Central Daylight Time)","165766","","null","","","","FIX","","<div class='trialBorder'><div class='vertical-center'><img style='vertical-align:center; align:center' src=img/fixation3.jpg></div></div>","null","","","","","",""
"html-keyboard-response","17","56056","0.0-5.0-2.4","5971640e7ec240000170cb69","bdp_rd","Sat Mar 25 2023 23:04:53 GMT-0500 (Central Daylight Time)","165766","","1235","","","","offer","","<div class='trialBorder'><div class='vertical-center'><img style='vertical-align:center; align:center' src=img/fixation3.jpg></div><div class='cl'><div class='vertical-center'>$19<br>for<br>sure</div></div><div class='cr'><div class='vertical-center'>$51<br>with a<br>50% chance</div></div><div class='respDivL'><div class='vertical-center'>(E)</div></div><div class='respDivR'><div class='vertical-center'>(I)</div></div></div>","I","$19","$51","0","19","51","RISKY"
"html-keyboard-response","18","56308","0.0-5.0-3.4","5971640e7ec240000170cb69","bdp_rd","Sat Mar 25 2023 23:04:53 GMT-0500 (Central Daylight Time)","165766","","null","","","","offerFB","","<div class='trialBorder'><div class='vertical-center'><img style='vertical-align:center; align:center' src=img/fixation3.jpg></div><div class='cl'><div class='vertical-center'>$19<br>for<br>sure</div></div><div class='cr'><div class='vertical-center'><font style='color:orange'>$51<br>with a<br>50% chance</font></div></div><div class='respDivL'><div class='vertical-center'>(E)</div></div><div class='respDivR'><div class='vertical-center'><font style='color:orange'>(I)</font></div></div></div>","null","$19","$51","0","19","51",""
"html-keyboard-response","19","56810","0.0-5.0-1.5","5971640e7ec240000170cb69","bdp_rd","Sat Mar 25 2023 23:04:53 GMT-0500 (Central Daylight Time)","165766","","null","","","","FIX","","<div class='trialBorder'><div class='vertical-center'><img style='vertical-align:center; align:center' src=img/fixation3.jpg></div></div>","null","","","","","",""
"html-keyboard-response","20","57965","0.0-5.0-2.5","5971640e7ec240000170cb69","bdp_rd","Sat Mar 25 2023 23:04:53 GMT-0500 (Central Daylight Time)","165766","","1152","","","","offer","","<div class='trialBorder'><div class='vertical-center'><img style='vertical-align:center; align:center' src=img/fixation3.jpg></div><div class='cl'><div class='vertical-center'>$12<br>for<br>sure</div></div><div class='cr'><div class='vertical-center'>$27<br>with a<br>50% chance</div></div><div class='respDivL'><div class='vertical-center'>(E)</div></div><div class='respDivR'><div class='vertical-center'>(I)</div></div></div>","I","$12","$27","0","12","27","RISKY"
"html-keyboard-response","21","58218","0.0-5.0-3.5","5971640e7ec240000170cb69","bdp_rd","Sat Mar 25 2023 23:04:53 GMT-0500 (Central Daylight Time)","165766","","null","","","","offerFB","","<div class='trialBorder'><div class='vertical-center'><img style='vertical-align:center; align:center' src=img/fixation3.jpg></div><div class='cl'><div class='vertical-center'>$12<br>for<br>sure</div></div><div class='cr'><div class='vertical-center'><font style='color:orange'>$27<br>with a<br>50% chance</font></div></div><div class='respDivL'><div class='vertical-center'>(E)</div></div><div class='respDivR'><div class='vertical-center'><font style='color:orange'>(I)</font></div></div></div>","null","$12","$27","0","12","27",""
"html-keyboard-response","22","58720","0.0-5.0-1.6","5971640e7ec240000170cb69","bdp_rd","Sat Mar 25 2023 23:04:53 GMT-0500 (Central Daylight Time)","165766","","null","","","","FIX","","<div class='trialBorder'><div class='vertical-center'><img style='vertical-align:center; align:center' src=img/fixation3.jpg></div></div>","null","","","","","",""
"html-keyboard-response","23","60228","0.0-5.0-2.6","5971640e7ec240000170cb69","bdp_rd","Sat Mar 25 2023 23:04:53 GMT-0500 (Central Daylight Time)","165766","","1505","","","","offer","","<div class='trialBorder'><div class='vertical-center'><img style='vertical-align:center; align:center' src=img/fixation3.jpg></div><div class='cl'><div class='vertical-center'>$70<br>with a<br>50% chance</div></div><div class='cr'><div class='vertical-center'>$24<br>for<br>sure</div></div><div class='respDivL'><div class='vertical-center'>(E)</div></div><div class='respDivR'><div class='vertical-center'>(I)</div></div></div>","I","$24","$70","1","24","70","SURE"
"html-keyboard-response","24","60481","0.0-5.0-3.6","5971640e7ec240000170cb69","bdp_rd","Sat Mar 25 2023 23:04:53 GMT-0500 (Central Daylight Time)","165766","","null","","","","offerFB","","<div class='trialBorder'><div class='vertical-center'><img style='vertical-align:center; align:center' src=img/fixation3.jpg></div><div class='cl'><div class='vertical-center'>$70<br>with a<br>50% chance</div></div><div class='cr'><div class='vertical-center'><font style='color:orange'>$24<br>for<br>sure</font></div></div><div class='respDivL'><div class='vertical-center'>(E)</div></div><div class='respDivR'><div class='vertical-center'><font style='color:orange'>(I)</font></div></div></div>","null","$24","$70","1","24","70",""
"html-keyboard-response","25","60983","0.0-5.0-1.7","5971640e7ec240000170cb69","bdp_rd","Sat Mar 25 2023 23:04:53 GMT-0500 (Central Daylight Time)","165766","","null","","","","FIX","","<div class='trialBorder'><div class='vertical-center'><img style='vertical-align:center; align:center' src=img/fixation3.jpg></div></div>","null","","","","","",""
"html-keyboard-response","26","63010","0.0-5.0-2.7","5971640e7ec240000170cb69","bdp_rd","Sat Mar 25 2023 23:04:53 GMT-0500 (Central Daylight Time)","165766","","2025","","","","offer","","<div class='trialBorder'><div class='vertical-center'><img style='vertical-align:center; align:center' src=img/fixation3.jpg></div><div class='cl'><div class='vertical-center'>$24<br>with a<br>50% chance</div></div><div class='cr'><div class='vertical-center'>$13<br>for<br>sure</div></div><div class='respDivL'><div class='vertical-center'>(E)</div></div><div class='respDivR'><div class='vertical-center'>(I)</div></div></div>","I","$13","$24","1","13","24","SURE"
"html-keyboard-response","27","63262","0.0-5.0-3.7","5971640e7ec240000170cb69","bdp_rd","Sat Mar 25 2023 23:04:53 GMT-0500 (Central Daylight Time)","165766","","null","","","","offerFB","","<div class='trialBorder'><div class='vertical-center'><img style='vertical-align:center; align:center' src=img/fixation3.jpg></div><div class='cl'><div class='vertical-center'>$24<br>with a<br>50% chance</div></div><div class='cr'><div class='vertical-center'><font style='color:orange'>$13<br>for<br>sure</font></div></div><div class='respDivL'><div class='vertical-center'>(E)</div></div><div class='respDivR'><div class='vertical-center'><font style='color:orange'>(I)</font></div></div></div>","null","$13","$24","1","13","24",""
"html-keyboard-response","28","63764","0.0-5.0-1.8","5971640e7ec240000170cb69","bdp_rd","Sat Mar 25 2023 23:04:53 GMT-0500 (Central Daylight Time)","165766","","null","","","","FIX","","<div class='trialBorder'><div class='vertical-center'><img style='vertical-align:center; align:center' src=img/fixation3.jpg></div></div>","null","","","","","",""
"html-keyboard-response","29","65205","0.0-5.0-2.8","5971640e7ec240000170cb69","bdp_rd","Sat Mar 25 2023 23:04:53 GMT-0500 (Central Daylight Time)","165766","","1438","","","","offer","","<div class='trialBorder'><div class='vertical-center'><img style='vertical-align:center; align:center' src=img/fixation3.jpg></div><div class='cl'><div class='vertical-center'>$64<br>with a<br>50% chance</div></div><div class='cr'><div class='vertical-center'>$2<br>for<br>sure</div></div><div class='respDivL'><div class='vertical-center'>(E)</div></div><div class='respDivR'><div class='vertical-center'>(I)</div></div></div>","E","$2","$64","1","2","64","RISKY"
"html-keyboard-response","30","65458","0.0-5.0-3.8","5971640e7ec240000170cb69","bdp_rd","Sat Mar 25 2023 23:04:53 GMT-0500 (Central Daylight Time)","165766","","null","","","","offerFB","","<div class='trialBorder'><div class='vertical-center'><img style='vertical-align:center; align:center' src=img/fixation3.jpg></div><div class='cl'><div class='vertical-center'><font style='color:orange'>$64<br>with a<br>50% chance</font></div></div><div class='cr'><div class='vertical-center'>$2<br>for<br>sure</div></div><div class='respDivL'><div class='vertical-center'><font style='color:orange'>(E)</font></div></div><div class='respDivR'><div class='vertical-center'>(I)</div></div></div>","null","$2","$64","1","2","64",""
"html-keyboard-response","31","65960","0.0-5.0-1.9","5971640e7ec240000170cb69","bdp_rd","Sat Mar 25 2023 23:04:53 GMT-0500 (Central Daylight Time)","165766","","null","","","","FIX","","<div class='trialBorder'><div class='vertical-center'><img style='vertical-align:center; align:center' src=img/fixation3.jpg></div></div>","null","","","","","",""
"html-keyboard-response","32","67183","0.0-5.0-2.9","5971640e7ec240000170cb69","bdp_rd","Sat Mar 25 2023 23:04:53 GMT-0500 (Central Daylight Time)","165766","","1222","","","","offer","","<div class='trialBorder'><div class='vertical-center'><img style='vertical-align:center; align:center' src=img/fixation3.jpg></div><div class='cl'><div class='vertical-center'>$21<br>for<br>sure</div></div><div class='cr'><div class='vertical-center'>$25<br>with a<br>50% chance</div></div><div class='respDivL'><div class='vertical-center'>(E)</div></div><div class='respDivR'><div class='vertical-center'>(I)</div></div></div>","E","$21","$25","0","21","25","SURE"
"html-keyboard-response","33","67436","0.0-5.0-3.9","5971640e7ec240000170cb69","bdp_rd","Sat Mar 25 2023 23:04:53 GMT-0500 (Central Daylight Time)","165766","","null","","","","offerFB","","<div class='trialBorder'><div class='vertical-center'><img style='vertical-align:center; align:center' src=img/fixation3.jpg></div><div class='cl'><div class='vertical-center'><font style='color:orange'>$21<br>for<br>sure</font></div></div><div class='cr'><div class='vertical-center'>$25<br>with a<br>50% chance</div></div><div class='respDivL'><div class='vertical-center'><font style='color:orange'>(E)</font></div></div><div class='respDivR'><div class='vertical-center'>(I)</div></div></div>","null","$21","$25","0","21","25",""
"html-keyboard-response","34","67939","0.0-5.0-1.10","5971640e7ec240000170cb69","bdp_rd","Sat Mar 25 2023 23:04:53 GMT-0500 (Central Daylight Time)","165766","","null","","","","FIX","","<div class='trialBorder'><div class='vertical-center'><img style='vertical-align:center; align:center' src=img/fixation3.jpg></div></div>","null","","","","","",""
"html-keyboard-response","35","69429","0.0-5.0-2.10","5971640e7ec240000170cb69","bdp_rd","Sat Mar 25 2023 23:04:53 GMT-0500 (Central Daylight Time)","165766","","1488","","","","offer","","<div class='trialBorder'><div class='vertical-center'><img style='vertical-align:center; align:center' src=img/fixation3.jpg></div><div class='cl'><div class='vertical-center'>$15<br>with a<br>50% chance</div></div><div class='cr'><div class='vertical-center'>$6<br>for<br>sure</div></div><div class='respDivL'><div class='vertical-center'>(E)</div></div><div class='respDivR'><div class='vertical-center'>(I)</div></div></div>","I","$6","$15","1","6","15","SURE"
"html-keyboard-response","36","69681","0.0-5.0-3.10","5971640e7ec240000170cb69","bdp_rd","Sat Mar 25 2023 23:04:53 GMT-0500 (Central Daylight Time)","165766","","null","","","","offerFB","","<div class='trialBorder'><div class='vertical-center'><img style='vertical-align:center; align:center' src=img/fixation3.jpg></div><div class='cl'><div class='vertical-center'>$15<br>with a<br>50% chance</div></div><div class='cr'><div class='vertical-center'><font style='color:orange'>$6<br>for<br>sure</font></div></div><div class='respDivL'><div class='vertical-center'>(E)</div></div><div class='respDivR'><div class='vertical-center'><font style='color:orange'>(I)</font></div></div></div>","null","$6","$15","1","6","15",""
"html-keyboard-response","37","70183","0.0-5.0-1.11","5971640e7ec240000170cb69","bdp_rd","Sat Mar 25 2023 23:04:53 GMT-0500 (Central Daylight Time)","165766","","null","","","","FIX","","<div class='trialBorder'><div class='vertical-center'><img style='vertical-align:center; align:center' src=img/fixation3.jpg></div></div>","null","","","","","",""
"html-keyboard-response","38","71243","0.0-5.0-2.11","5971640e7ec240000170cb69","bdp_rd","Sat Mar 25 2023 23:04:53 GMT-0500 (Central Daylight Time)","165766","","1058","","","","offer","","<div class='trialBorder'><div class='vertical-center'><img style='vertical-align:center; align:center' src=img/fixation3.jpg></div><div class='cl'><div class='vertical-center'>$31<br>for<br>sure</div></div><div class='cr'><div class='vertical-center'>$78<br>with a<br>50% chance</div></div><div class='respDivL'><div class='vertical-center'>(E)</div></div><div class='respDivR'><div class='vertical-center'>(I)</div></div></div>","E","$31","$78","0","31","78","SURE"
"html-keyboard-response","39","71496","0.0-5.0-3.11","5971640e7ec240000170cb69","bdp_rd","Sat Mar 25 2023 23:04:53 GMT-0500 (Central Daylight Time)","165766","","null","","","","offerFB","","<div class='trialBorder'><div class='vertical-center'><img style='vertical-align:center; align:center' src=img/fixation3.jpg></div><div class='cl'><div class='vertical-center'><font style='color:orange'>$31<br>for<br>sure</font></div></div><div class='cr'><div class='vertical-center'>$78<br>with a<br>50% chance</div></div><div class='respDivL'><div class='vertical-center'><font style='color:orange'>(E)</font></div></div><div class='respDivR'><div class='vertical-center'>(I)</div></div></div>","null","$31","$78","0","31","78",""
"html-keyboard-response","40","71997","0.0-5.0-1.12","5971640e7ec240000170cb69","bdp_rd","Sat Mar 25 2023 23:04:53 GMT-0500 (Central Daylight Time)","165766","","null","","","","FIX","","<div class='trialBorder'><div class='vertical-center'><img style='vertical-align:center; align:center' src=img/fixation3.jpg></div></div>","null","","","","","",""
"html-keyboard-response","41","73177","0.0-5.0-2.12","5971640e7ec240000170cb69","bdp_rd","Sat Mar 25 2023 23:04:53 GMT-0500 (Central Daylight Time)","165766","","1178","","","","offer","","<div class='trialBorder'><div class='vertical-center'><img style='vertical-align:center; align:center' src=img/fixation3.jpg></div><div class='cl'><div class='vertical-center'>$33<br>with a<br>50% chance</div></div><div class='cr'><div class='vertical-center'>$1<br>for<br>sure</div></div><div class='respDivL'><div class='vertical-center'>(E)</div></div><div class='respDivR'><div class='vertical-center'>(I)</div></div></div>","E","$1","$33","1","1","33","RISKY"
"html-keyboard-response","42","73429","0.0-5.0-3.12","5971640e7ec240000170cb69","bdp_rd","Sat Mar 25 2023 23:04:53 GMT-0500 (Central Daylight Time)","165766","","null","","","","offerFB","","<div class='trialBorder'><div class='vertical-center'><img style='vertical-align:center; align:center' src=img/fixation3.jpg></div><div class='cl'><div class='vertical-center'><font style='color:orange'>$33<br>with a<br>50% chance</font></div></div><div class='cr'><div class='vertical-center'>$1<br>for<br>sure</div></div><div class='respDivL'><div class='vertical-center'><font style='color:orange'>(E)</font></div></div><div class='respDivR'><div class='vertical-center'>(I)</div></div></div>","null","$1","$33","1","1","33",""
"html-keyboard-response","43","73932","0.0-5.0-1.13","5971640e7ec240000170cb69","bdp_rd","Sat Mar 25 2023 23:04:53 GMT-0500 (Central Daylight Time)","165766","","null","","","","FIX","","<div class='trialBorder'><div class='vertical-center'><img style='vertical-align:center; align:center' src=img/fixation3.jpg></div></div>","null","","","","","",""
"html-keyboard-response","44","75556","0.0-5.0-2.13","5971640e7ec240000170cb69","bdp_rd","Sat Mar 25 2023 23:04:53 GMT-0500 (Central Daylight Time)","165766","","1622","","","","offer","","<div class='trialBorder'><div class='vertical-center'><img style='vertical-align:center; align:center' src=img/fixation3.jpg></div><div class='cl'><div class='vertical-center'>$16<br>for<br>sure</div></div><div class='cr'><div class='vertical-center'>$28<br>with a<br>50% chance</div></div><div class='respDivL'><div class='vertical-center'>(E)</div></div><div class='respDivR'><div class='vertical-center'>(I)</div></div></div>","E","$16","$28","0","16","28","SURE"
"html-keyboard-response","45","75810","0.0-5.0-3.13","5971640e7ec240000170cb69","bdp_rd","Sat Mar 25 2023 23:04:53 GMT-0500 (Central Daylight Time)","165766","","null","","","","offerFB","","<div class='trialBorder'><div class='vertical-center'><img style='vertical-align:center; align:center' src=img/fixation3.jpg></div><div class='cl'><div class='vertical-center'><font style='color:orange'>$16<br>for<br>sure</font></div></div><div class='cr'><div class='vertical-center'>$28<br>with a<br>50% chance</div></div><div class='respDivL'><div class='vertical-center'><font style='color:orange'>(E)</font></div></div><div class='respDivR'><div class='vertical-center'>(I)</div></div></div>","null","$16","$28","0","16","28",""
"html-keyboard-response","46","76312","0.0-5.0-1.14","5971640e7ec240000170cb69","bdp_rd","Sat Mar 25 2023 23:04:53 GMT-0500 (Central Daylight Time)","165766","","null","","","","FIX","","<div class='trialBorder'><div class='vertical-center'><img style='vertical-align:center; align:center' src=img/fixation3.jpg></div></div>","null","","","","","",""
"html-keyboard-response","47","77486","0.0-5.0-2.14","5971640e7ec240000170cb69","bdp_rd","Sat Mar 25 2023 23:04:53 GMT-0500 (Central Daylight Time)","165766","","1173","","","","offer","","<div class='trialBorder'><div class='vertical-center'><img style='vertical-align:center; align:center' src=img/fixation3.jpg></div><div class='cl'><div class='vertical-center'>$48<br>with a<br>50% chance</div></div><div class='cr'><div class='vertical-center'>$34<br>for<br>sure</div></div><div class='respDivL'><div class='vertical-center'>(E)</div></div><div class='respDivR'><div class='vertical-center'>(I)</div></div></div>","I","$34","$48","1","34","48","SURE"
"html-keyboard-response","48","77740","0.0-5.0-3.14","5971640e7ec240000170cb69","bdp_rd","Sat Mar 25 2023 23:04:53 GMT-0500 (Central Daylight Time)","165766","","null","","","","offerFB","","<div class='trialBorder'><div class='vertical-center'><img style='vertical-align:center; align:center' src=img/fixation3.jpg></div><div class='cl'><div class='vertical-center'>$48<br>with a<br>50% chance</div></div><div class='cr'><div class='vertical-center'><font style='color:orange'>$34<br>for<br>sure</font></div></div><div class='respDivL'><div class='vertical-center'>(E)</div></div><div class='respDivR'><div class='vertical-center'><font style='color:orange'>(I)</font></div></div></div>","null","$34","$48","1","34","48",""
"html-keyboard-response","49","78242","0.0-5.0-1.15","5971640e7ec240000170cb69","bdp_rd","Sat Mar 25 2023 23:04:53 GMT-0500 (Central Daylight Time)","165766","","null","","","","FIX","","<div class='trialBorder'><div class='vertical-center'><img style='vertical-align:center; align:center' src=img/fixation3.jpg></div></div>","null","","","","","",""
"html-keyboard-response","50","80061","0.0-5.0-2.15","5971640e7ec240000170cb69","bdp_rd","Sat Mar 25 2023 23:04:53 GMT-0500 (Central Daylight Time)","165766","","1817","","","","offer","","<div class='trialBorder'><div class='vertical-center'><img style='vertical-align:center; align:center' src=img/fixation3.jpg></div><div class='cl'><div class='vertical-center'>$13<br>for<br>sure</div></div><div class='cr'><div class='vertical-center'>$41<br>with a<br>50% chance</div></div><div class='respDivL'><div class='vertical-center'>(E)</div></div><div class='respDivR'><div class='vertical-center'>(I)</div></div></div>","I","$13","$41","0","13","41","RISKY"
"html-keyboard-response","51","80315","0.0-5.0-3.15","5971640e7ec240000170cb69","bdp_rd","Sat Mar 25 2023 23:04:53 GMT-0500 (Central Daylight Time)","165766","","null","","","","offerFB","","<div class='trialBorder'><div class='vertical-center'><img style='vertical-align:center; align:center' src=img/fixation3.jpg></div><div class='cl'><div class='vertical-center'>$13<br>for<br>sure</div></div><div class='cr'><div class='vertical-center'><font style='color:orange'>$41<br>with a<br>50% chance</font></div></div><div class='respDivL'><div class='vertical-center'>(E)</div></div><div class='respDivR'><div class='vertical-center'><font style='color:orange'>(I)</font></div></div></div>","null","$13","$41","0","13","41",""
"html-keyboard-response","52","80817","0.0-5.0-1.16","5971640e7ec240000170cb69","bdp_rd","Sat Mar 25 2023 23:04:53 GMT-0500 (Central Daylight Time)","165766","","null","","","","FIX","","<div class='trialBorder'><div class='vertical-center'><img style='vertical-align:center; align:center' src=img/fixation3.jpg></div></div>","null","","","","","",""
"html-keyboard-response","53","81579","0.0-5.0-2.16","5971640e7ec240000170cb69","bdp_rd","Sat Mar 25 2023 23:04:53 GMT-0500 (Central Daylight Time)","165766","","760","","","","offer","","<div class='trialBorder'><div class='vertical-center'><img style='vertical-align:center; align:center' src=img/fixation3.jpg></div><div class='cl'><div class='vertical-center'>$26<br>for<br>sure</div></div><div class='cr'><div class='vertical-center'>$92<br>with a<br>50% chance</div></div><div class='respDivL'><div class='vertical-center'>(E)</div></div><div class='respDivR'><div class='vertical-center'>(I)</div></div></div>","E","$26","$92","0","26","92","SURE"
"html-keyboard-response","54","81833","0.0-5.0-3.16","5971640e7ec240000170cb69","bdp_rd","Sat Mar 25 2023 23:04:53 GMT-0500 (Central Daylight Time)","165766","","null","","","","offerFB","","<div class='trialBorder'><div class='vertical-center'><img style='vertical-align:center; align:center' src=img/fixation3.jpg></div><div class='cl'><div class='vertical-center'><font style='color:orange'>$26<br>for<br>sure</font></div></div><div class='cr'><div class='vertical-center'>$92<br>with a<br>50% chance</div></div><div class='respDivL'><div class='vertical-center'><font style='color:orange'>(E)</font></div></div><div class='respDivR'><div class='vertical-center'>(I)</div></div></div>","null","$26","$92","0","26","92",""
"html-keyboard-response","55","82335","0.0-5.0-1.17","5971640e7ec240000170cb69","bdp_rd","Sat Mar 25 2023 23:04:53 GMT-0500 (Central Daylight Time)","165766","","null","","","","FIX","","<div class='trialBorder'><div class='vertical-center'><img style='vertical-align:center; align:center' src=img/fixation3.jpg></div></div>","null","","","","","",""
"html-keyboard-response","56","83821","0.0-5.0-2.17","5971640e7ec240000170cb69","bdp_rd","Sat Mar 25 2023 23:04:53 GMT-0500 (Central Daylight Time)","165766","","1484","","","","offer","","<div class='trialBorder'><div class='vertical-center'><img style='vertical-align:center; align:center' src=img/fixation3.jpg></div><div class='cl'><div class='vertical-center'>$89<br>with a<br>50% chance</div></div><div class='cr'><div class='vertical-center'>$28<br>for<br>sure</div></div><div class='respDivL'><div class='vertical-center'>(E)</div></div><div class='respDivR'><div class='vertical-center'>(I)</div></div></div>","I","$28","$89","1","28","89","SURE"
"html-keyboard-response","57","84075","0.0-5.0-3.17","5971640e7ec240000170cb69","bdp_rd","Sat Mar 25 2023 23:04:53 GMT-0500 (Central Daylight Time)","165766","","null","","","","offerFB","","<div class='trialBorder'><div class='vertical-center'><img style='vertical-align:center; align:center' src=img/fixation3.jpg></div><div class='cl'><div class='vertical-center'>$89<br>with a<br>50% chance</div></div><div class='cr'><div class='vertical-center'><font style='color:orange'>$28<br>for<br>sure</font></div></div><div class='respDivL'><div class='vertical-center'>(E)</div></div><div class='respDivR'><div class='vertical-center'><font style='color:orange'>(I)</font></div></div></div>","null","$28","$89","1","28","89",""
"html-keyboard-response","58","84577","0.0-5.0-1.18","5971640e7ec240000170cb69","bdp_rd","Sat Mar 25 2023 23:04:53 GMT-0500 (Central Daylight Time)","165766","","null","","","","FIX","","<div class='trialBorder'><div class='vertical-center'><img style='vertical-align:center; align:center' src=img/fixation3.jpg></div></div>","null","","","","","",""
"html-keyboard-response","59","86045","0.0-5.0-2.18","5971640e7ec240000170cb69","bdp_rd","Sat Mar 25 2023 23:04:53 GMT-0500 (Central Daylight Time)","165766","","1466","","","","offer","","<div class='trialBorder'><div class='vertical-center'><img style='vertical-align:center; align:center' src=img/fixation3.jpg></div><div class='cl'><div class='vertical-center'>$29<br>with a<br>50% chance</div></div><div class='cr'><div class='vertical-center'>$14<br>for<br>sure</div></div><div class='respDivL'><div class='vertical-center'>(E)</div></div><div class='respDivR'><div class='vertical-center'>(I)</div></div></div>","E","$14","$29","1","14","29","RISKY"
"html-keyboard-response","60","86298","0.0-5.0-3.18","5971640e7ec240000170cb69","bdp_rd","Sat Mar 25 2023 23:04:53 GMT-0500 (Central Daylight Time)","165766","","null","","","","offerFB","","<div class='trialBorder'><div class='vertical-center'><img style='vertical-align:center; align:center' src=img/fixation3.jpg></div><div class='cl'><div class='vertical-center'><font style='color:orange'>$29<br>with a<br>50% chance</font></div></div><div class='cr'><div class='vertical-center'>$14<br>for<br>sure</div></div><div class='respDivL'><div class='vertical-center'><font style='color:orange'>(E)</font></div></div><div class='respDivR'><div class='vertical-center'>(I)</div></div></div>","null","$14","$29","1","14","29",""
"html-keyboard-response","61","86801","0.0-5.0-1.19","5971640e7ec240000170cb69","bdp_rd","Sat Mar 25 2023 23:04:53 GMT-0500 (Central Daylight Time)","165766","","null","","","","FIX","","<div class='trialBorder'><div class='vertical-center'><img style='vertical-align:center; align:center' src=img/fixation3.jpg></div></div>","null","","","","","",""
"html-keyboard-response","62","87664","0.0-5.0-2.19","5971640e7ec240000170cb69","bdp_rd","Sat Mar 25 2023 23:04:53 GMT-0500 (Central Daylight Time)","165766","","860","","","","offer","","<div class='trialBorder'><div class='vertical-center'><img style='vertical-align:center; align:center' src=img/fixation3.jpg></div><div class='cl'><div class='vertical-center'>$2<br>for<br>sure</div></div><div class='cr'><div class='vertical-center'>$21<br>with a<br>50% chance</div></div><div class='respDivL'><div class='vertical-center'>(E)</div></div><div class='respDivR'><div class='vertical-center'>(I)</div></div></div>","I","$2","$21","0","2","21","RISKY"
"html-keyboard-response","63","87917","0.0-5.0-3.19","5971640e7ec240000170cb69","bdp_rd","Sat Mar 25 2023 23:04:53 GMT-0500 (Central Daylight Time)","165766","","null","","","","offerFB","","<div class='trialBorder'><div class='vertical-center'><img style='vertical-align:center; align:center' src=img/fixation3.jpg></div><div class='cl'><div class='vertical-center'>$2<br>for<br>sure</div></div><div class='cr'><div class='vertical-center'><font style='color:orange'>$21<br>with a<br>50% chance</font></div></div><div class='respDivL'><div class='vertical-center'>(E)</div></div><div class='respDivR'><div class='vertical-center'><font style='color:orange'>(I)</font></div></div></div>","null","$2","$21","0","2","21",""
"html-keyboard-response","64","88419","0.0-5.0-1.20","5971640e7ec240000170cb69","bdp_rd","Sat Mar 25 2023 23:04:53 GMT-0500 (Central Daylight Time)","165766","","null","","","","FIX","","<div class='trialBorder'><div class='vertical-center'><img style='vertical-align:center; align:center' src=img/fixation3.jpg></div></div>","null","","","","","",""
"html-keyboard-response","65","89608","0.0-5.0-2.20","5971640e7ec240000170cb69","bdp_rd","Sat Mar 25 2023 23:04:53 GMT-0500 (Central Daylight Time)","165766","","1187","","","","offer","","<div class='trialBorder'><div class='vertical-center'><img style='vertical-align:center; align:center' src=img/fixation3.jpg></div><div class='cl'><div class='vertical-center'>$59<br>with a<br>50% chance</div></div><div class='cr'><div class='vertical-center'>$22<br>for<br>sure</div></div><div class='respDivL'><div class='vertical-center'>(E)</div></div><div class='respDivR'><div class='vertical-center'>(I)</div></div></div>","I","$22","$59","1","22","59","SURE"
"html-keyboard-response","66","89862","0.0-5.0-3.20","5971640e7ec240000170cb69","bdp_rd","Sat Mar 25 2023 23:04:53 GMT-0500 (Central Daylight Time)","165766","","null","","","","offerFB","","<div class='trialBorder'><div class='vertical-center'><img style='vertical-align:center; align:center' src=img/fixation3.jpg></div><div class='cl'><div class='vertical-center'>$59<br>with a<br>50% chance</div></div><div class='cr'><div class='vertical-center'><font style='color:orange'>$22<br>for<br>sure</font></div></div><div class='respDivL'><div class='vertical-center'>(E)</div></div><div class='respDivR'><div class='vertical-center'><font style='color:orange'>(I)</font></div></div></div>","null","$22","$59","1","22","59",""
"html-keyboard-response","67","90364","0.0-5.0-1.21","5971640e7ec240000170cb69","bdp_rd","Sat Mar 25 2023 23:04:53 GMT-0500 (Central Daylight Time)","165766","","null","","","","FIX","","<div class='trialBorder'><div class='vertical-center'><img style='vertical-align:center; align:center' src=img/fixation3.jpg></div></div>","null","","","","","",""
"html-keyboard-response","68","91874","0.0-5.0-2.21","5971640e7ec240000170cb69","bdp_rd","Sat Mar 25 2023 23:04:53 GMT-0500 (Central Daylight Time)","165766","","1508","","","","offer","","<div class='trialBorder'><div class='vertical-center'><img style='vertical-align:center; align:center' src=img/fixation3.jpg></div><div class='cl'><div class='vertical-center'>$27<br>for<br>sure</div></div><div class='cr'><div class='vertical-center'>$47<br>with a<br>50% chance</div></div><div class='respDivL'><div class='vertical-center'>(E)</div></div><div class='respDivR'><div class='vertical-center'>(I)</div></div></div>","E","$27","$47","0","27","47","SURE"
"html-keyboard-response","69","92127","0.0-5.0-3.21","5971640e7ec240000170cb69","bdp_rd","Sat Mar 25 2023 23:04:53 GMT-0500 (Central Daylight Time)","165766","","null","","","","offerFB","","<div class='trialBorder'><div class='vertical-center'><img style='vertical-align:center; align:center' src=img/fixation3.jpg></div><div class='cl'><div class='vertical-center'><font style='color:orange'>$27<br>for<br>sure</font></div></div><div class='cr'><div class='vertical-center'>$47<br>with a<br>50% chance</div></div><div class='respDivL'><div class='vertical-center'><font style='color:orange'>(E)</font></div></div><div class='respDivR'><div class='vertical-center'>(I)</div></div></div>","null","$27","$47","0","27","47",""
"html-keyboard-response","70","92629","0.0-5.0-1.22","5971640e7ec240000170cb69","bdp_rd","Sat Mar 25 2023 23:04:53 GMT-0500 (Central Daylight Time)","165766","","null","","","","FIX","","<div class='trialBorder'><div class='vertical-center'><img style='vertical-align:center; align:center' src=img/fixation3.jpg></div></div>","null","","","","","",""
"html-keyboard-response","71","93813","0.0-5.0-2.22","5971640e7ec240000170cb69","bdp_rd","Sat Mar 25 2023 23:04:53 GMT-0500 (Central Daylight Time)","165766","","1182","","","","offer","","<div class='trialBorder'><div class='vertical-center'><img style='vertical-align:center; align:center' src=img/fixation3.jpg></div><div class='cl'><div class='vertical-center'>$100<br>with a<br>50% chance</div></div><div class='cr'><div class='vertical-center'>$63<br>for<br>sure</div></div><div class='respDivL'><div class='vertical-center'>(E)</div></div><div class='respDivR'><div class='vertical-center'>(I)</div></div></div>","I","$63","$100","1","63","10","SURE"
"html-keyboard-response","72","94066","0.0-5.0-3.22","5971640e7ec240000170cb69","bdp_rd","Sat Mar 25 2023 23:04:53 GMT-0500 (Central Daylight Time)","165766","","null","","","","offerFB","","<div class='trialBorder'><div class='vertical-center'><img style='vertical-align:center; align:center' src=img/fixation3.jpg></div><div class='cl'><div class='vertical-center'>$100<br>with a<br>50% chance</div></div><div class='cr'><div class='vertical-center'><font style='color:orange'>$63<br>for<br>sure</font></div></div><div class='respDivL'><div class='vertical-center'>(E)</div></div><div class='respDivR'><div class='vertical-center'><font style='color:orange'>(I)</font></div></div></div>","null","$63","$100","1","63","10",""
"html-keyboard-response","73","94567","0.0-5.0-1.23","5971640e7ec240000170cb69","bdp_rd","Sat Mar 25 2023 23:04:53 GMT-0500 (Central Daylight Time)","165766","","null","","","","FIX","","<div class='trialBorder'><div class='vertical-center'><img style='vertical-align:center; align:center' src=img/fixation3.jpg></div></div>","null","","","","","",""
"html-keyboard-response","74","95431","0.0-5.0-2.23","5971640e7ec240000170cb69","bdp_rd","Sat Mar 25 2023 23:04:53 GMT-0500 (Central Daylight Time)","165766","","862","","","","offer","","<div class='trialBorder'><div class='vertical-center'><img style='vertical-align:center; align:center' src=img/fixation3.jpg></div><div class='cl'><div class='vertical-center'>$42<br>for<br>sure</div></div><div class='cr'><div class='vertical-center'>$73<br>with a<br>50% chance</div></div><div class='respDivL'><div class='vertical-center'>(E)</div></div><div class='respDivR'><div class='vertical-center'>(I)</div></div></div>","E","$42","$73","0","42","73","SURE"
"html-keyboard-response","75","95684","0.0-5.0-3.23","5971640e7ec240000170cb69","bdp_rd","Sat Mar 25 2023 23:04:53 GMT-0500 (Central Daylight Time)","165766","","null","","","","offerFB","","<div class='trialBorder'><div class='vertical-center'><img style='vertical-align:center; align:center' src=img/fixation3.jpg></div><div class='cl'><div class='vertical-center'><font style='color:orange'>$42<br>for<br>sure</font></div></div><div class='cr'><div class='vertical-center'>$73<br>with a<br>50% chance</div></div><div class='respDivL'><div class='vertical-center'><font style='color:orange'>(E)</font></div></div><div class='respDivR'><div class='vertical-center'>(I)</div></div></div>","null","$42","$73","0","42","73",""
"html-keyboard-response","76","96186","0.0-5.0-1.24","5971640e7ec240000170cb69","bdp_rd","Sat Mar 25 2023 23:04:53 GMT-0500 (Central Daylight Time)","165766","","null","","","","FIX","","<div class='trialBorder'><div class='vertical-center'><img style='vertical-align:center; align:center' src=img/fixation3.jpg></div></div>","null","","","","","",""
"html-keyboard-response","77","97327","0.0-5.0-2.24","5971640e7ec240000170cb69","bdp_rd","Sat Mar 25 2023 23:04:53 GMT-0500 (Central Daylight Time)","165766","","1138","","","","offer","","<div class='trialBorder'><div class='vertical-center'><img style='vertical-align:center; align:center' src=img/fixation3.jpg></div><div class='cl'><div class='vertical-center'>$39<br>with a<br>50% chance</div></div><div class='cr'><div class='vertical-center'>$18<br>for<br>sure</div></div><div class='respDivL'><div class='vertical-center'>(E)</div></div><div class='respDivR'><div class='vertical-center'>(I)</div></div></div>","I","$18","$39","1","18","39","SURE"
"html-keyboard-response","78","97580","0.0-5.0-3.24","5971640e7ec240000170cb69","bdp_rd","Sat Mar 25 2023 23:04:53 GMT-0500 (Central Daylight Time)","165766","","null","","","","offerFB","","<div class='trialBorder'><div class='vertical-center'><img style='vertical-align:center; align:center' src=img/fixation3.jpg></div><div class='cl'><div class='vertical-center'>$39<br>with a<br>50% chance</div></div><div class='cr'><div class='vertical-center'><font style='color:orange'>$18<br>for<br>sure</font></div></div><div class='respDivL'><div class='vertical-center'>(E)</div></div><div class='respDivR'><div class='vertical-center'><font style='color:orange'>(I)</font></div></div></div>","null","$18","$39","1","18","39",""
"html-keyboard-response","79","98082","0.0-5.0-1.25","5971640e7ec240000170cb69","bdp_rd","Sat Mar 25 2023 23:04:53 GMT-0500 (Central Daylight Time)","165766","","null","","","","FIX","","<div class='trialBorder'><div class='vertical-center'><img style='vertical-align:center; align:center' src=img/fixation3.jpg></div></div>","null","","","","","",""
"html-keyboard-response","80","99625","0.0-5.0-2.25","5971640e7ec240000170cb69","bdp_rd","Sat Mar 25 2023 23:04:53 GMT-0500 (Central Daylight Time)","165766","","1539","","","","offer","","<div class='trialBorder'><div class='vertical-center'><img style='vertical-align:center; align:center' src=img/fixation3.jpg></div><div class='cl'><div class='vertical-center'>$10<br>for<br>sure</div></div><div class='cr'><div class='vertical-center'>$40<br>with a<br>50% chance</div></div><div class='respDivL'><div class='vertical-center'>(E)</div></div><div class='respDivR'><div class='vertical-center'>(I)</div></div></div>","I","$10","$40","0","10","40","RISKY"
"html-keyboard-response","81","99877","0.0-5.0-3.25","5971640e7ec240000170cb69","bdp_rd","Sat Mar 25 2023 23:04:53 GMT-0500 (Central Daylight Time)","165766","","null","","","","offerFB","","<div class='trialBorder'><div class='vertical-center'><img style='vertical-align:center; align:center' src=img/fixation3.jpg></div><div class='cl'><div class='vertical-center'>$10<br>for<br>sure</div></div><div class='cr'><div class='vertical-center'><font style='color:orange'>$40<br>with a<br>50% chance</font></div></div><div class='respDivL'><div class='vertical-center'>(E)</div></div><div class='respDivR'><div class='vertical-center'><font style='color:orange'>(I)</font></div></div></div>","null","$10","$40","0","10","40",""
"html-keyboard-response","82","100380","0.0-5.0-1.26","5971640e7ec240000170cb69","bdp_rd","Sat Mar 25 2023 23:04:53 GMT-0500 (Central Daylight Time)","165766","","null","","","","FIX","","<div class='trialBorder'><div class='vertical-center'><img style='vertical-align:center; align:center' src=img/fixation3.jpg></div></div>","null","","","","","",""
"html-keyboard-response","83","101822","0.0-5.0-2.26","5971640e7ec240000170cb69","bdp_rd","Sat Mar 25 2023 23:04:53 GMT-0500 (Central Daylight Time)","165766","","1441","","","","offer","","<div class='trialBorder'><div class='vertical-center'><img style='vertical-align:center; align:center' src=img/fixation3.jpg></div><div class='cl'><div class='vertical-center'>$45<br>for<br>sure</div></div><div class='cr'><div class='vertical-center'>$86<br>with a<br>50% chance</div></div><div class='respDivL'><div class='vertical-center'>(E)</div></div><div class='respDivR'><div class='vertical-center'>(I)</div></div></div>","E","$45","$86","0","45","86","SURE"
"html-keyboard-response","84","102075","0.0-5.0-3.26","5971640e7ec240000170cb69","bdp_rd","Sat Mar 25 2023 23:04:53 GMT-0500 (Central Daylight Time)","165766","","null","","","","offerFB","","<div class='trialBorder'><div class='vertical-center'><img style='vertical-align:center; align:center' src=img/fixation3.jpg></div><div class='cl'><div class='vertical-center'><font style='color:orange'>$45<br>for<br>sure</font></div></div><div class='cr'><div class='vertical-center'>$86<br>with a<br>50% chance</div></div><div class='respDivL'><div class='vertical-center'><font style='color:orange'>(E)</font></div></div><div class='respDivR'><div class='vertical-center'>(I)</div></div></div>","null","$45","$86","0","45","86",""
"html-keyboard-response","85","102577","0.0-5.0-1.27","5971640e7ec240000170cb69","bdp_rd","Sat Mar 25 2023 23:04:53 GMT-0500 (Central Daylight Time)","165766","","null","","","","FIX","","<div class='trialBorder'><div class='vertical-center'><img style='vertical-align:center; align:center' src=img/fixation3.jpg></div></div>","null","","","","","",""
"html-keyboard-response","86","105294","0.0-5.0-2.27","5971640e7ec240000170cb69","bdp_rd","Sat Mar 25 2023 23:04:53 GMT-0500 (Central Daylight Time)","165766","","2714","","","","offer","","<div class='trialBorder'><div class='vertical-center'><img style='vertical-align:center; align:center' src=img/fixation3.jpg></div><div class='cl'><div class='vertical-center'>$62<br>with a<br>50% chance</div></div><div class='cr'><div class='vertical-center'>$11<br>for<br>sure</div></div><div class='respDivL'><div class='vertical-center'>(E)</div></div><div class='respDivR'><div class='vertical-center'>(I)</div></div></div>","E","$11","$62","1","11","62","RISKY"
"html-keyboard-response","87","105546","0.0-5.0-3.27","5971640e7ec240000170cb69","bdp_rd","Sat Mar 25 2023 23:04:53 GMT-0500 (Central Daylight Time)","165766","","null","","","","offerFB","","<div class='trialBorder'><div class='vertical-center'><img style='vertical-align:center; align:center' src=img/fixation3.jpg></div><div class='cl'><div class='vertical-center'><font style='color:orange'>$62<br>with a<br>50% chance</font></div></div><div class='cr'><div class='vertical-center'>$11<br>for<br>sure</div></div><div class='respDivL'><div class='vertical-center'><font style='color:orange'>(E)</font></div></div><div class='respDivR'><div class='vertical-center'>(I)</div></div></div>","null","$11","$62","1","11","62",""
"html-keyboard-response","88","106050","0.0-5.0-1.28","5971640e7ec240000170cb69","bdp_rd","Sat Mar 25 2023 23:04:53 GMT-0500 (Central Daylight Time)","165766","","null","","","","FIX","","<div class='trialBorder'><div class='vertical-center'><img style='vertical-align:center; align:center' src=img/fixation3.jpg></div></div>","null","","","","","",""
"html-keyboard-response","89","107086","0.0-5.0-2.28","5971640e7ec240000170cb69","bdp_rd","Sat Mar 25 2023 23:04:53 GMT-0500 (Central Daylight Time)","165766","","1034","","","","offer","","<div class='trialBorder'><div class='vertical-center'><img style='vertical-align:center; align:center' src=img/fixation3.jpg></div><div class='cl'><div class='vertical-center'>$40<br>for<br>sure</div></div><div class='cr'><div class='vertical-center'>$95<br>with a<br>50% chance</div></div><div class='respDivL'><div class='vertical-center'>(E)</div></div><div class='respDivR'><div class='vertical-center'>(I)</div></div></div>","I","$40","$95","0","40","95","RISKY"
"html-keyboard-response","90","107340","0.0-5.0-3.28","5971640e7ec240000170cb69","bdp_rd","Sat Mar 25 2023 23:04:53 GMT-0500 (Central Daylight Time)","165766","","null","","","","offerFB","","<div class='trialBorder'><div class='vertical-center'><img style='vertical-align:center; align:center' src=img/fixation3.jpg></div><div class='cl'><div class='vertical-center'>$40<br>for<br>sure</div></div><div class='cr'><div class='vertical-center'><font style='color:orange'>$95<br>with a<br>50% chance</font></div></div><div class='respDivL'><div class='vertical-center'>(E)</div></div><div class='respDivR'><div class='vertical-center'><font style='color:orange'>(I)</font></div></div></div>","null","$40","$95","0","40","95",""
"html-keyboard-response","91","107841","0.0-5.0-1.29","5971640e7ec240000170cb69","bdp_rd","Sat Mar 25 2023 23:04:53 GMT-0500 (Central Daylight Time)","165766","","null","","","","FIX","","<div class='trialBorder'><div class='vertical-center'><img style='vertical-align:center; align:center' src=img/fixation3.jpg></div></div>","null","","","","","",""
"html-keyboard-response","92","109207","0.0-5.0-2.29","5971640e7ec240000170cb69","bdp_rd","Sat Mar 25 2023 23:04:53 GMT-0500 (Central Daylight Time)","165766","","1363","","","","offer","","<div class='trialBorder'><div class='vertical-center'><img style='vertical-align:center; align:center' src=img/fixation3.jpg></div><div class='cl'><div class='vertical-center'>$22<br>with a<br>50% chance</div></div><div class='cr'><div class='vertical-center'>$14<br>for<br>sure</div></div><div class='respDivL'><div class='vertical-center'>(E)</div></div><div class='respDivR'><div class='vertical-center'>(I)</div></div></div>","I","$14","$22","1","14","22","SURE"
"html-keyboard-response","93","109459","0.0-5.0-3.29","5971640e7ec240000170cb69","bdp_rd","Sat Mar 25 2023 23:04:53 GMT-0500 (Central Daylight Time)","165766","","null","","","","offerFB","","<div class='trialBorder'><div class='vertical-center'><img style='vertical-align:center; align:center' src=img/fixation3.jpg></div><div class='cl'><div class='vertical-center'>$22<br>with a<br>50% chance</div></div><div class='cr'><div class='vertical-center'><font style='color:orange'>$14<br>for<br>sure</font></div></div><div class='respDivL'><div class='vertical-center'>(E)</div></div><div class='respDivR'><div class='vertical-center'><font style='color:orange'>(I)</font></div></div></div>","null","$14","$22","1","14","22",""
"html-keyboard-response","94","109961","0.0-5.0-1.30","5971640e7ec240000170cb69","bdp_rd","Sat Mar 25 2023 23:04:53 GMT-0500 (Central Daylight Time)","165766","","null","","","","FIX","","<div class='trialBorder'><div class='vertical-center'><img style='vertical-align:center; align:center' src=img/fixation3.jpg></div></div>","null","","","","","",""
"html-keyboard-response","95","110849","0.0-5.0-2.30","5971640e7ec240000170cb69","bdp_rd","Sat Mar 25 2023 23:04:53 GMT-0500 (Central Daylight Time)","165766","","886","","","","offer","","<div class='trialBorder'><div class='vertical-center'><img style='vertical-align:center; align:center' src=img/fixation3.jpg></div><div class='cl'><div class='vertical-center'>$30<br>with a<br>50% chance</div></div><div class='cr'><div class='vertical-center'>$1<br>for<br>sure</div></div><div class='respDivL'><div class='vertical-center'>(E)</div></div><div class='respDivR'><div class='vertical-center'>(I)</div></div></div>","E","$1","$30","1","1","30","RISKY"
"html-keyboard-response","96","111101","0.0-5.0-3.30","5971640e7ec240000170cb69","bdp_rd","Sat Mar 25 2023 23:04:53 GMT-0500 (Central Daylight Time)","165766","","null","","","","offerFB","","<div class='trialBorder'><div class='vertical-center'><img style='vertical-align:center; align:center' src=img/fixation3.jpg></div><div class='cl'><div class='vertical-center'><font style='color:orange'>$30<br>with a<br>50% chance</font></div></div><div class='cr'><div class='vertical-center'>$1<br>for<br>sure</div></div><div class='respDivL'><div class='vertical-center'><font style='color:orange'>(E)</font></div></div><div class='respDivR'><div class='vertical-center'>(I)</div></div></div>","null","$1","$30","1","1","30",""
"html-keyboard-response","97","111604","0.0-5.0-1.31","5971640e7ec240000170cb69","bdp_rd","Sat Mar 25 2023 23:04:53 GMT-0500 (Central Daylight Time)","165766","","null","","","","FIX","","<div class='trialBorder'><div class='vertical-center'><img style='vertical-align:center; align:center' src=img/fixation3.jpg></div></div>","null","","","","","",""
"html-keyboard-response","98","112604","0.0-5.0-2.31","5971640e7ec240000170cb69","bdp_rd","Sat Mar 25 2023 23:04:53 GMT-0500 (Central Daylight Time)","165766","","998","","","","offer","","<div class='trialBorder'><div class='vertical-center'><img style='vertical-align:center; align:center' src=img/fixation3.jpg></div><div class='cl'><div class='vertical-center'>$44<br>with a<br>50% chance</div></div><div class='cr'><div class='vertical-center'>$37<br>for<br>sure</div></div><div class='respDivL'><div class='vertical-center'>(E)</div></div><div class='respDivR'><div class='vertical-center'>(I)</div></div></div>","I","$37","$44","1","37","44","SURE"
"html-keyboard-response","99","112857","0.0-5.0-3.31","5971640e7ec240000170cb69","bdp_rd","Sat Mar 25 2023 23:04:53 GMT-0500 (Central Daylight Time)","165766","","null","","","","offerFB","","<div class='trialBorder'><div class='vertical-center'><img style='vertical-align:center; align:center' src=img/fixation3.jpg></div><div class='cl'><div class='vertical-center'>$44<br>with a<br>50% chance</div></div><div class='cr'><div class='vertical-center'><font style='color:orange'>$37<br>for<br>sure</font></div></div><div class='respDivL'><div class='vertical-center'>(E)</div></div><div class='respDivR'><div class='vertical-center'><font style='color:orange'>(I)</font></div></div></div>","null","$37","$44","1","37","44",""
"html-keyboard-response","100","113358","0.0-5.0-1.32","5971640e7ec240000170cb69","bdp_rd","Sat Mar 25 2023 23:04:53 GMT-0500 (Central Daylight Time)","165766","","null","","","","FIX","","<div class='trialBorder'><div class='vertical-center'><img style='vertical-align:center; align:center' src=img/fixation3.jpg></div></div>","null","","","","","",""
"html-keyboard-response","101","114524","0.0-5.0-2.32","5971640e7ec240000170cb69","bdp_rd","Sat Mar 25 2023 23:04:53 GMT-0500 (Central Daylight Time)","165766","","1163","","","","offer","","<div class='trialBorder'><div class='vertical-center'><img style='vertical-align:center; align:center' src=img/fixation3.jpg></div><div class='cl'><div class='vertical-center'>$8<br>for<br>sure</div></div><div class='cr'><div class='vertical-center'>$23<br>with a<br>50% chance</div></div><div class='respDivL'><div class='vertical-center'>(E)</div></div><div class='respDivR'><div class='vertical-center'>(I)</div></div></div>","I","$8","$23","0","8","23","RISKY"
"html-keyboard-response","102","114777","0.0-5.0-3.32","5971640e7ec240000170cb69","bdp_rd","Sat Mar 25 2023 23:04:53 GMT-0500 (Central Daylight Time)","165766","","null","","","","offerFB","","<div class='trialBorder'><div class='vertical-center'><img style='vertical-align:center; align:center' src=img/fixation3.jpg></div><div class='cl'><div class='vertical-center'>$8<br>for<br>sure</div></div><div class='cr'><div class='vertical-center'><font style='color:orange'>$23<br>with a<br>50% chance</font></div></div><div class='respDivL'><div class='vertical-center'>(E)</div></div><div class='respDivR'><div class='vertical-center'><font style='color:orange'>(I)</font></div></div></div>","null","$8","$23","0","8","23",""
"html-keyboard-response","103","115279","0.0-5.0-1.33","5971640e7ec240000170cb69","bdp_rd","Sat Mar 25 2023 23:04:53 GMT-0500 (Central Daylight Time)","165766","","null","","","","FIX","","<div class='trialBorder'><div class='vertical-center'><img style='vertical-align:center; align:center' src=img/fixation3.jpg></div></div>","null","","","","","",""
"html-keyboard-response","104","116387","0.0-5.0-2.33","5971640e7ec240000170cb69","bdp_rd","Sat Mar 25 2023 23:04:53 GMT-0500 (Central Daylight Time)","165766","","1106","","","","offer","","<div class='trialBorder'><div class='vertical-center'><img style='vertical-align:center; align:center' src=img/fixation3.jpg></div><div class='cl'><div class='vertical-center'>$50<br>with a<br>50% chance</div></div><div class='cr'><div class='vertical-center'>$5<br>for<br>sure</div></div><div class='respDivL'><div class='vertical-center'>(E)</div></div><div class='respDivR'><div class='vertical-center'>(I)</div></div></div>","E","$5","$50","1","5","50","RISKY"
"html-keyboard-response","105","116640","0.0-5.0-3.33","5971640e7ec240000170cb69","bdp_rd","Sat Mar 25 2023 23:04:53 GMT-0500 (Central Daylight Time)","165766","","null","","","","offerFB","","<div class='trialBorder'><div class='vertical-center'><img style='vertical-align:center; align:center' src=img/fixation3.jpg></div><div class='cl'><div class='vertical-center'><font style='color:orange'>$50<br>with a<br>50% chance</font></div></div><div class='cr'><div class='vertical-center'>$5<br>for<br>sure</div></div><div class='respDivL'><div class='vertical-center'><font style='color:orange'>(E)</font></div></div><div class='respDivR'><div class='vertical-center'>(I)</div></div></div>","null","$5","$50","1","5","50",""
"html-keyboard-response","106","117142","0.0-5.0-1.34","5971640e7ec240000170cb69","bdp_rd","Sat Mar 25 2023 23:04:53 GMT-0500 (Central Daylight Time)","165766","","null","","","","FIX","","<div class='trialBorder'><div class='vertical-center'><img style='vertical-align:center; align:center' src=img/fixation3.jpg></div></div>","null","","","","","",""
"html-keyboard-response","107","118161","0.0-5.0-2.34","5971640e7ec240000170cb69","bdp_rd","Sat Mar 25 2023 23:04:53 GMT-0500 (Central Daylight Time)","165766","","1016","","","","offer","","<div class='trialBorder'><div class='vertical-center'><img style='vertical-align:center; align:center' src=img/fixation3.jpg></div><div class='cl'><div class='vertical-center'>$17<br>for<br>sure</div></div><div class='cr'><div class='vertical-center'>$43<br>with a<br>50% chance</div></div><div class='respDivL'><div class='vertical-center'>(E)</div></div><div class='respDivR'><div class='vertical-center'>(I)</div></div></div>","I","$17","$43","0","17","43","RISKY"
"html-keyboard-response","108","118414","0.0-5.0-3.34","5971640e7ec240000170cb69","bdp_rd","Sat Mar 25 2023 23:04:53 GMT-0500 (Central Daylight Time)","165766","","null","","","","offerFB","","<div class='trialBorder'><div class='vertical-center'><img style='vertical-align:center; align:center' src=img/fixation3.jpg></div><div class='cl'><div class='vertical-center'>$17<br>for<br>sure</div></div><div class='cr'><div class='vertical-center'><font style='color:orange'>$43<br>with a<br>50% chance</font></div></div><div class='respDivL'><div class='vertical-center'>(E)</div></div><div class='respDivR'><div class='vertical-center'><font style='color:orange'>(I)</font></div></div></div>","null","$17","$43","0","17","43",""
"html-keyboard-response","109","118916","0.0-5.0-1.35","5971640e7ec240000170cb69","bdp_rd","Sat Mar 25 2023 23:04:53 GMT-0500 (Central Daylight Time)","165766","","null","","","","FIX","","<div class='trialBorder'><div class='vertical-center'><img style='vertical-align:center; align:center' src=img/fixation3.jpg></div></div>","null","","","","","",""
"html-keyboard-response","110","119898","0.0-5.0-2.35","5971640e7ec240000170cb69","bdp_rd","Sat Mar 25 2023 23:04:53 GMT-0500 (Central Daylight Time)","165766","","981","","","","offer","","<div class='trialBorder'><div class='vertical-center'><img style='vertical-align:center; align:center' src=img/fixation3.jpg></div><div class='cl'><div class='vertical-center'>$7<br>for<br>sure</div></div><div class='cr'><div class='vertical-center'>$71<br>with a<br>50% chance</div></div><div class='respDivL'><div class='vertical-center'>(E)</div></div><div class='respDivR'><div class='vertical-center'>(I)</div></div></div>","I","$7","$71","0","7","71","RISKY"
"html-keyboard-response","111","120151","0.0-5.0-3.35","5971640e7ec240000170cb69","bdp_rd","Sat Mar 25 2023 23:04:53 GMT-0500 (Central Daylight Time)","165766","","null","","","","offerFB","","<div class='trialBorder'><div class='vertical-center'><img style='vertical-align:center; align:center' src=img/fixation3.jpg></div><div class='cl'><div class='vertical-center'>$7<br>for<br>sure</div></div><div class='cr'><div class='vertical-center'><font style='color:orange'>$71<br>with a<br>50% chance</font></div></div><div class='respDivL'><div class='vertical-center'>(E)</div></div><div class='respDivR'><div class='vertical-center'><font style='color:orange'>(I)</font></div></div></div>","null","$7","$71","0","7","71",""
"html-keyboard-response","112","120653","0.0-5.0-1.36","5971640e7ec240000170cb69","bdp_rd","Sat Mar 25 2023 23:04:53 GMT-0500 (Central Daylight Time)","165766","","null","","","","FIX","","<div class='trialBorder'><div class='vertical-center'><img style='vertical-align:center; align:center' src=img/fixation3.jpg></div></div>","null","","","","","",""
"html-keyboard-response","113","122241","0.0-5.0-2.36","5971640e7ec240000170cb69","bdp_rd","Sat Mar 25 2023 23:04:53 GMT-0500 (Central Daylight Time)","165766","","1586","","","","offer","","<div class='trialBorder'><div class='vertical-center'><img style='vertical-align:center; align:center' src=img/fixation3.jpg></div><div class='cl'><div class='vertical-center'>$18<br>with a<br>50% chance</div></div><div class='cr'><div class='vertical-center'>$9<br>for<br>sure</div></div><div class='respDivL'><div class='vertical-center'>(E)</div></div><div class='respDivR'><div class='vertical-center'>(I)</div></div></div>","I","$9","$18","1","9","18","SURE"
"html-keyboard-response","114","122494","0.0-5.0-3.36","5971640e7ec240000170cb69","bdp_rd","Sat Mar 25 2023 23:04:53 GMT-0500 (Central Daylight Time)","165766","","null","","","","offerFB","","<div class='trialBorder'><div class='vertical-center'><img style='vertical-align:center; align:center' src=img/fixation3.jpg></div><div class='cl'><div class='vertical-center'>$18<br>with a<br>50% chance</div></div><div class='cr'><div class='vertical-center'><font style='color:orange'>$9<br>for<br>sure</font></div></div><div class='respDivL'><div class='vertical-center'>(E)</div></div><div class='respDivR'><div class='vertical-center'><font style='color:orange'>(I)</font></div></div></div>","null","$9","$18","1","9","18",""
"html-keyboard-response","115","122996","0.0-5.0-1.37","5971640e7ec240000170cb69","bdp_rd","Sat Mar 25 2023 23:04:53 GMT-0500 (Central Daylight Time)","165766","","null","","","","FIX","","<div class='trialBorder'><div class='vertical-center'><img style='vertical-align:center; align:center' src=img/fixation3.jpg></div></div>","null","","","","","",""
"html-keyboard-response","116","123793","0.0-5.0-2.37","5971640e7ec240000170cb69","bdp_rd","Sat Mar 25 2023 23:04:53 GMT-0500 (Central Daylight Time)","165766","","796","","","","offer","","<div class='trialBorder'><div class='vertical-center'><img style='vertical-align:center; align:center' src=img/fixation3.jpg></div><div class='cl'><div class='vertical-center'>$15<br>for<br>sure</div></div><div class='cr'><div class='vertical-center'>$31<br>with a<br>50% chance</div></div><div class='respDivL'><div class='vertical-center'>(E)</div></div><div class='respDivR'><div class='vertical-center'>(I)</div></div></div>","I","$15","$31","0","15","31","RISKY"
"html-keyboard-response","117","124046","0.0-5.0-3.37","5971640e7ec240000170cb69","bdp_rd","Sat Mar 25 2023 23:04:53 GMT-0500 (Central Daylight Time)","165766","","null","","","","offerFB","","<div class='trialBorder'><div class='vertical-center'><img style='vertical-align:center; align:center' src=img/fixation3.jpg></div><div class='cl'><div class='vertical-center'>$15<br>for<br>sure</div></div><div class='cr'><div class='vertical-center'><font style='color:orange'>$31<br>with a<br>50% chance</font></div></div><div class='respDivL'><div class='vertical-center'>(E)</div></div><div class='respDivR'><div class='vertical-center'><font style='color:orange'>(I)</font></div></div></div>","null","$15","$31","0","15","31",""
"html-keyboard-response","118","124549","0.0-5.0-1.38","5971640e7ec240000170cb69","bdp_rd","Sat Mar 25 2023 23:04:53 GMT-0500 (Central Daylight Time)","165766","","null","","","","FIX","","<div class='trialBorder'><div class='vertical-center'><img style='vertical-align:center; align:center' src=img/fixation3.jpg></div></div>","null","","","","","",""
"html-keyboard-response","119","125773","0.0-5.0-2.38","5971640e7ec240000170cb69","bdp_rd","Sat Mar 25 2023 23:04:53 GMT-0500 (Central Daylight Time)","165766","","1223","","","","offer","","<div class='trialBorder'><div class='vertical-center'><img style='vertical-align:center; align:center' src=img/fixation3.jpg></div><div class='cl'><div class='vertical-center'>$30<br>for<br>sure</div></div><div class='cr'><div class='vertical-center'>$68<br>with a<br>50% chance</div></div><div class='respDivL'><div class='vertical-center'>(E)</div></div><div class='respDivR'><div class='vertical-center'>(I)</div></div></div>","E","$30","$68","0","30","68","SURE"
"html-keyboard-response","120","126025","0.0-5.0-3.38","5971640e7ec240000170cb69","bdp_rd","Sat Mar 25 2023 23:04:53 GMT-0500 (Central Daylight Time)","165766","","null","","","","offerFB","","<div class='trialBorder'><div class='vertical-center'><img style='vertical-align:center; align:center' src=img/fixation3.jpg></div><div class='cl'><div class='vertical-center'><font style='color:orange'>$30<br>for<br>sure</font></div></div><div class='cr'><div class='vertical-center'>$68<br>with a<br>50% chance</div></div><div class='respDivL'><div class='vertical-center'><font style='color:orange'>(E)</font></div></div><div class='respDivR'><div class='vertical-center'>(I)</div></div></div>","null","$30","$68","0","30","68",""
"html-keyboard-response","121","126527","0.0-5.0-1.39","5971640e7ec240000170cb69","bdp_rd","Sat Mar 25 2023 23:04:53 GMT-0500 (Central Daylight Time)","165766","","null","","","","FIX","","<div class='trialBorder'><div class='vertical-center'><img style='vertical-align:center; align:center' src=img/fixation3.jpg></div></div>","null","","","","","",""
"html-keyboard-response","122","127893","0.0-5.0-2.39","5971640e7ec240000170cb69","bdp_rd","Sat Mar 25 2023 23:04:53 GMT-0500 (Central Daylight Time)","165766","","1364","","","","offer","","<div class='trialBorder'><div class='vertical-center'><img style='vertical-align:center; align:center' src=img/fixation3.jpg></div><div class='cl'><div class='vertical-center'>$80<br>with a<br>50% chance</div></div><div class='cr'><div class='vertical-center'>$20<br>for<br>sure</div></div><div class='respDivL'><div class='vertical-center'>(E)</div></div><div class='respDivR'><div class='vertical-center'>(I)</div></div></div>","E","$20","$80","1","20","80","RISKY"
"html-keyboard-response","123","128146","0.0-5.0-3.39","5971640e7ec240000170cb69","bdp_rd","Sat Mar 25 2023 23:04:53 GMT-0500 (Central Daylight Time)","165766","","null","","","","offerFB","","<div class='trialBorder'><div class='vertical-center'><img style='vertical-align:center; align:center' src=img/fixation3.jpg></div><div class='cl'><div class='vertical-center'><font style='color:orange'>$80<br>with a<br>50% chance</font></div></div><div class='cr'><div class='vertical-center'>$20<br>for<br>sure</div></div><div class='respDivL'><div class='vertical-center'><font style='color:orange'>(E)</font></div></div><div class='respDivR'><div class='vertical-center'>(I)</div></div></div>","null","$20","$80","1","20","80",""
"html-keyboard-response","124","128648","0.0-5.0-1.40","5971640e7ec240000170cb69","bdp_rd","Sat Mar 25 2023 23:04:53 GMT-0500 (Central Daylight Time)","165766","","null","","","","FIX","","<div class='trialBorder'><div class='vertical-center'><img style='vertical-align:center; align:center' src=img/fixation3.jpg></div></div>","null","","","","","",""
"html-keyboard-response","125","129547","0.0-5.0-2.40","5971640e7ec240000170cb69","bdp_rd","Sat Mar 25 2023 23:04:53 GMT-0500 (Central Daylight Time)","165766","","897","","","","offer","","<div class='trialBorder'><div class='vertical-center'><img style='vertical-align:center; align:center' src=img/fixation3.jpg></div><div class='cl'><div class='vertical-center'>$8<br>for<br>sure</div></div><div class='cr'><div class='vertical-center'>$45<br>with a<br>50% chance</div></div><div class='respDivL'><div class='vertical-center'>(E)</div></div><div class='respDivR'><div class='vertical-center'>(I)</div></div></div>","I","$8","$45","0","8","45","RISKY"
"html-keyboard-response","126","129800","0.0-5.0-3.40","5971640e7ec240000170cb69","bdp_rd","Sat Mar 25 2023 23:04:53 GMT-0500 (Central Daylight Time)","165766","","null","","","","offerFB","","<div class='trialBorder'><div class='vertical-center'><img style='vertical-align:center; align:center' src=img/fixation3.jpg></div><div class='cl'><div class='vertical-center'>$8<br>for<br>sure</div></div><div class='cr'><div class='vertical-center'><font style='color:orange'>$45<br>with a<br>50% chance</font></div></div><div class='respDivL'><div class='vertical-center'>(E)</div></div><div class='respDivR'><div class='vertical-center'><font style='color:orange'>(I)</font></div></div></div>","null","$8","$45","0","8","45",""
"html-keyboard-response","127","130303","0.0-5.0-1.41","5971640e7ec240000170cb69","bdp_rd","Sat Mar 25 2023 23:04:53 GMT-0500 (Central Daylight Time)","165766","","null","","","","FIX","","<div class='trialBorder'><div class='vertical-center'><img style='vertical-align:center; align:center' src=img/fixation3.jpg></div></div>","null","","","","","",""
"html-keyboard-response","128","131547","0.0-5.0-2.41","5971640e7ec240000170cb69","bdp_rd","Sat Mar 25 2023 23:04:53 GMT-0500 (Central Daylight Time)","165766","","1242","","","","offer","","<div class='trialBorder'><div class='vertical-center'><img style='vertical-align:center; align:center' src=img/fixation3.jpg></div><div class='cl'><div class='vertical-center'>$9<br>for<br>sure</div></div><div class='cr'><div class='vertical-center'>$32<br>with a<br>50% chance</div></div><div class='respDivL'><div class='vertical-center'>(E)</div></div><div class='respDivR'><div class='vertical-center'>(I)</div></div></div>","I","$9","$32","0","9","32","RISKY"
"html-keyboard-response","129","131799","0.0-5.0-3.41","5971640e7ec240000170cb69","bdp_rd","Sat Mar 25 2023 23:04:53 GMT-0500 (Central Daylight Time)","165766","","null","","","","offerFB","","<div class='trialBorder'><div class='vertical-center'><img style='vertical-align:center; align:center' src=img/fixation3.jpg></div><div class='cl'><div class='vertical-center'>$9<br>for<br>sure</div></div><div class='cr'><div class='vertical-center'><font style='color:orange'>$32<br>with a<br>50% chance</font></div></div><div class='respDivL'><div class='vertical-center'>(E)</div></div><div class='respDivR'><div class='vertical-center'><font style='color:orange'>(I)</font></div></div></div>","null","$9","$32","0","9","32",""
"html-keyboard-response","130","132302","0.0-5.0-1.42","5971640e7ec240000170cb69","bdp_rd","Sat Mar 25 2023 23:04:53 GMT-0500 (Central Daylight Time)","165766","","null","","","","FIX","","<div class='trialBorder'><div class='vertical-center'><img style='vertical-align:center; align:center' src=img/fixation3.jpg></div></div>","null","","","","","",""
"html-keyboard-response","131","133176","0.0-5.0-2.42","5971640e7ec240000170cb69","bdp_rd","Sat Mar 25 2023 23:04:53 GMT-0500 (Central Daylight Time)","165766","","872","","","","offer","","<div class='trialBorder'><div class='vertical-center'><img style='vertical-align:center; align:center' src=img/fixation3.jpg></div><div class='cl'><div class='vertical-center'>$16<br>with a<br>50% chance</div></div><div class='cr'><div class='vertical-center'>$5<br>for<br>sure</div></div><div class='respDivL'><div class='vertical-center'>(E)</div></div><div class='respDivR'><div class='vertical-center'>(I)</div></div></div>","I","$5","$16","1","5","16","SURE"
"html-keyboard-response","132","133429","0.0-5.0-3.42","5971640e7ec240000170cb69","bdp_rd","Sat Mar 25 2023 23:04:53 GMT-0500 (Central Daylight Time)","165766","","null","","","","offerFB","","<div class='trialBorder'><div class='vertical-center'><img style='vertical-align:center; align:center' src=img/fixation3.jpg></div><div class='cl'><div class='vertical-center'>$16<br>with a<br>50% chance</div></div><div class='cr'><div class='vertical-center'><font style='color:orange'>$5<br>for<br>sure</font></div></div><div class='respDivL'><div class='vertical-center'>(E)</div></div><div class='respDivR'><div class='vertical-center'><font style='color:orange'>(I)</font></div></div></div>","null","$5","$16","1","5","16",""
"html-keyboard-response","133","133932","0.0-5.0-1.43","5971640e7ec240000170cb69","bdp_rd","Sat Mar 25 2023 23:04:53 GMT-0500 (Central Daylight Time)","165766","","null","","","","FIX","","<div class='trialBorder'><div class='vertical-center'><img style='vertical-align:center; align:center' src=img/fixation3.jpg></div></div>","null","","","","","",""
"html-keyboard-response","134","134971","0.0-5.0-2.43","5971640e7ec240000170cb69","bdp_rd","Sat Mar 25 2023 23:04:53 GMT-0500 (Central Daylight Time)","165766","","1038","","","","offer","","<div class='trialBorder'><div class='vertical-center'><img style='vertical-align:center; align:center' src=img/fixation3.jpg></div><div class='cl'><div class='vertical-center'>$11<br>for<br>sure</div></div><div class='cr'><div class='vertical-center'>$26<br>with a<br>50% chance</div></div><div class='respDivL'><div class='vertical-center'>(E)</div></div><div class='respDivR'><div class='vertical-center'>(I)</div></div></div>","E","$11","$26","0","11","26","SURE"
"html-keyboard-response","135","135223","0.0-5.0-3.43","5971640e7ec240000170cb69","bdp_rd","Sat Mar 25 2023 23:04:53 GMT-0500 (Central Daylight Time)","165766","","null","","","","offerFB","","<div class='trialBorder'><div class='vertical-center'><img style='vertical-align:center; align:center' src=img/fixation3.jpg></div><div class='cl'><div class='vertical-center'><font style='color:orange'>$11<br>for<br>sure</font></div></div><div class='cr'><div class='vertical-center'>$26<br>with a<br>50% chance</div></div><div class='respDivL'><div class='vertical-center'><font style='color:orange'>(E)</font></div></div><div class='respDivR'><div class='vertical-center'>(I)</div></div></div>","null","$11","$26","0","11","26",""
"html-keyboard-response","136","135725","0.0-5.0-1.44","5971640e7ec240000170cb69","bdp_rd","Sat Mar 25 2023 23:04:53 GMT-0500 (Central Daylight Time)","165766","","null","","","","FIX","","<div class='trialBorder'><div class='vertical-center'><img style='vertical-align:center; align:center' src=img/fixation3.jpg></div></div>","null","","","","","",""
"html-keyboard-response","137","136532","0.0-5.0-2.44","5971640e7ec240000170cb69","bdp_rd","Sat Mar 25 2023 23:04:53 GMT-0500 (Central Daylight Time)","165766","","806","","","","offer","","<div class='trialBorder'><div class='vertical-center'><img style='vertical-align:center; align:center' src=img/fixation3.jpg></div><div class='cl'><div class='vertical-center'>$46<br>with a<br>50% chance</div></div><div class='cr'><div class='vertical-center'>$29<br>for<br>sure</div></div><div class='respDivL'><div class='vertical-center'>(E)</div></div><div class='respDivR'><div class='vertical-center'>(I)</div></div></div>","I","$29","$46","1","29","46","SURE"
"html-keyboard-response","138","136786","0.0-5.0-3.44","5971640e7ec240000170cb69","bdp_rd","Sat Mar 25 2023 23:04:53 GMT-0500 (Central Daylight Time)","165766","","null","","","","offerFB","","<div class='trialBorder'><div class='vertical-center'><img style='vertical-align:center; align:center' src=img/fixation3.jpg></div><div class='cl'><div class='vertical-center'>$46<br>with a<br>50% chance</div></div><div class='cr'><div class='vertical-center'><font style='color:orange'>$29<br>for<br>sure</font></div></div><div class='respDivL'><div class='vertical-center'>(E)</div></div><div class='respDivR'><div class='vertical-center'><font style='color:orange'>(I)</font></div></div></div>","null","$29","$46","1","29","46",""
"html-keyboard-response","139","137287","0.0-5.0-1.45","5971640e7ec240000170cb69","bdp_rd","Sat Mar 25 2023 23:04:53 GMT-0500 (Central Daylight Time)","165766","","null","","","","FIX","","<div class='trialBorder'><div class='vertical-center'><img style='vertical-align:center; align:center' src=img/fixation3.jpg></div></div>","null","","","","","",""
"html-keyboard-response","140","138012","0.0-5.0-2.45","5971640e7ec240000170cb69","bdp_rd","Sat Mar 25 2023 23:04:53 GMT-0500 (Central Daylight Time)","165766","","723","","","","offer","","<div class='trialBorder'><div class='vertical-center'><img style='vertical-align:center; align:center' src=img/fixation3.jpg></div><div class='cl'><div class='vertical-center'>$25<br>for<br>sure</div></div><div class='cr'><div class='vertical-center'>$54<br>with a<br>50% chance</div></div><div class='respDivL'><div class='vertical-center'>(E)</div></div><div class='respDivR'><div class='vertical-center'>(I)</div></div></div>","E","$25","$54","0","25","54","SURE"
"html-keyboard-response","141","138265","0.0-5.0-3.45","5971640e7ec240000170cb69","bdp_rd","Sat Mar 25 2023 23:04:53 GMT-0500 (Central Daylight Time)","165766","","null","","","","offerFB","","<div class='trialBorder'><div class='vertical-center'><img style='vertical-align:center; align:center' src=img/fixation3.jpg></div><div class='cl'><div class='vertical-center'><font style='color:orange'>$25<br>for<br>sure</font></div></div><div class='cr'><div class='vertical-center'>$54<br>with a<br>50% chance</div></div><div class='respDivL'><div class='vertical-center'><font style='color:orange'>(E)</font></div></div><div class='respDivR'><div class='vertical-center'>(I)</div></div></div>","null","$25","$54","0","25","54",""
"html-keyboard-response","142","138768","0.0-5.0-1.46","5971640e7ec240000170cb69","bdp_rd","Sat Mar 25 2023 23:04:53 GMT-0500 (Central Daylight Time)","165766","","null","","","","FIX","","<div class='trialBorder'><div class='vertical-center'><img style='vertical-align:center; align:center' src=img/fixation3.jpg></div></div>","null","","","","","",""
"html-keyboard-response","143","139610","0.0-5.0-2.46","5971640e7ec240000170cb69","bdp_rd","Sat Mar 25 2023 23:04:53 GMT-0500 (Central Daylight Time)","165766","","841","","","","offer","","<div class='trialBorder'><div class='vertical-center'><img style='vertical-align:center; align:center' src=img/fixation3.jpg></div><div class='cl'><div class='vertical-center'>$3<br>for<br>sure</div></div><div class='cr'><div class='vertical-center'>$17<br>with a<br>50% chance</div></div><div class='respDivL'><div class='vertical-center'>(E)</div></div><div class='respDivR'><div class='vertical-center'>(I)</div></div></div>","I","$3","$17","0","3","17","RISKY"
"html-keyboard-response","144","139864","0.0-5.0-3.46","5971640e7ec240000170cb69","bdp_rd","Sat Mar 25 2023 23:04:53 GMT-0500 (Central Daylight Time)","165766","","null","","","","offerFB","","<div class='trialBorder'><div class='vertical-center'><img style='vertical-align:center; align:center' src=img/fixation3.jpg></div><div class='cl'><div class='vertical-center'>$3<br>for<br>sure</div></div><div class='cr'><div class='vertical-center'><font style='color:orange'>$17<br>with a<br>50% chance</font></div></div><div class='respDivL'><div class='vertical-center'>(E)</div></div><div class='respDivR'><div class='vertical-center'><font style='color:orange'>(I)</font></div></div></div>","null","$3","$17","0","3","17",""
"html-keyboard-response","145","140366","0.0-5.0-1.47","5971640e7ec240000170cb69","bdp_rd","Sat Mar 25 2023 23:04:53 GMT-0500 (Central Daylight Time)","165766","","null","","","","FIX","","<div class='trialBorder'><div class='vertical-center'><img style='vertical-align:center; align:center' src=img/fixation3.jpg></div></div>","null","","","","","",""
"html-keyboard-response","146","141586","0.0-5.0-2.47","5971640e7ec240000170cb69","bdp_rd","Sat Mar 25 2023 23:04:53 GMT-0500 (Central Daylight Time)","165766","","1217","","","","offer","","<div class='trialBorder'><div class='vertical-center'><img style='vertical-align:center; align:center' src=img/fixation3.jpg></div><div class='cl'><div class='vertical-center'>$10<br>for<br>sure</div></div><div class='cr'><div class='vertical-center'>$19<br>with a<br>50% chance</div></div><div class='respDivL'><div class='vertical-center'>(E)</div></div><div class='respDivR'><div class='vertical-center'>(I)</div></div></div>","I","$10","$19","0","10","19","RISKY"
"html-keyboard-response","147","141838","0.0-5.0-3.47","5971640e7ec240000170cb69","bdp_rd","Sat Mar 25 2023 23:04:53 GMT-0500 (Central Daylight Time)","165766","","null","","","","offerFB","","<div class='trialBorder'><div class='vertical-center'><img style='vertical-align:center; align:center' src=img/fixation3.jpg></div><div class='cl'><div class='vertical-center'>$10<br>for<br>sure</div></div><div class='cr'><div class='vertical-center'><font style='color:orange'>$19<br>with a<br>50% chance</font></div></div><div class='respDivL'><div class='vertical-center'>(E)</div></div><div class='respDivR'><div class='vertical-center'><font style='color:orange'>(I)</font></div></div></div>","null","$10","$19","0","10","19",""
"html-keyboard-response","148","142340","0.0-5.0-1.48","5971640e7ec240000170cb69","bdp_rd","Sat Mar 25 2023 23:04:53 GMT-0500 (Central Daylight Time)","165766","","null","","","","FIX","","<div class='trialBorder'><div class='vertical-center'><img style='vertical-align:center; align:center' src=img/fixation3.jpg></div></div>","null","","","","","",""
"html-keyboard-response","149","143471","0.0-5.0-2.48","5971640e7ec240000170cb69","bdp_rd","Sat Mar 25 2023 23:04:53 GMT-0500 (Central Daylight Time)","165766","","1129","","","","offer","","<div class='trialBorder'><div class='vertical-center'><img style='vertical-align:center; align:center' src=img/fixation3.jpg></div><div class='cl'><div class='vertical-center'>$35<br>with a<br>50% chance</div></div><div class='cr'><div class='vertical-center'>$12<br>for<br>sure</div></div><div class='respDivL'><div class='vertical-center'>(E)</div></div><div class='respDivR'><div class='vertical-center'>(I)</div></div></div>","E","$12","$35","1","12","35","RISKY"
"html-keyboard-response","150","143724","0.0-5.0-3.48","5971640e7ec240000170cb69","bdp_rd","Sat Mar 25 2023 23:04:53 GMT-0500 (Central Daylight Time)","165766","","null","","","","offerFB","","<div class='trialBorder'><div class='vertical-center'><img style='vertical-align:center; align:center' src=img/fixation3.jpg></div><div class='cl'><div class='vertical-center'><font style='color:orange'>$35<br>with a<br>50% chance</font></div></div><div class='cr'><div class='vertical-center'>$12<br>for<br>sure</div></div><div class='respDivL'><div class='vertical-center'><font style='color:orange'>(E)</font></div></div><div class='respDivR'><div class='vertical-center'>(I)</div></div></div>","null","$12","$35","1","12","35",""
"html-keyboard-response","151","144226","0.0-5.0-1.49","5971640e7ec240000170cb69","bdp_rd","Sat Mar 25 2023 23:04:53 GMT-0500 (Central Daylight Time)","165766","","null","","","","FIX","","<div class='trialBorder'><div class='vertical-center'><img style='vertical-align:center; align:center' src=img/fixation3.jpg></div></div>","null","","","","","",""
"html-keyboard-response","152","146317","0.0-5.0-2.49","5971640e7ec240000170cb69","bdp_rd","Sat Mar 25 2023 23:04:53 GMT-0500 (Central Daylight Time)","165766","","2089","","","","offer","","<div class='trialBorder'><div class='vertical-center'><img style='vertical-align:center; align:center' src=img/fixation3.jpg></div><div class='cl'><div class='vertical-center'>$46<br>for<br>sure</div></div><div class='cr'><div class='vertical-center'>$65<br>with a<br>50% chance</div></div><div class='respDivL'><div class='vertical-center'>(E)</div></div><div class='respDivR'><div class='vertical-center'>(I)</div></div></div>","E","$46","$65","0","46","65","SURE"
"html-keyboard-response","153","146570","0.0-5.0-3.49","5971640e7ec240000170cb69","bdp_rd","Sat Mar 25 2023 23:04:53 GMT-0500 (Central Daylight Time)","165766","","null","","","","offerFB","","<div class='trialBorder'><div class='vertical-center'><img style='vertical-align:center; align:center' src=img/fixation3.jpg></div><div class='cl'><div class='vertical-center'><font style='color:orange'>$46<br>for<br>sure</font></div></div><div class='cr'><div class='vertical-center'>$65<br>with a<br>50% chance</div></div><div class='respDivL'><div class='vertical-center'><font style='color:orange'>(E)</font></div></div><div class='respDivR'><div class='vertical-center'>(I)</div></div></div>","null","$46","$65","0","46","65",""
"html-keyboard-response","154","147072","0.0-5.0-1.50","5971640e7ec240000170cb69","bdp_rd","Sat Mar 25 2023 23:04:53 GMT-0500 (Central Daylight Time)","165766","","null","","","","FIX","","<div class='trialBorder'><div class='vertical-center'><img style='vertical-align:center; align:center' src=img/fixation3.jpg></div></div>","null","","","","","",""
"html-keyboard-response","155","148140","0.0-5.0-2.50","5971640e7ec240000170cb69","bdp_rd","Sat Mar 25 2023 23:04:53 GMT-0500 (Central Daylight Time)","165766","","1066","","","","offer","","<div class='trialBorder'><div class='vertical-center'><img style='vertical-align:center; align:center' src=img/fixation3.jpg></div><div class='cl'><div class='vertical-center'>$98<br>with a<br>50% chance</div></div><div class='cr'><div class='vertical-center'>$53<br>for<br>sure</div></div><div class='respDivL'><div class='vertical-center'>(E)</div></div><div class='respDivR'><div class='vertical-center'>(I)</div></div></div>","E","$53","$98","1","53","98","RISKY"
"html-keyboard-response","156","148393","0.0-5.0-3.50","5971640e7ec240000170cb69","bdp_rd","Sat Mar 25 2023 23:04:53 GMT-0500 (Central Daylight Time)","165766","","null","","","","offerFB","","<div class='trialBorder'><div class='vertical-center'><img style='vertical-align:center; align:center' src=img/fixation3.jpg></div><div class='cl'><div class='vertical-center'><font style='color:orange'>$98<br>with a<br>50% chance</font></div></div><div class='cr'><div class='vertical-center'>$53<br>for<br>sure</div></div><div class='respDivL'><div class='vertical-center'><font style='color:orange'>(E)</font></div></div><div class='respDivR'><div class='vertical-center'>(I)</div></div></div>","null","$53","$98","1","53","98",""
"html-keyboard-response","157","148896","0.0-5.0-1.51","5971640e7ec240000170cb69","bdp_rd","Sat Mar 25 2023 23:04:53 GMT-0500 (Central Daylight Time)","165766","","null","","","","FIX","","<div class='trialBorder'><div class='vertical-center'><img style='vertical-align:center; align:center' src=img/fixation3.jpg></div></div>","null","","","","","",""
"html-keyboard-response","158","149741","0.0-5.0-2.51","5971640e7ec240000170cb69","bdp_rd","Sat Mar 25 2023 23:04:53 GMT-0500 (Central Daylight Time)","165766","","843","","","","offer","","<div class='trialBorder'><div class='vertical-center'><img style='vertical-align:center; align:center' src=img/fixation3.jpg></div><div class='cl'><div class='vertical-center'>$37<br>with a<br>50% chance</div></div><div class='cr'><div class='vertical-center'>$20<br>for<br>sure</div></div><div class='respDivL'><div class='vertical-center'>(E)</div></div><div class='respDivR'><div class='vertical-center'>(I)</div></div></div>","E","$20","$37","1","20","37","RISKY"
"html-keyboard-response","159","149994","0.0-5.0-3.51","5971640e7ec240000170cb69","bdp_rd","Sat Mar 25 2023 23:04:53 GMT-0500 (Central Daylight Time)","165766","","null","","","","offerFB","","<div class='trialBorder'><div class='vertical-center'><img style='vertical-align:center; align:center' src=img/fixation3.jpg></div><div class='cl'><div class='vertical-center'><font style='color:orange'>$37<br>with a<br>50% chance</font></div></div><div class='cr'><div class='vertical-center'>$20<br>for<br>sure</div></div><div class='respDivL'><div class='vertical-center'><font style='color:orange'>(E)</font></div></div><div class='respDivR'><div class='vertical-center'>(I)</div></div></div>","null","$20","$37","1","20","37",""
"html-keyboard-response","160","150497","0.0-5.0-1.52","5971640e7ec240000170cb69","bdp_rd","Sat Mar 25 2023 23:04:53 GMT-0500 (Central Daylight Time)","165766","","null","","","","FIX","","<div class='trialBorder'><div class='vertical-center'><img style='vertical-align:center; align:center' src=img/fixation3.jpg></div></div>","null","","","","","",""
"html-keyboard-response","161","151396","0.0-5.0-2.52","5971640e7ec240000170cb69","bdp_rd","Sat Mar 25 2023 23:04:53 GMT-0500 (Central Daylight Time)","165766","","898","","","","offer","","<div class='trialBorder'><div class='vertical-center'><img style='vertical-align:center; align:center' src=img/fixation3.jpg></div><div class='cl'><div class='vertical-center'>$14<br>with a<br>50% chance</div></div><div class='cr'><div class='vertical-center'>$4<br>for<br>sure</div></div><div class='respDivL'><div class='vertical-center'>(E)</div></div><div class='respDivR'><div class='vertical-center'>(I)</div></div></div>","E","$4","$14","1","4","14","RISKY"
"html-keyboard-response","162","151650","0.0-5.0-3.52","5971640e7ec240000170cb69","bdp_rd","Sat Mar 25 2023 23:04:53 GMT-0500 (Central Daylight Time)","165766","","null","","","","offerFB","","<div class='trialBorder'><div class='vertical-center'><img style='vertical-align:center; align:center' src=img/fixation3.jpg></div><div class='cl'><div class='vertical-center'><font style='color:orange'>$14<br>with a<br>50% chance</font></div></div><div class='cr'><div class='vertical-center'>$4<br>for<br>sure</div></div><div class='respDivL'><div class='vertical-center'><font style='color:orange'>(E)</font></div></div><div class='respDivR'><div class='vertical-center'>(I)</div></div></div>","null","$4","$14","1","4","14",""
"html-keyboard-response","163","152152","0.0-5.0-1.53","5971640e7ec240000170cb69","bdp_rd","Sat Mar 25 2023 23:04:53 GMT-0500 (Central Daylight Time)","165766","","null","","","","FIX","","<div class='trialBorder'><div class='vertical-center'><img style='vertical-align:center; align:center' src=img/fixation3.jpg></div></div>","null","","","","","",""
"html-keyboard-response","164","152825","0.0-5.0-2.53","5971640e7ec240000170cb69","bdp_rd","Sat Mar 25 2023 23:04:53 GMT-0500 (Central Daylight Time)","165766","","671","","","","offer","","<div class='trialBorder'><div class='vertical-center'><img style='vertical-align:center; align:center' src=img/fixation3.jpg></div><div class='cl'><div class='vertical-center'>$3<br>for<br>sure</div></div><div class='cr'><div class='vertical-center'>$12<br>with a<br>50% chance</div></div><div class='respDivL'><div class='vertical-center'>(E)</div></div><div class='respDivR'><div class='vertical-center'>(I)</div></div></div>","I","$3","$12","0","3","12","RISKY"
"html-keyboard-response","165","153078","0.0-5.0-3.53","5971640e7ec240000170cb69","bdp_rd","Sat Mar 25 2023 23:04:53 GMT-0500 (Central Daylight Time)","165766","","null","","","","offerFB","","<div class='trialBorder'><div class='vertical-center'><img style='vertical-align:center; align:center' src=img/fixation3.jpg></div><div class='cl'><div class='vertical-center'>$3<br>for<br>sure</div></div><div class='cr'><div class='vertical-center'><font style='color:orange'>$12<br>with a<br>50% chance</font></div></div><div class='respDivL'><div class='vertical-center'>(E)</div></div><div class='respDivR'><div class='vertical-center'><font style='color:orange'>(I)</font></div></div></div>","null","$3","$12","0","3","12",""
"html-keyboard-response","166","153580","0.0-5.0-1.54","5971640e7ec240000170cb69","bdp_rd","Sat Mar 25 2023 23:04:53 GMT-0500 (Central Daylight Time)","165766","","null","","","","FIX","","<div class='trialBorder'><div class='vertical-center'><img style='vertical-align:center; align:center' src=img/fixation3.jpg></div></div>","null","","","","","",""
"html-keyboard-response","167","154187","0.0-5.0-2.54","5971640e7ec240000170cb69","bdp_rd","Sat Mar 25 2023 23:04:53 GMT-0500 (Central Daylight Time)","165766","","606","","","","offer","","<div class='trialBorder'><div class='vertical-center'><img style='vertical-align:center; align:center' src=img/fixation3.jpg></div><div class='cl'><div class='vertical-center'>$42<br>with a<br>50% chance</div></div><div class='cr'><div class='vertical-center'>$22<br>for<br>sure</div></div><div class='respDivL'><div class='vertical-center'>(E)</div></div><div class='respDivR'><div class='vertical-center'>(I)</div></div></div>","E","$22","$42","1","22","42","RISKY"
"html-keyboard-response","168","154440","0.0-5.0-3.54","5971640e7ec240000170cb69","bdp_rd","Sat Mar 25 2023 23:04:53 GMT-0500 (Central Daylight Time)","165766","","null","","","","offerFB","","<div class='trialBorder'><div class='vertical-center'><img style='vertical-align:center; align:center' src=img/fixation3.jpg></div><div class='cl'><div class='vertical-center'><font style='color:orange'>$42<br>with a<br>50% chance</font></div></div><div class='cr'><div class='vertical-center'>$22<br>for<br>sure</div></div><div class='respDivL'><div class='vertical-center'><font style='color:orange'>(E)</font></div></div><div class='respDivR'><div class='vertical-center'>(I)</div></div></div>","null","$22","$42","1","22","42",""
"html-keyboard-response","169","154943","0.0-5.0-1.55","5971640e7ec240000170cb69","bdp_rd","Sat Mar 25 2023 23:04:53 GMT-0500 (Central Daylight Time)","165766","","null","","","","FIX","","<div class='trialBorder'><div class='vertical-center'><img style='vertical-align:center; align:center' src=img/fixation3.jpg></div></div>","null","","","","","",""
"html-keyboard-response","170","155605","0.0-5.0-2.55","5971640e7ec240000170cb69","bdp_rd","Sat Mar 25 2023 23:04:53 GMT-0500 (Central Daylight Time)","165766","","660","","","","offer","","<div class='trialBorder'><div class='vertical-center'><img style='vertical-align:center; align:center' src=img/fixation3.jpg></div><div class='cl'><div class='vertical-center'>$33<br>for<br>sure</div></div><div class='cr'><div class='vertical-center'>$66<br>with a<br>50% chance</div></div><div class='respDivL'><div class='vertical-center'>(E)</div></div><div class='respDivR'><div class='vertical-center'>(I)</div></div></div>","E","$33","$66","0","33","66","SURE"
"html-keyboard-response","171","155857","0.0-5.0-3.55","5971640e7ec240000170cb69","bdp_rd","Sat Mar 25 2023 23:04:53 GMT-0500 (Central Daylight Time)","165766","","null","","","","offerFB","","<div class='trialBorder'><div class='vertical-center'><img style='vertical-align:center; align:center' src=img/fixation3.jpg></div><div class='cl'><div class='vertical-center'><font style='color:orange'>$33<br>for<br>sure</font></div></div><div class='cr'><div class='vertical-center'>$66<br>with a<br>50% chance</div></div><div class='respDivL'><div class='vertical-center'><font style='color:orange'>(E)</font></div></div><div class='respDivR'><div class='vertical-center'>(I)</div></div></div>","null","$33","$66","0","33","66",""
"html-keyboard-response","172","156359","0.0-5.0-1.56","5971640e7ec240000170cb69","bdp_rd","Sat Mar 25 2023 23:04:53 GMT-0500 (Central Daylight Time)","165766","","null","","","","FIX","","<div class='trialBorder'><div class='vertical-center'><img style='vertical-align:center; align:center' src=img/fixation3.jpg></div></div>","null","","","","","",""
"html-keyboard-response","173","158172","0.0-5.0-2.56","5971640e7ec240000170cb69","bdp_rd","Sat Mar 25 2023 23:04:53 GMT-0500 (Central Daylight Time)","165766","","1810","","","","offer","","<div class='trialBorder'><div class='vertical-center'><img style='vertical-align:center; align:center' src=img/fixation3.jpg></div><div class='cl'><div class='vertical-center'>$18<br>for<br>sure</div></div><div class='cr'><div class='vertical-center'>$36<br>with a<br>50% chance</div></div><div class='respDivL'><div class='vertical-center'>(E)</div></div><div class='respDivR'><div class='vertical-center'>(I)</div></div></div>","E","$18","$36","0","18","36","SURE"
