"event","trial","time","trialtype","subject_id","task","startTime","totalTime","trial_type","trial_index","time_elapsed","internal_node_id","view_history","rt","numBlurs","success","stimulus","key_press","sureOffer","riskyOffer","riskyLeft","sureAmt","riskyAmt","chosen"
"focus","0","0","focusevent","5e654e2055e480000dcd002a","bdp_rd","Mon Mar 27 2023 15:47:56 GMT-0400 (Eastern Daylight Time)","147181","","","","","","","","","","","","","","","",""
"","","","","5e654e2055e480000dcd002a","bdp_rd","Mon Mar 27 2023 15:47:56 GMT-0400 (Eastern Daylight Time)","147181","pavlovia","0","2","0.0-0.0","","","","","","","","","","","",""
"","","","","5e654e2055e480000dcd002a","bdp_rd","Mon Mar 27 2023 15:47:56 GMT-0400 (Eastern Daylight Time)","147181","instructions","1","861","0.0-1.0","[{""page_index"":0,""viewing_time"":859}]","859","","","","","","","","","",""
"blur","2","4835","blurevent","5e654e2055e480000dcd002a","bdp_rd","Mon Mar 27 2023 15:47:56 GMT-0400 (Eastern Daylight Time)","147181","","","","","","","1","","","","","","","","",""
"focus","2","4890","focusevent","5e654e2055e480000dcd002a","bdp_rd","Mon Mar 27 2023 15:47:56 GMT-0400 (Eastern Daylight Time)","147181","","","","","","","","","","","","","","","",""
"fullscreenexit","2","4891","fullscreenexit","5e654e2055e480000dcd002a","bdp_rd","Mon Mar 27 2023 15:47:56 GMT-0400 (Eastern Daylight Time)","147181","","","","","","","","","","","","","","","",""
"","","","","5e654e2055e480000dcd002a","bdp_rd","Mon Mar 27 2023 15:47:56 GMT-0400 (Eastern Daylight Time)","147181","fullscreen","2","5619","0.0-2.0","","","","true","","","","","","","",""
"","","","fullscreenfail","5e654e2055e480000dcd002a","bdp_rd","Mon Mar 27 2023 15:47:56 GMT-0400 (Eastern Daylight Time)","147181","image-keyboard-response","3","7475","0.0-3.0-0.0","","1852","","","","32","","","","","",""
"","","","","5e654e2055e480000dcd002a","bdp_rd","Mon Mar 27 2023 15:47:56 GMT-0400 (Eastern Daylight Time)","147181","instructions","4","17035","0.0-4.0","[{""page_index"":0,""viewing_time"":5723},{""page_index"":1,""viewing_time"":1705},{""page_index"":2,""viewing_time"":1874}]","9302","","","","","","","","","",""
"","","","blurwarn","5e654e2055e480000dcd002a","bdp_rd","Mon Mar 27 2023 15:47:56 GMT-0400 (Eastern Daylight Time)","147181","image-keyboard-response","5","18225","0.0-5.0-0.0-0.0","","1188","1","","","49","","","","","",""
"","","","FIX","5e654e2055e480000dcd002a","bdp_rd","Mon Mar 27 2023 15:47:56 GMT-0400 (Eastern Daylight Time)","147181","html-keyboard-response","6","18986","0.0-5.0-1.0","","null","","","<div class='trialBorder'><div class='vertical-center'><img style='vertical-align:center; align:center' src=img/fixation3.jpg></div></div>","null","","","","","",""
"","","","offer","5e654e2055e480000dcd002a","bdp_rd","Mon Mar 27 2023 15:47:56 GMT-0400 (Eastern Daylight Time)","147181","html-keyboard-response","7","22904","0.0-5.0-2.0","","3916","","","<div class='trialBorder'><div class='vertical-center'><img style='vertical-align:center; align:center' src=img/fixation3.jpg></div><div class='cl'><div class='vertical-center'>$42<br>with a<br>50% chance</div></div><div class='cr'><div class='vertical-center'>$22<br>for<br>sure</div></div><div class='respDivL'><div class='vertical-center'>(E)</div></div><div class='respDivR'><div class='vertical-center'>(I)</div></div></div>","E","$22","$42","1","22","42","RISKY"
"","","","offerFB","5e654e2055e480000dcd002a","bdp_rd","Mon Mar 27 2023 15:47:56 GMT-0400 (Eastern Daylight Time)","147181","html-keyboard-response","8","23161","0.0-5.0-3.0","","null","","","<div class='trialBorder'><div class='vertical-center'><img style='vertical-align:center; align:center' src=img/fixation3.jpg></div><div class='cl'><div class='vertical-center'><font style='color:orange'>$42<br>with a<br>50% chance</font></div></div><div class='cr'><div class='vertical-center'>$22<br>for<br>sure</div></div><div class='respDivL'><div class='vertical-center'><font style='color:orange'>(E)</font></div></div><div class='respDivR'><div class='vertical-center'>(I)</div></div></div>","null","$22","$42","1","22","42",""
"","","","FIX","5e654e2055e480000dcd002a","bdp_rd","Mon Mar 27 2023 15:47:56 GMT-0400 (Eastern Daylight Time)","147181","html-keyboard-response","9","23668","0.0-5.0-1.1","","null","","","<div class='trialBorder'><div class='vertical-center'><img style='vertical-align:center; align:center' src=img/fixation3.jpg></div></div>","null","","","","","",""
"","","","offer","5e654e2055e480000dcd002a","bdp_rd","Mon Mar 27 2023 15:47:56 GMT-0400 (Eastern Daylight Time)","147181","html-keyboard-response","10","25423","0.0-5.0-2.1","","1751","","","<div class='trialBorder'><div class='vertical-center'><img style='vertical-align:center; align:center' src=img/fixation3.jpg></div><div class='cl'><div class='vertical-center'>$10<br>with a<br>50% chance</div></div><div class='cr'><div class='vertical-center'>$7<br>for<br>sure</div></div><div class='respDivL'><div class='vertical-center'>(E)</div></div><div class='respDivR'><div class='vertical-center'>(I)</div></div></div>","E","$7","$10","1","7","10","RISKY"
"","","","offerFB","5e654e2055e480000dcd002a","bdp_rd","Mon Mar 27 2023 15:47:56 GMT-0400 (Eastern Daylight Time)","147181","html-keyboard-response","11","25680","0.0-5.0-3.1","","null","","","<div class='trialBorder'><div class='vertical-center'><img style='vertical-align:center; align:center' src=img/fixation3.jpg></div><div class='cl'><div class='vertical-center'><font style='color:orange'>$10<br>with a<br>50% chance</font></div></div><div class='cr'><div class='vertical-center'>$7<br>for<br>sure</div></div><div class='respDivL'><div class='vertical-center'><font style='color:orange'>(E)</font></div></div><div class='respDivR'><div class='vertical-center'>(I)</div></div></div>","null","$7","$10","1","7","10",""
"","","","FIX","5e654e2055e480000dcd002a","bdp_rd","Mon Mar 27 2023 15:47:56 GMT-0400 (Eastern Daylight Time)","147181","html-keyboard-response","12","26185","0.0-5.0-1.2","","null","","","<div class='trialBorder'><div class='vertical-center'><img style='vertical-align:center; align:center' src=img/fixation3.jpg></div></div>","null","","","","","",""
"","","","offer","5e654e2055e480000dcd002a","bdp_rd","Mon Mar 27 2023 15:47:56 GMT-0400 (Eastern Daylight Time)","147181","html-keyboard-response","13","27981","0.0-5.0-2.2","","1793","","","<div class='trialBorder'><div class='vertical-center'><img style='vertical-align:center; align:center' src=img/fixation3.jpg></div><div class='cl'><div class='vertical-center'>$5<br>for<br>sure</div></div><div class='cr'><div class='vertical-center'>$50<br>with a<br>50% chance</div></div><div class='respDivL'><div class='vertical-center'>(E)</div></div><div class='respDivR'><div class='vertical-center'>(I)</div></div></div>","I","$5","$50","0","5","50","RISKY"
"","","","offerFB","5e654e2055e480000dcd002a","bdp_rd","Mon Mar 27 2023 15:47:56 GMT-0400 (Eastern Daylight Time)","147181","html-keyboard-response","14","28239","0.0-5.0-3.2","","null","","","<div class='trialBorder'><div class='vertical-center'><img style='vertical-align:center; align:center' src=img/fixation3.jpg></div><div class='cl'><div class='vertical-center'>$5<br>for<br>sure</div></div><div class='cr'><div class='vertical-center'><font style='color:orange'>$50<br>with a<br>50% chance</font></div></div><div class='respDivL'><div class='vertical-center'>(E)</div></div><div class='respDivR'><div class='vertical-center'><font style='color:orange'>(I)</font></div></div></div>","null","$5","$50","0","5","50",""
"","","","FIX","5e654e2055e480000dcd002a","bdp_rd","Mon Mar 27 2023 15:47:56 GMT-0400 (Eastern Daylight Time)","147181","html-keyboard-response","15","28746","0.0-5.0-1.3","","null","","","<div class='trialBorder'><div class='vertical-center'><img style='vertical-align:center; align:center' src=img/fixation3.jpg></div></div>","null","","","","","",""
"","","","offer","5e654e2055e480000dcd002a","bdp_rd","Mon Mar 27 2023 15:47:56 GMT-0400 (Eastern Daylight Time)","147181","html-keyboard-response","16","29714","0.0-5.0-2.3","","962","","","<div class='trialBorder'><div class='vertical-center'><img style='vertical-align:center; align:center' src=img/fixation3.jpg></div><div class='cl'><div class='vertical-center'>$23<br>with a<br>50% chance</div></div><div class='cr'><div class='vertical-center'>$8<br>for<br>sure</div></div><div class='respDivL'><div class='vertical-center'>(E)</div></div><div class='respDivR'><div class='vertical-center'>(I)</div></div></div>","E","$8","$23","1","8","23","RISKY"
"","","","offerFB","5e654e2055e480000dcd002a","bdp_rd","Mon Mar 27 2023 15:47:56 GMT-0400 (Eastern Daylight Time)","147181","html-keyboard-response","17","29971","0.0-5.0-3.3","","null","","","<div class='trialBorder'><div class='vertical-center'><img style='vertical-align:center; align:center' src=img/fixation3.jpg></div><div class='cl'><div class='vertical-center'><font style='color:orange'>$23<br>with a<br>50% chance</font></div></div><div class='cr'><div class='vertical-center'>$8<br>for<br>sure</div></div><div class='respDivL'><div class='vertical-center'><font style='color:orange'>(E)</font></div></div><div class='respDivR'><div class='vertical-center'>(I)</div></div></div>","null","$8","$23","1","8","23",""
"","","","FIX","5e654e2055e480000dcd002a","bdp_rd","Mon Mar 27 2023 15:47:56 GMT-0400 (Eastern Daylight Time)","147181","html-keyboard-response","18","30478","0.0-5.0-1.4","","null","","","<div class='trialBorder'><div class='vertical-center'><img style='vertical-align:center; align:center' src=img/fixation3.jpg></div></div>","null","","","","","",""
"","","","offer","5e654e2055e480000dcd002a","bdp_rd","Mon Mar 27 2023 15:47:56 GMT-0400 (Eastern Daylight Time)","147181","html-keyboard-response","19","31203","0.0-5.0-2.4","","723","","","<div class='trialBorder'><div class='vertical-center'><img style='vertical-align:center; align:center' src=img/fixation3.jpg></div><div class='cl'><div class='vertical-center'>$64<br>with a<br>50% chance</div></div><div class='cr'><div class='vertical-center'>$2<br>for<br>sure</div></div><div class='respDivL'><div class='vertical-center'>(E)</div></div><div class='respDivR'><div class='vertical-center'>(I)</div></div></div>","E","$2","$64","1","2","64","RISKY"
"","","","offerFB","5e654e2055e480000dcd002a","bdp_rd","Mon Mar 27 2023 15:47:56 GMT-0400 (Eastern Daylight Time)","147181","html-keyboard-response","20","31461","0.0-5.0-3.4","","null","","","<div class='trialBorder'><div class='vertical-center'><img style='vertical-align:center; align:center' src=img/fixation3.jpg></div><div class='cl'><div class='vertical-center'><font style='color:orange'>$64<br>with a<br>50% chance</font></div></div><div class='cr'><div class='vertical-center'>$2<br>for<br>sure</div></div><div class='respDivL'><div class='vertical-center'><font style='color:orange'>(E)</font></div></div><div class='respDivR'><div class='vertical-center'>(I)</div></div></div>","null","$2","$64","1","2","64",""
"","","","FIX","5e654e2055e480000dcd002a","bdp_rd","Mon Mar 27 2023 15:47:56 GMT-0400 (Eastern Daylight Time)","147181","html-keyboard-response","21","31967","0.0-5.0-1.5","","null","","","<div class='trialBorder'><div class='vertical-center'><img style='vertical-align:center; align:center' src=img/fixation3.jpg></div></div>","null","","","","","",""
"","","","offer","5e654e2055e480000dcd002a","bdp_rd","Mon Mar 27 2023 15:47:56 GMT-0400 (Eastern Daylight Time)","147181","html-keyboard-response","22","34100","0.0-5.0-2.5","","2132","","","<div class='trialBorder'><div class='vertical-center'><img style='vertical-align:center; align:center' src=img/fixation3.jpg></div><div class='cl'><div class='vertical-center'>$33<br>for<br>sure</div></div><div class='cr'><div class='vertical-center'>$66<br>with a<br>50% chance</div></div><div class='respDivL'><div class='vertical-center'>(E)</div></div><div class='respDivR'><div class='vertical-center'>(I)</div></div></div>","E","$33","$66","0","33","66","SURE"
"","","","offerFB","5e654e2055e480000dcd002a","bdp_rd","Mon Mar 27 2023 15:47:56 GMT-0400 (Eastern Daylight Time)","147181","html-keyboard-response","23","34355","0.0-5.0-3.5","","null","","","<div class='trialBorder'><div class='vertical-center'><img style='vertical-align:center; align:center' src=img/fixation3.jpg></div><div class='cl'><div class='vertical-center'><font style='color:orange'>$33<br>for<br>sure</font></div></div><div class='cr'><div class='vertical-center'>$66<br>with a<br>50% chance</div></div><div class='respDivL'><div class='vertical-center'><font style='color:orange'>(E)</font></div></div><div class='respDivR'><div class='vertical-center'>(I)</div></div></div>","null","$33","$66","0","33","66",""
"","","","FIX","5e654e2055e480000dcd002a","bdp_rd","Mon Mar 27 2023 15:47:56 GMT-0400 (Eastern Daylight Time)","147181","html-keyboard-response","24","34862","0.0-5.0-1.6","","null","","","<div class='trialBorder'><div class='vertical-center'><img style='vertical-align:center; align:center' src=img/fixation3.jpg></div></div>","null","","","","","",""
"","","","offer","5e654e2055e480000dcd002a","bdp_rd","Mon Mar 27 2023 15:47:56 GMT-0400 (Eastern Daylight Time)","147181","html-keyboard-response","25","36427","0.0-5.0-2.6","","1563","","","<div class='trialBorder'><div class='vertical-center'><img style='vertical-align:center; align:center' src=img/fixation3.jpg></div><div class='cl'><div class='vertical-center'>$16<br>with a<br>50% chance</div></div><div class='cr'><div class='vertical-center'>$5<br>for<br>sure</div></div><div class='respDivL'><div class='vertical-center'>(E)</div></div><div class='respDivR'><div class='vertical-center'>(I)</div></div></div>","E","$5","$16","1","5","16","RISKY"
"","","","offerFB","5e654e2055e480000dcd002a","bdp_rd","Mon Mar 27 2023 15:47:56 GMT-0400 (Eastern Daylight Time)","147181","html-keyboard-response","26","36685","0.0-5.0-3.6","","null","","","<div class='trialBorder'><div class='vertical-center'><img style='vertical-align:center; align:center' src=img/fixation3.jpg></div><div class='cl'><div class='vertical-center'><font style='color:orange'>$16<br>with a<br>50% chance</font></div></div><div class='cr'><div class='vertical-center'>$5<br>for<br>sure</div></div><div class='respDivL'><div class='vertical-center'><font style='color:orange'>(E)</font></div></div><div class='respDivR'><div class='vertical-center'>(I)</div></div></div>","null","$5","$16","1","5","16",""
"","","","FIX","5e654e2055e480000dcd002a","bdp_rd","Mon Mar 27 2023 15:47:56 GMT-0400 (Eastern Daylight Time)","147181","html-keyboard-response","27","37190","0.0-5.0-1.7","","null","","","<div class='trialBorder'><div class='vertical-center'><img style='vertical-align:center; align:center' src=img/fixation3.jpg></div></div>","null","","","","","",""
"","","","offer","5e654e2055e480000dcd002a","bdp_rd","Mon Mar 27 2023 15:47:56 GMT-0400 (Eastern Daylight Time)","147181","html-keyboard-response","28","38205","0.0-5.0-2.7","","1011","","","<div class='trialBorder'><div class='vertical-center'><img style='vertical-align:center; align:center' src=img/fixation3.jpg></div><div class='cl'><div class='vertical-center'>$31<br>with a<br>50% chance</div></div><div class='cr'><div class='vertical-center'>$15<br>for<br>sure</div></div><div class='respDivL'><div class='vertical-center'>(E)</div></div><div class='respDivR'><div class='vertical-center'>(I)</div></div></div>","E","$15","$31","1","15","31","RISKY"
"","","","offerFB","5e654e2055e480000dcd002a","bdp_rd","Mon Mar 27 2023 15:47:56 GMT-0400 (Eastern Daylight Time)","147181","html-keyboard-response","29","38461","0.0-5.0-3.7","","null","","","<div class='trialBorder'><div class='vertical-center'><img style='vertical-align:center; align:center' src=img/fixation3.jpg></div><div class='cl'><div class='vertical-center'><font style='color:orange'>$31<br>with a<br>50% chance</font></div></div><div class='cr'><div class='vertical-center'>$15<br>for<br>sure</div></div><div class='respDivL'><div class='vertical-center'><font style='color:orange'>(E)</font></div></div><div class='respDivR'><div class='vertical-center'>(I)</div></div></div>","null","$15","$31","1","15","31",""
"","","","FIX","5e654e2055e480000dcd002a","bdp_rd","Mon Mar 27 2023 15:47:56 GMT-0400 (Eastern Daylight Time)","147181","html-keyboard-response","30","38968","0.0-5.0-1.8","","null","","","<div class='trialBorder'><div class='vertical-center'><img style='vertical-align:center; align:center' src=img/fixation3.jpg></div></div>","null","","","","","",""
"","","","offer","5e654e2055e480000dcd002a","bdp_rd","Mon Mar 27 2023 15:47:56 GMT-0400 (Eastern Daylight Time)","147181","html-keyboard-response","31","39690","0.0-5.0-2.8","","720","","","<div class='trialBorder'><div class='vertical-center'><img style='vertical-align:center; align:center' src=img/fixation3.jpg></div><div class='cl'><div class='vertical-center'>$13<br>for<br>sure</div></div><div class='cr'><div class='vertical-center'>$24<br>with a<br>50% chance</div></div><div class='respDivL'><div class='vertical-center'>(E)</div></div><div class='respDivR'><div class='vertical-center'>(I)</div></div></div>","I","$13","$24","0","13","24","RISKY"
"","","","offerFB","5e654e2055e480000dcd002a","bdp_rd","Mon Mar 27 2023 15:47:56 GMT-0400 (Eastern Daylight Time)","147181","html-keyboard-response","32","39946","0.0-5.0-3.8","","null","","","<div class='trialBorder'><div class='vertical-center'><img style='vertical-align:center; align:center' src=img/fixation3.jpg></div><div class='cl'><div class='vertical-center'>$13<br>for<br>sure</div></div><div class='cr'><div class='vertical-center'><font style='color:orange'>$24<br>with a<br>50% chance</font></div></div><div class='respDivL'><div class='vertical-center'>(E)</div></div><div class='respDivR'><div class='vertical-center'><font style='color:orange'>(I)</font></div></div></div>","null","$13","$24","0","13","24",""
"","","","FIX","5e654e2055e480000dcd002a","bdp_rd","Mon Mar 27 2023 15:47:56 GMT-0400 (Eastern Daylight Time)","147181","html-keyboard-response","33","40453","0.0-5.0-1.9","","null","","","<div class='trialBorder'><div class='vertical-center'><img style='vertical-align:center; align:center' src=img/fixation3.jpg></div></div>","null","","","","","",""
"","","","offer","5e654e2055e480000dcd002a","bdp_rd","Mon Mar 27 2023 15:47:56 GMT-0400 (Eastern Daylight Time)","147181","html-keyboard-response","34","42104","0.0-5.0-2.9","","1648","","","<div class='trialBorder'><div class='vertical-center'><img style='vertical-align:center; align:center' src=img/fixation3.jpg></div><div class='cl'><div class='vertical-center'>$22<br>for<br>sure</div></div><div class='cr'><div class='vertical-center'>$59<br>with a<br>50% chance</div></div><div class='respDivL'><div class='vertical-center'>(E)</div></div><div class='respDivR'><div class='vertical-center'>(I)</div></div></div>","E","$22","$59","0","22","59","SURE"
"","","","offerFB","5e654e2055e480000dcd002a","bdp_rd","Mon Mar 27 2023 15:47:56 GMT-0400 (Eastern Daylight Time)","147181","html-keyboard-response","35","42361","0.0-5.0-3.9","","null","","","<div class='trialBorder'><div class='vertical-center'><img style='vertical-align:center; align:center' src=img/fixation3.jpg></div><div class='cl'><div class='vertical-center'><font style='color:orange'>$22<br>for<br>sure</font></div></div><div class='cr'><div class='vertical-center'>$59<br>with a<br>50% chance</div></div><div class='respDivL'><div class='vertical-center'><font style='color:orange'>(E)</font></div></div><div class='respDivR'><div class='vertical-center'>(I)</div></div></div>","null","$22","$59","0","22","59",""
"","","","FIX","5e654e2055e480000dcd002a","bdp_rd","Mon Mar 27 2023 15:47:56 GMT-0400 (Eastern Daylight Time)","147181","html-keyboard-response","36","42865","0.0-5.0-1.10","","null","","","<div class='trialBorder'><div class='vertical-center'><img style='vertical-align:center; align:center' src=img/fixation3.jpg></div></div>","null","","","","","",""
"","","","offer","5e654e2055e480000dcd002a","bdp_rd","Mon Mar 27 2023 15:47:56 GMT-0400 (Eastern Daylight Time)","147181","html-keyboard-response","37","45859","0.0-5.0-2.10","","2991","","","<div class='trialBorder'><div class='vertical-center'><img style='vertical-align:center; align:center' src=img/fixation3.jpg></div><div class='cl'><div class='vertical-center'>$18<br>with a<br>50% chance</div></div><div class='cr'><div class='vertical-center'>$9<br>for<br>sure</div></div><div class='respDivL'><div class='vertical-center'>(E)</div></div><div class='respDivR'><div class='vertical-center'>(I)</div></div></div>","I","$9","$18","1","9","18","SURE"
"","","","offerFB","5e654e2055e480000dcd002a","bdp_rd","Mon Mar 27 2023 15:47:56 GMT-0400 (Eastern Daylight Time)","147181","html-keyboard-response","38","46117","0.0-5.0-3.10","","null","","","<div class='trialBorder'><div class='vertical-center'><img style='vertical-align:center; align:center' src=img/fixation3.jpg></div><div class='cl'><div class='vertical-center'>$18<br>with a<br>50% chance</div></div><div class='cr'><div class='vertical-center'><font style='color:orange'>$9<br>for<br>sure</font></div></div><div class='respDivL'><div class='vertical-center'>(E)</div></div><div class='respDivR'><div class='vertical-center'><font style='color:orange'>(I)</font></div></div></div>","null","$9","$18","1","9","18",""
"","","","FIX","5e654e2055e480000dcd002a","bdp_rd","Mon Mar 27 2023 15:47:56 GMT-0400 (Eastern Daylight Time)","147181","html-keyboard-response","39","46627","0.0-5.0-1.11","","null","","","<div class='trialBorder'><div class='vertical-center'><img style='vertical-align:center; align:center' src=img/fixation3.jpg></div></div>","null","","","","","",""
"","","","offer","5e654e2055e480000dcd002a","bdp_rd","Mon Mar 27 2023 15:47:56 GMT-0400 (Eastern Daylight Time)","147181","html-keyboard-response","40","48065","0.0-5.0-2.11","","1436","","","<div class='trialBorder'><div class='vertical-center'><img style='vertical-align:center; align:center' src=img/fixation3.jpg></div><div class='cl'><div class='vertical-center'>$10<br>for<br>sure</div></div><div class='cr'><div class='vertical-center'>$19<br>with a<br>50% chance</div></div><div class='respDivL'><div class='vertical-center'>(E)</div></div><div class='respDivR'><div class='vertical-center'>(I)</div></div></div>","E","$10","$19","0","10","19","SURE"
"","","","offerFB","5e654e2055e480000dcd002a","bdp_rd","Mon Mar 27 2023 15:47:56 GMT-0400 (Eastern Daylight Time)","147181","html-keyboard-response","41","48321","0.0-5.0-3.11","","null","","","<div class='trialBorder'><div class='vertical-center'><img style='vertical-align:center; align:center' src=img/fixation3.jpg></div><div class='cl'><div class='vertical-center'><font style='color:orange'>$10<br>for<br>sure</font></div></div><div class='cr'><div class='vertical-center'>$19<br>with a<br>50% chance</div></div><div class='respDivL'><div class='vertical-center'><font style='color:orange'>(E)</font></div></div><div class='respDivR'><div class='vertical-center'>(I)</div></div></div>","null","$10","$19","0","10","19",""
"","","","FIX","5e654e2055e480000dcd002a","bdp_rd","Mon Mar 27 2023 15:47:56 GMT-0400 (Eastern Daylight Time)","147181","html-keyboard-response","42","48828","0.0-5.0-1.12","","null","","","<div class='trialBorder'><div class='vertical-center'><img style='vertical-align:center; align:center' src=img/fixation3.jpg></div></div>","null","","","","","",""
"","","","offer","5e654e2055e480000dcd002a","bdp_rd","Mon Mar 27 2023 15:47:56 GMT-0400 (Eastern Daylight Time)","147181","html-keyboard-response","43","50201","0.0-5.0-2.12","","1371","","","<div class='trialBorder'><div class='vertical-center'><img style='vertical-align:center; align:center' src=img/fixation3.jpg></div><div class='cl'><div class='vertical-center'>$27<br>for<br>sure</div></div><div class='cr'><div class='vertical-center'>$47<br>with a<br>50% chance</div></div><div class='respDivL'><div class='vertical-center'>(E)</div></div><div class='respDivR'><div class='vertical-center'>(I)</div></div></div>","E","$27","$47","0","27","47","SURE"
"","","","offerFB","5e654e2055e480000dcd002a","bdp_rd","Mon Mar 27 2023 15:47:56 GMT-0400 (Eastern Daylight Time)","147181","html-keyboard-response","44","50453","0.0-5.0-3.12","","null","","","<div class='trialBorder'><div class='vertical-center'><img style='vertical-align:center; align:center' src=img/fixation3.jpg></div><div class='cl'><div class='vertical-center'><font style='color:orange'>$27<br>for<br>sure</font></div></div><div class='cr'><div class='vertical-center'>$47<br>with a<br>50% chance</div></div><div class='respDivL'><div class='vertical-center'><font style='color:orange'>(E)</font></div></div><div class='respDivR'><div class='vertical-center'>(I)</div></div></div>","null","$27","$47","0","27","47",""
"","","","FIX","5e654e2055e480000dcd002a","bdp_rd","Mon Mar 27 2023 15:47:56 GMT-0400 (Eastern Daylight Time)","147181","html-keyboard-response","45","50960","0.0-5.0-1.13","","null","","","<div class='trialBorder'><div class='vertical-center'><img style='vertical-align:center; align:center' src=img/fixation3.jpg></div></div>","null","","","","","",""
"","","","offer","5e654e2055e480000dcd002a","bdp_rd","Mon Mar 27 2023 15:47:56 GMT-0400 (Eastern Daylight Time)","147181","html-keyboard-response","46","52047","0.0-5.0-2.13","","1086","","","<div class='trialBorder'><div class='vertical-center'><img style='vertical-align:center; align:center' src=img/fixation3.jpg></div><div class='cl'><div class='vertical-center'>$4<br>for<br>sure</div></div><div class='cr'><div class='vertical-center'>$11<br>with a<br>50% chance</div></div><div class='respDivL'><div class='vertical-center'>(E)</div></div><div class='respDivR'><div class='vertical-center'>(I)</div></div></div>","I","$4","$11","0","4","11","RISKY"
"","","","offerFB","5e654e2055e480000dcd002a","bdp_rd","Mon Mar 27 2023 15:47:56 GMT-0400 (Eastern Daylight Time)","147181","html-keyboard-response","47","52300","0.0-5.0-3.13","","null","","","<div class='trialBorder'><div class='vertical-center'><img style='vertical-align:center; align:center' src=img/fixation3.jpg></div><div class='cl'><div class='vertical-center'>$4<br>for<br>sure</div></div><div class='cr'><div class='vertical-center'><font style='color:orange'>$11<br>with a<br>50% chance</font></div></div><div class='respDivL'><div class='vertical-center'>(E)</div></div><div class='respDivR'><div class='vertical-center'><font style='color:orange'>(I)</font></div></div></div>","null","$4","$11","0","4","11",""
"","","","FIX","5e654e2055e480000dcd002a","bdp_rd","Mon Mar 27 2023 15:47:56 GMT-0400 (Eastern Daylight Time)","147181","html-keyboard-response","48","52806","0.0-5.0-1.14","","null","","","<div class='trialBorder'><div class='vertical-center'><img style='vertical-align:center; align:center' src=img/fixation3.jpg></div></div>","null","","","","","",""
"","","","offer","5e654e2055e480000dcd002a","bdp_rd","Mon Mar 27 2023 15:47:56 GMT-0400 (Eastern Daylight Time)","147181","html-keyboard-response","49","54209","0.0-5.0-2.14","","1399","","","<div class='trialBorder'><div class='vertical-center'><img style='vertical-align:center; align:center' src=img/fixation3.jpg></div><div class='cl'><div class='vertical-center'>$12<br>for<br>sure</div></div><div class='cr'><div class='vertical-center'>$27<br>with a<br>50% chance</div></div><div class='respDivL'><div class='vertical-center'>(E)</div></div><div class='respDivR'><div class='vertical-center'>(I)</div></div></div>","I","$12","$27","0","12","27","RISKY"
"","","","offerFB","5e654e2055e480000dcd002a","bdp_rd","Mon Mar 27 2023 15:47:56 GMT-0400 (Eastern Daylight Time)","147181","html-keyboard-response","50","54463","0.0-5.0-3.14","","null","","","<div class='trialBorder'><div class='vertical-center'><img style='vertical-align:center; align:center' src=img/fixation3.jpg></div><div class='cl'><div class='vertical-center'>$12<br>for<br>sure</div></div><div class='cr'><div class='vertical-center'><font style='color:orange'>$27<br>with a<br>50% chance</font></div></div><div class='respDivL'><div class='vertical-center'>(E)</div></div><div class='respDivR'><div class='vertical-center'><font style='color:orange'>(I)</font></div></div></div>","null","$12","$27","0","12","27",""
"","","","FIX","5e654e2055e480000dcd002a","bdp_rd","Mon Mar 27 2023 15:47:56 GMT-0400 (Eastern Daylight Time)","147181","html-keyboard-response","51","54969","0.0-5.0-1.15","","null","","","<div class='trialBorder'><div class='vertical-center'><img style='vertical-align:center; align:center' src=img/fixation3.jpg></div></div>","null","","","","","",""
"","","","offer","5e654e2055e480000dcd002a","bdp_rd","Mon Mar 27 2023 15:47:56 GMT-0400 (Eastern Daylight Time)","147181","html-keyboard-response","52","56328","0.0-5.0-2.15","","1358","","","<div class='trialBorder'><div class='vertical-center'><img style='vertical-align:center; align:center' src=img/fixation3.jpg></div><div class='cl'><div class='vertical-center'>$48<br>with a<br>50% chance</div></div><div class='cr'><div class='vertical-center'>$34<br>for<br>sure</div></div><div class='respDivL'><div class='vertical-center'>(E)</div></div><div class='respDivR'><div class='vertical-center'>(I)</div></div></div>","E","$34","$48","1","34","48","RISKY"
"","","","offerFB","5e654e2055e480000dcd002a","bdp_rd","Mon Mar 27 2023 15:47:56 GMT-0400 (Eastern Daylight Time)","147181","html-keyboard-response","53","56584","0.0-5.0-3.15","","null","","","<div class='trialBorder'><div class='vertical-center'><img style='vertical-align:center; align:center' src=img/fixation3.jpg></div><div class='cl'><div class='vertical-center'><font style='color:orange'>$48<br>with a<br>50% chance</font></div></div><div class='cr'><div class='vertical-center'>$34<br>for<br>sure</div></div><div class='respDivL'><div class='vertical-center'><font style='color:orange'>(E)</font></div></div><div class='respDivR'><div class='vertical-center'>(I)</div></div></div>","null","$34","$48","1","34","48",""
"","","","FIX","5e654e2055e480000dcd002a","bdp_rd","Mon Mar 27 2023 15:47:56 GMT-0400 (Eastern Daylight Time)","147181","html-keyboard-response","54","57087","0.0-5.0-1.16","","null","","","<div class='trialBorder'><div class='vertical-center'><img style='vertical-align:center; align:center' src=img/fixation3.jpg></div></div>","null","","","","","",""
"","","","offer","5e654e2055e480000dcd002a","bdp_rd","Mon Mar 27 2023 15:47:56 GMT-0400 (Eastern Daylight Time)","147181","html-keyboard-response","55","58557","0.0-5.0-2.16","","1468","","","<div class='trialBorder'><div class='vertical-center'><img style='vertical-align:center; align:center' src=img/fixation3.jpg></div><div class='cl'><div class='vertical-center'>$1<br>for<br>sure</div></div><div class='cr'><div class='vertical-center'>$33<br>with a<br>50% chance</div></div><div class='respDivL'><div class='vertical-center'>(E)</div></div><div class='respDivR'><div class='vertical-center'>(I)</div></div></div>","I","$1","$33","0","1","33","RISKY"
"","","","offerFB","5e654e2055e480000dcd002a","bdp_rd","Mon Mar 27 2023 15:47:56 GMT-0400 (Eastern Daylight Time)","147181","html-keyboard-response","56","58814","0.0-5.0-3.16","","null","","","<div class='trialBorder'><div class='vertical-center'><img style='vertical-align:center; align:center' src=img/fixation3.jpg></div><div class='cl'><div class='vertical-center'>$1<br>for<br>sure</div></div><div class='cr'><div class='vertical-center'><font style='color:orange'>$33<br>with a<br>50% chance</font></div></div><div class='respDivL'><div class='vertical-center'>(E)</div></div><div class='respDivR'><div class='vertical-center'><font style='color:orange'>(I)</font></div></div></div>","null","$1","$33","0","1","33",""
"","","","FIX","5e654e2055e480000dcd002a","bdp_rd","Mon Mar 27 2023 15:47:56 GMT-0400 (Eastern Daylight Time)","147181","html-keyboard-response","57","59321","0.0-5.0-1.17","","null","","","<div class='trialBorder'><div class='vertical-center'><img style='vertical-align:center; align:center' src=img/fixation3.jpg></div></div>","null","","","","","",""
"","","","offer","5e654e2055e480000dcd002a","bdp_rd","Mon Mar 27 2023 15:47:56 GMT-0400 (Eastern Daylight Time)","147181","html-keyboard-response","58","60350","0.0-5.0-2.17","","1028","","","<div class='trialBorder'><div class='vertical-center'><img style='vertical-align:center; align:center' src=img/fixation3.jpg></div><div class='cl'><div class='vertical-center'>$18<br>for<br>sure</div></div><div class='cr'><div class='vertical-center'>$39<br>with a<br>50% chance</div></div><div class='respDivL'><div class='vertical-center'>(E)</div></div><div class='respDivR'><div class='vertical-center'>(I)</div></div></div>","I","$18","$39","0","18","39","RISKY"
"","","","offerFB","5e654e2055e480000dcd002a","bdp_rd","Mon Mar 27 2023 15:47:56 GMT-0400 (Eastern Daylight Time)","147181","html-keyboard-response","59","60603","0.0-5.0-3.17","","null","","","<div class='trialBorder'><div class='vertical-center'><img style='vertical-align:center; align:center' src=img/fixation3.jpg></div><div class='cl'><div class='vertical-center'>$18<br>for<br>sure</div></div><div class='cr'><div class='vertical-center'><font style='color:orange'>$39<br>with a<br>50% chance</font></div></div><div class='respDivL'><div class='vertical-center'>(E)</div></div><div class='respDivR'><div class='vertical-center'><font style='color:orange'>(I)</font></div></div></div>","null","$18","$39","0","18","39",""
"","","","FIX","5e654e2055e480000dcd002a","bdp_rd","Mon Mar 27 2023 15:47:56 GMT-0400 (Eastern Daylight Time)","147181","html-keyboard-response","60","61106","0.0-5.0-1.18","","null","","","<div class='trialBorder'><div class='vertical-center'><img style='vertical-align:center; align:center' src=img/fixation3.jpg></div></div>","null","","","","","",""
"","","","offer","5e654e2055e480000dcd002a","bdp_rd","Mon Mar 27 2023 15:47:56 GMT-0400 (Eastern Daylight Time)","147181","html-keyboard-response","61","61675","0.0-5.0-2.18","","566","","","<div class='trialBorder'><div class='vertical-center'><img style='vertical-align:center; align:center' src=img/fixation3.jpg></div><div class='cl'><div class='vertical-center'>$16<br>for<br>sure</div></div><div class='cr'><div class='vertical-center'>$38<br>with a<br>50% chance</div></div><div class='respDivL'><div class='vertical-center'>(E)</div></div><div class='respDivR'><div class='vertical-center'>(I)</div></div></div>","I","$16","$38","0","16","38","RISKY"
"","","","offerFB","5e654e2055e480000dcd002a","bdp_rd","Mon Mar 27 2023 15:47:56 GMT-0400 (Eastern Daylight Time)","147181","html-keyboard-response","62","61932","0.0-5.0-3.18","","null","","","<div class='trialBorder'><div class='vertical-center'><img style='vertical-align:center; align:center' src=img/fixation3.jpg></div><div class='cl'><div class='vertical-center'>$16<br>for<br>sure</div></div><div class='cr'><div class='vertical-center'><font style='color:orange'>$38<br>with a<br>50% chance</font></div></div><div class='respDivL'><div class='vertical-center'>(E)</div></div><div class='respDivR'><div class='vertical-center'><font style='color:orange'>(I)</font></div></div></div>","null","$16","$38","0","16","38",""
"","","","FIX","5e654e2055e480000dcd002a","bdp_rd","Mon Mar 27 2023 15:47:56 GMT-0400 (Eastern Daylight Time)","147181","html-keyboard-response","63","62437","0.0-5.0-1.19","","null","","","<div class='trialBorder'><div class='vertical-center'><img style='vertical-align:center; align:center' src=img/fixation3.jpg></div></div>","null","","","","","",""
"","","","offer","5e654e2055e480000dcd002a","bdp_rd","Mon Mar 27 2023 15:47:56 GMT-0400 (Eastern Daylight Time)","147181","html-keyboard-response","64","64038","0.0-5.0-2.19","","1596","","","<div class='trialBorder'><div class='vertical-center'><img style='vertical-align:center; align:center' src=img/fixation3.jpg></div><div class='cl'><div class='vertical-center'>$29<br>with a<br>50% chance</div></div><div class='cr'><div class='vertical-center'>$14<br>for<br>sure</div></div><div class='respDivL'><div class='vertical-center'>(E)</div></div><div class='respDivR'><div class='vertical-center'>(I)</div></div></div>","E","$14","$29","1","14","29","RISKY"
"","","","offerFB","5e654e2055e480000dcd002a","bdp_rd","Mon Mar 27 2023 15:47:56 GMT-0400 (Eastern Daylight Time)","147181","html-keyboard-response","65","64295","0.0-5.0-3.19","","null","","","<div class='trialBorder'><div class='vertical-center'><img style='vertical-align:center; align:center' src=img/fixation3.jpg></div><div class='cl'><div class='vertical-center'><font style='color:orange'>$29<br>with a<br>50% chance</font></div></div><div class='cr'><div class='vertical-center'>$14<br>for<br>sure</div></div><div class='respDivL'><div class='vertical-center'><font style='color:orange'>(E)</font></div></div><div class='respDivR'><div class='vertical-center'>(I)</div></div></div>","null","$14","$29","1","14","29",""
"","","","FIX","5e654e2055e480000dcd002a","bdp_rd","Mon Mar 27 2023 15:47:56 GMT-0400 (Eastern Daylight Time)","147181","html-keyboard-response","66","64802","0.0-5.0-1.20","","null","","","<div class='trialBorder'><div class='vertical-center'><img style='vertical-align:center; align:center' src=img/fixation3.jpg></div></div>","null","","","","","",""
"","","","offer","5e654e2055e480000dcd002a","bdp_rd","Mon Mar 27 2023 15:47:56 GMT-0400 (Eastern Daylight Time)","147181","html-keyboard-response","67","65482","0.0-5.0-2.20","","679","","","<div class='trialBorder'><div class='vertical-center'><img style='vertical-align:center; align:center' src=img/fixation3.jpg></div><div class='cl'><div class='vertical-center'>$45<br>with a<br>50% chance</div></div><div class='cr'><div class='vertical-center'>$8<br>for<br>sure</div></div><div class='respDivL'><div class='vertical-center'>(E)</div></div><div class='respDivR'><div class='vertical-center'>(I)</div></div></div>","E","$8","$45","1","8","45","RISKY"
"","","","offerFB","5e654e2055e480000dcd002a","bdp_rd","Mon Mar 27 2023 15:47:56 GMT-0400 (Eastern Daylight Time)","147181","html-keyboard-response","68","65739","0.0-5.0-3.20","","null","","","<div class='trialBorder'><div class='vertical-center'><img style='vertical-align:center; align:center' src=img/fixation3.jpg></div><div class='cl'><div class='vertical-center'><font style='color:orange'>$45<br>with a<br>50% chance</font></div></div><div class='cr'><div class='vertical-center'>$8<br>for<br>sure</div></div><div class='respDivL'><div class='vertical-center'><font style='color:orange'>(E)</font></div></div><div class='respDivR'><div class='vertical-center'>(I)</div></div></div>","null","$8","$45","1","8","45",""
"","","","FIX","5e654e2055e480000dcd002a","bdp_rd","Mon Mar 27 2023 15:47:56 GMT-0400 (Eastern Daylight Time)","147181","html-keyboard-response","69","66247","0.0-5.0-1.21","","null","","","<div class='trialBorder'><div class='vertical-center'><img style='vertical-align:center; align:center' src=img/fixation3.jpg></div></div>","null","","","","","",""
"","","","offer","5e654e2055e480000dcd002a","bdp_rd","Mon Mar 27 2023 15:47:56 GMT-0400 (Eastern Daylight Time)","147181","html-keyboard-response","70","66751","0.0-5.0-2.21","","502","","","<div class='trialBorder'><div class='vertical-center'><img style='vertical-align:center; align:center' src=img/fixation3.jpg></div><div class='cl'><div class='vertical-center'>$13<br>with a<br>50% chance</div></div><div class='cr'><div class='vertical-center'>$6<br>for<br>sure</div></div><div class='respDivL'><div class='vertical-center'>(E)</div></div><div class='respDivR'><div class='vertical-center'>(I)</div></div></div>","E","$6","$13","1","6","13","RISKY"
"","","","offerFB","5e654e2055e480000dcd002a","bdp_rd","Mon Mar 27 2023 15:47:56 GMT-0400 (Eastern Daylight Time)","147181","html-keyboard-response","71","67008","0.0-5.0-3.21","","null","","","<div class='trialBorder'><div class='vertical-center'><img style='vertical-align:center; align:center' src=img/fixation3.jpg></div><div class='cl'><div class='vertical-center'><font style='color:orange'>$13<br>with a<br>50% chance</font></div></div><div class='cr'><div class='vertical-center'>$6<br>for<br>sure</div></div><div class='respDivL'><div class='vertical-center'><font style='color:orange'>(E)</font></div></div><div class='respDivR'><div class='vertical-center'>(I)</div></div></div>","null","$6","$13","1","6","13",""
"","","","FIX","5e654e2055e480000dcd002a","bdp_rd","Mon Mar 27 2023 15:47:56 GMT-0400 (Eastern Daylight Time)","147181","html-keyboard-response","72","67511","0.0-5.0-1.22","","null","","","<div class='trialBorder'><div class='vertical-center'><img style='vertical-align:center; align:center' src=img/fixation3.jpg></div></div>","null","","","","","",""
"","","","offer","5e654e2055e480000dcd002a","bdp_rd","Mon Mar 27 2023 15:47:56 GMT-0400 (Eastern Daylight Time)","147181","html-keyboard-response","73","68191","0.0-5.0-2.22","","674","","","<div class='trialBorder'><div class='vertical-center'><img style='vertical-align:center; align:center' src=img/fixation3.jpg></div><div class='cl'><div class='vertical-center'>$9<br>for<br>sure</div></div><div class='cr'><div class='vertical-center'>$32<br>with a<br>50% chance</div></div><div class='respDivL'><div class='vertical-center'>(E)</div></div><div class='respDivR'><div class='vertical-center'>(I)</div></div></div>","I","$9","$32","0","9","32","RISKY"
"","","","offerFB","5e654e2055e480000dcd002a","bdp_rd","Mon Mar 27 2023 15:47:56 GMT-0400 (Eastern Daylight Time)","147181","html-keyboard-response","74","68448","0.0-5.0-3.22","","null","","","<div class='trialBorder'><div class='vertical-center'><img style='vertical-align:center; align:center' src=img/fixation3.jpg></div><div class='cl'><div class='vertical-center'>$9<br>for<br>sure</div></div><div class='cr'><div class='vertical-center'><font style='color:orange'>$32<br>with a<br>50% chance</font></div></div><div class='respDivL'><div class='vertical-center'>(E)</div></div><div class='respDivR'><div class='vertical-center'><font style='color:orange'>(I)</font></div></div></div>","null","$9","$32","0","9","32",""
"","","","FIX","5e654e2055e480000dcd002a","bdp_rd","Mon Mar 27 2023 15:47:56 GMT-0400 (Eastern Daylight Time)","147181","html-keyboard-response","75","68956","0.0-5.0-1.23","","null","","","<div class='trialBorder'><div class='vertical-center'><img style='vertical-align:center; align:center' src=img/fixation3.jpg></div></div>","null","","","","","",""
"","","","offer","5e654e2055e480000dcd002a","bdp_rd","Mon Mar 27 2023 15:47:56 GMT-0400 (Eastern Daylight Time)","147181","html-keyboard-response","76","70011","0.0-5.0-2.23","","1052","","","<div class='trialBorder'><div class='vertical-center'><img style='vertical-align:center; align:center' src=img/fixation3.jpg></div><div class='cl'><div class='vertical-center'>$18<br>for<br>sure</div></div><div class='cr'><div class='vertical-center'>$36<br>with a<br>50% chance</div></div><div class='respDivL'><div class='vertical-center'>(E)</div></div><div class='respDivR'><div class='vertical-center'>(I)</div></div></div>","I","$18","$36","0","18","36","RISKY"
"","","","offerFB","5e654e2055e480000dcd002a","bdp_rd","Mon Mar 27 2023 15:47:56 GMT-0400 (Eastern Daylight Time)","147181","html-keyboard-response","77","70269","0.0-5.0-3.23","","null","","","<div class='trialBorder'><div class='vertical-center'><img style='vertical-align:center; align:center' src=img/fixation3.jpg></div><div class='cl'><div class='vertical-center'>$18<br>for<br>sure</div></div><div class='cr'><div class='vertical-center'><font style='color:orange'>$36<br>with a<br>50% chance</font></div></div><div class='respDivL'><div class='vertical-center'>(E)</div></div><div class='respDivR'><div class='vertical-center'><font style='color:orange'>(I)</font></div></div></div>","null","$18","$36","0","18","36",""
"","","","FIX","5e654e2055e480000dcd002a","bdp_rd","Mon Mar 27 2023 15:47:56 GMT-0400 (Eastern Daylight Time)","147181","html-keyboard-response","78","70775","0.0-5.0-1.24","","null","","","<div class='trialBorder'><div class='vertical-center'><img style='vertical-align:center; align:center' src=img/fixation3.jpg></div></div>","null","","","","","",""
"","","","offer","5e654e2055e480000dcd002a","bdp_rd","Mon Mar 27 2023 15:47:56 GMT-0400 (Eastern Daylight Time)","147181","html-keyboard-response","79","71548","0.0-5.0-2.24","","768","","","<div class='trialBorder'><div class='vertical-center'><img style='vertical-align:center; align:center' src=img/fixation3.jpg></div><div class='cl'><div class='vertical-center'>$2<br>for<br>sure</div></div><div class='cr'><div class='vertical-center'>$21<br>with a<br>50% chance</div></div><div class='respDivL'><div class='vertical-center'>(E)</div></div><div class='respDivR'><div class='vertical-center'>(I)</div></div></div>","I","$2","$21","0","2","21","RISKY"
"","","","offerFB","5e654e2055e480000dcd002a","bdp_rd","Mon Mar 27 2023 15:47:56 GMT-0400 (Eastern Daylight Time)","147181","html-keyboard-response","80","71805","0.0-5.0-3.24","","null","","","<div class='trialBorder'><div class='vertical-center'><img style='vertical-align:center; align:center' src=img/fixation3.jpg></div><div class='cl'><div class='vertical-center'>$2<br>for<br>sure</div></div><div class='cr'><div class='vertical-center'><font style='color:orange'>$21<br>with a<br>50% chance</font></div></div><div class='respDivL'><div class='vertical-center'>(E)</div></div><div class='respDivR'><div class='vertical-center'><font style='color:orange'>(I)</font></div></div></div>","null","$2","$21","0","2","21",""
"","","","FIX","5e654e2055e480000dcd002a","bdp_rd","Mon Mar 27 2023 15:47:56 GMT-0400 (Eastern Daylight Time)","147181","html-keyboard-response","81","72312","0.0-5.0-1.25","","null","","","<div class='trialBorder'><div class='vertical-center'><img style='vertical-align:center; align:center' src=img/fixation3.jpg></div></div>","null","","","","","",""
"","","","offer","5e654e2055e480000dcd002a","bdp_rd","Mon Mar 27 2023 15:47:56 GMT-0400 (Eastern Daylight Time)","147181","html-keyboard-response","82","73317","0.0-5.0-2.25","","1002","","","<div class='trialBorder'><div class='vertical-center'><img style='vertical-align:center; align:center' src=img/fixation3.jpg></div><div class='cl'><div class='vertical-center'>$25<br>with a<br>50% chance</div></div><div class='cr'><div class='vertical-center'>$21<br>for<br>sure</div></div><div class='respDivL'><div class='vertical-center'>(E)</div></div><div class='respDivR'><div class='vertical-center'>(I)</div></div></div>","E","$21","$25","1","21","25","RISKY"
"","","","offerFB","5e654e2055e480000dcd002a","bdp_rd","Mon Mar 27 2023 15:47:56 GMT-0400 (Eastern Daylight Time)","147181","html-keyboard-response","83","73575","0.0-5.0-3.25","","null","","","<div class='trialBorder'><div class='vertical-center'><img style='vertical-align:center; align:center' src=img/fixation3.jpg></div><div class='cl'><div class='vertical-center'><font style='color:orange'>$25<br>with a<br>50% chance</font></div></div><div class='cr'><div class='vertical-center'>$21<br>for<br>sure</div></div><div class='respDivL'><div class='vertical-center'><font style='color:orange'>(E)</font></div></div><div class='respDivR'><div class='vertical-center'>(I)</div></div></div>","null","$21","$25","1","21","25",""
"","","","FIX","5e654e2055e480000dcd002a","bdp_rd","Mon Mar 27 2023 15:47:56 GMT-0400 (Eastern Daylight Time)","147181","html-keyboard-response","84","74081","0.0-5.0-1.26","","null","","","<div class='trialBorder'><div class='vertical-center'><img style='vertical-align:center; align:center' src=img/fixation3.jpg></div></div>","null","","","","","",""
"","","","offer","5e654e2055e480000dcd002a","bdp_rd","Mon Mar 27 2023 15:47:56 GMT-0400 (Eastern Daylight Time)","147181","html-keyboard-response","85","77290","0.0-5.0-2.26","","3205","","","<div class='trialBorder'><div class='vertical-center'><img style='vertical-align:center; align:center' src=img/fixation3.jpg></div><div class='cl'><div class='vertical-center'>$80<br>with a<br>50% chance</div></div><div class='cr'><div class='vertical-center'>$20<br>for<br>sure</div></div><div class='respDivL'><div class='vertical-center'>(E)</div></div><div class='respDivR'><div class='vertical-center'>(I)</div></div></div>","E","$20","$80","1","20","80","RISKY"
"","","","offerFB","5e654e2055e480000dcd002a","bdp_rd","Mon Mar 27 2023 15:47:56 GMT-0400 (Eastern Daylight Time)","147181","html-keyboard-response","86","77547","0.0-5.0-3.26","","null","","","<div class='trialBorder'><div class='vertical-center'><img style='vertical-align:center; align:center' src=img/fixation3.jpg></div><div class='cl'><div class='vertical-center'><font style='color:orange'>$80<br>with a<br>50% chance</font></div></div><div class='cr'><div class='vertical-center'>$20<br>for<br>sure</div></div><div class='respDivL'><div class='vertical-center'><font style='color:orange'>(E)</font></div></div><div class='respDivR'><div class='vertical-center'>(I)</div></div></div>","null","$20","$80","1","20","80",""
"","","","FIX","5e654e2055e480000dcd002a","bdp_rd","Mon Mar 27 2023 15:47:56 GMT-0400 (Eastern Daylight Time)","147181","html-keyboard-response","87","78054","0.0-5.0-1.27","","null","","","<div class='trialBorder'><div class='vertical-center'><img style='vertical-align:center; align:center' src=img/fixation3.jpg></div></div>","null","","","","","",""
"","","","offer","5e654e2055e480000dcd002a","bdp_rd","Mon Mar 27 2023 15:47:56 GMT-0400 (Eastern Daylight Time)","147181","html-keyboard-response","88","79057","0.0-5.0-2.27","","1001","","","<div class='trialBorder'><div class='vertical-center'><img style='vertical-align:center; align:center' src=img/fixation3.jpg></div><div class='cl'><div class='vertical-center'>$86<br>with a<br>50% chance</div></div><div class='cr'><div class='vertical-center'>$45<br>for<br>sure</div></div><div class='respDivL'><div class='vertical-center'>(E)</div></div><div class='respDivR'><div class='vertical-center'>(I)</div></div></div>","E","$45","$86","1","45","86","RISKY"
"","","","offerFB","5e654e2055e480000dcd002a","bdp_rd","Mon Mar 27 2023 15:47:56 GMT-0400 (Eastern Daylight Time)","147181","html-keyboard-response","89","79313","0.0-5.0-3.27","","null","","","<div class='trialBorder'><div class='vertical-center'><img style='vertical-align:center; align:center' src=img/fixation3.jpg></div><div class='cl'><div class='vertical-center'><font style='color:orange'>$86<br>with a<br>50% chance</font></div></div><div class='cr'><div class='vertical-center'>$45<br>for<br>sure</div></div><div class='respDivL'><div class='vertical-center'><font style='color:orange'>(E)</font></div></div><div class='respDivR'><div class='vertical-center'>(I)</div></div></div>","null","$45","$86","1","45","86",""
"","","","FIX","5e654e2055e480000dcd002a","bdp_rd","Mon Mar 27 2023 15:47:56 GMT-0400 (Eastern Daylight Time)","147181","html-keyboard-response","90","79820","0.0-5.0-1.28","","null","","","<div class='trialBorder'><div class='vertical-center'><img style='vertical-align:center; align:center' src=img/fixation3.jpg></div></div>","null","","","","","",""
"","","","offer","5e654e2055e480000dcd002a","bdp_rd","Mon Mar 27 2023 15:47:56 GMT-0400 (Eastern Daylight Time)","147181","html-keyboard-response","91","80830","0.0-5.0-2.28","","1008","","","<div class='trialBorder'><div class='vertical-center'><img style='vertical-align:center; align:center' src=img/fixation3.jpg></div><div class='cl'><div class='vertical-center'>$89<br>with a<br>50% chance</div></div><div class='cr'><div class='vertical-center'>$28<br>for<br>sure</div></div><div class='respDivL'><div class='vertical-center'>(E)</div></div><div class='respDivR'><div class='vertical-center'>(I)</div></div></div>","E","$28","$89","1","28","89","RISKY"
"","","","offerFB","5e654e2055e480000dcd002a","bdp_rd","Mon Mar 27 2023 15:47:56 GMT-0400 (Eastern Daylight Time)","147181","html-keyboard-response","92","81089","0.0-5.0-3.28","","null","","","<div class='trialBorder'><div class='vertical-center'><img style='vertical-align:center; align:center' src=img/fixation3.jpg></div><div class='cl'><div class='vertical-center'><font style='color:orange'>$89<br>with a<br>50% chance</font></div></div><div class='cr'><div class='vertical-center'>$28<br>for<br>sure</div></div><div class='respDivL'><div class='vertical-center'><font style='color:orange'>(E)</font></div></div><div class='respDivR'><div class='vertical-center'>(I)</div></div></div>","null","$28","$89","1","28","89",""
"","","","FIX","5e654e2055e480000dcd002a","bdp_rd","Mon Mar 27 2023 15:47:56 GMT-0400 (Eastern Daylight Time)","147181","html-keyboard-response","93","81592","0.0-5.0-1.29","","null","","","<div class='trialBorder'><div class='vertical-center'><img style='vertical-align:center; align:center' src=img/fixation3.jpg></div></div>","null","","","","","",""
"","","","offer","5e654e2055e480000dcd002a","bdp_rd","Mon Mar 27 2023 15:47:56 GMT-0400 (Eastern Daylight Time)","147181","html-keyboard-response","94","83322","0.0-5.0-2.29","","1729","","","<div class='trialBorder'><div class='vertical-center'><img style='vertical-align:center; align:center' src=img/fixation3.jpg></div><div class='cl'><div class='vertical-center'>$11<br>for<br>sure</div></div><div class='cr'><div class='vertical-center'>$62<br>with a<br>50% chance</div></div><div class='respDivL'><div class='vertical-center'>(E)</div></div><div class='respDivR'><div class='vertical-center'>(I)</div></div></div>","I","$11","$62","0","11","62","RISKY"
"","","","offerFB","5e654e2055e480000dcd002a","bdp_rd","Mon Mar 27 2023 15:47:56 GMT-0400 (Eastern Daylight Time)","147181","html-keyboard-response","95","83577","0.0-5.0-3.29","","null","","","<div class='trialBorder'><div class='vertical-center'><img style='vertical-align:center; align:center' src=img/fixation3.jpg></div><div class='cl'><div class='vertical-center'>$11<br>for<br>sure</div></div><div class='cr'><div class='vertical-center'><font style='color:orange'>$62<br>with a<br>50% chance</font></div></div><div class='respDivL'><div class='vertical-center'>(E)</div></div><div class='respDivR'><div class='vertical-center'><font style='color:orange'>(I)</font></div></div></div>","null","$11","$62","0","11","62",""
"","","","FIX","5e654e2055e480000dcd002a","bdp_rd","Mon Mar 27 2023 15:47:56 GMT-0400 (Eastern Daylight Time)","147181","html-keyboard-response","96","84084","0.0-5.0-1.30","","null","","","<div class='trialBorder'><div class='vertical-center'><img style='vertical-align:center; align:center' src=img/fixation3.jpg></div></div>","null","","","","","",""
"","","","offer","5e654e2055e480000dcd002a","bdp_rd","Mon Mar 27 2023 15:47:56 GMT-0400 (Eastern Daylight Time)","147181","html-keyboard-response","97","84781","0.0-5.0-2.30","","695","","","<div class='trialBorder'><div class='vertical-center'><img style='vertical-align:center; align:center' src=img/fixation3.jpg></div><div class='cl'><div class='vertical-center'>$25<br>for<br>sure</div></div><div class='cr'><div class='vertical-center'>$54<br>with a<br>50% chance</div></div><div class='respDivL'><div class='vertical-center'>(E)</div></div><div class='respDivR'><div class='vertical-center'>(I)</div></div></div>","I","$25","$54","0","25","54","RISKY"
"","","","offerFB","5e654e2055e480000dcd002a","bdp_rd","Mon Mar 27 2023 15:47:56 GMT-0400 (Eastern Daylight Time)","147181","html-keyboard-response","98","85038","0.0-5.0-3.30","","null","","","<div class='trialBorder'><div class='vertical-center'><img style='vertical-align:center; align:center' src=img/fixation3.jpg></div><div class='cl'><div class='vertical-center'>$25<br>for<br>sure</div></div><div class='cr'><div class='vertical-center'><font style='color:orange'>$54<br>with a<br>50% chance</font></div></div><div class='respDivL'><div class='vertical-center'>(E)</div></div><div class='respDivR'><div class='vertical-center'><font style='color:orange'>(I)</font></div></div></div>","null","$25","$54","0","25","54",""
"","","","FIX","5e654e2055e480000dcd002a","bdp_rd","Mon Mar 27 2023 15:47:56 GMT-0400 (Eastern Daylight Time)","147181","html-keyboard-response","99","85544","0.0-5.0-1.31","","null","","","<div class='trialBorder'><div class='vertical-center'><img style='vertical-align:center; align:center' src=img/fixation3.jpg></div></div>","null","","","","","",""
"","","","offer","5e654e2055e480000dcd002a","bdp_rd","Mon Mar 27 2023 15:47:56 GMT-0400 (Eastern Daylight Time)","147181","html-keyboard-response","100","86230","0.0-5.0-2.31","","681","","","<div class='trialBorder'><div class='vertical-center'><img style='vertical-align:center; align:center' src=img/fixation3.jpg></div><div class='cl'><div class='vertical-center'>$14<br>for<br>sure</div></div><div class='cr'><div class='vertical-center'>$22<br>with a<br>50% chance</div></div><div class='respDivL'><div class='vertical-center'>(E)</div></div><div class='respDivR'><div class='vertical-center'>(I)</div></div></div>","I","$14","$22","0","14","22","RISKY"
"","","","offerFB","5e654e2055e480000dcd002a","bdp_rd","Mon Mar 27 2023 15:47:56 GMT-0400 (Eastern Daylight Time)","147181","html-keyboard-response","101","86487","0.0-5.0-3.31","","null","","","<div class='trialBorder'><div class='vertical-center'><img style='vertical-align:center; align:center' src=img/fixation3.jpg></div><div class='cl'><div class='vertical-center'>$14<br>for<br>sure</div></div><div class='cr'><div class='vertical-center'><font style='color:orange'>$22<br>with a<br>50% chance</font></div></div><div class='respDivL'><div class='vertical-center'>(E)</div></div><div class='respDivR'><div class='vertical-center'><font style='color:orange'>(I)</font></div></div></div>","null","$14","$22","0","14","22",""
"","","","FIX","5e654e2055e480000dcd002a","bdp_rd","Mon Mar 27 2023 15:47:56 GMT-0400 (Eastern Daylight Time)","147181","html-keyboard-response","102","86993","0.0-5.0-1.32","","null","","","<div class='trialBorder'><div class='vertical-center'><img style='vertical-align:center; align:center' src=img/fixation3.jpg></div></div>","null","","","","","",""
"","","","offer","5e654e2055e480000dcd002a","bdp_rd","Mon Mar 27 2023 15:47:56 GMT-0400 (Eastern Daylight Time)","147181","html-keyboard-response","103","88185","0.0-5.0-2.32","","1188","","","<div class='trialBorder'><div class='vertical-center'><img style='vertical-align:center; align:center' src=img/fixation3.jpg></div><div class='cl'><div class='vertical-center'>$35<br>with a<br>50% chance</div></div><div class='cr'><div class='vertical-center'>$12<br>for<br>sure</div></div><div class='respDivL'><div class='vertical-center'>(E)</div></div><div class='respDivR'><div class='vertical-center'>(I)</div></div></div>","E","$12","$35","1","12","35","RISKY"
"","","","offerFB","5e654e2055e480000dcd002a","bdp_rd","Mon Mar 27 2023 15:47:56 GMT-0400 (Eastern Daylight Time)","147181","html-keyboard-response","104","88441","0.0-5.0-3.32","","null","","","<div class='trialBorder'><div class='vertical-center'><img style='vertical-align:center; align:center' src=img/fixation3.jpg></div><div class='cl'><div class='vertical-center'><font style='color:orange'>$35<br>with a<br>50% chance</font></div></div><div class='cr'><div class='vertical-center'>$12<br>for<br>sure</div></div><div class='respDivL'><div class='vertical-center'><font style='color:orange'>(E)</font></div></div><div class='respDivR'><div class='vertical-center'>(I)</div></div></div>","null","$12","$35","1","12","35",""
"","","","FIX","5e654e2055e480000dcd002a","bdp_rd","Mon Mar 27 2023 15:47:56 GMT-0400 (Eastern Daylight Time)","147181","html-keyboard-response","105","88948","0.0-5.0-1.33","","null","","","<div class='trialBorder'><div class='vertical-center'><img style='vertical-align:center; align:center' src=img/fixation3.jpg></div></div>","null","","","","","",""
"","","","offer","5e654e2055e480000dcd002a","bdp_rd","Mon Mar 27 2023 15:47:56 GMT-0400 (Eastern Daylight Time)","147181","html-keyboard-response","106","89950","0.0-5.0-2.33","","999","","","<div class='trialBorder'><div class='vertical-center'><img style='vertical-align:center; align:center' src=img/fixation3.jpg></div><div class='cl'><div class='vertical-center'>$26<br>with a<br>50% chance</div></div><div class='cr'><div class='vertical-center'>$11<br>for<br>sure</div></div><div class='respDivL'><div class='vertical-center'>(E)</div></div><div class='respDivR'><div class='vertical-center'>(I)</div></div></div>","E","$11","$26","1","11","26","RISKY"
"","","","offerFB","5e654e2055e480000dcd002a","bdp_rd","Mon Mar 27 2023 15:47:56 GMT-0400 (Eastern Daylight Time)","147181","html-keyboard-response","107","90208","0.0-5.0-3.33","","null","","","<div class='trialBorder'><div class='vertical-center'><img style='vertical-align:center; align:center' src=img/fixation3.jpg></div><div class='cl'><div class='vertical-center'><font style='color:orange'>$26<br>with a<br>50% chance</font></div></div><div class='cr'><div class='vertical-center'>$11<br>for<br>sure</div></div><div class='respDivL'><div class='vertical-center'><font style='color:orange'>(E)</font></div></div><div class='respDivR'><div class='vertical-center'>(I)</div></div></div>","null","$11","$26","1","11","26",""
"","","","FIX","5e654e2055e480000dcd002a","bdp_rd","Mon Mar 27 2023 15:47:56 GMT-0400 (Eastern Daylight Time)","147181","html-keyboard-response","108","90714","0.0-5.0-1.34","","null","","","<div class='trialBorder'><div class='vertical-center'><img style='vertical-align:center; align:center' src=img/fixation3.jpg></div></div>","null","","","","","",""
"","","","offer","5e654e2055e480000dcd002a","bdp_rd","Mon Mar 27 2023 15:47:56 GMT-0400 (Eastern Daylight Time)","147181","html-keyboard-response","109","91848","0.0-5.0-2.34","","1130","","","<div class='trialBorder'><div class='vertical-center'><img style='vertical-align:center; align:center' src=img/fixation3.jpg></div><div class='cl'><div class='vertical-center'>$28<br>with a<br>50% chance</div></div><div class='cr'><div class='vertical-center'>$16<br>for<br>sure</div></div><div class='respDivL'><div class='vertical-center'>(E)</div></div><div class='respDivR'><div class='vertical-center'>(I)</div></div></div>","E","$16","$28","1","16","28","RISKY"
"","","","offerFB","5e654e2055e480000dcd002a","bdp_rd","Mon Mar 27 2023 15:47:56 GMT-0400 (Eastern Daylight Time)","147181","html-keyboard-response","110","92105","0.0-5.0-3.34","","null","","","<div class='trialBorder'><div class='vertical-center'><img style='vertical-align:center; align:center' src=img/fixation3.jpg></div><div class='cl'><div class='vertical-center'><font style='color:orange'>$28<br>with a<br>50% chance</font></div></div><div class='cr'><div class='vertical-center'>$16<br>for<br>sure</div></div><div class='respDivL'><div class='vertical-center'><font style='color:orange'>(E)</font></div></div><div class='respDivR'><div class='vertical-center'>(I)</div></div></div>","null","$16","$28","1","16","28",""
"","","","FIX","5e654e2055e480000dcd002a","bdp_rd","Mon Mar 27 2023 15:47:56 GMT-0400 (Eastern Daylight Time)","147181","html-keyboard-response","111","92610","0.0-5.0-1.35","","null","","","<div class='trialBorder'><div class='vertical-center'><img style='vertical-align:center; align:center' src=img/fixation3.jpg></div></div>","null","","","","","",""
"","","","offer","5e654e2055e480000dcd002a","bdp_rd","Mon Mar 27 2023 15:47:56 GMT-0400 (Eastern Daylight Time)","147181","html-keyboard-response","112","93336","0.0-5.0-2.35","","724","","","<div class='trialBorder'><div class='vertical-center'><img style='vertical-align:center; align:center' src=img/fixation3.jpg></div><div class='cl'><div class='vertical-center'>$95<br>with a<br>50% chance</div></div><div class='cr'><div class='vertical-center'>$40<br>for<br>sure</div></div><div class='respDivL'><div class='vertical-center'>(E)</div></div><div class='respDivR'><div class='vertical-center'>(I)</div></div></div>","E","$40","$95","1","40","95","RISKY"
"","","","offerFB","5e654e2055e480000dcd002a","bdp_rd","Mon Mar 27 2023 15:47:56 GMT-0400 (Eastern Daylight Time)","147181","html-keyboard-response","113","93589","0.0-5.0-3.35","","null","","","<div class='trialBorder'><div class='vertical-center'><img style='vertical-align:center; align:center' src=img/fixation3.jpg></div><div class='cl'><div class='vertical-center'><font style='color:orange'>$95<br>with a<br>50% chance</font></div></div><div class='cr'><div class='vertical-center'>$40<br>for<br>sure</div></div><div class='respDivL'><div class='vertical-center'><font style='color:orange'>(E)</font></div></div><div class='respDivR'><div class='vertical-center'>(I)</div></div></div>","null","$40","$95","1","40","95",""
"","","","FIX","5e654e2055e480000dcd002a","bdp_rd","Mon Mar 27 2023 15:47:56 GMT-0400 (Eastern Daylight Time)","147181","html-keyboard-response","114","94095","0.0-5.0-1.36","","null","","","<div class='trialBorder'><div class='vertical-center'><img style='vertical-align:center; align:center' src=img/fixation3.jpg></div></div>","null","","","","","",""
"","","","offer","5e654e2055e480000dcd002a","bdp_rd","Mon Mar 27 2023 15:47:56 GMT-0400 (Eastern Daylight Time)","147181","html-keyboard-response","115","95433","0.0-5.0-2.36","","1335","","","<div class='trialBorder'><div class='vertical-center'><img style='vertical-align:center; align:center' src=img/fixation3.jpg></div><div class='cl'><div class='vertical-center'>$78<br>with a<br>50% chance</div></div><div class='cr'><div class='vertical-center'>$31<br>for<br>sure</div></div><div class='respDivL'><div class='vertical-center'>(E)</div></div><div class='respDivR'><div class='vertical-center'>(I)</div></div></div>","E","$31","$78","1","31","78","RISKY"
"","","","offerFB","5e654e2055e480000dcd002a","bdp_rd","Mon Mar 27 2023 15:47:56 GMT-0400 (Eastern Daylight Time)","147181","html-keyboard-response","116","95690","0.0-5.0-3.36","","null","","","<div class='trialBorder'><div class='vertical-center'><img style='vertical-align:center; align:center' src=img/fixation3.jpg></div><div class='cl'><div class='vertical-center'><font style='color:orange'>$78<br>with a<br>50% chance</font></div></div><div class='cr'><div class='vertical-center'>$31<br>for<br>sure</div></div><div class='respDivL'><div class='vertical-center'><font style='color:orange'>(E)</font></div></div><div class='respDivR'><div class='vertical-center'>(I)</div></div></div>","null","$31","$78","1","31","78",""
"","","","FIX","5e654e2055e480000dcd002a","bdp_rd","Mon Mar 27 2023 15:47:56 GMT-0400 (Eastern Daylight Time)","147181","html-keyboard-response","117","96196","0.0-5.0-1.37","","null","","","<div class='trialBorder'><div class='vertical-center'><img style='vertical-align:center; align:center' src=img/fixation3.jpg></div></div>","null","","","","","",""
"","","","offer","5e654e2055e480000dcd002a","bdp_rd","Mon Mar 27 2023 15:47:56 GMT-0400 (Eastern Daylight Time)","147181","html-keyboard-response","118","97106","0.0-5.0-2.37","","910","","","<div class='trialBorder'><div class='vertical-center'><img style='vertical-align:center; align:center' src=img/fixation3.jpg></div><div class='cl'><div class='vertical-center'>$3<br>for<br>sure</div></div><div class='cr'><div class='vertical-center'>$12<br>with a<br>50% chance</div></div><div class='respDivL'><div class='vertical-center'>(E)</div></div><div class='respDivR'><div class='vertical-center'>(I)</div></div></div>","I","$3","$12","0","3","12","RISKY"
"","","","offerFB","5e654e2055e480000dcd002a","bdp_rd","Mon Mar 27 2023 15:47:56 GMT-0400 (Eastern Daylight Time)","147181","html-keyboard-response","119","97364","0.0-5.0-3.37","","null","","","<div class='trialBorder'><div class='vertical-center'><img style='vertical-align:center; align:center' src=img/fixation3.jpg></div><div class='cl'><div class='vertical-center'>$3<br>for<br>sure</div></div><div class='cr'><div class='vertical-center'><font style='color:orange'>$12<br>with a<br>50% chance</font></div></div><div class='respDivL'><div class='vertical-center'>(E)</div></div><div class='respDivR'><div class='vertical-center'><font style='color:orange'>(I)</font></div></div></div>","null","$3","$12","0","3","12",""
"","","","FIX","5e654e2055e480000dcd002a","bdp_rd","Mon Mar 27 2023 15:47:56 GMT-0400 (Eastern Daylight Time)","147181","html-keyboard-response","120","97867","0.0-5.0-1.38","","null","","","<div class='trialBorder'><div class='vertical-center'><img style='vertical-align:center; align:center' src=img/fixation3.jpg></div></div>","null","","","","","",""
"","","","offer","5e654e2055e480000dcd002a","bdp_rd","Mon Mar 27 2023 15:47:56 GMT-0400 (Eastern Daylight Time)","147181","html-keyboard-response","121","98658","0.0-5.0-2.38","","788","","","<div class='trialBorder'><div class='vertical-center'><img style='vertical-align:center; align:center' src=img/fixation3.jpg></div><div class='cl'><div class='vertical-center'>$40<br>with a<br>50% chance</div></div><div class='cr'><div class='vertical-center'>$10<br>for<br>sure</div></div><div class='respDivL'><div class='vertical-center'>(E)</div></div><div class='respDivR'><div class='vertical-center'>(I)</div></div></div>","E","$10","$40","1","10","40","RISKY"
"","","","offerFB","5e654e2055e480000dcd002a","bdp_rd","Mon Mar 27 2023 15:47:56 GMT-0400 (Eastern Daylight Time)","147181","html-keyboard-response","122","98915","0.0-5.0-3.38","","null","","","<div class='trialBorder'><div class='vertical-center'><img style='vertical-align:center; align:center' src=img/fixation3.jpg></div><div class='cl'><div class='vertical-center'><font style='color:orange'>$40<br>with a<br>50% chance</font></div></div><div class='cr'><div class='vertical-center'>$10<br>for<br>sure</div></div><div class='respDivL'><div class='vertical-center'><font style='color:orange'>(E)</font></div></div><div class='respDivR'><div class='vertical-center'>(I)</div></div></div>","null","$10","$40","1","10","40",""
"","","","FIX","5e654e2055e480000dcd002a","bdp_rd","Mon Mar 27 2023 15:47:56 GMT-0400 (Eastern Daylight Time)","147181","html-keyboard-response","123","99421","0.0-5.0-1.39","","null","","","<div class='trialBorder'><div class='vertical-center'><img style='vertical-align:center; align:center' src=img/fixation3.jpg></div></div>","null","","","","","",""
"","","","offer","5e654e2055e480000dcd002a","bdp_rd","Mon Mar 27 2023 15:47:56 GMT-0400 (Eastern Daylight Time)","147181","html-keyboard-response","124","100515","0.0-5.0-2.39","","1091","","","<div class='trialBorder'><div class='vertical-center'><img style='vertical-align:center; align:center' src=img/fixation3.jpg></div><div class='cl'><div class='vertical-center'>$98<br>with a<br>50% chance</div></div><div class='cr'><div class='vertical-center'>$53<br>for<br>sure</div></div><div class='respDivL'><div class='vertical-center'>(E)</div></div><div class='respDivR'><div class='vertical-center'>(I)</div></div></div>","E","$53","$98","1","53","98","RISKY"
"","","","offerFB","5e654e2055e480000dcd002a","bdp_rd","Mon Mar 27 2023 15:47:56 GMT-0400 (Eastern Daylight Time)","147181","html-keyboard-response","125","100772","0.0-5.0-3.39","","null","","","<div class='trialBorder'><div class='vertical-center'><img style='vertical-align:center; align:center' src=img/fixation3.jpg></div><div class='cl'><div class='vertical-center'><font style='color:orange'>$98<br>with a<br>50% chance</font></div></div><div class='cr'><div class='vertical-center'>$53<br>for<br>sure</div></div><div class='respDivL'><div class='vertical-center'><font style='color:orange'>(E)</font></div></div><div class='respDivR'><div class='vertical-center'>(I)</div></div></div>","null","$53","$98","1","53","98",""
"","","","FIX","5e654e2055e480000dcd002a","bdp_rd","Mon Mar 27 2023 15:47:56 GMT-0400 (Eastern Daylight Time)","147181","html-keyboard-response","126","101279","0.0-5.0-1.40","","null","","","<div class='trialBorder'><div class='vertical-center'><img style='vertical-align:center; align:center' src=img/fixation3.jpg></div></div>","null","","","","","",""
"","","","offer","5e654e2055e480000dcd002a","bdp_rd","Mon Mar 27 2023 15:47:56 GMT-0400 (Eastern Daylight Time)","147181","html-keyboard-response","127","102354","0.0-5.0-2.40","","1073","","","<div class='trialBorder'><div class='vertical-center'><img style='vertical-align:center; align:center' src=img/fixation3.jpg></div><div class='cl'><div class='vertical-center'>$17<br>with a<br>50% chance</div></div><div class='cr'><div class='vertical-center'>$3<br>for<br>sure</div></div><div class='respDivL'><div class='vertical-center'>(E)</div></div><div class='respDivR'><div class='vertical-center'>(I)</div></div></div>","E","$3","$17","1","3","17","RISKY"
"","","","offerFB","5e654e2055e480000dcd002a","bdp_rd","Mon Mar 27 2023 15:47:56 GMT-0400 (Eastern Daylight Time)","147181","html-keyboard-response","128","102610","0.0-5.0-3.40","","null","","","<div class='trialBorder'><div class='vertical-center'><img style='vertical-align:center; align:center' src=img/fixation3.jpg></div><div class='cl'><div class='vertical-center'><font style='color:orange'>$17<br>with a<br>50% chance</font></div></div><div class='cr'><div class='vertical-center'>$3<br>for<br>sure</div></div><div class='respDivL'><div class='vertical-center'><font style='color:orange'>(E)</font></div></div><div class='respDivR'><div class='vertical-center'>(I)</div></div></div>","null","$3","$17","1","3","17",""
"","","","FIX","5e654e2055e480000dcd002a","bdp_rd","Mon Mar 27 2023 15:47:56 GMT-0400 (Eastern Daylight Time)","147181","html-keyboard-response","129","103114","0.0-5.0-1.41","","null","","","<div class='trialBorder'><div class='vertical-center'><img style='vertical-align:center; align:center' src=img/fixation3.jpg></div></div>","null","","","","","",""
"","","","offer","5e654e2055e480000dcd002a","bdp_rd","Mon Mar 27 2023 15:47:56 GMT-0400 (Eastern Daylight Time)","147181","html-keyboard-response","130","104751","0.0-5.0-2.41","","1635","","","<div class='trialBorder'><div class='vertical-center'><img style='vertical-align:center; align:center' src=img/fixation3.jpg></div><div class='cl'><div class='vertical-center'>$37<br>for<br>sure</div></div><div class='cr'><div class='vertical-center'>$44<br>with a<br>50% chance</div></div><div class='respDivL'><div class='vertical-center'>(E)</div></div><div class='respDivR'><div class='vertical-center'>(I)</div></div></div>","E","$37","$44","0","37","44","SURE"
"","","","offerFB","5e654e2055e480000dcd002a","bdp_rd","Mon Mar 27 2023 15:47:56 GMT-0400 (Eastern Daylight Time)","147181","html-keyboard-response","131","105008","0.0-5.0-3.41","","null","","","<div class='trialBorder'><div class='vertical-center'><img style='vertical-align:center; align:center' src=img/fixation3.jpg></div><div class='cl'><div class='vertical-center'><font style='color:orange'>$37<br>for<br>sure</font></div></div><div class='cr'><div class='vertical-center'>$44<br>with a<br>50% chance</div></div><div class='respDivL'><div class='vertical-center'><font style='color:orange'>(E)</font></div></div><div class='respDivR'><div class='vertical-center'>(I)</div></div></div>","null","$37","$44","0","37","44",""
"","","","FIX","5e654e2055e480000dcd002a","bdp_rd","Mon Mar 27 2023 15:47:56 GMT-0400 (Eastern Daylight Time)","147181","html-keyboard-response","132","105513","0.0-5.0-1.42","","null","","","<div class='trialBorder'><div class='vertical-center'><img style='vertical-align:center; align:center' src=img/fixation3.jpg></div></div>","null","","","","","",""
"","","","offer","5e654e2055e480000dcd002a","bdp_rd","Mon Mar 27 2023 15:47:56 GMT-0400 (Eastern Daylight Time)","147181","html-keyboard-response","133","106710","0.0-5.0-2.42","","1194","","","<div class='trialBorder'><div class='vertical-center'><img style='vertical-align:center; align:center' src=img/fixation3.jpg></div><div class='cl'><div class='vertical-center'>$6<br>for<br>sure</div></div><div class='cr'><div class='vertical-center'>$15<br>with a<br>50% chance</div></div><div class='respDivL'><div class='vertical-center'>(E)</div></div><div class='respDivR'><div class='vertical-center'>(I)</div></div></div>","I","$6","$15","0","6","15","RISKY"
"","","","offerFB","5e654e2055e480000dcd002a","bdp_rd","Mon Mar 27 2023 15:47:56 GMT-0400 (Eastern Daylight Time)","147181","html-keyboard-response","134","106963","0.0-5.0-3.42","","null","","","<div class='trialBorder'><div class='vertical-center'><img style='vertical-align:center; align:center' src=img/fixation3.jpg></div><div class='cl'><div class='vertical-center'>$6<br>for<br>sure</div></div><div class='cr'><div class='vertical-center'><font style='color:orange'>$15<br>with a<br>50% chance</font></div></div><div class='respDivL'><div class='vertical-center'>(E)</div></div><div class='respDivR'><div class='vertical-center'><font style='color:orange'>(I)</font></div></div></div>","null","$6","$15","0","6","15",""
"","","","FIX","5e654e2055e480000dcd002a","bdp_rd","Mon Mar 27 2023 15:47:56 GMT-0400 (Eastern Daylight Time)","147181","html-keyboard-response","135","107471","0.0-5.0-1.43","","null","","","<div class='trialBorder'><div class='vertical-center'><img style='vertical-align:center; align:center' src=img/fixation3.jpg></div></div>","null","","","","","",""
"","","","offer","5e654e2055e480000dcd002a","bdp_rd","Mon Mar 27 2023 15:47:56 GMT-0400 (Eastern Daylight Time)","147181","html-keyboard-response","136","108911","0.0-5.0-2.43","","1435","","","<div class='trialBorder'><div class='vertical-center'><img style='vertical-align:center; align:center' src=img/fixation3.jpg></div><div class='cl'><div class='vertical-center'>$69<br>with a<br>50% chance</div></div><div class='cr'><div class='vertical-center'>$58<br>for<br>sure</div></div><div class='respDivL'><div class='vertical-center'>(E)</div></div><div class='respDivR'><div class='vertical-center'>(I)</div></div></div>","I","$58","$69","1","58","69","SURE"
"","","","offerFB","5e654e2055e480000dcd002a","bdp_rd","Mon Mar 27 2023 15:47:56 GMT-0400 (Eastern Daylight Time)","147181","html-keyboard-response","137","109167","0.0-5.0-3.43","","null","","","<div class='trialBorder'><div class='vertical-center'><img style='vertical-align:center; align:center' src=img/fixation3.jpg></div><div class='cl'><div class='vertical-center'>$69<br>with a<br>50% chance</div></div><div class='cr'><div class='vertical-center'><font style='color:orange'>$58<br>for<br>sure</font></div></div><div class='respDivL'><div class='vertical-center'>(E)</div></div><div class='respDivR'><div class='vertical-center'><font style='color:orange'>(I)</font></div></div></div>","null","$58","$69","1","58","69",""
"","","","FIX","5e654e2055e480000dcd002a","bdp_rd","Mon Mar 27 2023 15:47:56 GMT-0400 (Eastern Daylight Time)","147181","html-keyboard-response","138","109671","0.0-5.0-1.44","","null","","","<div class='trialBorder'><div class='vertical-center'><img style='vertical-align:center; align:center' src=img/fixation3.jpg></div></div>","null","","","","","",""
"","","","offer","5e654e2055e480000dcd002a","bdp_rd","Mon Mar 27 2023 15:47:56 GMT-0400 (Eastern Daylight Time)","147181","html-keyboard-response","139","111060","0.0-5.0-2.44","","1387","","","<div class='trialBorder'><div class='vertical-center'><img style='vertical-align:center; align:center' src=img/fixation3.jpg></div><div class='cl'><div class='vertical-center'>$30<br>with a<br>50% chance</div></div><div class='cr'><div class='vertical-center'>$1<br>for<br>sure</div></div><div class='respDivL'><div class='vertical-center'>(E)</div></div><div class='respDivR'><div class='vertical-center'>(I)</div></div></div>","E","$1","$30","1","1","30","RISKY"
"","","","offerFB","5e654e2055e480000dcd002a","bdp_rd","Mon Mar 27 2023 15:47:56 GMT-0400 (Eastern Daylight Time)","147181","html-keyboard-response","140","111317","0.0-5.0-3.44","","null","","","<div class='trialBorder'><div class='vertical-center'><img style='vertical-align:center; align:center' src=img/fixation3.jpg></div><div class='cl'><div class='vertical-center'><font style='color:orange'>$30<br>with a<br>50% chance</font></div></div><div class='cr'><div class='vertical-center'>$1<br>for<br>sure</div></div><div class='respDivL'><div class='vertical-center'><font style='color:orange'>(E)</font></div></div><div class='respDivR'><div class='vertical-center'>(I)</div></div></div>","null","$1","$30","1","1","30",""
"","","","FIX","5e654e2055e480000dcd002a","bdp_rd","Mon Mar 27 2023 15:47:56 GMT-0400 (Eastern Daylight Time)","147181","html-keyboard-response","141","111824","0.0-5.0-1.45","","null","","","<div class='trialBorder'><div class='vertical-center'><img style='vertical-align:center; align:center' src=img/fixation3.jpg></div></div>","null","","","","","",""
"","","","offer","5e654e2055e480000dcd002a","bdp_rd","Mon Mar 27 2023 15:47:56 GMT-0400 (Eastern Daylight Time)","147181","html-keyboard-response","142","113620","0.0-5.0-2.45","","1794","","","<div class='trialBorder'><div class='vertical-center'><img style='vertical-align:center; align:center' src=img/fixation3.jpg></div><div class='cl'><div class='vertical-center'>$15<br>for<br>sure</div></div><div class='cr'><div class='vertical-center'>$34<br>with a<br>50% chance</div></div><div class='respDivL'><div class='vertical-center'>(E)</div></div><div class='respDivR'><div class='vertical-center'>(I)</div></div></div>","I","$15","$34","0","15","34","RISKY"
"","","","offerFB","5e654e2055e480000dcd002a","bdp_rd","Mon Mar 27 2023 15:47:56 GMT-0400 (Eastern Daylight Time)","147181","html-keyboard-response","143","113877","0.0-5.0-3.45","","null","","","<div class='trialBorder'><div class='vertical-center'><img style='vertical-align:center; align:center' src=img/fixation3.jpg></div><div class='cl'><div class='vertical-center'>$15<br>for<br>sure</div></div><div class='cr'><div class='vertical-center'><font style='color:orange'>$34<br>with a<br>50% chance</font></div></div><div class='respDivL'><div class='vertical-center'>(E)</div></div><div class='respDivR'><div class='vertical-center'><font style='color:orange'>(I)</font></div></div></div>","null","$15","$34","0","15","34",""
"","","","FIX","5e654e2055e480000dcd002a","bdp_rd","Mon Mar 27 2023 15:47:56 GMT-0400 (Eastern Daylight Time)","147181","html-keyboard-response","144","114380","0.0-5.0-1.46","","null","","","<div class='trialBorder'><div class='vertical-center'><img style='vertical-align:center; align:center' src=img/fixation3.jpg></div></div>","null","","","","","",""
"","","","offer","5e654e2055e480000dcd002a","bdp_rd","Mon Mar 27 2023 15:47:56 GMT-0400 (Eastern Daylight Time)","147181","html-keyboard-response","145","116557","0.0-5.0-2.46","","2174","","","<div class='trialBorder'><div class='vertical-center'><img style='vertical-align:center; align:center' src=img/fixation3.jpg></div><div class='cl'><div class='vertical-center'>$29<br>for<br>sure</div></div><div class='cr'><div class='vertical-center'>$46<br>with a<br>50% chance</div></div><div class='respDivL'><div class='vertical-center'>(E)</div></div><div class='respDivR'><div class='vertical-center'>(I)</div></div></div>","E","$29","$46","0","29","46","SURE"
"","","","offerFB","5e654e2055e480000dcd002a","bdp_rd","Mon Mar 27 2023 15:47:56 GMT-0400 (Eastern Daylight Time)","147181","html-keyboard-response","146","116813","0.0-5.0-3.46","","null","","","<div class='trialBorder'><div class='vertical-center'><img style='vertical-align:center; align:center' src=img/fixation3.jpg></div><div class='cl'><div class='vertical-center'><font style='color:orange'>$29<br>for<br>sure</font></div></div><div class='cr'><div class='vertical-center'>$46<br>with a<br>50% chance</div></div><div class='respDivL'><div class='vertical-center'><font style='color:orange'>(E)</font></div></div><div class='respDivR'><div class='vertical-center'>(I)</div></div></div>","null","$29","$46","0","29","46",""
"","","","FIX","5e654e2055e480000dcd002a","bdp_rd","Mon Mar 27 2023 15:47:56 GMT-0400 (Eastern Daylight Time)","147181","html-keyboard-response","147","117318","0.0-5.0-1.47","","null","","","<div class='trialBorder'><div class='vertical-center'><img style='vertical-align:center; align:center' src=img/fixation3.jpg></div></div>","null","","","","","",""
"","","","offer","5e654e2055e480000dcd002a","bdp_rd","Mon Mar 27 2023 15:47:56 GMT-0400 (Eastern Daylight Time)","147181","html-keyboard-response","148","119043","0.0-5.0-2.47","","1724","","","<div class='trialBorder'><div class='vertical-center'><img style='vertical-align:center; align:center' src=img/fixation3.jpg></div><div class='cl'><div class='vertical-center'>$37<br>with a<br>50% chance</div></div><div class='cr'><div class='vertical-center'>$20<br>for<br>sure</div></div><div class='respDivL'><div class='vertical-center'>(E)</div></div><div class='respDivR'><div class='vertical-center'>(I)</div></div></div>","I","$20","$37","1","20","37","SURE"
"","","","offerFB","5e654e2055e480000dcd002a","bdp_rd","Mon Mar 27 2023 15:47:56 GMT-0400 (Eastern Daylight Time)","147181","html-keyboard-response","149","119300","0.0-5.0-3.47","","null","","","<div class='trialBorder'><div class='vertical-center'><img style='vertical-align:center; align:center' src=img/fixation3.jpg></div><div class='cl'><div class='vertical-center'>$37<br>with a<br>50% chance</div></div><div class='cr'><div class='vertical-center'><font style='color:orange'>$20<br>for<br>sure</font></div></div><div class='respDivL'><div class='vertical-center'>(E)</div></div><div class='respDivR'><div class='vertical-center'><font style='color:orange'>(I)</font></div></div></div>","null","$20","$37","1","20","37",""
"","","","FIX","5e654e2055e480000dcd002a","bdp_rd","Mon Mar 27 2023 15:47:56 GMT-0400 (Eastern Daylight Time)","147181","html-keyboard-response","150","119807","0.0-5.0-1.48","","null","","","<div class='trialBorder'><div class='vertical-center'><img style='vertical-align:center; align:center' src=img/fixation3.jpg></div></div>","null","","","","","",""
"","","","offer","5e654e2055e480000dcd002a","bdp_rd","Mon Mar 27 2023 15:47:56 GMT-0400 (Eastern Daylight Time)","147181","html-keyboard-response","151","121768","0.0-5.0-2.48","","1958","","","<div class='trialBorder'><div class='vertical-center'><img style='vertical-align:center; align:center' src=img/fixation3.jpg></div><div class='cl'><div class='vertical-center'>$39<br>for<br>sure</div></div><div class='cr'><div class='vertical-center'>$81<br>with a<br>50% chance</div></div><div class='respDivL'><div class='vertical-center'>(E)</div></div><div class='respDivR'><div class='vertical-center'>(I)</div></div></div>","E","$39","$81","0","39","81","SURE"
"","","","offerFB","5e654e2055e480000dcd002a","bdp_rd","Mon Mar 27 2023 15:47:56 GMT-0400 (Eastern Daylight Time)","147181","html-keyboard-response","152","122024","0.0-5.0-3.48","","null","","","<div class='trialBorder'><div class='vertical-center'><img style='vertical-align:center; align:center' src=img/fixation3.jpg></div><div class='cl'><div class='vertical-center'><font style='color:orange'>$39<br>for<br>sure</font></div></div><div class='cr'><div class='vertical-center'>$81<br>with a<br>50% chance</div></div><div class='respDivL'><div class='vertical-center'><font style='color:orange'>(E)</font></div></div><div class='respDivR'><div class='vertical-center'>(I)</div></div></div>","null","$39","$81","0","39","81",""
"","","","FIX","5e654e2055e480000dcd002a","bdp_rd","Mon Mar 27 2023 15:47:56 GMT-0400 (Eastern Daylight Time)","147181","html-keyboard-response","153","122530","0.0-5.0-1.49","","null","","","<div class='trialBorder'><div class='vertical-center'><img style='vertical-align:center; align:center' src=img/fixation3.jpg></div></div>","null","","","","","",""
"","","","offer","5e654e2055e480000dcd002a","bdp_rd","Mon Mar 27 2023 15:47:56 GMT-0400 (Eastern Daylight Time)","147181","html-keyboard-response","154","123775","0.0-5.0-2.49","","1243","","","<div class='trialBorder'><div class='vertical-center'><img style='vertical-align:center; align:center' src=img/fixation3.jpg></div><div class='cl'><div class='vertical-center'>$26<br>for<br>sure</div></div><div class='cr'><div class='vertical-center'>$92<br>with a<br>50% chance</div></div><div class='respDivL'><div class='vertical-center'>(E)</div></div><div class='respDivR'><div class='vertical-center'>(I)</div></div></div>","I","$26","$92","0","26","92","RISKY"
"","","","offerFB","5e654e2055e480000dcd002a","bdp_rd","Mon Mar 27 2023 15:47:56 GMT-0400 (Eastern Daylight Time)","147181","html-keyboard-response","155","124030","0.0-5.0-3.49","","null","","","<div class='trialBorder'><div class='vertical-center'><img style='vertical-align:center; align:center' src=img/fixation3.jpg></div><div class='cl'><div class='vertical-center'>$26<br>for<br>sure</div></div><div class='cr'><div class='vertical-center'><font style='color:orange'>$92<br>with a<br>50% chance</font></div></div><div class='respDivL'><div class='vertical-center'>(E)</div></div><div class='respDivR'><div class='vertical-center'><font style='color:orange'>(I)</font></div></div></div>","null","$26","$92","0","26","92",""
"","","","FIX","5e654e2055e480000dcd002a","bdp_rd","Mon Mar 27 2023 15:47:56 GMT-0400 (Eastern Daylight Time)","147181","html-keyboard-response","156","124537","0.0-5.0-1.50","","null","","","<div class='trialBorder'><div class='vertical-center'><img style='vertical-align:center; align:center' src=img/fixation3.jpg></div></div>","null","","","","","",""
"","","","offer","5e654e2055e480000dcd002a","bdp_rd","Mon Mar 27 2023 15:47:56 GMT-0400 (Eastern Daylight Time)","147181","html-keyboard-response","157","126793","0.0-5.0-2.50","","2254","","","<div class='trialBorder'><div class='vertical-center'><img style='vertical-align:center; align:center' src=img/fixation3.jpg></div><div class='cl'><div class='vertical-center'>$65<br>with a<br>50% chance</div></div><div class='cr'><div class='vertical-center'>$46<br>for<br>sure</div></div><div class='respDivL'><div class='vertical-center'>(E)</div></div><div class='respDivR'><div class='vertical-center'>(I)</div></div></div>","I","$46","$65","1","46","65","SURE"
"","","","offerFB","5e654e2055e480000dcd002a","bdp_rd","Mon Mar 27 2023 15:47:56 GMT-0400 (Eastern Daylight Time)","147181","html-keyboard-response","158","127047","0.0-5.0-3.50","","null","","","<div class='trialBorder'><div class='vertical-center'><img style='vertical-align:center; align:center' src=img/fixation3.jpg></div><div class='cl'><div class='vertical-center'>$65<br>with a<br>50% chance</div></div><div class='cr'><div class='vertical-center'><font style='color:orange'>$46<br>for<br>sure</font></div></div><div class='respDivL'><div class='vertical-center'>(E)</div></div><div class='respDivR'><div class='vertical-center'><font style='color:orange'>(I)</font></div></div></div>","null","$46","$65","1","46","65",""
"","","","FIX","5e654e2055e480000dcd002a","bdp_rd","Mon Mar 27 2023 15:47:56 GMT-0400 (Eastern Daylight Time)","147181","html-keyboard-response","159","127555","0.0-5.0-1.51","","null","","","<div class='trialBorder'><div class='vertical-center'><img style='vertical-align:center; align:center' src=img/fixation3.jpg></div></div>","null","","","","","",""
"","","","offer","5e654e2055e480000dcd002a","bdp_rd","Mon Mar 27 2023 15:47:56 GMT-0400 (Eastern Daylight Time)","147181","html-keyboard-response","160","128619","0.0-5.0-2.51","","1061","","","<div class='trialBorder'><div class='vertical-center'><img style='vertical-align:center; align:center' src=img/fixation3.jpg></div><div class='cl'><div class='vertical-center'>$19<br>for<br>sure</div></div><div class='cr'><div class='vertical-center'>$51<br>with a<br>50% chance</div></div><div class='respDivL'><div class='vertical-center'>(E)</div></div><div class='respDivR'><div class='vertical-center'>(I)</div></div></div>","I","$19","$51","0","19","51","RISKY"
"","","","offerFB","5e654e2055e480000dcd002a","bdp_rd","Mon Mar 27 2023 15:47:56 GMT-0400 (Eastern Daylight Time)","147181","html-keyboard-response","161","128875","0.0-5.0-3.51","","null","","","<div class='trialBorder'><div class='vertical-center'><img style='vertical-align:center; align:center' src=img/fixation3.jpg></div><div class='cl'><div class='vertical-center'>$19<br>for<br>sure</div></div><div class='cr'><div class='vertical-center'><font style='color:orange'>$51<br>with a<br>50% chance</font></div></div><div class='respDivL'><div class='vertical-center'>(E)</div></div><div class='respDivR'><div class='vertical-center'><font style='color:orange'>(I)</font></div></div></div>","null","$19","$51","0","19","51",""
"","","","FIX","5e654e2055e480000dcd002a","bdp_rd","Mon Mar 27 2023 15:47:56 GMT-0400 (Eastern Daylight Time)","147181","html-keyboard-response","162","129381","0.0-5.0-1.52","","null","","","<div class='trialBorder'><div class='vertical-center'><img style='vertical-align:center; align:center' src=img/fixation3.jpg></div></div>","null","","","","","",""
"","","","offer","5e654e2055e480000dcd002a","bdp_rd","Mon Mar 27 2023 15:47:56 GMT-0400 (Eastern Daylight Time)","147181","html-keyboard-response","163","130591","0.0-5.0-2.52","","1207","","","<div class='trialBorder'><div class='vertical-center'><img style='vertical-align:center; align:center' src=img/fixation3.jpg></div><div class='cl'><div class='vertical-center'>$24<br>for<br>sure</div></div><div class='cr'><div class='vertical-center'>$70<br>with a<br>50% chance</div></div><div class='respDivL'><div class='vertical-center'>(E)</div></div><div class='respDivR'><div class='vertical-center'>(I)</div></div></div>","I","$24","$70","0","24","70","RISKY"
"","","","offerFB","5e654e2055e480000dcd002a","bdp_rd","Mon Mar 27 2023 15:47:56 GMT-0400 (Eastern Daylight Time)","147181","html-keyboard-response","164","130849","0.0-5.0-3.52","","null","","","<div class='trialBorder'><div class='vertical-center'><img style='vertical-align:center; align:center' src=img/fixation3.jpg></div><div class='cl'><div class='vertical-center'>$24<br>for<br>sure</div></div><div class='cr'><div class='vertical-center'><font style='color:orange'>$70<br>with a<br>50% chance</font></div></div><div class='respDivL'><div class='vertical-center'>(E)</div></div><div class='respDivR'><div class='vertical-center'><font style='color:orange'>(I)</font></div></div></div>","null","$24","$70","0","24","70",""
"","","","FIX","5e654e2055e480000dcd002a","bdp_rd","Mon Mar 27 2023 15:47:56 GMT-0400 (Eastern Daylight Time)","147181","html-keyboard-response","165","131356","0.0-5.0-1.53","","null","","","<div class='trialBorder'><div class='vertical-center'><img style='vertical-align:center; align:center' src=img/fixation3.jpg></div></div>","null","","","","","",""
"","","","offer","5e654e2055e480000dcd002a","bdp_rd","Mon Mar 27 2023 15:47:56 GMT-0400 (Eastern Daylight Time)","147181","html-keyboard-response","166","132819","0.0-5.0-2.53","","1461","","","<div class='trialBorder'><div class='vertical-center'><img style='vertical-align:center; align:center' src=img/fixation3.jpg></div><div class='cl'><div class='vertical-center'>$30<br>for<br>sure</div></div><div class='cr'><div class='vertical-center'>$68<br>with a<br>50% chance</div></div><div class='respDivL'><div class='vertical-center'>(E)</div></div><div class='respDivR'><div class='vertical-center'>(I)</div></div></div>","E","$30","$68","0","30","68","SURE"
"","","","offerFB","5e654e2055e480000dcd002a","bdp_rd","Mon Mar 27 2023 15:47:56 GMT-0400 (Eastern Daylight Time)","147181","html-keyboard-response","167","133076","0.0-5.0-3.53","","null","","","<div class='trialBorder'><div class='vertical-center'><img style='vertical-align:center; align:center' src=img/fixation3.jpg></div><div class='cl'><div class='vertical-center'><font style='color:orange'>$30<br>for<br>sure</font></div></div><div class='cr'><div class='vertical-center'>$68<br>with a<br>50% chance</div></div><div class='respDivL'><div class='vertical-center'><font style='color:orange'>(E)</font></div></div><div class='respDivR'><div class='vertical-center'>(I)</div></div></div>","null","$30","$68","0","30","68",""
"","","","FIX","5e654e2055e480000dcd002a","bdp_rd","Mon Mar 27 2023 15:47:56 GMT-0400 (Eastern Daylight Time)","147181","html-keyboard-response","168","133582","0.0-5.0-1.54","","null","","","<div class='trialBorder'><div class='vertical-center'><img style='vertical-align:center; align:center' src=img/fixation3.jpg></div></div>","null","","","","","",""
"","","","offer","5e654e2055e480000dcd002a","bdp_rd","Mon Mar 27 2023 15:47:56 GMT-0400 (Eastern Daylight Time)","147181","html-keyboard-response","169","134271","0.0-5.0-2.54","","687","","","<div class='trialBorder'><div class='vertical-center'><img style='vertical-align:center; align:center' src=img/fixation3.jpg></div><div class='cl'><div class='vertical-center'>$4<br>for<br>sure</div></div><div class='cr'><div class='vertical-center'>$14<br>with a<br>50% chance</div></div><div class='respDivL'><div class='vertical-center'>(E)</div></div><div class='respDivR'><div class='vertical-center'>(I)</div></div></div>","I","$4","$14","0","4","14","RISKY"
"","","","offerFB","5e654e2055e480000dcd002a","bdp_rd","Mon Mar 27 2023 15:47:56 GMT-0400 (Eastern Daylight Time)","147181","html-keyboard-response","170","134527","0.0-5.0-3.54","","null","","","<div class='trialBorder'><div class='vertical-center'><img style='vertical-align:center; align:center' src=img/fixation3.jpg></div><div class='cl'><div class='vertical-center'>$4<br>for<br>sure</div></div><div class='cr'><div class='vertical-center'><font style='color:orange'>$14<br>with a<br>50% chance</font></div></div><div class='respDivL'><div class='vertical-center'>(E)</div></div><div class='respDivR'><div class='vertical-center'><font style='color:orange'>(I)</font></div></div></div>","null","$4","$14","0","4","14",""
"","","","FIX","5e654e2055e480000dcd002a","bdp_rd","Mon Mar 27 2023 15:47:56 GMT-0400 (Eastern Daylight Time)","147181","html-keyboard-response","171","135031","0.0-5.0-1.55","","null","","","<div class='trialBorder'><div class='vertical-center'><img style='vertical-align:center; align:center' src=img/fixation3.jpg></div></div>","null","","","","","",""
"","","","offer","5e654e2055e480000dcd002a","bdp_rd","Mon Mar 27 2023 15:47:56 GMT-0400 (Eastern Daylight Time)","147181","html-keyboard-response","172","136385","0.0-5.0-2.55","","1352","","","<div class='trialBorder'><div class='vertical-center'><img style='vertical-align:center; align:center' src=img/fixation3.jpg></div><div class='cl'><div class='vertical-center'>$100<br>with a<br>50% chance</div></div><div class='cr'><div class='vertical-center'>$63<br>for<br>sure</div></div><div class='respDivL'><div class='vertical-center'>(E)</div></div><div class='respDivR'><div class='vertical-center'>(I)</div></div></div>","I","$63","$100","1","63","10","SURE"
"","","","offerFB","5e654e2055e480000dcd002a","bdp_rd","Mon Mar 27 2023 15:47:56 GMT-0400 (Eastern Daylight Time)","147181","html-keyboard-response","173","136641","0.0-5.0-3.55","","null","","","<div class='trialBorder'><div class='vertical-center'><img style='vertical-align:center; align:center' src=img/fixation3.jpg></div><div class='cl'><div class='vertical-center'>$100<br>with a<br>50% chance</div></div><div class='cr'><div class='vertical-center'><font style='color:orange'>$63<br>for<br>sure</font></div></div><div class='respDivL'><div class='vertical-center'>(E)</div></div><div class='respDivR'><div class='vertical-center'><font style='color:orange'>(I)</font></div></div></div>","null","$63","$100","1","63","10",""
