"trial_type","trial_index","time_elapsed","internal_node_id","subject_id","task","startTime","totalTime","view_history","rt","event","trial","time","trialtype","success","stimulus","key_press","sureOffer","riskyOffer","riskyLeft","sureAmt","riskyAmt","chosen"
"pavlovia","0","6","0.0-0.0","61038afee6aa0fcfbf968e56","bdp_rd","Tue Mar 28 2023 00:21:17 GMT-0400 (Eastern Daylight Time)","268290","","","","","","","","","","","","","","",""
"instructions","1","2177","0.0-1.0","61038afee6aa0fcfbf968e56","bdp_rd","Tue Mar 28 2023 00:21:17 GMT-0400 (Eastern Daylight Time)","268290","[{""page_index"":0,""viewing_time"":2170}]","2170","","","","","","","","","","","","",""
"","","","","61038afee6aa0fcfbf968e56","bdp_rd","Tue Mar 28 2023 00:21:17 GMT-0400 (Eastern Daylight Time)","268290","","","fullscreenenter","2","3807","fullscreenenter","","","","","","","","",""
"fullscreen","2","4790","0.0-2.0","61038afee6aa0fcfbf968e56","bdp_rd","Tue Mar 28 2023 00:21:17 GMT-0400 (Eastern Daylight Time)","268290","","","","","","","true","","","","","","","",""
"instructions","3","32133","0.0-4.0","61038afee6aa0fcfbf968e56","bdp_rd","Tue Mar 28 2023 00:21:17 GMT-0400 (Eastern Daylight Time)","268290","[{""page_index"":0,""viewing_time"":19223},{""page_index"":1,""viewing_time"":5884},{""page_index"":2,""viewing_time"":2235}]","27342","","","","","","","","","","","","",""
"html-keyboard-response","4","32635","0.0-5.0-1.0","61038afee6aa0fcfbf968e56","bdp_rd","Tue Mar 28 2023 00:21:17 GMT-0400 (Eastern Daylight Time)","268290","","null","","","","FIX","","<div class='trialBorder'><div class='vertical-center'><img style='vertical-align:center; align:center' src=img/fixation3.jpg></div></div>","null","","","","","",""
"html-keyboard-response","5","37151","0.0-5.0-2.0","61038afee6aa0fcfbf968e56","bdp_rd","Tue Mar 28 2023 00:21:17 GMT-0400 (Eastern Daylight Time)","268290","","4515","","","","offer","","<div class='trialBorder'><div class='vertical-center'><img style='vertical-align:center; align:center' src=img/fixation3.jpg></div><div class='cl'><div class='vertical-center'>$18<br>for<br>sure</div></div><div class='cr'><div class='vertical-center'>$36<br>with a<br>50% chance</div></div><div class='respDivL'><div class='vertical-center'>(E)</div></div><div class='respDivR'><div class='vertical-center'>(I)</div></div></div>","E","$18","$36","0","18","36","SURE"
"html-keyboard-response","6","37404","0.0-5.0-3.0","61038afee6aa0fcfbf968e56","bdp_rd","Tue Mar 28 2023 00:21:17 GMT-0400 (Eastern Daylight Time)","268290","","null","","","","offerFB","","<div class='trialBorder'><div class='vertical-center'><img style='vertical-align:center; align:center' src=img/fixation3.jpg></div><div class='cl'><div class='vertical-center'><font style='color:orange'>$18<br>for<br>sure</font></div></div><div class='cr'><div class='vertical-center'>$36<br>with a<br>50% chance</div></div><div class='respDivL'><div class='vertical-center'><font style='color:orange'>(E)</font></div></div><div class='respDivR'><div class='vertical-center'>(I)</div></div></div>","null","$18","$36","0","18","36",""
"html-keyboard-response","7","37906","0.0-5.0-1.1","61038afee6aa0fcfbf968e56","bdp_rd","Tue Mar 28 2023 00:21:17 GMT-0400 (Eastern Daylight Time)","268290","","null","","","","FIX","","<div class='trialBorder'><div class='vertical-center'><img style='vertical-align:center; align:center' src=img/fixation3.jpg></div></div>","null","","","","","",""
"html-keyboard-response","8","41606","0.0-5.0-2.1","61038afee6aa0fcfbf968e56","bdp_rd","Tue Mar 28 2023 00:21:17 GMT-0400 (Eastern Daylight Time)","268290","","3699","","","","offer","","<div class='trialBorder'><div class='vertical-center'><img style='vertical-align:center; align:center' src=img/fixation3.jpg></div><div class='cl'><div class='vertical-center'>$8<br>for<br>sure</div></div><div class='cr'><div class='vertical-center'>$45<br>with a<br>50% chance</div></div><div class='respDivL'><div class='vertical-center'>(E)</div></div><div class='respDivR'><div class='vertical-center'>(I)</div></div></div>","I","$8","$45","0","8","45","RISKY"
"html-keyboard-response","9","41859","0.0-5.0-3.1","61038afee6aa0fcfbf968e56","bdp_rd","Tue Mar 28 2023 00:21:17 GMT-0400 (Eastern Daylight Time)","268290","","null","","","","offerFB","","<div class='trialBorder'><div class='vertical-center'><img style='vertical-align:center; align:center' src=img/fixation3.jpg></div><div class='cl'><div class='vertical-center'>$8<br>for<br>sure</div></div><div class='cr'><div class='vertical-center'><font style='color:orange'>$45<br>with a<br>50% chance</font></div></div><div class='respDivL'><div class='vertical-center'>(E)</div></div><div class='respDivR'><div class='vertical-center'><font style='color:orange'>(I)</font></div></div></div>","null","$8","$45","0","8","45",""
"html-keyboard-response","10","42361","0.0-5.0-1.2","61038afee6aa0fcfbf968e56","bdp_rd","Tue Mar 28 2023 00:21:17 GMT-0400 (Eastern Daylight Time)","268290","","null","","","","FIX","","<div class='trialBorder'><div class='vertical-center'><img style='vertical-align:center; align:center' src=img/fixation3.jpg></div></div>","null","","","","","",""
"html-keyboard-response","11","44370","0.0-5.0-2.2","61038afee6aa0fcfbf968e56","bdp_rd","Tue Mar 28 2023 00:21:17 GMT-0400 (Eastern Daylight Time)","268290","","2009","","","","offer","","<div class='trialBorder'><div class='vertical-center'><img style='vertical-align:center; align:center' src=img/fixation3.jpg></div><div class='cl'><div class='vertical-center'>$30<br>with a<br>50% chance</div></div><div class='cr'><div class='vertical-center'>$1<br>for<br>sure</div></div><div class='respDivL'><div class='vertical-center'>(E)</div></div><div class='respDivR'><div class='vertical-center'>(I)</div></div></div>","E","$1","$30","1","1","30","RISKY"
"html-keyboard-response","12","44623","0.0-5.0-3.2","61038afee6aa0fcfbf968e56","bdp_rd","Tue Mar 28 2023 00:21:17 GMT-0400 (Eastern Daylight Time)","268290","","null","","","","offerFB","","<div class='trialBorder'><div class='vertical-center'><img style='vertical-align:center; align:center' src=img/fixation3.jpg></div><div class='cl'><div class='vertical-center'><font style='color:orange'>$30<br>with a<br>50% chance</font></div></div><div class='cr'><div class='vertical-center'>$1<br>for<br>sure</div></div><div class='respDivL'><div class='vertical-center'><font style='color:orange'>(E)</font></div></div><div class='respDivR'><div class='vertical-center'>(I)</div></div></div>","null","$1","$30","1","1","30",""
"html-keyboard-response","13","45124","0.0-5.0-1.3","61038afee6aa0fcfbf968e56","bdp_rd","Tue Mar 28 2023 00:21:17 GMT-0400 (Eastern Daylight Time)","268290","","null","","","","FIX","","<div class='trialBorder'><div class='vertical-center'><img style='vertical-align:center; align:center' src=img/fixation3.jpg></div></div>","null","","","","","",""
"html-keyboard-response","14","50389","0.0-5.0-2.3","61038afee6aa0fcfbf968e56","bdp_rd","Tue Mar 28 2023 00:21:17 GMT-0400 (Eastern Daylight Time)","268290","","5263","","","","offer","","<div class='trialBorder'><div class='vertical-center'><img style='vertical-align:center; align:center' src=img/fixation3.jpg></div><div class='cl'><div class='vertical-center'>$66<br>with a<br>50% chance</div></div><div class='cr'><div class='vertical-center'>$33<br>for<br>sure</div></div><div class='respDivL'><div class='vertical-center'>(E)</div></div><div class='respDivR'><div class='vertical-center'>(I)</div></div></div>","E","$33","$66","1","33","66","RISKY"
"html-keyboard-response","15","50641","0.0-5.0-3.3","61038afee6aa0fcfbf968e56","bdp_rd","Tue Mar 28 2023 00:21:17 GMT-0400 (Eastern Daylight Time)","268290","","null","","","","offerFB","","<div class='trialBorder'><div class='vertical-center'><img style='vertical-align:center; align:center' src=img/fixation3.jpg></div><div class='cl'><div class='vertical-center'><font style='color:orange'>$66<br>with a<br>50% chance</font></div></div><div class='cr'><div class='vertical-center'>$33<br>for<br>sure</div></div><div class='respDivL'><div class='vertical-center'><font style='color:orange'>(E)</font></div></div><div class='respDivR'><div class='vertical-center'>(I)</div></div></div>","null","$33","$66","1","33","66",""
"html-keyboard-response","16","51142","0.0-5.0-1.4","61038afee6aa0fcfbf968e56","bdp_rd","Tue Mar 28 2023 00:21:17 GMT-0400 (Eastern Daylight Time)","268290","","null","","","","FIX","","<div class='trialBorder'><div class='vertical-center'><img style='vertical-align:center; align:center' src=img/fixation3.jpg></div></div>","null","","","","","",""
"html-keyboard-response","17","52449","0.0-5.0-2.4","61038afee6aa0fcfbf968e56","bdp_rd","Tue Mar 28 2023 00:21:17 GMT-0400 (Eastern Daylight Time)","268290","","1306","","","","offer","","<div class='trialBorder'><div class='vertical-center'><img style='vertical-align:center; align:center' src=img/fixation3.jpg></div><div class='cl'><div class='vertical-center'>$1<br>for<br>sure</div></div><div class='cr'><div class='vertical-center'>$33<br>with a<br>50% chance</div></div><div class='respDivL'><div class='vertical-center'>(E)</div></div><div class='respDivR'><div class='vertical-center'>(I)</div></div></div>","I","$1","$33","0","1","33","RISKY"
"html-keyboard-response","18","52702","0.0-5.0-3.4","61038afee6aa0fcfbf968e56","bdp_rd","Tue Mar 28 2023 00:21:17 GMT-0400 (Eastern Daylight Time)","268290","","null","","","","offerFB","","<div class='trialBorder'><div class='vertical-center'><img style='vertical-align:center; align:center' src=img/fixation3.jpg></div><div class='cl'><div class='vertical-center'>$1<br>for<br>sure</div></div><div class='cr'><div class='vertical-center'><font style='color:orange'>$33<br>with a<br>50% chance</font></div></div><div class='respDivL'><div class='vertical-center'>(E)</div></div><div class='respDivR'><div class='vertical-center'><font style='color:orange'>(I)</font></div></div></div>","null","$1","$33","0","1","33",""
"html-keyboard-response","19","53203","0.0-5.0-1.5","61038afee6aa0fcfbf968e56","bdp_rd","Tue Mar 28 2023 00:21:17 GMT-0400 (Eastern Daylight Time)","268290","","null","","","","FIX","","<div class='trialBorder'><div class='vertical-center'><img style='vertical-align:center; align:center' src=img/fixation3.jpg></div></div>","null","","","","","",""
"html-keyboard-response","20","55611","0.0-5.0-2.5","61038afee6aa0fcfbf968e56","bdp_rd","Tue Mar 28 2023 00:21:17 GMT-0400 (Eastern Daylight Time)","268290","","2408","","","","offer","","<div class='trialBorder'><div class='vertical-center'><img style='vertical-align:center; align:center' src=img/fixation3.jpg></div><div class='cl'><div class='vertical-center'>$62<br>with a<br>50% chance</div></div><div class='cr'><div class='vertical-center'>$11<br>for<br>sure</div></div><div class='respDivL'><div class='vertical-center'>(E)</div></div><div class='respDivR'><div class='vertical-center'>(I)</div></div></div>","E","$11","$62","1","11","62","RISKY"
"html-keyboard-response","21","55864","0.0-5.0-3.5","61038afee6aa0fcfbf968e56","bdp_rd","Tue Mar 28 2023 00:21:17 GMT-0400 (Eastern Daylight Time)","268290","","null","","","","offerFB","","<div class='trialBorder'><div class='vertical-center'><img style='vertical-align:center; align:center' src=img/fixation3.jpg></div><div class='cl'><div class='vertical-center'><font style='color:orange'>$62<br>with a<br>50% chance</font></div></div><div class='cr'><div class='vertical-center'>$11<br>for<br>sure</div></div><div class='respDivL'><div class='vertical-center'><font style='color:orange'>(E)</font></div></div><div class='respDivR'><div class='vertical-center'>(I)</div></div></div>","null","$11","$62","1","11","62",""
"html-keyboard-response","22","56366","0.0-5.0-1.6","61038afee6aa0fcfbf968e56","bdp_rd","Tue Mar 28 2023 00:21:17 GMT-0400 (Eastern Daylight Time)","268290","","null","","","","FIX","","<div class='trialBorder'><div class='vertical-center'><img style='vertical-align:center; align:center' src=img/fixation3.jpg></div></div>","null","","","","","",""
"html-keyboard-response","23","59585","0.0-5.0-2.6","61038afee6aa0fcfbf968e56","bdp_rd","Tue Mar 28 2023 00:21:17 GMT-0400 (Eastern Daylight Time)","268290","","3218","","","","offer","","<div class='trialBorder'><div class='vertical-center'><img style='vertical-align:center; align:center' src=img/fixation3.jpg></div><div class='cl'><div class='vertical-center'>$21<br>for<br>sure</div></div><div class='cr'><div class='vertical-center'>$25<br>with a<br>50% chance</div></div><div class='respDivL'><div class='vertical-center'>(E)</div></div><div class='respDivR'><div class='vertical-center'>(I)</div></div></div>","E","$21","$25","0","21","25","SURE"
"html-keyboard-response","24","59838","0.0-5.0-3.6","61038afee6aa0fcfbf968e56","bdp_rd","Tue Mar 28 2023 00:21:17 GMT-0400 (Eastern Daylight Time)","268290","","null","","","","offerFB","","<div class='trialBorder'><div class='vertical-center'><img style='vertical-align:center; align:center' src=img/fixation3.jpg></div><div class='cl'><div class='vertical-center'><font style='color:orange'>$21<br>for<br>sure</font></div></div><div class='cr'><div class='vertical-center'>$25<br>with a<br>50% chance</div></div><div class='respDivL'><div class='vertical-center'><font style='color:orange'>(E)</font></div></div><div class='respDivR'><div class='vertical-center'>(I)</div></div></div>","null","$21","$25","0","21","25",""
"html-keyboard-response","25","60340","0.0-5.0-1.7","61038afee6aa0fcfbf968e56","bdp_rd","Tue Mar 28 2023 00:21:17 GMT-0400 (Eastern Daylight Time)","268290","","null","","","","FIX","","<div class='trialBorder'><div class='vertical-center'><img style='vertical-align:center; align:center' src=img/fixation3.jpg></div></div>","null","","","","","",""
"html-keyboard-response","26","63545","0.0-5.0-2.7","61038afee6aa0fcfbf968e56","bdp_rd","Tue Mar 28 2023 00:21:17 GMT-0400 (Eastern Daylight Time)","268290","","3204","","","","offer","","<div class='trialBorder'><div class='vertical-center'><img style='vertical-align:center; align:center' src=img/fixation3.jpg></div><div class='cl'><div class='vertical-center'>$19<br>with a<br>50% chance</div></div><div class='cr'><div class='vertical-center'>$10<br>for<br>sure</div></div><div class='respDivL'><div class='vertical-center'>(E)</div></div><div class='respDivR'><div class='vertical-center'>(I)</div></div></div>","I","$10","$19","1","10","19","SURE"
"html-keyboard-response","27","63796","0.0-5.0-3.7","61038afee6aa0fcfbf968e56","bdp_rd","Tue Mar 28 2023 00:21:17 GMT-0400 (Eastern Daylight Time)","268290","","null","","","","offerFB","","<div class='trialBorder'><div class='vertical-center'><img style='vertical-align:center; align:center' src=img/fixation3.jpg></div><div class='cl'><div class='vertical-center'>$19<br>with a<br>50% chance</div></div><div class='cr'><div class='vertical-center'><font style='color:orange'>$10<br>for<br>sure</font></div></div><div class='respDivL'><div class='vertical-center'>(E)</div></div><div class='respDivR'><div class='vertical-center'><font style='color:orange'>(I)</font></div></div></div>","null","$10","$19","1","10","19",""
"html-keyboard-response","28","64298","0.0-5.0-1.8","61038afee6aa0fcfbf968e56","bdp_rd","Tue Mar 28 2023 00:21:17 GMT-0400 (Eastern Daylight Time)","268290","","null","","","","FIX","","<div class='trialBorder'><div class='vertical-center'><img style='vertical-align:center; align:center' src=img/fixation3.jpg></div></div>","null","","","","","",""
"html-keyboard-response","29","67204","0.0-5.0-2.8","61038afee6aa0fcfbf968e56","bdp_rd","Tue Mar 28 2023 00:21:17 GMT-0400 (Eastern Daylight Time)","268290","","2906","","","","offer","","<div class='trialBorder'><div class='vertical-center'><img style='vertical-align:center; align:center' src=img/fixation3.jpg></div><div class='cl'><div class='vertical-center'>$43<br>with a<br>50% chance</div></div><div class='cr'><div class='vertical-center'>$17<br>for<br>sure</div></div><div class='respDivL'><div class='vertical-center'>(E)</div></div><div class='respDivR'><div class='vertical-center'>(I)</div></div></div>","E","$17","$43","1","17","43","RISKY"
"html-keyboard-response","30","67456","0.0-5.0-3.8","61038afee6aa0fcfbf968e56","bdp_rd","Tue Mar 28 2023 00:21:17 GMT-0400 (Eastern Daylight Time)","268290","","null","","","","offerFB","","<div class='trialBorder'><div class='vertical-center'><img style='vertical-align:center; align:center' src=img/fixation3.jpg></div><div class='cl'><div class='vertical-center'><font style='color:orange'>$43<br>with a<br>50% chance</font></div></div><div class='cr'><div class='vertical-center'>$17<br>for<br>sure</div></div><div class='respDivL'><div class='vertical-center'><font style='color:orange'>(E)</font></div></div><div class='respDivR'><div class='vertical-center'>(I)</div></div></div>","null","$17","$43","1","17","43",""
"html-keyboard-response","31","67958","0.0-5.0-1.9","61038afee6aa0fcfbf968e56","bdp_rd","Tue Mar 28 2023 00:21:17 GMT-0400 (Eastern Daylight Time)","268290","","null","","","","FIX","","<div class='trialBorder'><div class='vertical-center'><img style='vertical-align:center; align:center' src=img/fixation3.jpg></div></div>","null","","","","","",""
"html-keyboard-response","32","72418","0.0-5.0-2.9","61038afee6aa0fcfbf968e56","bdp_rd","Tue Mar 28 2023 00:21:17 GMT-0400 (Eastern Daylight Time)","268290","","4460","","","","offer","","<div class='trialBorder'><div class='vertical-center'><img style='vertical-align:center; align:center' src=img/fixation3.jpg></div><div class='cl'><div class='vertical-center'>$38<br>with a<br>50% chance</div></div><div class='cr'><div class='vertical-center'>$16<br>for<br>sure</div></div><div class='respDivL'><div class='vertical-center'>(E)</div></div><div class='respDivR'><div class='vertical-center'>(I)</div></div></div>","E","$16","$38","1","16","38","RISKY"
"html-keyboard-response","33","72671","0.0-5.0-3.9","61038afee6aa0fcfbf968e56","bdp_rd","Tue Mar 28 2023 00:21:17 GMT-0400 (Eastern Daylight Time)","268290","","null","","","","offerFB","","<div class='trialBorder'><div class='vertical-center'><img style='vertical-align:center; align:center' src=img/fixation3.jpg></div><div class='cl'><div class='vertical-center'><font style='color:orange'>$38<br>with a<br>50% chance</font></div></div><div class='cr'><div class='vertical-center'>$16<br>for<br>sure</div></div><div class='respDivL'><div class='vertical-center'><font style='color:orange'>(E)</font></div></div><div class='respDivR'><div class='vertical-center'>(I)</div></div></div>","null","$16","$38","1","16","38",""
"html-keyboard-response","34","73173","0.0-5.0-1.10","61038afee6aa0fcfbf968e56","bdp_rd","Tue Mar 28 2023 00:21:17 GMT-0400 (Eastern Daylight Time)","268290","","null","","","","FIX","","<div class='trialBorder'><div class='vertical-center'><img style='vertical-align:center; align:center' src=img/fixation3.jpg></div></div>","null","","","","","",""
"html-keyboard-response","35","75908","0.0-5.0-2.10","61038afee6aa0fcfbf968e56","bdp_rd","Tue Mar 28 2023 00:21:17 GMT-0400 (Eastern Daylight Time)","268290","","2734","","","","offer","","<div class='trialBorder'><div class='vertical-center'><img style='vertical-align:center; align:center' src=img/fixation3.jpg></div><div class='cl'><div class='vertical-center'>$16<br>for<br>sure</div></div><div class='cr'><div class='vertical-center'>$28<br>with a<br>50% chance</div></div><div class='respDivL'><div class='vertical-center'>(E)</div></div><div class='respDivR'><div class='vertical-center'>(I)</div></div></div>","E","$16","$28","0","16","28","SURE"
"html-keyboard-response","36","76160","0.0-5.0-3.10","61038afee6aa0fcfbf968e56","bdp_rd","Tue Mar 28 2023 00:21:17 GMT-0400 (Eastern Daylight Time)","268290","","null","","","","offerFB","","<div class='trialBorder'><div class='vertical-center'><img style='vertical-align:center; align:center' src=img/fixation3.jpg></div><div class='cl'><div class='vertical-center'><font style='color:orange'>$16<br>for<br>sure</font></div></div><div class='cr'><div class='vertical-center'>$28<br>with a<br>50% chance</div></div><div class='respDivL'><div class='vertical-center'><font style='color:orange'>(E)</font></div></div><div class='respDivR'><div class='vertical-center'>(I)</div></div></div>","null","$16","$28","0","16","28",""
"html-keyboard-response","37","76662","0.0-5.0-1.11","61038afee6aa0fcfbf968e56","bdp_rd","Tue Mar 28 2023 00:21:17 GMT-0400 (Eastern Daylight Time)","268290","","null","","","","FIX","","<div class='trialBorder'><div class='vertical-center'><img style='vertical-align:center; align:center' src=img/fixation3.jpg></div></div>","null","","","","","",""
"html-keyboard-response","38","80276","0.0-5.0-2.11","61038afee6aa0fcfbf968e56","bdp_rd","Tue Mar 28 2023 00:21:17 GMT-0400 (Eastern Daylight Time)","268290","","3612","","","","offer","","<div class='trialBorder'><div class='vertical-center'><img style='vertical-align:center; align:center' src=img/fixation3.jpg></div><div class='cl'><div class='vertical-center'>$58<br>for<br>sure</div></div><div class='cr'><div class='vertical-center'>$69<br>with a<br>50% chance</div></div><div class='respDivL'><div class='vertical-center'>(E)</div></div><div class='respDivR'><div class='vertical-center'>(I)</div></div></div>","E","$58","$69","0","58","69","SURE"
"html-keyboard-response","39","80528","0.0-5.0-3.11","61038afee6aa0fcfbf968e56","bdp_rd","Tue Mar 28 2023 00:21:17 GMT-0400 (Eastern Daylight Time)","268290","","null","","","","offerFB","","<div class='trialBorder'><div class='vertical-center'><img style='vertical-align:center; align:center' src=img/fixation3.jpg></div><div class='cl'><div class='vertical-center'><font style='color:orange'>$58<br>for<br>sure</font></div></div><div class='cr'><div class='vertical-center'>$69<br>with a<br>50% chance</div></div><div class='respDivL'><div class='vertical-center'><font style='color:orange'>(E)</font></div></div><div class='respDivR'><div class='vertical-center'>(I)</div></div></div>","null","$58","$69","0","58","69",""
"html-keyboard-response","40","81029","0.0-5.0-1.12","61038afee6aa0fcfbf968e56","bdp_rd","Tue Mar 28 2023 00:21:17 GMT-0400 (Eastern Daylight Time)","268290","","null","","","","FIX","","<div class='trialBorder'><div class='vertical-center'><img style='vertical-align:center; align:center' src=img/fixation3.jpg></div></div>","null","","","","","",""
"html-keyboard-response","41","84455","0.0-5.0-2.12","61038afee6aa0fcfbf968e56","bdp_rd","Tue Mar 28 2023 00:21:17 GMT-0400 (Eastern Daylight Time)","268290","","3425","","","","offer","","<div class='trialBorder'><div class='vertical-center'><img style='vertical-align:center; align:center' src=img/fixation3.jpg></div><div class='cl'><div class='vertical-center'>$13<br>with a<br>50% chance</div></div><div class='cr'><div class='vertical-center'>$6<br>for<br>sure</div></div><div class='respDivL'><div class='vertical-center'>(E)</div></div><div class='respDivR'><div class='vertical-center'>(I)</div></div></div>","I","$6","$13","1","6","13","SURE"
"html-keyboard-response","42","84707","0.0-5.0-3.12","61038afee6aa0fcfbf968e56","bdp_rd","Tue Mar 28 2023 00:21:17 GMT-0400 (Eastern Daylight Time)","268290","","null","","","","offerFB","","<div class='trialBorder'><div class='vertical-center'><img style='vertical-align:center; align:center' src=img/fixation3.jpg></div><div class='cl'><div class='vertical-center'>$13<br>with a<br>50% chance</div></div><div class='cr'><div class='vertical-center'><font style='color:orange'>$6<br>for<br>sure</font></div></div><div class='respDivL'><div class='vertical-center'>(E)</div></div><div class='respDivR'><div class='vertical-center'><font style='color:orange'>(I)</font></div></div></div>","null","$6","$13","1","6","13",""
"html-keyboard-response","43","85208","0.0-5.0-1.13","61038afee6aa0fcfbf968e56","bdp_rd","Tue Mar 28 2023 00:21:17 GMT-0400 (Eastern Daylight Time)","268290","","null","","","","FIX","","<div class='trialBorder'><div class='vertical-center'><img style='vertical-align:center; align:center' src=img/fixation3.jpg></div></div>","null","","","","","",""
"html-keyboard-response","44","87683","0.0-5.0-2.13","61038afee6aa0fcfbf968e56","bdp_rd","Tue Mar 28 2023 00:21:17 GMT-0400 (Eastern Daylight Time)","268290","","2474","","","","offer","","<div class='trialBorder'><div class='vertical-center'><img style='vertical-align:center; align:center' src=img/fixation3.jpg></div><div class='cl'><div class='vertical-center'>$22<br>for<br>sure</div></div><div class='cr'><div class='vertical-center'>$42<br>with a<br>50% chance</div></div><div class='respDivL'><div class='vertical-center'>(E)</div></div><div class='respDivR'><div class='vertical-center'>(I)</div></div></div>","I","$22","$42","0","22","42","RISKY"
"html-keyboard-response","45","87935","0.0-5.0-3.13","61038afee6aa0fcfbf968e56","bdp_rd","Tue Mar 28 2023 00:21:17 GMT-0400 (Eastern Daylight Time)","268290","","null","","","","offerFB","","<div class='trialBorder'><div class='vertical-center'><img style='vertical-align:center; align:center' src=img/fixation3.jpg></div><div class='cl'><div class='vertical-center'>$22<br>for<br>sure</div></div><div class='cr'><div class='vertical-center'><font style='color:orange'>$42<br>with a<br>50% chance</font></div></div><div class='respDivL'><div class='vertical-center'>(E)</div></div><div class='respDivR'><div class='vertical-center'><font style='color:orange'>(I)</font></div></div></div>","null","$22","$42","0","22","42",""
"html-keyboard-response","46","88435","0.0-5.0-1.14","61038afee6aa0fcfbf968e56","bdp_rd","Tue Mar 28 2023 00:21:17 GMT-0400 (Eastern Daylight Time)","268290","","null","","","","FIX","","<div class='trialBorder'><div class='vertical-center'><img style='vertical-align:center; align:center' src=img/fixation3.jpg></div></div>","null","","","","","",""
"html-keyboard-response","47","90834","0.0-5.0-2.14","61038afee6aa0fcfbf968e56","bdp_rd","Tue Mar 28 2023 00:21:17 GMT-0400 (Eastern Daylight Time)","268290","","2398","","","","offer","","<div class='trialBorder'><div class='vertical-center'><img style='vertical-align:center; align:center' src=img/fixation3.jpg></div><div class='cl'><div class='vertical-center'>$12<br>with a<br>50% chance</div></div><div class='cr'><div class='vertical-center'>$3<br>for<br>sure</div></div><div class='respDivL'><div class='vertical-center'>(E)</div></div><div class='respDivR'><div class='vertical-center'>(I)</div></div></div>","I","$3","$12","1","3","12","SURE"
"html-keyboard-response","48","91086","0.0-5.0-3.14","61038afee6aa0fcfbf968e56","bdp_rd","Tue Mar 28 2023 00:21:17 GMT-0400 (Eastern Daylight Time)","268290","","null","","","","offerFB","","<div class='trialBorder'><div class='vertical-center'><img style='vertical-align:center; align:center' src=img/fixation3.jpg></div><div class='cl'><div class='vertical-center'>$12<br>with a<br>50% chance</div></div><div class='cr'><div class='vertical-center'><font style='color:orange'>$3<br>for<br>sure</font></div></div><div class='respDivL'><div class='vertical-center'>(E)</div></div><div class='respDivR'><div class='vertical-center'><font style='color:orange'>(I)</font></div></div></div>","null","$3","$12","1","3","12",""
"html-keyboard-response","49","91588","0.0-5.0-1.15","61038afee6aa0fcfbf968e56","bdp_rd","Tue Mar 28 2023 00:21:17 GMT-0400 (Eastern Daylight Time)","268290","","null","","","","FIX","","<div class='trialBorder'><div class='vertical-center'><img style='vertical-align:center; align:center' src=img/fixation3.jpg></div></div>","null","","","","","",""
"html-keyboard-response","50","96354","0.0-5.0-2.15","61038afee6aa0fcfbf968e56","bdp_rd","Tue Mar 28 2023 00:21:17 GMT-0400 (Eastern Daylight Time)","268290","","4766","","","","offer","","<div class='trialBorder'><div class='vertical-center'><img style='vertical-align:center; align:center' src=img/fixation3.jpg></div><div class='cl'><div class='vertical-center'>$34<br>for<br>sure</div></div><div class='cr'><div class='vertical-center'>$48<br>with a<br>50% chance</div></div><div class='respDivL'><div class='vertical-center'>(E)</div></div><div class='respDivR'><div class='vertical-center'>(I)</div></div></div>","E","$34","$48","0","34","48","SURE"
"html-keyboard-response","51","96606","0.0-5.0-3.15","61038afee6aa0fcfbf968e56","bdp_rd","Tue Mar 28 2023 00:21:17 GMT-0400 (Eastern Daylight Time)","268290","","null","","","","offerFB","","<div class='trialBorder'><div class='vertical-center'><img style='vertical-align:center; align:center' src=img/fixation3.jpg></div><div class='cl'><div class='vertical-center'><font style='color:orange'>$34<br>for<br>sure</font></div></div><div class='cr'><div class='vertical-center'>$48<br>with a<br>50% chance</div></div><div class='respDivL'><div class='vertical-center'><font style='color:orange'>(E)</font></div></div><div class='respDivR'><div class='vertical-center'>(I)</div></div></div>","null","$34","$48","0","34","48",""
"html-keyboard-response","52","97108","0.0-5.0-1.16","61038afee6aa0fcfbf968e56","bdp_rd","Tue Mar 28 2023 00:21:17 GMT-0400 (Eastern Daylight Time)","268290","","null","","","","FIX","","<div class='trialBorder'><div class='vertical-center'><img style='vertical-align:center; align:center' src=img/fixation3.jpg></div></div>","null","","","","","",""
"html-keyboard-response","53","103133","0.0-5.0-2.16","61038afee6aa0fcfbf968e56","bdp_rd","Tue Mar 28 2023 00:21:17 GMT-0400 (Eastern Daylight Time)","268290","","6024","","","","offer","","<div class='trialBorder'><div class='vertical-center'><img style='vertical-align:center; align:center' src=img/fixation3.jpg></div><div class='cl'><div class='vertical-center'>$25<br>for<br>sure</div></div><div class='cr'><div class='vertical-center'>$54<br>with a<br>50% chance</div></div><div class='respDivL'><div class='vertical-center'>(E)</div></div><div class='respDivR'><div class='vertical-center'>(I)</div></div></div>","I","$25","$54","0","25","54","RISKY"
"html-keyboard-response","54","103385","0.0-5.0-3.16","61038afee6aa0fcfbf968e56","bdp_rd","Tue Mar 28 2023 00:21:17 GMT-0400 (Eastern Daylight Time)","268290","","null","","","","offerFB","","<div class='trialBorder'><div class='vertical-center'><img style='vertical-align:center; align:center' src=img/fixation3.jpg></div><div class='cl'><div class='vertical-center'>$25<br>for<br>sure</div></div><div class='cr'><div class='vertical-center'><font style='color:orange'>$54<br>with a<br>50% chance</font></div></div><div class='respDivL'><div class='vertical-center'>(E)</div></div><div class='respDivR'><div class='vertical-center'><font style='color:orange'>(I)</font></div></div></div>","null","$25","$54","0","25","54",""
"html-keyboard-response","55","103886","0.0-5.0-1.17","61038afee6aa0fcfbf968e56","bdp_rd","Tue Mar 28 2023 00:21:17 GMT-0400 (Eastern Daylight Time)","268290","","null","","","","FIX","","<div class='trialBorder'><div class='vertical-center'><img style='vertical-align:center; align:center' src=img/fixation3.jpg></div></div>","null","","","","","",""
"html-keyboard-response","56","107001","0.0-5.0-2.17","61038afee6aa0fcfbf968e56","bdp_rd","Tue Mar 28 2023 00:21:17 GMT-0400 (Eastern Daylight Time)","268290","","3113","","","","offer","","<div class='trialBorder'><div class='vertical-center'><img style='vertical-align:center; align:center' src=img/fixation3.jpg></div><div class='cl'><div class='vertical-center'>$29<br>with a<br>50% chance</div></div><div class='cr'><div class='vertical-center'>$14<br>for<br>sure</div></div><div class='respDivL'><div class='vertical-center'>(E)</div></div><div class='respDivR'><div class='vertical-center'>(I)</div></div></div>","I","$14","$29","1","14","29","SURE"
"html-keyboard-response","57","107254","0.0-5.0-3.17","61038afee6aa0fcfbf968e56","bdp_rd","Tue Mar 28 2023 00:21:17 GMT-0400 (Eastern Daylight Time)","268290","","null","","","","offerFB","","<div class='trialBorder'><div class='vertical-center'><img style='vertical-align:center; align:center' src=img/fixation3.jpg></div><div class='cl'><div class='vertical-center'>$29<br>with a<br>50% chance</div></div><div class='cr'><div class='vertical-center'><font style='color:orange'>$14<br>for<br>sure</font></div></div><div class='respDivL'><div class='vertical-center'>(E)</div></div><div class='respDivR'><div class='vertical-center'><font style='color:orange'>(I)</font></div></div></div>","null","$14","$29","1","14","29",""
"html-keyboard-response","58","107755","0.0-5.0-1.18","61038afee6aa0fcfbf968e56","bdp_rd","Tue Mar 28 2023 00:21:17 GMT-0400 (Eastern Daylight Time)","268290","","null","","","","FIX","","<div class='trialBorder'><div class='vertical-center'><img style='vertical-align:center; align:center' src=img/fixation3.jpg></div></div>","null","","","","","",""
"html-keyboard-response","59","110591","0.0-5.0-2.18","61038afee6aa0fcfbf968e56","bdp_rd","Tue Mar 28 2023 00:21:17 GMT-0400 (Eastern Daylight Time)","268290","","2835","","","","offer","","<div class='trialBorder'><div class='vertical-center'><img style='vertical-align:center; align:center' src=img/fixation3.jpg></div><div class='cl'><div class='vertical-center'>$35<br>with a<br>50% chance</div></div><div class='cr'><div class='vertical-center'>$12<br>for<br>sure</div></div><div class='respDivL'><div class='vertical-center'>(E)</div></div><div class='respDivR'><div class='vertical-center'>(I)</div></div></div>","E","$12","$35","1","12","35","RISKY"
"html-keyboard-response","60","110843","0.0-5.0-3.18","61038afee6aa0fcfbf968e56","bdp_rd","Tue Mar 28 2023 00:21:17 GMT-0400 (Eastern Daylight Time)","268290","","null","","","","offerFB","","<div class='trialBorder'><div class='vertical-center'><img style='vertical-align:center; align:center' src=img/fixation3.jpg></div><div class='cl'><div class='vertical-center'><font style='color:orange'>$35<br>with a<br>50% chance</font></div></div><div class='cr'><div class='vertical-center'>$12<br>for<br>sure</div></div><div class='respDivL'><div class='vertical-center'><font style='color:orange'>(E)</font></div></div><div class='respDivR'><div class='vertical-center'>(I)</div></div></div>","null","$12","$35","1","12","35",""
"html-keyboard-response","61","111345","0.0-5.0-1.19","61038afee6aa0fcfbf968e56","bdp_rd","Tue Mar 28 2023 00:21:17 GMT-0400 (Eastern Daylight Time)","268290","","null","","","","FIX","","<div class='trialBorder'><div class='vertical-center'><img style='vertical-align:center; align:center' src=img/fixation3.jpg></div></div>","null","","","","","",""
"html-keyboard-response","62","113861","0.0-5.0-2.19","61038afee6aa0fcfbf968e56","bdp_rd","Tue Mar 28 2023 00:21:17 GMT-0400 (Eastern Daylight Time)","268290","","2516","","","","offer","","<div class='trialBorder'><div class='vertical-center'><img style='vertical-align:center; align:center' src=img/fixation3.jpg></div><div class='cl'><div class='vertical-center'>$100<br>with a<br>50% chance</div></div><div class='cr'><div class='vertical-center'>$63<br>for<br>sure</div></div><div class='respDivL'><div class='vertical-center'>(E)</div></div><div class='respDivR'><div class='vertical-center'>(I)</div></div></div>","E","$63","$100","1","63","10","RISKY"
"html-keyboard-response","63","114113","0.0-5.0-3.19","61038afee6aa0fcfbf968e56","bdp_rd","Tue Mar 28 2023 00:21:17 GMT-0400 (Eastern Daylight Time)","268290","","null","","","","offerFB","","<div class='trialBorder'><div class='vertical-center'><img style='vertical-align:center; align:center' src=img/fixation3.jpg></div><div class='cl'><div class='vertical-center'><font style='color:orange'>$100<br>with a<br>50% chance</font></div></div><div class='cr'><div class='vertical-center'>$63<br>for<br>sure</div></div><div class='respDivL'><div class='vertical-center'><font style='color:orange'>(E)</font></div></div><div class='respDivR'><div class='vertical-center'>(I)</div></div></div>","null","$63","$100","1","63","10",""
"html-keyboard-response","64","114614","0.0-5.0-1.20","61038afee6aa0fcfbf968e56","bdp_rd","Tue Mar 28 2023 00:21:17 GMT-0400 (Eastern Daylight Time)","268290","","null","","","","FIX","","<div class='trialBorder'><div class='vertical-center'><img style='vertical-align:center; align:center' src=img/fixation3.jpg></div></div>","null","","","","","",""
"html-keyboard-response","65","118247","0.0-5.0-2.20","61038afee6aa0fcfbf968e56","bdp_rd","Tue Mar 28 2023 00:21:17 GMT-0400 (Eastern Daylight Time)","268290","","3632","","","","offer","","<div class='trialBorder'><div class='vertical-center'><img style='vertical-align:center; align:center' src=img/fixation3.jpg></div><div class='cl'><div class='vertical-center'>$14<br>with a<br>50% chance</div></div><div class='cr'><div class='vertical-center'>$4<br>for<br>sure</div></div><div class='respDivL'><div class='vertical-center'>(E)</div></div><div class='respDivR'><div class='vertical-center'>(I)</div></div></div>","E","$4","$14","1","4","14","RISKY"
"html-keyboard-response","66","118499","0.0-5.0-3.20","61038afee6aa0fcfbf968e56","bdp_rd","Tue Mar 28 2023 00:21:17 GMT-0400 (Eastern Daylight Time)","268290","","null","","","","offerFB","","<div class='trialBorder'><div class='vertical-center'><img style='vertical-align:center; align:center' src=img/fixation3.jpg></div><div class='cl'><div class='vertical-center'><font style='color:orange'>$14<br>with a<br>50% chance</font></div></div><div class='cr'><div class='vertical-center'>$4<br>for<br>sure</div></div><div class='respDivL'><div class='vertical-center'><font style='color:orange'>(E)</font></div></div><div class='respDivR'><div class='vertical-center'>(I)</div></div></div>","null","$4","$14","1","4","14",""
"html-keyboard-response","67","119000","0.0-5.0-1.21","61038afee6aa0fcfbf968e56","bdp_rd","Tue Mar 28 2023 00:21:17 GMT-0400 (Eastern Daylight Time)","268290","","null","","","","FIX","","<div class='trialBorder'><div class='vertical-center'><img style='vertical-align:center; align:center' src=img/fixation3.jpg></div></div>","null","","","","","",""
"html-keyboard-response","68","121111","0.0-5.0-2.21","61038afee6aa0fcfbf968e56","bdp_rd","Tue Mar 28 2023 00:21:17 GMT-0400 (Eastern Daylight Time)","268290","","2110","","","","offer","","<div class='trialBorder'><div class='vertical-center'><img style='vertical-align:center; align:center' src=img/fixation3.jpg></div><div class='cl'><div class='vertical-center'>$89<br>with a<br>50% chance</div></div><div class='cr'><div class='vertical-center'>$28<br>for<br>sure</div></div><div class='respDivL'><div class='vertical-center'>(E)</div></div><div class='respDivR'><div class='vertical-center'>(I)</div></div></div>","E","$28","$89","1","28","89","RISKY"
"html-keyboard-response","69","121363","0.0-5.0-3.21","61038afee6aa0fcfbf968e56","bdp_rd","Tue Mar 28 2023 00:21:17 GMT-0400 (Eastern Daylight Time)","268290","","null","","","","offerFB","","<div class='trialBorder'><div class='vertical-center'><img style='vertical-align:center; align:center' src=img/fixation3.jpg></div><div class='cl'><div class='vertical-center'><font style='color:orange'>$89<br>with a<br>50% chance</font></div></div><div class='cr'><div class='vertical-center'>$28<br>for<br>sure</div></div><div class='respDivL'><div class='vertical-center'><font style='color:orange'>(E)</font></div></div><div class='respDivR'><div class='vertical-center'>(I)</div></div></div>","null","$28","$89","1","28","89",""
"html-keyboard-response","70","121864","0.0-5.0-1.22","61038afee6aa0fcfbf968e56","bdp_rd","Tue Mar 28 2023 00:21:17 GMT-0400 (Eastern Daylight Time)","268290","","null","","","","FIX","","<div class='trialBorder'><div class='vertical-center'><img style='vertical-align:center; align:center' src=img/fixation3.jpg></div></div>","null","","","","","",""
"html-keyboard-response","71","124377","0.0-5.0-2.22","61038afee6aa0fcfbf968e56","bdp_rd","Tue Mar 28 2023 00:21:17 GMT-0400 (Eastern Daylight Time)","268290","","2512","","","","offer","","<div class='trialBorder'><div class='vertical-center'><img style='vertical-align:center; align:center' src=img/fixation3.jpg></div><div class='cl'><div class='vertical-center'>$64<br>with a<br>50% chance</div></div><div class='cr'><div class='vertical-center'>$2<br>for<br>sure</div></div><div class='respDivL'><div class='vertical-center'>(E)</div></div><div class='respDivR'><div class='vertical-center'>(I)</div></div></div>","E","$2","$64","1","2","64","RISKY"
"html-keyboard-response","72","124630","0.0-5.0-3.22","61038afee6aa0fcfbf968e56","bdp_rd","Tue Mar 28 2023 00:21:17 GMT-0400 (Eastern Daylight Time)","268290","","null","","","","offerFB","","<div class='trialBorder'><div class='vertical-center'><img style='vertical-align:center; align:center' src=img/fixation3.jpg></div><div class='cl'><div class='vertical-center'><font style='color:orange'>$64<br>with a<br>50% chance</font></div></div><div class='cr'><div class='vertical-center'>$2<br>for<br>sure</div></div><div class='respDivL'><div class='vertical-center'><font style='color:orange'>(E)</font></div></div><div class='respDivR'><div class='vertical-center'>(I)</div></div></div>","null","$2","$64","1","2","64",""
"html-keyboard-response","73","125131","0.0-5.0-1.23","61038afee6aa0fcfbf968e56","bdp_rd","Tue Mar 28 2023 00:21:17 GMT-0400 (Eastern Daylight Time)","268290","","null","","","","FIX","","<div class='trialBorder'><div class='vertical-center'><img style='vertical-align:center; align:center' src=img/fixation3.jpg></div></div>","null","","","","","",""
"html-keyboard-response","74","128113","0.0-5.0-2.23","61038afee6aa0fcfbf968e56","bdp_rd","Tue Mar 28 2023 00:21:17 GMT-0400 (Eastern Daylight Time)","268290","","2982","","","","offer","","<div class='trialBorder'><div class='vertical-center'><img style='vertical-align:center; align:center' src=img/fixation3.jpg></div><div class='cl'><div class='vertical-center'>$45<br>for<br>sure</div></div><div class='cr'><div class='vertical-center'>$86<br>with a<br>50% chance</div></div><div class='respDivL'><div class='vertical-center'>(E)</div></div><div class='respDivR'><div class='vertical-center'>(I)</div></div></div>","I","$45","$86","0","45","86","RISKY"
"html-keyboard-response","75","128366","0.0-5.0-3.23","61038afee6aa0fcfbf968e56","bdp_rd","Tue Mar 28 2023 00:21:17 GMT-0400 (Eastern Daylight Time)","268290","","null","","","","offerFB","","<div class='trialBorder'><div class='vertical-center'><img style='vertical-align:center; align:center' src=img/fixation3.jpg></div><div class='cl'><div class='vertical-center'>$45<br>for<br>sure</div></div><div class='cr'><div class='vertical-center'><font style='color:orange'>$86<br>with a<br>50% chance</font></div></div><div class='respDivL'><div class='vertical-center'>(E)</div></div><div class='respDivR'><div class='vertical-center'><font style='color:orange'>(I)</font></div></div></div>","null","$45","$86","0","45","86",""
"html-keyboard-response","76","128867","0.0-5.0-1.24","61038afee6aa0fcfbf968e56","bdp_rd","Tue Mar 28 2023 00:21:17 GMT-0400 (Eastern Daylight Time)","268290","","null","","","","FIX","","<div class='trialBorder'><div class='vertical-center'><img style='vertical-align:center; align:center' src=img/fixation3.jpg></div></div>","null","","","","","",""
"html-keyboard-response","77","131737","0.0-5.0-2.24","61038afee6aa0fcfbf968e56","bdp_rd","Tue Mar 28 2023 00:21:17 GMT-0400 (Eastern Daylight Time)","268290","","2869","","","","offer","","<div class='trialBorder'><div class='vertical-center'><img style='vertical-align:center; align:center' src=img/fixation3.jpg></div><div class='cl'><div class='vertical-center'>$17<br>with a<br>50% chance</div></div><div class='cr'><div class='vertical-center'>$3<br>for<br>sure</div></div><div class='respDivL'><div class='vertical-center'>(E)</div></div><div class='respDivR'><div class='vertical-center'>(I)</div></div></div>","E","$3","$17","1","3","17","RISKY"
"html-keyboard-response","78","131988","0.0-5.0-3.24","61038afee6aa0fcfbf968e56","bdp_rd","Tue Mar 28 2023 00:21:17 GMT-0400 (Eastern Daylight Time)","268290","","null","","","","offerFB","","<div class='trialBorder'><div class='vertical-center'><img style='vertical-align:center; align:center' src=img/fixation3.jpg></div><div class='cl'><div class='vertical-center'><font style='color:orange'>$17<br>with a<br>50% chance</font></div></div><div class='cr'><div class='vertical-center'>$3<br>for<br>sure</div></div><div class='respDivL'><div class='vertical-center'><font style='color:orange'>(E)</font></div></div><div class='respDivR'><div class='vertical-center'>(I)</div></div></div>","null","$3","$17","1","3","17",""
"html-keyboard-response","79","132490","0.0-5.0-1.25","61038afee6aa0fcfbf968e56","bdp_rd","Tue Mar 28 2023 00:21:17 GMT-0400 (Eastern Daylight Time)","268290","","null","","","","FIX","","<div class='trialBorder'><div class='vertical-center'><img style='vertical-align:center; align:center' src=img/fixation3.jpg></div></div>","null","","","","","",""
"html-keyboard-response","80","134639","0.0-5.0-2.25","61038afee6aa0fcfbf968e56","bdp_rd","Tue Mar 28 2023 00:21:17 GMT-0400 (Eastern Daylight Time)","268290","","2148","","","","offer","","<div class='trialBorder'><div class='vertical-center'><img style='vertical-align:center; align:center' src=img/fixation3.jpg></div><div class='cl'><div class='vertical-center'>$44<br>with a<br>50% chance</div></div><div class='cr'><div class='vertical-center'>$37<br>for<br>sure</div></div><div class='respDivL'><div class='vertical-center'>(E)</div></div><div class='respDivR'><div class='vertical-center'>(I)</div></div></div>","I","$37","$44","1","37","44","SURE"
"html-keyboard-response","81","134891","0.0-5.0-3.25","61038afee6aa0fcfbf968e56","bdp_rd","Tue Mar 28 2023 00:21:17 GMT-0400 (Eastern Daylight Time)","268290","","null","","","","offerFB","","<div class='trialBorder'><div class='vertical-center'><img style='vertical-align:center; align:center' src=img/fixation3.jpg></div><div class='cl'><div class='vertical-center'>$44<br>with a<br>50% chance</div></div><div class='cr'><div class='vertical-center'><font style='color:orange'>$37<br>for<br>sure</font></div></div><div class='respDivL'><div class='vertical-center'>(E)</div></div><div class='respDivR'><div class='vertical-center'><font style='color:orange'>(I)</font></div></div></div>","null","$37","$44","1","37","44",""
"html-keyboard-response","82","135392","0.0-5.0-1.26","61038afee6aa0fcfbf968e56","bdp_rd","Tue Mar 28 2023 00:21:17 GMT-0400 (Eastern Daylight Time)","268290","","null","","","","FIX","","<div class='trialBorder'><div class='vertical-center'><img style='vertical-align:center; align:center' src=img/fixation3.jpg></div></div>","null","","","","","",""
"html-keyboard-response","83","137799","0.0-5.0-2.26","61038afee6aa0fcfbf968e56","bdp_rd","Tue Mar 28 2023 00:21:17 GMT-0400 (Eastern Daylight Time)","268290","","2405","","","","offer","","<div class='trialBorder'><div class='vertical-center'><img style='vertical-align:center; align:center' src=img/fixation3.jpg></div><div class='cl'><div class='vertical-center'>$9<br>for<br>sure</div></div><div class='cr'><div class='vertical-center'>$32<br>with a<br>50% chance</div></div><div class='respDivL'><div class='vertical-center'>(E)</div></div><div class='respDivR'><div class='vertical-center'>(I)</div></div></div>","I","$9","$32","0","9","32","RISKY"
"html-keyboard-response","84","138050","0.0-5.0-3.26","61038afee6aa0fcfbf968e56","bdp_rd","Tue Mar 28 2023 00:21:17 GMT-0400 (Eastern Daylight Time)","268290","","null","","","","offerFB","","<div class='trialBorder'><div class='vertical-center'><img style='vertical-align:center; align:center' src=img/fixation3.jpg></div><div class='cl'><div class='vertical-center'>$9<br>for<br>sure</div></div><div class='cr'><div class='vertical-center'><font style='color:orange'>$32<br>with a<br>50% chance</font></div></div><div class='respDivL'><div class='vertical-center'>(E)</div></div><div class='respDivR'><div class='vertical-center'><font style='color:orange'>(I)</font></div></div></div>","null","$9","$32","0","9","32",""
"html-keyboard-response","85","138552","0.0-5.0-1.27","61038afee6aa0fcfbf968e56","bdp_rd","Tue Mar 28 2023 00:21:17 GMT-0400 (Eastern Daylight Time)","268290","","null","","","","FIX","","<div class='trialBorder'><div class='vertical-center'><img style='vertical-align:center; align:center' src=img/fixation3.jpg></div></div>","null","","","","","",""
"html-keyboard-response","86","141552","0.0-5.0-2.27","61038afee6aa0fcfbf968e56","bdp_rd","Tue Mar 28 2023 00:21:17 GMT-0400 (Eastern Daylight Time)","268290","","2999","","","","offer","","<div class='trialBorder'><div class='vertical-center'><img style='vertical-align:center; align:center' src=img/fixation3.jpg></div><div class='cl'><div class='vertical-center'>$18<br>for<br>sure</div></div><div class='cr'><div class='vertical-center'>$39<br>with a<br>50% chance</div></div><div class='respDivL'><div class='vertical-center'>(E)</div></div><div class='respDivR'><div class='vertical-center'>(I)</div></div></div>","I","$18","$39","0","18","39","RISKY"
"html-keyboard-response","87","141804","0.0-5.0-3.27","61038afee6aa0fcfbf968e56","bdp_rd","Tue Mar 28 2023 00:21:17 GMT-0400 (Eastern Daylight Time)","268290","","null","","","","offerFB","","<div class='trialBorder'><div class='vertical-center'><img style='vertical-align:center; align:center' src=img/fixation3.jpg></div><div class='cl'><div class='vertical-center'>$18<br>for<br>sure</div></div><div class='cr'><div class='vertical-center'><font style='color:orange'>$39<br>with a<br>50% chance</font></div></div><div class='respDivL'><div class='vertical-center'>(E)</div></div><div class='respDivR'><div class='vertical-center'><font style='color:orange'>(I)</font></div></div></div>","null","$18","$39","0","18","39",""
"html-keyboard-response","88","142306","0.0-5.0-1.28","61038afee6aa0fcfbf968e56","bdp_rd","Tue Mar 28 2023 00:21:17 GMT-0400 (Eastern Daylight Time)","268290","","null","","","","FIX","","<div class='trialBorder'><div class='vertical-center'><img style='vertical-align:center; align:center' src=img/fixation3.jpg></div></div>","null","","","","","",""
"html-keyboard-response","89","143980","0.0-5.0-2.28","61038afee6aa0fcfbf968e56","bdp_rd","Tue Mar 28 2023 00:21:17 GMT-0400 (Eastern Daylight Time)","268290","","1673","","","","offer","","<div class='trialBorder'><div class='vertical-center'><img style='vertical-align:center; align:center' src=img/fixation3.jpg></div><div class='cl'><div class='vertical-center'>$92<br>with a<br>50% chance</div></div><div class='cr'><div class='vertical-center'>$26<br>for<br>sure</div></div><div class='respDivL'><div class='vertical-center'>(E)</div></div><div class='respDivR'><div class='vertical-center'>(I)</div></div></div>","E","$26","$92","1","26","92","RISKY"
"html-keyboard-response","90","144232","0.0-5.0-3.28","61038afee6aa0fcfbf968e56","bdp_rd","Tue Mar 28 2023 00:21:17 GMT-0400 (Eastern Daylight Time)","268290","","null","","","","offerFB","","<div class='trialBorder'><div class='vertical-center'><img style='vertical-align:center; align:center' src=img/fixation3.jpg></div><div class='cl'><div class='vertical-center'><font style='color:orange'>$92<br>with a<br>50% chance</font></div></div><div class='cr'><div class='vertical-center'>$26<br>for<br>sure</div></div><div class='respDivL'><div class='vertical-center'><font style='color:orange'>(E)</font></div></div><div class='respDivR'><div class='vertical-center'>(I)</div></div></div>","null","$26","$92","1","26","92",""
"html-keyboard-response","91","144735","0.0-5.0-1.29","61038afee6aa0fcfbf968e56","bdp_rd","Tue Mar 28 2023 00:21:17 GMT-0400 (Eastern Daylight Time)","268290","","null","","","","FIX","","<div class='trialBorder'><div class='vertical-center'><img style='vertical-align:center; align:center' src=img/fixation3.jpg></div></div>","null","","","","","",""
"html-keyboard-response","92","149323","0.0-5.0-2.29","61038afee6aa0fcfbf968e56","bdp_rd","Tue Mar 28 2023 00:21:17 GMT-0400 (Eastern Daylight Time)","268290","","4588","","","","offer","","<div class='trialBorder'><div class='vertical-center'><img style='vertical-align:center; align:center' src=img/fixation3.jpg></div><div class='cl'><div class='vertical-center'>$15<br>for<br>sure</div></div><div class='cr'><div class='vertical-center'>$34<br>with a<br>50% chance</div></div><div class='respDivL'><div class='vertical-center'>(E)</div></div><div class='respDivR'><div class='vertical-center'>(I)</div></div></div>","E","$15","$34","0","15","34","SURE"
"html-keyboard-response","93","149576","0.0-5.0-3.29","61038afee6aa0fcfbf968e56","bdp_rd","Tue Mar 28 2023 00:21:17 GMT-0400 (Eastern Daylight Time)","268290","","null","","","","offerFB","","<div class='trialBorder'><div class='vertical-center'><img style='vertical-align:center; align:center' src=img/fixation3.jpg></div><div class='cl'><div class='vertical-center'><font style='color:orange'>$15<br>for<br>sure</font></div></div><div class='cr'><div class='vertical-center'>$34<br>with a<br>50% chance</div></div><div class='respDivL'><div class='vertical-center'><font style='color:orange'>(E)</font></div></div><div class='respDivR'><div class='vertical-center'>(I)</div></div></div>","null","$15","$34","0","15","34",""
"html-keyboard-response","94","150078","0.0-5.0-1.30","61038afee6aa0fcfbf968e56","bdp_rd","Tue Mar 28 2023 00:21:17 GMT-0400 (Eastern Daylight Time)","268290","","null","","","","FIX","","<div class='trialBorder'><div class='vertical-center'><img style='vertical-align:center; align:center' src=img/fixation3.jpg></div></div>","null","","","","","",""
"html-keyboard-response","95","152676","0.0-5.0-2.30","61038afee6aa0fcfbf968e56","bdp_rd","Tue Mar 28 2023 00:21:17 GMT-0400 (Eastern Daylight Time)","268290","","2597","","","","offer","","<div class='trialBorder'><div class='vertical-center'><img style='vertical-align:center; align:center' src=img/fixation3.jpg></div><div class='cl'><div class='vertical-center'>$59<br>with a<br>50% chance</div></div><div class='cr'><div class='vertical-center'>$22<br>for<br>sure</div></div><div class='respDivL'><div class='vertical-center'>(E)</div></div><div class='respDivR'><div class='vertical-center'>(I)</div></div></div>","E","$22","$59","1","22","59","RISKY"
"html-keyboard-response","96","152928","0.0-5.0-3.30","61038afee6aa0fcfbf968e56","bdp_rd","Tue Mar 28 2023 00:21:17 GMT-0400 (Eastern Daylight Time)","268290","","null","","","","offerFB","","<div class='trialBorder'><div class='vertical-center'><img style='vertical-align:center; align:center' src=img/fixation3.jpg></div><div class='cl'><div class='vertical-center'><font style='color:orange'>$59<br>with a<br>50% chance</font></div></div><div class='cr'><div class='vertical-center'>$22<br>for<br>sure</div></div><div class='respDivL'><div class='vertical-center'><font style='color:orange'>(E)</font></div></div><div class='respDivR'><div class='vertical-center'>(I)</div></div></div>","null","$22","$59","1","22","59",""
"html-keyboard-response","97","153430","0.0-5.0-1.31","61038afee6aa0fcfbf968e56","bdp_rd","Tue Mar 28 2023 00:21:17 GMT-0400 (Eastern Daylight Time)","268290","","null","","","","FIX","","<div class='trialBorder'><div class='vertical-center'><img style='vertical-align:center; align:center' src=img/fixation3.jpg></div></div>","null","","","","","",""
"html-keyboard-response","98","155906","0.0-5.0-2.31","61038afee6aa0fcfbf968e56","bdp_rd","Tue Mar 28 2023 00:21:17 GMT-0400 (Eastern Daylight Time)","268290","","2475","","","","offer","","<div class='trialBorder'><div class='vertical-center'><img style='vertical-align:center; align:center' src=img/fixation3.jpg></div><div class='cl'><div class='vertical-center'>$39<br>for<br>sure</div></div><div class='cr'><div class='vertical-center'>$81<br>with a<br>50% chance</div></div><div class='respDivL'><div class='vertical-center'>(E)</div></div><div class='respDivR'><div class='vertical-center'>(I)</div></div></div>","I","$39","$81","0","39","81","RISKY"
"html-keyboard-response","99","156157","0.0-5.0-3.31","61038afee6aa0fcfbf968e56","bdp_rd","Tue Mar 28 2023 00:21:17 GMT-0400 (Eastern Daylight Time)","268290","","null","","","","offerFB","","<div class='trialBorder'><div class='vertical-center'><img style='vertical-align:center; align:center' src=img/fixation3.jpg></div><div class='cl'><div class='vertical-center'>$39<br>for<br>sure</div></div><div class='cr'><div class='vertical-center'><font style='color:orange'>$81<br>with a<br>50% chance</font></div></div><div class='respDivL'><div class='vertical-center'>(E)</div></div><div class='respDivR'><div class='vertical-center'><font style='color:orange'>(I)</font></div></div></div>","null","$39","$81","0","39","81",""
"html-keyboard-response","100","156659","0.0-5.0-1.32","61038afee6aa0fcfbf968e56","bdp_rd","Tue Mar 28 2023 00:21:17 GMT-0400 (Eastern Daylight Time)","268290","","null","","","","FIX","","<div class='trialBorder'><div class='vertical-center'><img style='vertical-align:center; align:center' src=img/fixation3.jpg></div></div>","null","","","","","",""
"html-keyboard-response","101","159212","0.0-5.0-2.32","61038afee6aa0fcfbf968e56","bdp_rd","Tue Mar 28 2023 00:21:17 GMT-0400 (Eastern Daylight Time)","268290","","2553","","","","offer","","<div class='trialBorder'><div class='vertical-center'><img style='vertical-align:center; align:center' src=img/fixation3.jpg></div><div class='cl'><div class='vertical-center'>$37<br>with a<br>50% chance</div></div><div class='cr'><div class='vertical-center'>$20<br>for<br>sure</div></div><div class='respDivL'><div class='vertical-center'>(E)</div></div><div class='respDivR'><div class='vertical-center'>(I)</div></div></div>","I","$20","$37","1","20","37","SURE"
"html-keyboard-response","102","159464","0.0-5.0-3.32","61038afee6aa0fcfbf968e56","bdp_rd","Tue Mar 28 2023 00:21:17 GMT-0400 (Eastern Daylight Time)","268290","","null","","","","offerFB","","<div class='trialBorder'><div class='vertical-center'><img style='vertical-align:center; align:center' src=img/fixation3.jpg></div><div class='cl'><div class='vertical-center'>$37<br>with a<br>50% chance</div></div><div class='cr'><div class='vertical-center'><font style='color:orange'>$20<br>for<br>sure</font></div></div><div class='respDivL'><div class='vertical-center'>(E)</div></div><div class='respDivR'><div class='vertical-center'><font style='color:orange'>(I)</font></div></div></div>","null","$20","$37","1","20","37",""
"html-keyboard-response","103","159964","0.0-5.0-1.33","61038afee6aa0fcfbf968e56","bdp_rd","Tue Mar 28 2023 00:21:17 GMT-0400 (Eastern Daylight Time)","268290","","null","","","","FIX","","<div class='trialBorder'><div class='vertical-center'><img style='vertical-align:center; align:center' src=img/fixation3.jpg></div></div>","null","","","","","",""
"html-keyboard-response","104","165007","0.0-5.0-2.33","61038afee6aa0fcfbf968e56","bdp_rd","Tue Mar 28 2023 00:21:17 GMT-0400 (Eastern Daylight Time)","268290","","5042","","","","offer","","<div class='trialBorder'><div class='vertical-center'><img style='vertical-align:center; align:center' src=img/fixation3.jpg></div><div class='cl'><div class='vertical-center'>$47<br>with a<br>50% chance</div></div><div class='cr'><div class='vertical-center'>$27<br>for<br>sure</div></div><div class='respDivL'><div class='vertical-center'>(E)</div></div><div class='respDivR'><div class='vertical-center'>(I)</div></div></div>","E","$27","$47","1","27","47","RISKY"
"html-keyboard-response","105","165260","0.0-5.0-3.33","61038afee6aa0fcfbf968e56","bdp_rd","Tue Mar 28 2023 00:21:17 GMT-0400 (Eastern Daylight Time)","268290","","null","","","","offerFB","","<div class='trialBorder'><div class='vertical-center'><img style='vertical-align:center; align:center' src=img/fixation3.jpg></div><div class='cl'><div class='vertical-center'><font style='color:orange'>$47<br>with a<br>50% chance</font></div></div><div class='cr'><div class='vertical-center'>$27<br>for<br>sure</div></div><div class='respDivL'><div class='vertical-center'><font style='color:orange'>(E)</font></div></div><div class='respDivR'><div class='vertical-center'>(I)</div></div></div>","null","$27","$47","1","27","47",""
"html-keyboard-response","106","165761","0.0-5.0-1.34","61038afee6aa0fcfbf968e56","bdp_rd","Tue Mar 28 2023 00:21:17 GMT-0400 (Eastern Daylight Time)","268290","","null","","","","FIX","","<div class='trialBorder'><div class='vertical-center'><img style='vertical-align:center; align:center' src=img/fixation3.jpg></div></div>","null","","","","","",""
"html-keyboard-response","107","167223","0.0-5.0-2.34","61038afee6aa0fcfbf968e56","bdp_rd","Tue Mar 28 2023 00:21:17 GMT-0400 (Eastern Daylight Time)","268290","","1461","","","","offer","","<div class='trialBorder'><div class='vertical-center'><img style='vertical-align:center; align:center' src=img/fixation3.jpg></div><div class='cl'><div class='vertical-center'>$71<br>with a<br>50% chance</div></div><div class='cr'><div class='vertical-center'>$7<br>for<br>sure</div></div><div class='respDivL'><div class='vertical-center'>(E)</div></div><div class='respDivR'><div class='vertical-center'>(I)</div></div></div>","E","$7","$71","1","7","71","RISKY"
"html-keyboard-response","108","167474","0.0-5.0-3.34","61038afee6aa0fcfbf968e56","bdp_rd","Tue Mar 28 2023 00:21:17 GMT-0400 (Eastern Daylight Time)","268290","","null","","","","offerFB","","<div class='trialBorder'><div class='vertical-center'><img style='vertical-align:center; align:center' src=img/fixation3.jpg></div><div class='cl'><div class='vertical-center'><font style='color:orange'>$71<br>with a<br>50% chance</font></div></div><div class='cr'><div class='vertical-center'>$7<br>for<br>sure</div></div><div class='respDivL'><div class='vertical-center'><font style='color:orange'>(E)</font></div></div><div class='respDivR'><div class='vertical-center'>(I)</div></div></div>","null","$7","$71","1","7","71",""
"html-keyboard-response","109","167975","0.0-5.0-1.35","61038afee6aa0fcfbf968e56","bdp_rd","Tue Mar 28 2023 00:21:17 GMT-0400 (Eastern Daylight Time)","268290","","null","","","","FIX","","<div class='trialBorder'><div class='vertical-center'><img style='vertical-align:center; align:center' src=img/fixation3.jpg></div></div>","null","","","","","",""
"html-keyboard-response","110","170239","0.0-5.0-2.35","61038afee6aa0fcfbf968e56","bdp_rd","Tue Mar 28 2023 00:21:17 GMT-0400 (Eastern Daylight Time)","268290","","2263","","","","offer","","<div class='trialBorder'><div class='vertical-center'><img style='vertical-align:center; align:center' src=img/fixation3.jpg></div><div class='cl'><div class='vertical-center'>$10<br>with a<br>50% chance</div></div><div class='cr'><div class='vertical-center'>$7<br>for<br>sure</div></div><div class='respDivL'><div class='vertical-center'>(E)</div></div><div class='respDivR'><div class='vertical-center'>(I)</div></div></div>","I","$7","$10","1","7","10","SURE"
"html-keyboard-response","111","170491","0.0-5.0-3.35","61038afee6aa0fcfbf968e56","bdp_rd","Tue Mar 28 2023 00:21:17 GMT-0400 (Eastern Daylight Time)","268290","","null","","","","offerFB","","<div class='trialBorder'><div class='vertical-center'><img style='vertical-align:center; align:center' src=img/fixation3.jpg></div><div class='cl'><div class='vertical-center'>$10<br>with a<br>50% chance</div></div><div class='cr'><div class='vertical-center'><font style='color:orange'>$7<br>for<br>sure</font></div></div><div class='respDivL'><div class='vertical-center'>(E)</div></div><div class='respDivR'><div class='vertical-center'><font style='color:orange'>(I)</font></div></div></div>","null","$7","$10","1","7","10",""
"html-keyboard-response","112","170993","0.0-5.0-1.36","61038afee6aa0fcfbf968e56","bdp_rd","Tue Mar 28 2023 00:21:17 GMT-0400 (Eastern Daylight Time)","268290","","null","","","","FIX","","<div class='trialBorder'><div class='vertical-center'><img style='vertical-align:center; align:center' src=img/fixation3.jpg></div></div>","null","","","","","",""
"html-keyboard-response","113","174172","0.0-5.0-2.36","61038afee6aa0fcfbf968e56","bdp_rd","Tue Mar 28 2023 00:21:17 GMT-0400 (Eastern Daylight Time)","268290","","3178","","","","offer","","<div class='trialBorder'><div class='vertical-center'><img style='vertical-align:center; align:center' src=img/fixation3.jpg></div><div class='cl'><div class='vertical-center'>$11<br>for<br>sure</div></div><div class='cr'><div class='vertical-center'>$26<br>with a<br>50% chance</div></div><div class='respDivL'><div class='vertical-center'>(E)</div></div><div class='respDivR'><div class='vertical-center'>(I)</div></div></div>","I","$11","$26","0","11","26","RISKY"
"html-keyboard-response","114","174424","0.0-5.0-3.36","61038afee6aa0fcfbf968e56","bdp_rd","Tue Mar 28 2023 00:21:17 GMT-0400 (Eastern Daylight Time)","268290","","null","","","","offerFB","","<div class='trialBorder'><div class='vertical-center'><img style='vertical-align:center; align:center' src=img/fixation3.jpg></div><div class='cl'><div class='vertical-center'>$11<br>for<br>sure</div></div><div class='cr'><div class='vertical-center'><font style='color:orange'>$26<br>with a<br>50% chance</font></div></div><div class='respDivL'><div class='vertical-center'>(E)</div></div><div class='respDivR'><div class='vertical-center'><font style='color:orange'>(I)</font></div></div></div>","null","$11","$26","0","11","26",""
"html-keyboard-response","115","174926","0.0-5.0-1.37","61038afee6aa0fcfbf968e56","bdp_rd","Tue Mar 28 2023 00:21:17 GMT-0400 (Eastern Daylight Time)","268290","","null","","","","FIX","","<div class='trialBorder'><div class='vertical-center'><img style='vertical-align:center; align:center' src=img/fixation3.jpg></div></div>","null","","","","","",""
"html-keyboard-response","116","181385","0.0-5.0-2.37","61038afee6aa0fcfbf968e56","bdp_rd","Tue Mar 28 2023 00:21:17 GMT-0400 (Eastern Daylight Time)","268290","","6459","","","","offer","","<div class='trialBorder'><div class='vertical-center'><img style='vertical-align:center; align:center' src=img/fixation3.jpg></div><div class='cl'><div class='vertical-center'>$5<br>for<br>sure</div></div><div class='cr'><div class='vertical-center'>$16<br>with a<br>50% chance</div></div><div class='respDivL'><div class='vertical-center'>(E)</div></div><div class='respDivR'><div class='vertical-center'>(I)</div></div></div>","E","$5","$16","0","5","16","SURE"
"html-keyboard-response","117","181637","0.0-5.0-3.37","61038afee6aa0fcfbf968e56","bdp_rd","Tue Mar 28 2023 00:21:17 GMT-0400 (Eastern Daylight Time)","268290","","null","","","","offerFB","","<div class='trialBorder'><div class='vertical-center'><img style='vertical-align:center; align:center' src=img/fixation3.jpg></div><div class='cl'><div class='vertical-center'><font style='color:orange'>$5<br>for<br>sure</font></div></div><div class='cr'><div class='vertical-center'>$16<br>with a<br>50% chance</div></div><div class='respDivL'><div class='vertical-center'><font style='color:orange'>(E)</font></div></div><div class='respDivR'><div class='vertical-center'>(I)</div></div></div>","null","$5","$16","0","5","16",""
"html-keyboard-response","118","182139","0.0-5.0-1.38","61038afee6aa0fcfbf968e56","bdp_rd","Tue Mar 28 2023 00:21:17 GMT-0400 (Eastern Daylight Time)","268290","","null","","","","FIX","","<div class='trialBorder'><div class='vertical-center'><img style='vertical-align:center; align:center' src=img/fixation3.jpg></div></div>","null","","","","","",""
"html-keyboard-response","119","183689","0.0-5.0-2.38","61038afee6aa0fcfbf968e56","bdp_rd","Tue Mar 28 2023 00:21:17 GMT-0400 (Eastern Daylight Time)","268290","","1550","","","","offer","","<div class='trialBorder'><div class='vertical-center'><img style='vertical-align:center; align:center' src=img/fixation3.jpg></div><div class='cl'><div class='vertical-center'>$31<br>for<br>sure</div></div><div class='cr'><div class='vertical-center'>$78<br>with a<br>50% chance</div></div><div class='respDivL'><div class='vertical-center'>(E)</div></div><div class='respDivR'><div class='vertical-center'>(I)</div></div></div>","I","$31","$78","0","31","78","RISKY"
"html-keyboard-response","120","183941","0.0-5.0-3.38","61038afee6aa0fcfbf968e56","bdp_rd","Tue Mar 28 2023 00:21:17 GMT-0400 (Eastern Daylight Time)","268290","","null","","","","offerFB","","<div class='trialBorder'><div class='vertical-center'><img style='vertical-align:center; align:center' src=img/fixation3.jpg></div><div class='cl'><div class='vertical-center'>$31<br>for<br>sure</div></div><div class='cr'><div class='vertical-center'><font style='color:orange'>$78<br>with a<br>50% chance</font></div></div><div class='respDivL'><div class='vertical-center'>(E)</div></div><div class='respDivR'><div class='vertical-center'><font style='color:orange'>(I)</font></div></div></div>","null","$31","$78","0","31","78",""
"html-keyboard-response","121","184443","0.0-5.0-1.39","61038afee6aa0fcfbf968e56","bdp_rd","Tue Mar 28 2023 00:21:17 GMT-0400 (Eastern Daylight Time)","268290","","null","","","","FIX","","<div class='trialBorder'><div class='vertical-center'><img style='vertical-align:center; align:center' src=img/fixation3.jpg></div></div>","null","","","","","",""
"html-keyboard-response","122","187945","0.0-5.0-2.39","61038afee6aa0fcfbf968e56","bdp_rd","Tue Mar 28 2023 00:21:17 GMT-0400 (Eastern Daylight Time)","268290","","3502","","","","offer","","<div class='trialBorder'><div class='vertical-center'><img style='vertical-align:center; align:center' src=img/fixation3.jpg></div><div class='cl'><div class='vertical-center'>$15<br>for<br>sure</div></div><div class='cr'><div class='vertical-center'>$31<br>with a<br>50% chance</div></div><div class='respDivL'><div class='vertical-center'>(E)</div></div><div class='respDivR'><div class='vertical-center'>(I)</div></div></div>","I","$15","$31","0","15","31","RISKY"
"html-keyboard-response","123","188196","0.0-5.0-3.39","61038afee6aa0fcfbf968e56","bdp_rd","Tue Mar 28 2023 00:21:17 GMT-0400 (Eastern Daylight Time)","268290","","null","","","","offerFB","","<div class='trialBorder'><div class='vertical-center'><img style='vertical-align:center; align:center' src=img/fixation3.jpg></div><div class='cl'><div class='vertical-center'>$15<br>for<br>sure</div></div><div class='cr'><div class='vertical-center'><font style='color:orange'>$31<br>with a<br>50% chance</font></div></div><div class='respDivL'><div class='vertical-center'>(E)</div></div><div class='respDivR'><div class='vertical-center'><font style='color:orange'>(I)</font></div></div></div>","null","$15","$31","0","15","31",""
"html-keyboard-response","124","188698","0.0-5.0-1.40","61038afee6aa0fcfbf968e56","bdp_rd","Tue Mar 28 2023 00:21:17 GMT-0400 (Eastern Daylight Time)","268290","","null","","","","FIX","","<div class='trialBorder'><div class='vertical-center'><img style='vertical-align:center; align:center' src=img/fixation3.jpg></div></div>","null","","","","","",""
"html-keyboard-response","125","190077","0.0-5.0-2.40","61038afee6aa0fcfbf968e56","bdp_rd","Tue Mar 28 2023 00:21:17 GMT-0400 (Eastern Daylight Time)","268290","","1377","","","","offer","","<div class='trialBorder'><div class='vertical-center'><img style='vertical-align:center; align:center' src=img/fixation3.jpg></div><div class='cl'><div class='vertical-center'>$24<br>for<br>sure</div></div><div class='cr'><div class='vertical-center'>$70<br>with a<br>50% chance</div></div><div class='respDivL'><div class='vertical-center'>(E)</div></div><div class='respDivR'><div class='vertical-center'>(I)</div></div></div>","I","$24","$70","0","24","70","RISKY"
"html-keyboard-response","126","190328","0.0-5.0-3.40","61038afee6aa0fcfbf968e56","bdp_rd","Tue Mar 28 2023 00:21:17 GMT-0400 (Eastern Daylight Time)","268290","","null","","","","offerFB","","<div class='trialBorder'><div class='vertical-center'><img style='vertical-align:center; align:center' src=img/fixation3.jpg></div><div class='cl'><div class='vertical-center'>$24<br>for<br>sure</div></div><div class='cr'><div class='vertical-center'><font style='color:orange'>$70<br>with a<br>50% chance</font></div></div><div class='respDivL'><div class='vertical-center'>(E)</div></div><div class='respDivR'><div class='vertical-center'><font style='color:orange'>(I)</font></div></div></div>","null","$24","$70","0","24","70",""
"html-keyboard-response","127","190829","0.0-5.0-1.41","61038afee6aa0fcfbf968e56","bdp_rd","Tue Mar 28 2023 00:21:17 GMT-0400 (Eastern Daylight Time)","268290","","null","","","","FIX","","<div class='trialBorder'><div class='vertical-center'><img style='vertical-align:center; align:center' src=img/fixation3.jpg></div></div>","null","","","","","",""
"html-keyboard-response","128","192614","0.0-5.0-2.41","61038afee6aa0fcfbf968e56","bdp_rd","Tue Mar 28 2023 00:21:17 GMT-0400 (Eastern Daylight Time)","268290","","1784","","","","offer","","<div class='trialBorder'><div class='vertical-center'><img style='vertical-align:center; align:center' src=img/fixation3.jpg></div><div class='cl'><div class='vertical-center'>$68<br>with a<br>50% chance</div></div><div class='cr'><div class='vertical-center'>$30<br>for<br>sure</div></div><div class='respDivL'><div class='vertical-center'>(E)</div></div><div class='respDivR'><div class='vertical-center'>(I)</div></div></div>","E","$30","$68","1","30","68","RISKY"
"html-keyboard-response","129","192865","0.0-5.0-3.41","61038afee6aa0fcfbf968e56","bdp_rd","Tue Mar 28 2023 00:21:17 GMT-0400 (Eastern Daylight Time)","268290","","null","","","","offerFB","","<div class='trialBorder'><div class='vertical-center'><img style='vertical-align:center; align:center' src=img/fixation3.jpg></div><div class='cl'><div class='vertical-center'><font style='color:orange'>$68<br>with a<br>50% chance</font></div></div><div class='cr'><div class='vertical-center'>$30<br>for<br>sure</div></div><div class='respDivL'><div class='vertical-center'><font style='color:orange'>(E)</font></div></div><div class='respDivR'><div class='vertical-center'>(I)</div></div></div>","null","$30","$68","1","30","68",""
"html-keyboard-response","130","193367","0.0-5.0-1.42","61038afee6aa0fcfbf968e56","bdp_rd","Tue Mar 28 2023 00:21:17 GMT-0400 (Eastern Daylight Time)","268290","","null","","","","FIX","","<div class='trialBorder'><div class='vertical-center'><img style='vertical-align:center; align:center' src=img/fixation3.jpg></div></div>","null","","","","","",""
"html-keyboard-response","131","197782","0.0-5.0-2.42","61038afee6aa0fcfbf968e56","bdp_rd","Tue Mar 28 2023 00:21:17 GMT-0400 (Eastern Daylight Time)","268290","","4415","","","","offer","","<div class='trialBorder'><div class='vertical-center'><img style='vertical-align:center; align:center' src=img/fixation3.jpg></div><div class='cl'><div class='vertical-center'>$19<br>for<br>sure</div></div><div class='cr'><div class='vertical-center'>$51<br>with a<br>50% chance</div></div><div class='respDivL'><div class='vertical-center'>(E)</div></div><div class='respDivR'><div class='vertical-center'>(I)</div></div></div>","I","$19","$51","0","19","51","RISKY"
"html-keyboard-response","132","198034","0.0-5.0-3.42","61038afee6aa0fcfbf968e56","bdp_rd","Tue Mar 28 2023 00:21:17 GMT-0400 (Eastern Daylight Time)","268290","","null","","","","offerFB","","<div class='trialBorder'><div class='vertical-center'><img style='vertical-align:center; align:center' src=img/fixation3.jpg></div><div class='cl'><div class='vertical-center'>$19<br>for<br>sure</div></div><div class='cr'><div class='vertical-center'><font style='color:orange'>$51<br>with a<br>50% chance</font></div></div><div class='respDivL'><div class='vertical-center'>(E)</div></div><div class='respDivR'><div class='vertical-center'><font style='color:orange'>(I)</font></div></div></div>","null","$19","$51","0","19","51",""
"html-keyboard-response","133","198535","0.0-5.0-1.43","61038afee6aa0fcfbf968e56","bdp_rd","Tue Mar 28 2023 00:21:17 GMT-0400 (Eastern Daylight Time)","268290","","null","","","","FIX","","<div class='trialBorder'><div class='vertical-center'><img style='vertical-align:center; align:center' src=img/fixation3.jpg></div></div>","null","","","","","",""
"html-keyboard-response","134","201745","0.0-5.0-2.43","61038afee6aa0fcfbf968e56","bdp_rd","Tue Mar 28 2023 00:21:17 GMT-0400 (Eastern Daylight Time)","268290","","3209","","","","offer","","<div class='trialBorder'><div class='vertical-center'><img style='vertical-align:center; align:center' src=img/fixation3.jpg></div><div class='cl'><div class='vertical-center'>$80<br>with a<br>50% chance</div></div><div class='cr'><div class='vertical-center'>$20<br>for<br>sure</div></div><div class='respDivL'><div class='vertical-center'>(E)</div></div><div class='respDivR'><div class='vertical-center'>(I)</div></div></div>","E","$20","$80","1","20","80","RISKY"
"html-keyboard-response","135","201997","0.0-5.0-3.43","61038afee6aa0fcfbf968e56","bdp_rd","Tue Mar 28 2023 00:21:17 GMT-0400 (Eastern Daylight Time)","268290","","null","","","","offerFB","","<div class='trialBorder'><div class='vertical-center'><img style='vertical-align:center; align:center' src=img/fixation3.jpg></div><div class='cl'><div class='vertical-center'><font style='color:orange'>$80<br>with a<br>50% chance</font></div></div><div class='cr'><div class='vertical-center'>$20<br>for<br>sure</div></div><div class='respDivL'><div class='vertical-center'><font style='color:orange'>(E)</font></div></div><div class='respDivR'><div class='vertical-center'>(I)</div></div></div>","null","$20","$80","1","20","80",""
"html-keyboard-response","136","202498","0.0-5.0-1.44","61038afee6aa0fcfbf968e56","bdp_rd","Tue Mar 28 2023 00:21:17 GMT-0400 (Eastern Daylight Time)","268290","","null","","","","FIX","","<div class='trialBorder'><div class='vertical-center'><img style='vertical-align:center; align:center' src=img/fixation3.jpg></div></div>","null","","","","","",""
"html-keyboard-response","137","205570","0.0-5.0-2.44","61038afee6aa0fcfbf968e56","bdp_rd","Tue Mar 28 2023 00:21:17 GMT-0400 (Eastern Daylight Time)","268290","","3070","","","","offer","","<div class='trialBorder'><div class='vertical-center'><img style='vertical-align:center; align:center' src=img/fixation3.jpg></div><div class='cl'><div class='vertical-center'>$53<br>for<br>sure</div></div><div class='cr'><div class='vertical-center'>$98<br>with a<br>50% chance</div></div><div class='respDivL'><div class='vertical-center'>(E)</div></div><div class='respDivR'><div class='vertical-center'>(I)</div></div></div>","I","$53","$98","0","53","98","RISKY"
"html-keyboard-response","138","205821","0.0-5.0-3.44","61038afee6aa0fcfbf968e56","bdp_rd","Tue Mar 28 2023 00:21:17 GMT-0400 (Eastern Daylight Time)","268290","","null","","","","offerFB","","<div class='trialBorder'><div class='vertical-center'><img style='vertical-align:center; align:center' src=img/fixation3.jpg></div><div class='cl'><div class='vertical-center'>$53<br>for<br>sure</div></div><div class='cr'><div class='vertical-center'><font style='color:orange'>$98<br>with a<br>50% chance</font></div></div><div class='respDivL'><div class='vertical-center'>(E)</div></div><div class='respDivR'><div class='vertical-center'><font style='color:orange'>(I)</font></div></div></div>","null","$53","$98","0","53","98",""
"html-keyboard-response","139","206322","0.0-5.0-1.45","61038afee6aa0fcfbf968e56","bdp_rd","Tue Mar 28 2023 00:21:17 GMT-0400 (Eastern Daylight Time)","268290","","null","","","","FIX","","<div class='trialBorder'><div class='vertical-center'><img style='vertical-align:center; align:center' src=img/fixation3.jpg></div></div>","null","","","","","",""
"html-keyboard-response","140","208724","0.0-5.0-2.45","61038afee6aa0fcfbf968e56","bdp_rd","Tue Mar 28 2023 00:21:17 GMT-0400 (Eastern Daylight Time)","268290","","2401","","","","offer","","<div class='trialBorder'><div class='vertical-center'><img style='vertical-align:center; align:center' src=img/fixation3.jpg></div><div class='cl'><div class='vertical-center'>$46<br>for<br>sure</div></div><div class='cr'><div class='vertical-center'>$65<br>with a<br>50% chance</div></div><div class='respDivL'><div class='vertical-center'>(E)</div></div><div class='respDivR'><div class='vertical-center'>(I)</div></div></div>","I","$46","$65","0","46","65","RISKY"
"html-keyboard-response","141","208976","0.0-5.0-3.45","61038afee6aa0fcfbf968e56","bdp_rd","Tue Mar 28 2023 00:21:17 GMT-0400 (Eastern Daylight Time)","268290","","null","","","","offerFB","","<div class='trialBorder'><div class='vertical-center'><img style='vertical-align:center; align:center' src=img/fixation3.jpg></div><div class='cl'><div class='vertical-center'>$46<br>for<br>sure</div></div><div class='cr'><div class='vertical-center'><font style='color:orange'>$65<br>with a<br>50% chance</font></div></div><div class='respDivL'><div class='vertical-center'>(E)</div></div><div class='respDivR'><div class='vertical-center'><font style='color:orange'>(I)</font></div></div></div>","null","$46","$65","0","46","65",""
"html-keyboard-response","142","209478","0.0-5.0-1.46","61038afee6aa0fcfbf968e56","bdp_rd","Tue Mar 28 2023 00:21:17 GMT-0400 (Eastern Daylight Time)","268290","","null","","","","FIX","","<div class='trialBorder'><div class='vertical-center'><img style='vertical-align:center; align:center' src=img/fixation3.jpg></div></div>","null","","","","","",""
"html-keyboard-response","143","211550","0.0-5.0-2.46","61038afee6aa0fcfbf968e56","bdp_rd","Tue Mar 28 2023 00:21:17 GMT-0400 (Eastern Daylight Time)","268290","","2070","","","","offer","","<div class='trialBorder'><div class='vertical-center'><img style='vertical-align:center; align:center' src=img/fixation3.jpg></div><div class='cl'><div class='vertical-center'>$10<br>for<br>sure</div></div><div class='cr'><div class='vertical-center'>$40<br>with a<br>50% chance</div></div><div class='respDivL'><div class='vertical-center'>(E)</div></div><div class='respDivR'><div class='vertical-center'>(I)</div></div></div>","I","$10","$40","0","10","40","RISKY"
"html-keyboard-response","144","211801","0.0-5.0-3.46","61038afee6aa0fcfbf968e56","bdp_rd","Tue Mar 28 2023 00:21:17 GMT-0400 (Eastern Daylight Time)","268290","","null","","","","offerFB","","<div class='trialBorder'><div class='vertical-center'><img style='vertical-align:center; align:center' src=img/fixation3.jpg></div><div class='cl'><div class='vertical-center'>$10<br>for<br>sure</div></div><div class='cr'><div class='vertical-center'><font style='color:orange'>$40<br>with a<br>50% chance</font></div></div><div class='respDivL'><div class='vertical-center'>(E)</div></div><div class='respDivR'><div class='vertical-center'><font style='color:orange'>(I)</font></div></div></div>","null","$10","$40","0","10","40",""
"html-keyboard-response","145","212303","0.0-5.0-1.47","61038afee6aa0fcfbf968e56","bdp_rd","Tue Mar 28 2023 00:21:17 GMT-0400 (Eastern Daylight Time)","268290","","null","","","","FIX","","<div class='trialBorder'><div class='vertical-center'><img style='vertical-align:center; align:center' src=img/fixation3.jpg></div></div>","null","","","","","",""
"html-keyboard-response","146","217405","0.0-5.0-2.47","61038afee6aa0fcfbf968e56","bdp_rd","Tue Mar 28 2023 00:21:17 GMT-0400 (Eastern Daylight Time)","268290","","5100","","","","offer","","<div class='trialBorder'><div class='vertical-center'><img style='vertical-align:center; align:center' src=img/fixation3.jpg></div><div class='cl'><div class='vertical-center'>$11<br>with a<br>50% chance</div></div><div class='cr'><div class='vertical-center'>$4<br>for<br>sure</div></div><div class='respDivL'><div class='vertical-center'>(E)</div></div><div class='respDivR'><div class='vertical-center'>(I)</div></div></div>","I","$4","$11","1","4","11","SURE"
"html-keyboard-response","147","217657","0.0-5.0-3.47","61038afee6aa0fcfbf968e56","bdp_rd","Tue Mar 28 2023 00:21:17 GMT-0400 (Eastern Daylight Time)","268290","","null","","","","offerFB","","<div class='trialBorder'><div class='vertical-center'><img style='vertical-align:center; align:center' src=img/fixation3.jpg></div><div class='cl'><div class='vertical-center'>$11<br>with a<br>50% chance</div></div><div class='cr'><div class='vertical-center'><font style='color:orange'>$4<br>for<br>sure</font></div></div><div class='respDivL'><div class='vertical-center'>(E)</div></div><div class='respDivR'><div class='vertical-center'><font style='color:orange'>(I)</font></div></div></div>","null","$4","$11","1","4","11",""
"html-keyboard-response","148","218157","0.0-5.0-1.48","61038afee6aa0fcfbf968e56","bdp_rd","Tue Mar 28 2023 00:21:17 GMT-0400 (Eastern Daylight Time)","268290","","null","","","","FIX","","<div class='trialBorder'><div class='vertical-center'><img style='vertical-align:center; align:center' src=img/fixation3.jpg></div></div>","null","","","","","",""
"html-keyboard-response","149","221471","0.0-5.0-2.48","61038afee6aa0fcfbf968e56","bdp_rd","Tue Mar 28 2023 00:21:17 GMT-0400 (Eastern Daylight Time)","268290","","3313","","","","offer","","<div class='trialBorder'><div class='vertical-center'><img style='vertical-align:center; align:center' src=img/fixation3.jpg></div><div class='cl'><div class='vertical-center'>$73<br>with a<br>50% chance</div></div><div class='cr'><div class='vertical-center'>$42<br>for<br>sure</div></div><div class='respDivL'><div class='vertical-center'>(E)</div></div><div class='respDivR'><div class='vertical-center'>(I)</div></div></div>","E","$42","$73","1","42","73","RISKY"
"html-keyboard-response","150","221724","0.0-5.0-3.48","61038afee6aa0fcfbf968e56","bdp_rd","Tue Mar 28 2023 00:21:17 GMT-0400 (Eastern Daylight Time)","268290","","null","","","","offerFB","","<div class='trialBorder'><div class='vertical-center'><img style='vertical-align:center; align:center' src=img/fixation3.jpg></div><div class='cl'><div class='vertical-center'><font style='color:orange'>$73<br>with a<br>50% chance</font></div></div><div class='cr'><div class='vertical-center'>$42<br>for<br>sure</div></div><div class='respDivL'><div class='vertical-center'><font style='color:orange'>(E)</font></div></div><div class='respDivR'><div class='vertical-center'>(I)</div></div></div>","null","$42","$73","1","42","73",""
"html-keyboard-response","151","222226","0.0-5.0-1.49","61038afee6aa0fcfbf968e56","bdp_rd","Tue Mar 28 2023 00:21:17 GMT-0400 (Eastern Daylight Time)","268290","","null","","","","FIX","","<div class='trialBorder'><div class='vertical-center'><img style='vertical-align:center; align:center' src=img/fixation3.jpg></div></div>","null","","","","","",""
"html-keyboard-response","152","228182","0.0-5.0-2.49","61038afee6aa0fcfbf968e56","bdp_rd","Tue Mar 28 2023 00:21:17 GMT-0400 (Eastern Daylight Time)","268290","","5955","","","","offer","","<div class='trialBorder'><div class='vertical-center'><img style='vertical-align:center; align:center' src=img/fixation3.jpg></div><div class='cl'><div class='vertical-center'>$12<br>for<br>sure</div></div><div class='cr'><div class='vertical-center'>$27<br>with a<br>50% chance</div></div><div class='respDivL'><div class='vertical-center'>(E)</div></div><div class='respDivR'><div class='vertical-center'>(I)</div></div></div>","E","$12","$27","0","12","27","SURE"
"html-keyboard-response","153","228434","0.0-5.0-3.49","61038afee6aa0fcfbf968e56","bdp_rd","Tue Mar 28 2023 00:21:17 GMT-0400 (Eastern Daylight Time)","268290","","null","","","","offerFB","","<div class='trialBorder'><div class='vertical-center'><img style='vertical-align:center; align:center' src=img/fixation3.jpg></div><div class='cl'><div class='vertical-center'><font style='color:orange'>$12<br>for<br>sure</font></div></div><div class='cr'><div class='vertical-center'>$27<br>with a<br>50% chance</div></div><div class='respDivL'><div class='vertical-center'><font style='color:orange'>(E)</font></div></div><div class='respDivR'><div class='vertical-center'>(I)</div></div></div>","null","$12","$27","0","12","27",""
"html-keyboard-response","154","228935","0.0-5.0-1.50","61038afee6aa0fcfbf968e56","bdp_rd","Tue Mar 28 2023 00:21:17 GMT-0400 (Eastern Daylight Time)","268290","","null","","","","FIX","","<div class='trialBorder'><div class='vertical-center'><img style='vertical-align:center; align:center' src=img/fixation3.jpg></div></div>","null","","","","","",""
"html-keyboard-response","155","231197","0.0-5.0-2.50","61038afee6aa0fcfbf968e56","bdp_rd","Tue Mar 28 2023 00:21:17 GMT-0400 (Eastern Daylight Time)","268290","","2261","","","","offer","","<div class='trialBorder'><div class='vertical-center'><img style='vertical-align:center; align:center' src=img/fixation3.jpg></div><div class='cl'><div class='vertical-center'>$50<br>with a<br>50% chance</div></div><div class='cr'><div class='vertical-center'>$5<br>for<br>sure</div></div><div class='respDivL'><div class='vertical-center'>(E)</div></div><div class='respDivR'><div class='vertical-center'>(I)</div></div></div>","E","$5","$50","1","5","50","RISKY"
"html-keyboard-response","156","231449","0.0-5.0-3.50","61038afee6aa0fcfbf968e56","bdp_rd","Tue Mar 28 2023 00:21:17 GMT-0400 (Eastern Daylight Time)","268290","","null","","","","offerFB","","<div class='trialBorder'><div class='vertical-center'><img style='vertical-align:center; align:center' src=img/fixation3.jpg></div><div class='cl'><div class='vertical-center'><font style='color:orange'>$50<br>with a<br>50% chance</font></div></div><div class='cr'><div class='vertical-center'>$5<br>for<br>sure</div></div><div class='respDivL'><div class='vertical-center'><font style='color:orange'>(E)</font></div></div><div class='respDivR'><div class='vertical-center'>(I)</div></div></div>","null","$5","$50","1","5","50",""
"html-keyboard-response","157","231951","0.0-5.0-1.51","61038afee6aa0fcfbf968e56","bdp_rd","Tue Mar 28 2023 00:21:17 GMT-0400 (Eastern Daylight Time)","268290","","null","","","","FIX","","<div class='trialBorder'><div class='vertical-center'><img style='vertical-align:center; align:center' src=img/fixation3.jpg></div></div>","null","","","","","",""
"html-keyboard-response","158","233439","0.0-5.0-2.51","61038afee6aa0fcfbf968e56","bdp_rd","Tue Mar 28 2023 00:21:17 GMT-0400 (Eastern Daylight Time)","268290","","1488","","","","offer","","<div class='trialBorder'><div class='vertical-center'><img style='vertical-align:center; align:center' src=img/fixation3.jpg></div><div class='cl'><div class='vertical-center'>$95<br>with a<br>50% chance</div></div><div class='cr'><div class='vertical-center'>$40<br>for<br>sure</div></div><div class='respDivL'><div class='vertical-center'>(E)</div></div><div class='respDivR'><div class='vertical-center'>(I)</div></div></div>","E","$40","$95","1","40","95","RISKY"
"html-keyboard-response","159","233690","0.0-5.0-3.51","61038afee6aa0fcfbf968e56","bdp_rd","Tue Mar 28 2023 00:21:17 GMT-0400 (Eastern Daylight Time)","268290","","null","","","","offerFB","","<div class='trialBorder'><div class='vertical-center'><img style='vertical-align:center; align:center' src=img/fixation3.jpg></div><div class='cl'><div class='vertical-center'><font style='color:orange'>$95<br>with a<br>50% chance</font></div></div><div class='cr'><div class='vertical-center'>$40<br>for<br>sure</div></div><div class='respDivL'><div class='vertical-center'><font style='color:orange'>(E)</font></div></div><div class='respDivR'><div class='vertical-center'>(I)</div></div></div>","null","$40","$95","1","40","95",""
"html-keyboard-response","160","234192","0.0-5.0-1.52","61038afee6aa0fcfbf968e56","bdp_rd","Tue Mar 28 2023 00:21:17 GMT-0400 (Eastern Daylight Time)","268290","","null","","","","FIX","","<div class='trialBorder'><div class='vertical-center'><img style='vertical-align:center; align:center' src=img/fixation3.jpg></div></div>","null","","","","","",""
"html-keyboard-response","161","236706","0.0-5.0-2.52","61038afee6aa0fcfbf968e56","bdp_rd","Tue Mar 28 2023 00:21:17 GMT-0400 (Eastern Daylight Time)","268290","","2514","","","","offer","","<div class='trialBorder'><div class='vertical-center'><img style='vertical-align:center; align:center' src=img/fixation3.jpg></div><div class='cl'><div class='vertical-center'>$13<br>for<br>sure</div></div><div class='cr'><div class='vertical-center'>$41<br>with a<br>50% chance</div></div><div class='respDivL'><div class='vertical-center'>(E)</div></div><div class='respDivR'><div class='vertical-center'>(I)</div></div></div>","I","$13","$41","0","13","41","RISKY"
"html-keyboard-response","162","236958","0.0-5.0-3.52","61038afee6aa0fcfbf968e56","bdp_rd","Tue Mar 28 2023 00:21:17 GMT-0400 (Eastern Daylight Time)","268290","","null","","","","offerFB","","<div class='trialBorder'><div class='vertical-center'><img style='vertical-align:center; align:center' src=img/fixation3.jpg></div><div class='cl'><div class='vertical-center'>$13<br>for<br>sure</div></div><div class='cr'><div class='vertical-center'><font style='color:orange'>$41<br>with a<br>50% chance</font></div></div><div class='respDivL'><div class='vertical-center'>(E)</div></div><div class='respDivR'><div class='vertical-center'><font style='color:orange'>(I)</font></div></div></div>","null","$13","$41","0","13","41",""
"html-keyboard-response","163","237459","0.0-5.0-1.53","61038afee6aa0fcfbf968e56","bdp_rd","Tue Mar 28 2023 00:21:17 GMT-0400 (Eastern Daylight Time)","268290","","null","","","","FIX","","<div class='trialBorder'><div class='vertical-center'><img style='vertical-align:center; align:center' src=img/fixation3.jpg></div></div>","null","","","","","",""
"html-keyboard-response","164","239121","0.0-5.0-2.53","61038afee6aa0fcfbf968e56","bdp_rd","Tue Mar 28 2023 00:21:17 GMT-0400 (Eastern Daylight Time)","268290","","1660","","","","offer","","<div class='trialBorder'><div class='vertical-center'><img style='vertical-align:center; align:center' src=img/fixation3.jpg></div><div class='cl'><div class='vertical-center'>$2<br>for<br>sure</div></div><div class='cr'><div class='vertical-center'>$21<br>with a<br>50% chance</div></div><div class='respDivL'><div class='vertical-center'>(E)</div></div><div class='respDivR'><div class='vertical-center'>(I)</div></div></div>","I","$2","$21","0","2","21","RISKY"
"html-keyboard-response","165","239372","0.0-5.0-3.53","61038afee6aa0fcfbf968e56","bdp_rd","Tue Mar 28 2023 00:21:17 GMT-0400 (Eastern Daylight Time)","268290","","null","","","","offerFB","","<div class='trialBorder'><div class='vertical-center'><img style='vertical-align:center; align:center' src=img/fixation3.jpg></div><div class='cl'><div class='vertical-center'>$2<br>for<br>sure</div></div><div class='cr'><div class='vertical-center'><font style='color:orange'>$21<br>with a<br>50% chance</font></div></div><div class='respDivL'><div class='vertical-center'>(E)</div></div><div class='respDivR'><div class='vertical-center'><font style='color:orange'>(I)</font></div></div></div>","null","$2","$21","0","2","21",""
"html-keyboard-response","166","239874","0.0-5.0-1.54","61038afee6aa0fcfbf968e56","bdp_rd","Tue Mar 28 2023 00:21:17 GMT-0400 (Eastern Daylight Time)","268290","","null","","","","FIX","","<div class='trialBorder'><div class='vertical-center'><img style='vertical-align:center; align:center' src=img/fixation3.jpg></div></div>","null","","","","","",""
"html-keyboard-response","167","242663","0.0-5.0-2.54","61038afee6aa0fcfbf968e56","bdp_rd","Tue Mar 28 2023 00:21:17 GMT-0400 (Eastern Daylight Time)","268290","","2788","","","","offer","","<div class='trialBorder'><div class='vertical-center'><img style='vertical-align:center; align:center' src=img/fixation3.jpg></div><div class='cl'><div class='vertical-center'>$29<br>for<br>sure</div></div><div class='cr'><div class='vertical-center'>$46<br>with a<br>50% chance</div></div><div class='respDivL'><div class='vertical-center'>(E)</div></div><div class='respDivR'><div class='vertical-center'>(I)</div></div></div>","I","$29","$46","0","29","46","RISKY"
"html-keyboard-response","168","242916","0.0-5.0-3.54","61038afee6aa0fcfbf968e56","bdp_rd","Tue Mar 28 2023 00:21:17 GMT-0400 (Eastern Daylight Time)","268290","","null","","","","offerFB","","<div class='trialBorder'><div class='vertical-center'><img style='vertical-align:center; align:center' src=img/fixation3.jpg></div><div class='cl'><div class='vertical-center'>$29<br>for<br>sure</div></div><div class='cr'><div class='vertical-center'><font style='color:orange'>$46<br>with a<br>50% chance</font></div></div><div class='respDivL'><div class='vertical-center'>(E)</div></div><div class='respDivR'><div class='vertical-center'><font style='color:orange'>(I)</font></div></div></div>","null","$29","$46","0","29","46",""
"html-keyboard-response","169","243417","0.0-5.0-1.55","61038afee6aa0fcfbf968e56","bdp_rd","Tue Mar 28 2023 00:21:17 GMT-0400 (Eastern Daylight Time)","268290","","null","","","","FIX","","<div class='trialBorder'><div class='vertical-center'><img style='vertical-align:center; align:center' src=img/fixation3.jpg></div></div>","null","","","","","",""
"html-keyboard-response","170","246918","0.0-5.0-2.55","61038afee6aa0fcfbf968e56","bdp_rd","Tue Mar 28 2023 00:21:17 GMT-0400 (Eastern Daylight Time)","268290","","3500","","","","offer","","<div class='trialBorder'><div class='vertical-center'><img style='vertical-align:center; align:center' src=img/fixation3.jpg></div><div class='cl'><div class='vertical-center'>$24<br>with a<br>50% chance</div></div><div class='cr'><div class='vertical-center'>$13<br>for<br>sure</div></div><div class='respDivL'><div class='vertical-center'>(E)</div></div><div class='respDivR'><div class='vertical-center'>(I)</div></div></div>","I","$13","$24","1","13","24","SURE"
"html-keyboard-response","171","247171","0.0-5.0-3.55","61038afee6aa0fcfbf968e56","bdp_rd","Tue Mar 28 2023 00:21:17 GMT-0400 (Eastern Daylight Time)","268290","","null","","","","offerFB","","<div class='trialBorder'><div class='vertical-center'><img style='vertical-align:center; align:center' src=img/fixation3.jpg></div><div class='cl'><div class='vertical-center'>$24<br>with a<br>50% chance</div></div><div class='cr'><div class='vertical-center'><font style='color:orange'>$13<br>for<br>sure</font></div></div><div class='respDivL'><div class='vertical-center'>(E)</div></div><div class='respDivR'><div class='vertical-center'><font style='color:orange'>(I)</font></div></div></div>","null","$13","$24","1","13","24",""
"html-keyboard-response","172","247673","0.0-5.0-1.56","61038afee6aa0fcfbf968e56","bdp_rd","Tue Mar 28 2023 00:21:17 GMT-0400 (Eastern Daylight Time)","268290","","null","","","","FIX","","<div class='trialBorder'><div class='vertical-center'><img style='vertical-align:center; align:center' src=img/fixation3.jpg></div></div>","null","","","","","",""
"html-keyboard-response","173","250799","0.0-5.0-2.56","61038afee6aa0fcfbf968e56","bdp_rd","Tue Mar 28 2023 00:21:17 GMT-0400 (Eastern Daylight Time)","268290","","3125","","","","offer","","<div class='trialBorder'><div class='vertical-center'><img style='vertical-align:center; align:center' src=img/fixation3.jpg></div><div class='cl'><div class='vertical-center'>$18<br>with a<br>50% chance</div></div><div class='cr'><div class='vertical-center'>$9<br>for<br>sure</div></div><div class='respDivL'><div class='vertical-center'>(E)</div></div><div class='respDivR'><div class='vertical-center'>(I)</div></div></div>","I","$9","$18","1","9","18","SURE"
