"event","trial","time","trialtype","subject_id","task","startTime","totalTime","trial_type","trial_index","time_elapsed","internal_node_id","view_history","rt","success","stimulus","key_press","sureOffer","riskyOffer","riskyLeft","sureAmt","riskyAmt","chosen"
"focus","0","0","focusevent","63d9f31dba727de153019798","bdp_rd","Sun Apr 09 2023 19:02:32 GMT-0400 (Eastern Daylight Time)","236162","","","","","","","","","","","","","","",""
"","","","","63d9f31dba727de153019798","bdp_rd","Sun Apr 09 2023 19:02:32 GMT-0400 (Eastern Daylight Time)","236162","pavlovia","0","5","0.0-0.0","","","","","","","","","","",""
"","","","","63d9f31dba727de153019798","bdp_rd","Sun Apr 09 2023 19:02:32 GMT-0400 (Eastern Daylight Time)","236162","instructions","1","1953","0.0-1.0","[{""page_index"":0,""viewing_time"":1948}]","1948","","","","","","","","",""
"fullscreenexit","2","5457","fullscreenexit","63d9f31dba727de153019798","bdp_rd","Sun Apr 09 2023 19:02:32 GMT-0400 (Eastern Daylight Time)","236162","","","","","","","","","","","","","","",""
"","","","","63d9f31dba727de153019798","bdp_rd","Sun Apr 09 2023 19:02:32 GMT-0400 (Eastern Daylight Time)","236162","fullscreen","2","6231","0.0-2.0","","","true","","","","","","","",""
"","","","fullscreenfail","63d9f31dba727de153019798","bdp_rd","Sun Apr 09 2023 19:02:32 GMT-0400 (Eastern Daylight Time)","236162","image-keyboard-response","3","7721","0.0-3.0-0.0","","1488","","","32","","","","","",""
"","","","","63d9f31dba727de153019798","bdp_rd","Sun Apr 09 2023 19:02:32 GMT-0400 (Eastern Daylight Time)","236162","instructions","4","63920","0.0-4.0","[{""page_index"":0,""viewing_time"":37435},{""page_index"":1,""viewing_time"":8713},{""page_index"":2,""viewing_time"":9799}]","55947","","","","","","","","",""
"","","","FIX","63d9f31dba727de153019798","bdp_rd","Sun Apr 09 2023 19:02:32 GMT-0400 (Eastern Daylight Time)","236162","html-keyboard-response","5","64431","0.0-5.0-1.0","","null","","<div class='trialBorder'><div class='vertical-center'><img style='vertical-align:center; align:center' src=img/fixation3.jpg></div></div>","null","","","","","",""
"","","","offer","63d9f31dba727de153019798","bdp_rd","Sun Apr 09 2023 19:02:32 GMT-0400 (Eastern Daylight Time)","236162","html-keyboard-response","6","67129","0.0-5.0-2.0","","2695","","<div class='trialBorder'><div class='vertical-center'><img style='vertical-align:center; align:center' src=img/fixation3.jpg></div><div class='cl'><div class='vertical-center'>$69<br>with a<br>50% chance</div></div><div class='cr'><div class='vertical-center'>$58<br>for<br>sure</div></div><div class='respDivL'><div class='vertical-center'>(E)</div></div><div class='respDivR'><div class='vertical-center'>(I)</div></div></div>","I","$58","$69","1","58","69","SURE"
"","","","offerFB","63d9f31dba727de153019798","bdp_rd","Sun Apr 09 2023 19:02:32 GMT-0400 (Eastern Daylight Time)","236162","html-keyboard-response","7","67392","0.0-5.0-3.0","","null","","<div class='trialBorder'><div class='vertical-center'><img style='vertical-align:center; align:center' src=img/fixation3.jpg></div><div class='cl'><div class='vertical-center'>$69<br>with a<br>50% chance</div></div><div class='cr'><div class='vertical-center'><font style='color:orange'>$58<br>for<br>sure</font></div></div><div class='respDivL'><div class='vertical-center'>(E)</div></div><div class='respDivR'><div class='vertical-center'><font style='color:orange'>(I)</font></div></div></div>","null","$58","$69","1","58","69",""
"","","","FIX","63d9f31dba727de153019798","bdp_rd","Sun Apr 09 2023 19:02:32 GMT-0400 (Eastern Daylight Time)","236162","html-keyboard-response","8","67894","0.0-5.0-1.1","","null","","<div class='trialBorder'><div class='vertical-center'><img style='vertical-align:center; align:center' src=img/fixation3.jpg></div></div>","null","","","","","",""
"","","","offer","63d9f31dba727de153019798","bdp_rd","Sun Apr 09 2023 19:02:32 GMT-0400 (Eastern Daylight Time)","236162","html-keyboard-response","9","69648","0.0-5.0-2.1","","1754","","<div class='trialBorder'><div class='vertical-center'><img style='vertical-align:center; align:center' src=img/fixation3.jpg></div><div class='cl'><div class='vertical-center'>$100<br>with a<br>50% chance</div></div><div class='cr'><div class='vertical-center'>$63<br>for<br>sure</div></div><div class='respDivL'><div class='vertical-center'>(E)</div></div><div class='respDivR'><div class='vertical-center'>(I)</div></div></div>","I","$63","$100","1","63","10","SURE"
"","","","offerFB","63d9f31dba727de153019798","bdp_rd","Sun Apr 09 2023 19:02:32 GMT-0400 (Eastern Daylight Time)","236162","html-keyboard-response","10","69915","0.0-5.0-3.1","","null","","<div class='trialBorder'><div class='vertical-center'><img style='vertical-align:center; align:center' src=img/fixation3.jpg></div><div class='cl'><div class='vertical-center'>$100<br>with a<br>50% chance</div></div><div class='cr'><div class='vertical-center'><font style='color:orange'>$63<br>for<br>sure</font></div></div><div class='respDivL'><div class='vertical-center'>(E)</div></div><div class='respDivR'><div class='vertical-center'><font style='color:orange'>(I)</font></div></div></div>","null","$63","$100","1","63","10",""
"","","","FIX","63d9f31dba727de153019798","bdp_rd","Sun Apr 09 2023 19:02:32 GMT-0400 (Eastern Daylight Time)","236162","html-keyboard-response","11","70415","0.0-5.0-1.2","","null","","<div class='trialBorder'><div class='vertical-center'><img style='vertical-align:center; align:center' src=img/fixation3.jpg></div></div>","null","","","","","",""
"","","","offer","63d9f31dba727de153019798","bdp_rd","Sun Apr 09 2023 19:02:32 GMT-0400 (Eastern Daylight Time)","236162","html-keyboard-response","12","73160","0.0-5.0-2.2","","2744","","<div class='trialBorder'><div class='vertical-center'><img style='vertical-align:center; align:center' src=img/fixation3.jpg></div><div class='cl'><div class='vertical-center'>$81<br>with a<br>50% chance</div></div><div class='cr'><div class='vertical-center'>$39<br>for<br>sure</div></div><div class='respDivL'><div class='vertical-center'>(E)</div></div><div class='respDivR'><div class='vertical-center'>(I)</div></div></div>","I","$39","$81","1","39","81","SURE"
"","","","offerFB","63d9f31dba727de153019798","bdp_rd","Sun Apr 09 2023 19:02:32 GMT-0400 (Eastern Daylight Time)","236162","html-keyboard-response","13","73420","0.0-5.0-3.2","","null","","<div class='trialBorder'><div class='vertical-center'><img style='vertical-align:center; align:center' src=img/fixation3.jpg></div><div class='cl'><div class='vertical-center'>$81<br>with a<br>50% chance</div></div><div class='cr'><div class='vertical-center'><font style='color:orange'>$39<br>for<br>sure</font></div></div><div class='respDivL'><div class='vertical-center'>(E)</div></div><div class='respDivR'><div class='vertical-center'><font style='color:orange'>(I)</font></div></div></div>","null","$39","$81","1","39","81",""
"","","","FIX","63d9f31dba727de153019798","bdp_rd","Sun Apr 09 2023 19:02:32 GMT-0400 (Eastern Daylight Time)","236162","html-keyboard-response","14","73922","0.0-5.0-1.3","","null","","<div class='trialBorder'><div class='vertical-center'><img style='vertical-align:center; align:center' src=img/fixation3.jpg></div></div>","null","","","","","",""
"","","","offer","63d9f31dba727de153019798","bdp_rd","Sun Apr 09 2023 19:02:32 GMT-0400 (Eastern Daylight Time)","236162","html-keyboard-response","15","76896","0.0-5.0-2.3","","2973","","<div class='trialBorder'><div class='vertical-center'><img style='vertical-align:center; align:center' src=img/fixation3.jpg></div><div class='cl'><div class='vertical-center'>$12<br>with a<br>50% chance</div></div><div class='cr'><div class='vertical-center'>$3<br>for<br>sure</div></div><div class='respDivL'><div class='vertical-center'>(E)</div></div><div class='respDivR'><div class='vertical-center'>(I)</div></div></div>","E","$3","$12","1","3","12","RISKY"
"","","","offerFB","63d9f31dba727de153019798","bdp_rd","Sun Apr 09 2023 19:02:32 GMT-0400 (Eastern Daylight Time)","236162","html-keyboard-response","16","77167","0.0-5.0-3.3","","null","","<div class='trialBorder'><div class='vertical-center'><img style='vertical-align:center; align:center' src=img/fixation3.jpg></div><div class='cl'><div class='vertical-center'><font style='color:orange'>$12<br>with a<br>50% chance</font></div></div><div class='cr'><div class='vertical-center'>$3<br>for<br>sure</div></div><div class='respDivL'><div class='vertical-center'><font style='color:orange'>(E)</font></div></div><div class='respDivR'><div class='vertical-center'>(I)</div></div></div>","null","$3","$12","1","3","12",""
"","","","FIX","63d9f31dba727de153019798","bdp_rd","Sun Apr 09 2023 19:02:32 GMT-0400 (Eastern Daylight Time)","236162","html-keyboard-response","17","77669","0.0-5.0-1.4","","null","","<div class='trialBorder'><div class='vertical-center'><img style='vertical-align:center; align:center' src=img/fixation3.jpg></div></div>","null","","","","","",""
"","","","offer","63d9f31dba727de153019798","bdp_rd","Sun Apr 09 2023 19:02:32 GMT-0400 (Eastern Daylight Time)","236162","html-keyboard-response","18","80928","0.0-5.0-2.4","","3258","","<div class='trialBorder'><div class='vertical-center'><img style='vertical-align:center; align:center' src=img/fixation3.jpg></div><div class='cl'><div class='vertical-center'>$9<br>for<br>sure</div></div><div class='cr'><div class='vertical-center'>$32<br>with a<br>50% chance</div></div><div class='respDivL'><div class='vertical-center'>(E)</div></div><div class='respDivR'><div class='vertical-center'>(I)</div></div></div>","I","$9","$32","0","9","32","RISKY"
"","","","offerFB","63d9f31dba727de153019798","bdp_rd","Sun Apr 09 2023 19:02:32 GMT-0400 (Eastern Daylight Time)","236162","html-keyboard-response","19","81194","0.0-5.0-3.4","","null","","<div class='trialBorder'><div class='vertical-center'><img style='vertical-align:center; align:center' src=img/fixation3.jpg></div><div class='cl'><div class='vertical-center'>$9<br>for<br>sure</div></div><div class='cr'><div class='vertical-center'><font style='color:orange'>$32<br>with a<br>50% chance</font></div></div><div class='respDivL'><div class='vertical-center'>(E)</div></div><div class='respDivR'><div class='vertical-center'><font style='color:orange'>(I)</font></div></div></div>","null","$9","$32","0","9","32",""
"","","","FIX","63d9f31dba727de153019798","bdp_rd","Sun Apr 09 2023 19:02:32 GMT-0400 (Eastern Daylight Time)","236162","html-keyboard-response","20","81695","0.0-5.0-1.5","","null","","<div class='trialBorder'><div class='vertical-center'><img style='vertical-align:center; align:center' src=img/fixation3.jpg></div></div>","null","","","","","",""
"","","","offer","63d9f31dba727de153019798","bdp_rd","Sun Apr 09 2023 19:02:32 GMT-0400 (Eastern Daylight Time)","236162","html-keyboard-response","21","83352","0.0-5.0-2.5","","1657","","<div class='trialBorder'><div class='vertical-center'><img style='vertical-align:center; align:center' src=img/fixation3.jpg></div><div class='cl'><div class='vertical-center'>$65<br>with a<br>50% chance</div></div><div class='cr'><div class='vertical-center'>$46<br>for<br>sure</div></div><div class='respDivL'><div class='vertical-center'>(E)</div></div><div class='respDivR'><div class='vertical-center'>(I)</div></div></div>","I","$46","$65","1","46","65","SURE"
"","","","offerFB","63d9f31dba727de153019798","bdp_rd","Sun Apr 09 2023 19:02:32 GMT-0400 (Eastern Daylight Time)","236162","html-keyboard-response","22","83615","0.0-5.0-3.5","","null","","<div class='trialBorder'><div class='vertical-center'><img style='vertical-align:center; align:center' src=img/fixation3.jpg></div><div class='cl'><div class='vertical-center'>$65<br>with a<br>50% chance</div></div><div class='cr'><div class='vertical-center'><font style='color:orange'>$46<br>for<br>sure</font></div></div><div class='respDivL'><div class='vertical-center'>(E)</div></div><div class='respDivR'><div class='vertical-center'><font style='color:orange'>(I)</font></div></div></div>","null","$46","$65","1","46","65",""
"","","","FIX","63d9f31dba727de153019798","bdp_rd","Sun Apr 09 2023 19:02:32 GMT-0400 (Eastern Daylight Time)","236162","html-keyboard-response","23","84117","0.0-5.0-1.6","","null","","<div class='trialBorder'><div class='vertical-center'><img style='vertical-align:center; align:center' src=img/fixation3.jpg></div></div>","null","","","","","",""
"","","","offer","63d9f31dba727de153019798","bdp_rd","Sun Apr 09 2023 19:02:32 GMT-0400 (Eastern Daylight Time)","236162","html-keyboard-response","24","85528","0.0-5.0-2.6","","1410","","<div class='trialBorder'><div class='vertical-center'><img style='vertical-align:center; align:center' src=img/fixation3.jpg></div><div class='cl'><div class='vertical-center'>$64<br>with a<br>50% chance</div></div><div class='cr'><div class='vertical-center'>$2<br>for<br>sure</div></div><div class='respDivL'><div class='vertical-center'>(E)</div></div><div class='respDivR'><div class='vertical-center'>(I)</div></div></div>","E","$2","$64","1","2","64","RISKY"
"","","","offerFB","63d9f31dba727de153019798","bdp_rd","Sun Apr 09 2023 19:02:32 GMT-0400 (Eastern Daylight Time)","236162","html-keyboard-response","25","85790","0.0-5.0-3.6","","null","","<div class='trialBorder'><div class='vertical-center'><img style='vertical-align:center; align:center' src=img/fixation3.jpg></div><div class='cl'><div class='vertical-center'><font style='color:orange'>$64<br>with a<br>50% chance</font></div></div><div class='cr'><div class='vertical-center'>$2<br>for<br>sure</div></div><div class='respDivL'><div class='vertical-center'><font style='color:orange'>(E)</font></div></div><div class='respDivR'><div class='vertical-center'>(I)</div></div></div>","null","$2","$64","1","2","64",""
"","","","FIX","63d9f31dba727de153019798","bdp_rd","Sun Apr 09 2023 19:02:32 GMT-0400 (Eastern Daylight Time)","236162","html-keyboard-response","26","86292","0.0-5.0-1.7","","null","","<div class='trialBorder'><div class='vertical-center'><img style='vertical-align:center; align:center' src=img/fixation3.jpg></div></div>","null","","","","","",""
"","","","offer","63d9f31dba727de153019798","bdp_rd","Sun Apr 09 2023 19:02:32 GMT-0400 (Eastern Daylight Time)","236162","html-keyboard-response","27","88744","0.0-5.0-2.7","","2452","","<div class='trialBorder'><div class='vertical-center'><img style='vertical-align:center; align:center' src=img/fixation3.jpg></div><div class='cl'><div class='vertical-center'>$27<br>for<br>sure</div></div><div class='cr'><div class='vertical-center'>$47<br>with a<br>50% chance</div></div><div class='respDivL'><div class='vertical-center'>(E)</div></div><div class='respDivR'><div class='vertical-center'>(I)</div></div></div>","E","$27","$47","0","27","47","SURE"
"","","","offerFB","63d9f31dba727de153019798","bdp_rd","Sun Apr 09 2023 19:02:32 GMT-0400 (Eastern Daylight Time)","236162","html-keyboard-response","28","89001","0.0-5.0-3.7","","null","","<div class='trialBorder'><div class='vertical-center'><img style='vertical-align:center; align:center' src=img/fixation3.jpg></div><div class='cl'><div class='vertical-center'><font style='color:orange'>$27<br>for<br>sure</font></div></div><div class='cr'><div class='vertical-center'>$47<br>with a<br>50% chance</div></div><div class='respDivL'><div class='vertical-center'><font style='color:orange'>(E)</font></div></div><div class='respDivR'><div class='vertical-center'>(I)</div></div></div>","null","$27","$47","0","27","47",""
"","","","FIX","63d9f31dba727de153019798","bdp_rd","Sun Apr 09 2023 19:02:32 GMT-0400 (Eastern Daylight Time)","236162","html-keyboard-response","29","89502","0.0-5.0-1.8","","null","","<div class='trialBorder'><div class='vertical-center'><img style='vertical-align:center; align:center' src=img/fixation3.jpg></div></div>","null","","","","","",""
"","","","offer","63d9f31dba727de153019798","bdp_rd","Sun Apr 09 2023 19:02:32 GMT-0400 (Eastern Daylight Time)","236162","html-keyboard-response","30","92080","0.0-5.0-2.8","","2577","","<div class='trialBorder'><div class='vertical-center'><img style='vertical-align:center; align:center' src=img/fixation3.jpg></div><div class='cl'><div class='vertical-center'>$70<br>with a<br>50% chance</div></div><div class='cr'><div class='vertical-center'>$24<br>for<br>sure</div></div><div class='respDivL'><div class='vertical-center'>(E)</div></div><div class='respDivR'><div class='vertical-center'>(I)</div></div></div>","E","$24","$70","1","24","70","RISKY"
"","","","offerFB","63d9f31dba727de153019798","bdp_rd","Sun Apr 09 2023 19:02:32 GMT-0400 (Eastern Daylight Time)","236162","html-keyboard-response","31","92339","0.0-5.0-3.8","","null","","<div class='trialBorder'><div class='vertical-center'><img style='vertical-align:center; align:center' src=img/fixation3.jpg></div><div class='cl'><div class='vertical-center'><font style='color:orange'>$70<br>with a<br>50% chance</font></div></div><div class='cr'><div class='vertical-center'>$24<br>for<br>sure</div></div><div class='respDivL'><div class='vertical-center'><font style='color:orange'>(E)</font></div></div><div class='respDivR'><div class='vertical-center'>(I)</div></div></div>","null","$24","$70","1","24","70",""
"","","","FIX","63d9f31dba727de153019798","bdp_rd","Sun Apr 09 2023 19:02:32 GMT-0400 (Eastern Daylight Time)","236162","html-keyboard-response","32","92840","0.0-5.0-1.9","","null","","<div class='trialBorder'><div class='vertical-center'><img style='vertical-align:center; align:center' src=img/fixation3.jpg></div></div>","null","","","","","",""
"","","","offer","63d9f31dba727de153019798","bdp_rd","Sun Apr 09 2023 19:02:32 GMT-0400 (Eastern Daylight Time)","236162","html-keyboard-response","33","95312","0.0-5.0-2.9","","2472","","<div class='trialBorder'><div class='vertical-center'><img style='vertical-align:center; align:center' src=img/fixation3.jpg></div><div class='cl'><div class='vertical-center'>$89<br>with a<br>50% chance</div></div><div class='cr'><div class='vertical-center'>$28<br>for<br>sure</div></div><div class='respDivL'><div class='vertical-center'>(E)</div></div><div class='respDivR'><div class='vertical-center'>(I)</div></div></div>","E","$28","$89","1","28","89","RISKY"
"","","","offerFB","63d9f31dba727de153019798","bdp_rd","Sun Apr 09 2023 19:02:32 GMT-0400 (Eastern Daylight Time)","236162","html-keyboard-response","34","95576","0.0-5.0-3.9","","null","","<div class='trialBorder'><div class='vertical-center'><img style='vertical-align:center; align:center' src=img/fixation3.jpg></div><div class='cl'><div class='vertical-center'><font style='color:orange'>$89<br>with a<br>50% chance</font></div></div><div class='cr'><div class='vertical-center'>$28<br>for<br>sure</div></div><div class='respDivL'><div class='vertical-center'><font style='color:orange'>(E)</font></div></div><div class='respDivR'><div class='vertical-center'>(I)</div></div></div>","null","$28","$89","1","28","89",""
"","","","FIX","63d9f31dba727de153019798","bdp_rd","Sun Apr 09 2023 19:02:32 GMT-0400 (Eastern Daylight Time)","236162","html-keyboard-response","35","96078","0.0-5.0-1.10","","null","","<div class='trialBorder'><div class='vertical-center'><img style='vertical-align:center; align:center' src=img/fixation3.jpg></div></div>","null","","","","","",""
"","","","offer","63d9f31dba727de153019798","bdp_rd","Sun Apr 09 2023 19:02:32 GMT-0400 (Eastern Daylight Time)","236162","html-keyboard-response","36","99081","0.0-5.0-2.10","","3002","","<div class='trialBorder'><div class='vertical-center'><img style='vertical-align:center; align:center' src=img/fixation3.jpg></div><div class='cl'><div class='vertical-center'>$22<br>for<br>sure</div></div><div class='cr'><div class='vertical-center'>$42<br>with a<br>50% chance</div></div><div class='respDivL'><div class='vertical-center'>(E)</div></div><div class='respDivR'><div class='vertical-center'>(I)</div></div></div>","I","$22","$42","0","22","42","RISKY"
"","","","offerFB","63d9f31dba727de153019798","bdp_rd","Sun Apr 09 2023 19:02:32 GMT-0400 (Eastern Daylight Time)","236162","html-keyboard-response","37","99337","0.0-5.0-3.10","","null","","<div class='trialBorder'><div class='vertical-center'><img style='vertical-align:center; align:center' src=img/fixation3.jpg></div><div class='cl'><div class='vertical-center'>$22<br>for<br>sure</div></div><div class='cr'><div class='vertical-center'><font style='color:orange'>$42<br>with a<br>50% chance</font></div></div><div class='respDivL'><div class='vertical-center'>(E)</div></div><div class='respDivR'><div class='vertical-center'><font style='color:orange'>(I)</font></div></div></div>","null","$22","$42","0","22","42",""
"","","","FIX","63d9f31dba727de153019798","bdp_rd","Sun Apr 09 2023 19:02:32 GMT-0400 (Eastern Daylight Time)","236162","html-keyboard-response","38","99837","0.0-5.0-1.11","","null","","<div class='trialBorder'><div class='vertical-center'><img style='vertical-align:center; align:center' src=img/fixation3.jpg></div></div>","null","","","","","",""
"","","","offer","63d9f31dba727de153019798","bdp_rd","Sun Apr 09 2023 19:02:32 GMT-0400 (Eastern Daylight Time)","236162","html-keyboard-response","39","102688","0.0-5.0-2.11","","2850","","<div class='trialBorder'><div class='vertical-center'><img style='vertical-align:center; align:center' src=img/fixation3.jpg></div><div class='cl'><div class='vertical-center'>$14<br>for<br>sure</div></div><div class='cr'><div class='vertical-center'>$22<br>with a<br>50% chance</div></div><div class='respDivL'><div class='vertical-center'>(E)</div></div><div class='respDivR'><div class='vertical-center'>(I)</div></div></div>","E","$14","$22","0","14","22","SURE"
"","","","offerFB","63d9f31dba727de153019798","bdp_rd","Sun Apr 09 2023 19:02:32 GMT-0400 (Eastern Daylight Time)","236162","html-keyboard-response","40","102952","0.0-5.0-3.11","","null","","<div class='trialBorder'><div class='vertical-center'><img style='vertical-align:center; align:center' src=img/fixation3.jpg></div><div class='cl'><div class='vertical-center'><font style='color:orange'>$14<br>for<br>sure</font></div></div><div class='cr'><div class='vertical-center'>$22<br>with a<br>50% chance</div></div><div class='respDivL'><div class='vertical-center'><font style='color:orange'>(E)</font></div></div><div class='respDivR'><div class='vertical-center'>(I)</div></div></div>","null","$14","$22","0","14","22",""
"","","","FIX","63d9f31dba727de153019798","bdp_rd","Sun Apr 09 2023 19:02:32 GMT-0400 (Eastern Daylight Time)","236162","html-keyboard-response","41","103454","0.0-5.0-1.12","","null","","<div class='trialBorder'><div class='vertical-center'><img style='vertical-align:center; align:center' src=img/fixation3.jpg></div></div>","null","","","","","",""
"","","","offer","63d9f31dba727de153019798","bdp_rd","Sun Apr 09 2023 19:02:32 GMT-0400 (Eastern Daylight Time)","236162","html-keyboard-response","42","105840","0.0-5.0-2.12","","2385","","<div class='trialBorder'><div class='vertical-center'><img style='vertical-align:center; align:center' src=img/fixation3.jpg></div><div class='cl'><div class='vertical-center'>$11<br>with a<br>50% chance</div></div><div class='cr'><div class='vertical-center'>$4<br>for<br>sure</div></div><div class='respDivL'><div class='vertical-center'>(E)</div></div><div class='respDivR'><div class='vertical-center'>(I)</div></div></div>","E","$4","$11","1","4","11","RISKY"
"","","","offerFB","63d9f31dba727de153019798","bdp_rd","Sun Apr 09 2023 19:02:32 GMT-0400 (Eastern Daylight Time)","236162","html-keyboard-response","43","106095","0.0-5.0-3.12","","null","","<div class='trialBorder'><div class='vertical-center'><img style='vertical-align:center; align:center' src=img/fixation3.jpg></div><div class='cl'><div class='vertical-center'><font style='color:orange'>$11<br>with a<br>50% chance</font></div></div><div class='cr'><div class='vertical-center'>$4<br>for<br>sure</div></div><div class='respDivL'><div class='vertical-center'><font style='color:orange'>(E)</font></div></div><div class='respDivR'><div class='vertical-center'>(I)</div></div></div>","null","$4","$11","1","4","11",""
"","","","FIX","63d9f31dba727de153019798","bdp_rd","Sun Apr 09 2023 19:02:32 GMT-0400 (Eastern Daylight Time)","236162","html-keyboard-response","44","106597","0.0-5.0-1.13","","null","","<div class='trialBorder'><div class='vertical-center'><img style='vertical-align:center; align:center' src=img/fixation3.jpg></div></div>","null","","","","","",""
"","","","offer","63d9f31dba727de153019798","bdp_rd","Sun Apr 09 2023 19:02:32 GMT-0400 (Eastern Daylight Time)","236162","html-keyboard-response","45","108520","0.0-5.0-2.13","","1922","","<div class='trialBorder'><div class='vertical-center'><img style='vertical-align:center; align:center' src=img/fixation3.jpg></div><div class='cl'><div class='vertical-center'>$80<br>with a<br>50% chance</div></div><div class='cr'><div class='vertical-center'>$20<br>for<br>sure</div></div><div class='respDivL'><div class='vertical-center'>(E)</div></div><div class='respDivR'><div class='vertical-center'>(I)</div></div></div>","E","$20","$80","1","20","80","RISKY"
"","","","offerFB","63d9f31dba727de153019798","bdp_rd","Sun Apr 09 2023 19:02:32 GMT-0400 (Eastern Daylight Time)","236162","html-keyboard-response","46","108773","0.0-5.0-3.13","","null","","<div class='trialBorder'><div class='vertical-center'><img style='vertical-align:center; align:center' src=img/fixation3.jpg></div><div class='cl'><div class='vertical-center'><font style='color:orange'>$80<br>with a<br>50% chance</font></div></div><div class='cr'><div class='vertical-center'>$20<br>for<br>sure</div></div><div class='respDivL'><div class='vertical-center'><font style='color:orange'>(E)</font></div></div><div class='respDivR'><div class='vertical-center'>(I)</div></div></div>","null","$20","$80","1","20","80",""
"","","","FIX","63d9f31dba727de153019798","bdp_rd","Sun Apr 09 2023 19:02:32 GMT-0400 (Eastern Daylight Time)","236162","html-keyboard-response","47","109275","0.0-5.0-1.14","","null","","<div class='trialBorder'><div class='vertical-center'><img style='vertical-align:center; align:center' src=img/fixation3.jpg></div></div>","null","","","","","",""
"","","","offer","63d9f31dba727de153019798","bdp_rd","Sun Apr 09 2023 19:02:32 GMT-0400 (Eastern Daylight Time)","236162","html-keyboard-response","48","110832","0.0-5.0-2.14","","1556","","<div class='trialBorder'><div class='vertical-center'><img style='vertical-align:center; align:center' src=img/fixation3.jpg></div><div class='cl'><div class='vertical-center'>$59<br>with a<br>50% chance</div></div><div class='cr'><div class='vertical-center'>$22<br>for<br>sure</div></div><div class='respDivL'><div class='vertical-center'>(E)</div></div><div class='respDivR'><div class='vertical-center'>(I)</div></div></div>","E","$22","$59","1","22","59","RISKY"
"","","","offerFB","63d9f31dba727de153019798","bdp_rd","Sun Apr 09 2023 19:02:32 GMT-0400 (Eastern Daylight Time)","236162","html-keyboard-response","49","111089","0.0-5.0-3.14","","null","","<div class='trialBorder'><div class='vertical-center'><img style='vertical-align:center; align:center' src=img/fixation3.jpg></div><div class='cl'><div class='vertical-center'><font style='color:orange'>$59<br>with a<br>50% chance</font></div></div><div class='cr'><div class='vertical-center'>$22<br>for<br>sure</div></div><div class='respDivL'><div class='vertical-center'><font style='color:orange'>(E)</font></div></div><div class='respDivR'><div class='vertical-center'>(I)</div></div></div>","null","$22","$59","1","22","59",""
"","","","FIX","63d9f31dba727de153019798","bdp_rd","Sun Apr 09 2023 19:02:32 GMT-0400 (Eastern Daylight Time)","236162","html-keyboard-response","50","111589","0.0-5.0-1.15","","null","","<div class='trialBorder'><div class='vertical-center'><img style='vertical-align:center; align:center' src=img/fixation3.jpg></div></div>","null","","","","","",""
"","","","offer","63d9f31dba727de153019798","bdp_rd","Sun Apr 09 2023 19:02:32 GMT-0400 (Eastern Daylight Time)","236162","html-keyboard-response","51","114896","0.0-5.0-2.15","","3306","","<div class='trialBorder'><div class='vertical-center'><img style='vertical-align:center; align:center' src=img/fixation3.jpg></div><div class='cl'><div class='vertical-center'>$66<br>with a<br>50% chance</div></div><div class='cr'><div class='vertical-center'>$33<br>for<br>sure</div></div><div class='respDivL'><div class='vertical-center'>(E)</div></div><div class='respDivR'><div class='vertical-center'>(I)</div></div></div>","I","$33","$66","1","33","66","SURE"
"","","","offerFB","63d9f31dba727de153019798","bdp_rd","Sun Apr 09 2023 19:02:32 GMT-0400 (Eastern Daylight Time)","236162","html-keyboard-response","52","115154","0.0-5.0-3.15","","null","","<div class='trialBorder'><div class='vertical-center'><img style='vertical-align:center; align:center' src=img/fixation3.jpg></div><div class='cl'><div class='vertical-center'>$66<br>with a<br>50% chance</div></div><div class='cr'><div class='vertical-center'><font style='color:orange'>$33<br>for<br>sure</font></div></div><div class='respDivL'><div class='vertical-center'>(E)</div></div><div class='respDivR'><div class='vertical-center'><font style='color:orange'>(I)</font></div></div></div>","null","$33","$66","1","33","66",""
"","","","FIX","63d9f31dba727de153019798","bdp_rd","Sun Apr 09 2023 19:02:32 GMT-0400 (Eastern Daylight Time)","236162","html-keyboard-response","53","115655","0.0-5.0-1.16","","null","","<div class='trialBorder'><div class='vertical-center'><img style='vertical-align:center; align:center' src=img/fixation3.jpg></div></div>","null","","","","","",""
"","","","offer","63d9f31dba727de153019798","bdp_rd","Sun Apr 09 2023 19:02:32 GMT-0400 (Eastern Daylight Time)","236162","html-keyboard-response","54","117168","0.0-5.0-2.16","","1513","","<div class='trialBorder'><div class='vertical-center'><img style='vertical-align:center; align:center' src=img/fixation3.jpg></div><div class='cl'><div class='vertical-center'>$21<br>for<br>sure</div></div><div class='cr'><div class='vertical-center'>$25<br>with a<br>50% chance</div></div><div class='respDivL'><div class='vertical-center'>(E)</div></div><div class='respDivR'><div class='vertical-center'>(I)</div></div></div>","E","$21","$25","0","21","25","SURE"
"","","","offerFB","63d9f31dba727de153019798","bdp_rd","Sun Apr 09 2023 19:02:32 GMT-0400 (Eastern Daylight Time)","236162","html-keyboard-response","55","117422","0.0-5.0-3.16","","null","","<div class='trialBorder'><div class='vertical-center'><img style='vertical-align:center; align:center' src=img/fixation3.jpg></div><div class='cl'><div class='vertical-center'><font style='color:orange'>$21<br>for<br>sure</font></div></div><div class='cr'><div class='vertical-center'>$25<br>with a<br>50% chance</div></div><div class='respDivL'><div class='vertical-center'><font style='color:orange'>(E)</font></div></div><div class='respDivR'><div class='vertical-center'>(I)</div></div></div>","null","$21","$25","0","21","25",""
"","","","FIX","63d9f31dba727de153019798","bdp_rd","Sun Apr 09 2023 19:02:32 GMT-0400 (Eastern Daylight Time)","236162","html-keyboard-response","56","117923","0.0-5.0-1.17","","null","","<div class='trialBorder'><div class='vertical-center'><img style='vertical-align:center; align:center' src=img/fixation3.jpg></div></div>","null","","","","","",""
"","","","offer","63d9f31dba727de153019798","bdp_rd","Sun Apr 09 2023 19:02:32 GMT-0400 (Eastern Daylight Time)","236162","html-keyboard-response","57","119231","0.0-5.0-2.17","","1307","","<div class='trialBorder'><div class='vertical-center'><img style='vertical-align:center; align:center' src=img/fixation3.jpg></div><div class='cl'><div class='vertical-center'>$16<br>for<br>sure</div></div><div class='cr'><div class='vertical-center'>$28<br>with a<br>50% chance</div></div><div class='respDivL'><div class='vertical-center'>(E)</div></div><div class='respDivR'><div class='vertical-center'>(I)</div></div></div>","E","$16","$28","0","16","28","SURE"
"","","","offerFB","63d9f31dba727de153019798","bdp_rd","Sun Apr 09 2023 19:02:32 GMT-0400 (Eastern Daylight Time)","236162","html-keyboard-response","58","119496","0.0-5.0-3.17","","null","","<div class='trialBorder'><div class='vertical-center'><img style='vertical-align:center; align:center' src=img/fixation3.jpg></div><div class='cl'><div class='vertical-center'><font style='color:orange'>$16<br>for<br>sure</font></div></div><div class='cr'><div class='vertical-center'>$28<br>with a<br>50% chance</div></div><div class='respDivL'><div class='vertical-center'><font style='color:orange'>(E)</font></div></div><div class='respDivR'><div class='vertical-center'>(I)</div></div></div>","null","$16","$28","0","16","28",""
"","","","FIX","63d9f31dba727de153019798","bdp_rd","Sun Apr 09 2023 19:02:32 GMT-0400 (Eastern Daylight Time)","236162","html-keyboard-response","59","119998","0.0-5.0-1.18","","null","","<div class='trialBorder'><div class='vertical-center'><img style='vertical-align:center; align:center' src=img/fixation3.jpg></div></div>","null","","","","","",""
"","","","offer","63d9f31dba727de153019798","bdp_rd","Sun Apr 09 2023 19:02:32 GMT-0400 (Eastern Daylight Time)","236162","html-keyboard-response","60","121520","0.0-5.0-2.18","","1522","","<div class='trialBorder'><div class='vertical-center'><img style='vertical-align:center; align:center' src=img/fixation3.jpg></div><div class='cl'><div class='vertical-center'>$92<br>with a<br>50% chance</div></div><div class='cr'><div class='vertical-center'>$26<br>for<br>sure</div></div><div class='respDivL'><div class='vertical-center'>(E)</div></div><div class='respDivR'><div class='vertical-center'>(I)</div></div></div>","E","$26","$92","1","26","92","RISKY"
"","","","offerFB","63d9f31dba727de153019798","bdp_rd","Sun Apr 09 2023 19:02:32 GMT-0400 (Eastern Daylight Time)","236162","html-keyboard-response","61","121771","0.0-5.0-3.18","","null","","<div class='trialBorder'><div class='vertical-center'><img style='vertical-align:center; align:center' src=img/fixation3.jpg></div><div class='cl'><div class='vertical-center'><font style='color:orange'>$92<br>with a<br>50% chance</font></div></div><div class='cr'><div class='vertical-center'>$26<br>for<br>sure</div></div><div class='respDivL'><div class='vertical-center'><font style='color:orange'>(E)</font></div></div><div class='respDivR'><div class='vertical-center'>(I)</div></div></div>","null","$26","$92","1","26","92",""
"","","","FIX","63d9f31dba727de153019798","bdp_rd","Sun Apr 09 2023 19:02:32 GMT-0400 (Eastern Daylight Time)","236162","html-keyboard-response","62","122272","0.0-5.0-1.19","","null","","<div class='trialBorder'><div class='vertical-center'><img style='vertical-align:center; align:center' src=img/fixation3.jpg></div></div>","null","","","","","",""
"","","","offer","63d9f31dba727de153019798","bdp_rd","Sun Apr 09 2023 19:02:32 GMT-0400 (Eastern Daylight Time)","236162","html-keyboard-response","63","124656","0.0-5.0-2.19","","2383","","<div class='trialBorder'><div class='vertical-center'><img style='vertical-align:center; align:center' src=img/fixation3.jpg></div><div class='cl'><div class='vertical-center'>$34<br>with a<br>50% chance</div></div><div class='cr'><div class='vertical-center'>$15<br>for<br>sure</div></div><div class='respDivL'><div class='vertical-center'>(E)</div></div><div class='respDivR'><div class='vertical-center'>(I)</div></div></div>","E","$15","$34","1","15","34","RISKY"
"","","","offerFB","63d9f31dba727de153019798","bdp_rd","Sun Apr 09 2023 19:02:32 GMT-0400 (Eastern Daylight Time)","236162","html-keyboard-response","64","124910","0.0-5.0-3.19","","null","","<div class='trialBorder'><div class='vertical-center'><img style='vertical-align:center; align:center' src=img/fixation3.jpg></div><div class='cl'><div class='vertical-center'><font style='color:orange'>$34<br>with a<br>50% chance</font></div></div><div class='cr'><div class='vertical-center'>$15<br>for<br>sure</div></div><div class='respDivL'><div class='vertical-center'><font style='color:orange'>(E)</font></div></div><div class='respDivR'><div class='vertical-center'>(I)</div></div></div>","null","$15","$34","1","15","34",""
"","","","FIX","63d9f31dba727de153019798","bdp_rd","Sun Apr 09 2023 19:02:32 GMT-0400 (Eastern Daylight Time)","236162","html-keyboard-response","65","125411","0.0-5.0-1.20","","null","","<div class='trialBorder'><div class='vertical-center'><img style='vertical-align:center; align:center' src=img/fixation3.jpg></div></div>","null","","","","","",""
"","","","offer","63d9f31dba727de153019798","bdp_rd","Sun Apr 09 2023 19:02:32 GMT-0400 (Eastern Daylight Time)","236162","html-keyboard-response","66","126711","0.0-5.0-2.20","","1300","","<div class='trialBorder'><div class='vertical-center'><img style='vertical-align:center; align:center' src=img/fixation3.jpg></div><div class='cl'><div class='vertical-center'>$7<br>for<br>sure</div></div><div class='cr'><div class='vertical-center'>$71<br>with a<br>50% chance</div></div><div class='respDivL'><div class='vertical-center'>(E)</div></div><div class='respDivR'><div class='vertical-center'>(I)</div></div></div>","I","$7","$71","0","7","71","RISKY"
"","","","offerFB","63d9f31dba727de153019798","bdp_rd","Sun Apr 09 2023 19:02:32 GMT-0400 (Eastern Daylight Time)","236162","html-keyboard-response","67","126968","0.0-5.0-3.20","","null","","<div class='trialBorder'><div class='vertical-center'><img style='vertical-align:center; align:center' src=img/fixation3.jpg></div><div class='cl'><div class='vertical-center'>$7<br>for<br>sure</div></div><div class='cr'><div class='vertical-center'><font style='color:orange'>$71<br>with a<br>50% chance</font></div></div><div class='respDivL'><div class='vertical-center'>(E)</div></div><div class='respDivR'><div class='vertical-center'><font style='color:orange'>(I)</font></div></div></div>","null","$7","$71","0","7","71",""
"","","","FIX","63d9f31dba727de153019798","bdp_rd","Sun Apr 09 2023 19:02:32 GMT-0400 (Eastern Daylight Time)","236162","html-keyboard-response","68","127470","0.0-5.0-1.21","","null","","<div class='trialBorder'><div class='vertical-center'><img style='vertical-align:center; align:center' src=img/fixation3.jpg></div></div>","null","","","","","",""
"","","","offer","63d9f31dba727de153019798","bdp_rd","Sun Apr 09 2023 19:02:32 GMT-0400 (Eastern Daylight Time)","236162","html-keyboard-response","69","129023","0.0-5.0-2.21","","1552","","<div class='trialBorder'><div class='vertical-center'><img style='vertical-align:center; align:center' src=img/fixation3.jpg></div><div class='cl'><div class='vertical-center'>$3<br>for<br>sure</div></div><div class='cr'><div class='vertical-center'>$17<br>with a<br>50% chance</div></div><div class='respDivL'><div class='vertical-center'>(E)</div></div><div class='respDivR'><div class='vertical-center'>(I)</div></div></div>","I","$3","$17","0","3","17","RISKY"
"","","","offerFB","63d9f31dba727de153019798","bdp_rd","Sun Apr 09 2023 19:02:32 GMT-0400 (Eastern Daylight Time)","236162","html-keyboard-response","70","129274","0.0-5.0-3.21","","null","","<div class='trialBorder'><div class='vertical-center'><img style='vertical-align:center; align:center' src=img/fixation3.jpg></div><div class='cl'><div class='vertical-center'>$3<br>for<br>sure</div></div><div class='cr'><div class='vertical-center'><font style='color:orange'>$17<br>with a<br>50% chance</font></div></div><div class='respDivL'><div class='vertical-center'>(E)</div></div><div class='respDivR'><div class='vertical-center'><font style='color:orange'>(I)</font></div></div></div>","null","$3","$17","0","3","17",""
"","","","FIX","63d9f31dba727de153019798","bdp_rd","Sun Apr 09 2023 19:02:32 GMT-0400 (Eastern Daylight Time)","236162","html-keyboard-response","71","129776","0.0-5.0-1.22","","null","","<div class='trialBorder'><div class='vertical-center'><img style='vertical-align:center; align:center' src=img/fixation3.jpg></div></div>","null","","","","","",""
"","","","offer","63d9f31dba727de153019798","bdp_rd","Sun Apr 09 2023 19:02:32 GMT-0400 (Eastern Daylight Time)","236162","html-keyboard-response","72","131247","0.0-5.0-2.22","","1471","","<div class='trialBorder'><div class='vertical-center'><img style='vertical-align:center; align:center' src=img/fixation3.jpg></div><div class='cl'><div class='vertical-center'>$31<br>for<br>sure</div></div><div class='cr'><div class='vertical-center'>$78<br>with a<br>50% chance</div></div><div class='respDivL'><div class='vertical-center'>(E)</div></div><div class='respDivR'><div class='vertical-center'>(I)</div></div></div>","I","$31","$78","0","31","78","RISKY"
"","","","offerFB","63d9f31dba727de153019798","bdp_rd","Sun Apr 09 2023 19:02:32 GMT-0400 (Eastern Daylight Time)","236162","html-keyboard-response","73","131511","0.0-5.0-3.22","","null","","<div class='trialBorder'><div class='vertical-center'><img style='vertical-align:center; align:center' src=img/fixation3.jpg></div><div class='cl'><div class='vertical-center'>$31<br>for<br>sure</div></div><div class='cr'><div class='vertical-center'><font style='color:orange'>$78<br>with a<br>50% chance</font></div></div><div class='respDivL'><div class='vertical-center'>(E)</div></div><div class='respDivR'><div class='vertical-center'><font style='color:orange'>(I)</font></div></div></div>","null","$31","$78","0","31","78",""
"","","","FIX","63d9f31dba727de153019798","bdp_rd","Sun Apr 09 2023 19:02:32 GMT-0400 (Eastern Daylight Time)","236162","html-keyboard-response","74","132012","0.0-5.0-1.23","","null","","<div class='trialBorder'><div class='vertical-center'><img style='vertical-align:center; align:center' src=img/fixation3.jpg></div></div>","null","","","","","",""
"","","","offer","63d9f31dba727de153019798","bdp_rd","Sun Apr 09 2023 19:02:32 GMT-0400 (Eastern Daylight Time)","236162","html-keyboard-response","75","133952","0.0-5.0-2.23","","1938","","<div class='trialBorder'><div class='vertical-center'><img style='vertical-align:center; align:center' src=img/fixation3.jpg></div><div class='cl'><div class='vertical-center'>$6<br>for<br>sure</div></div><div class='cr'><div class='vertical-center'>$15<br>with a<br>50% chance</div></div><div class='respDivL'><div class='vertical-center'>(E)</div></div><div class='respDivR'><div class='vertical-center'>(I)</div></div></div>","I","$6","$15","0","6","15","RISKY"
"","","","offerFB","63d9f31dba727de153019798","bdp_rd","Sun Apr 09 2023 19:02:32 GMT-0400 (Eastern Daylight Time)","236162","html-keyboard-response","76","134203","0.0-5.0-3.23","","null","","<div class='trialBorder'><div class='vertical-center'><img style='vertical-align:center; align:center' src=img/fixation3.jpg></div><div class='cl'><div class='vertical-center'>$6<br>for<br>sure</div></div><div class='cr'><div class='vertical-center'><font style='color:orange'>$15<br>with a<br>50% chance</font></div></div><div class='respDivL'><div class='vertical-center'>(E)</div></div><div class='respDivR'><div class='vertical-center'><font style='color:orange'>(I)</font></div></div></div>","null","$6","$15","0","6","15",""
"","","","FIX","63d9f31dba727de153019798","bdp_rd","Sun Apr 09 2023 19:02:32 GMT-0400 (Eastern Daylight Time)","236162","html-keyboard-response","77","134704","0.0-5.0-1.24","","null","","<div class='trialBorder'><div class='vertical-center'><img style='vertical-align:center; align:center' src=img/fixation3.jpg></div></div>","null","","","","","",""
"","","","offer","63d9f31dba727de153019798","bdp_rd","Sun Apr 09 2023 19:02:32 GMT-0400 (Eastern Daylight Time)","236162","html-keyboard-response","78","137639","0.0-5.0-2.24","","2934","","<div class='trialBorder'><div class='vertical-center'><img style='vertical-align:center; align:center' src=img/fixation3.jpg></div><div class='cl'><div class='vertical-center'>$45<br>for<br>sure</div></div><div class='cr'><div class='vertical-center'>$86<br>with a<br>50% chance</div></div><div class='respDivL'><div class='vertical-center'>(E)</div></div><div class='respDivR'><div class='vertical-center'>(I)</div></div></div>","E","$45","$86","0","45","86","SURE"
"","","","offerFB","63d9f31dba727de153019798","bdp_rd","Sun Apr 09 2023 19:02:32 GMT-0400 (Eastern Daylight Time)","236162","html-keyboard-response","79","137897","0.0-5.0-3.24","","null","","<div class='trialBorder'><div class='vertical-center'><img style='vertical-align:center; align:center' src=img/fixation3.jpg></div><div class='cl'><div class='vertical-center'><font style='color:orange'>$45<br>for<br>sure</font></div></div><div class='cr'><div class='vertical-center'>$86<br>with a<br>50% chance</div></div><div class='respDivL'><div class='vertical-center'><font style='color:orange'>(E)</font></div></div><div class='respDivR'><div class='vertical-center'>(I)</div></div></div>","null","$45","$86","0","45","86",""
"","","","FIX","63d9f31dba727de153019798","bdp_rd","Sun Apr 09 2023 19:02:32 GMT-0400 (Eastern Daylight Time)","236162","html-keyboard-response","80","138398","0.0-5.0-1.25","","null","","<div class='trialBorder'><div class='vertical-center'><img style='vertical-align:center; align:center' src=img/fixation3.jpg></div></div>","null","","","","","",""
"","","","offer","63d9f31dba727de153019798","bdp_rd","Sun Apr 09 2023 19:02:32 GMT-0400 (Eastern Daylight Time)","236162","html-keyboard-response","81","140255","0.0-5.0-2.25","","1856","","<div class='trialBorder'><div class='vertical-center'><img style='vertical-align:center; align:center' src=img/fixation3.jpg></div><div class='cl'><div class='vertical-center'>$16<br>for<br>sure</div></div><div class='cr'><div class='vertical-center'>$38<br>with a<br>50% chance</div></div><div class='respDivL'><div class='vertical-center'>(E)</div></div><div class='respDivR'><div class='vertical-center'>(I)</div></div></div>","I","$16","$38","0","16","38","RISKY"
"","","","offerFB","63d9f31dba727de153019798","bdp_rd","Sun Apr 09 2023 19:02:32 GMT-0400 (Eastern Daylight Time)","236162","html-keyboard-response","82","140519","0.0-5.0-3.25","","null","","<div class='trialBorder'><div class='vertical-center'><img style='vertical-align:center; align:center' src=img/fixation3.jpg></div><div class='cl'><div class='vertical-center'>$16<br>for<br>sure</div></div><div class='cr'><div class='vertical-center'><font style='color:orange'>$38<br>with a<br>50% chance</font></div></div><div class='respDivL'><div class='vertical-center'>(E)</div></div><div class='respDivR'><div class='vertical-center'><font style='color:orange'>(I)</font></div></div></div>","null","$16","$38","0","16","38",""
"","","","FIX","63d9f31dba727de153019798","bdp_rd","Sun Apr 09 2023 19:02:32 GMT-0400 (Eastern Daylight Time)","236162","html-keyboard-response","83","141021","0.0-5.0-1.26","","null","","<div class='trialBorder'><div class='vertical-center'><img style='vertical-align:center; align:center' src=img/fixation3.jpg></div></div>","null","","","","","",""
"","","","offer","63d9f31dba727de153019798","bdp_rd","Sun Apr 09 2023 19:02:32 GMT-0400 (Eastern Daylight Time)","236162","html-keyboard-response","84","142967","0.0-5.0-2.26","","1945","","<div class='trialBorder'><div class='vertical-center'><img style='vertical-align:center; align:center' src=img/fixation3.jpg></div><div class='cl'><div class='vertical-center'>$13<br>with a<br>50% chance</div></div><div class='cr'><div class='vertical-center'>$6<br>for<br>sure</div></div><div class='respDivL'><div class='vertical-center'>(E)</div></div><div class='respDivR'><div class='vertical-center'>(I)</div></div></div>","I","$6","$13","1","6","13","SURE"
"","","","offerFB","63d9f31dba727de153019798","bdp_rd","Sun Apr 09 2023 19:02:32 GMT-0400 (Eastern Daylight Time)","236162","html-keyboard-response","85","143226","0.0-5.0-3.26","","null","","<div class='trialBorder'><div class='vertical-center'><img style='vertical-align:center; align:center' src=img/fixation3.jpg></div><div class='cl'><div class='vertical-center'>$13<br>with a<br>50% chance</div></div><div class='cr'><div class='vertical-center'><font style='color:orange'>$6<br>for<br>sure</font></div></div><div class='respDivL'><div class='vertical-center'>(E)</div></div><div class='respDivR'><div class='vertical-center'><font style='color:orange'>(I)</font></div></div></div>","null","$6","$13","1","6","13",""
"","","","FIX","63d9f31dba727de153019798","bdp_rd","Sun Apr 09 2023 19:02:32 GMT-0400 (Eastern Daylight Time)","236162","html-keyboard-response","86","143728","0.0-5.0-1.27","","null","","<div class='trialBorder'><div class='vertical-center'><img style='vertical-align:center; align:center' src=img/fixation3.jpg></div></div>","null","","","","","",""
"","","","offer","63d9f31dba727de153019798","bdp_rd","Sun Apr 09 2023 19:02:32 GMT-0400 (Eastern Daylight Time)","236162","html-keyboard-response","87","145976","0.0-5.0-2.27","","2248","","<div class='trialBorder'><div class='vertical-center'><img style='vertical-align:center; align:center' src=img/fixation3.jpg></div><div class='cl'><div class='vertical-center'>$12<br>for<br>sure</div></div><div class='cr'><div class='vertical-center'>$27<br>with a<br>50% chance</div></div><div class='respDivL'><div class='vertical-center'>(E)</div></div><div class='respDivR'><div class='vertical-center'>(I)</div></div></div>","E","$12","$27","0","12","27","SURE"
"","","","offerFB","63d9f31dba727de153019798","bdp_rd","Sun Apr 09 2023 19:02:32 GMT-0400 (Eastern Daylight Time)","236162","html-keyboard-response","88","146234","0.0-5.0-3.27","","null","","<div class='trialBorder'><div class='vertical-center'><img style='vertical-align:center; align:center' src=img/fixation3.jpg></div><div class='cl'><div class='vertical-center'><font style='color:orange'>$12<br>for<br>sure</font></div></div><div class='cr'><div class='vertical-center'>$27<br>with a<br>50% chance</div></div><div class='respDivL'><div class='vertical-center'><font style='color:orange'>(E)</font></div></div><div class='respDivR'><div class='vertical-center'>(I)</div></div></div>","null","$12","$27","0","12","27",""
"","","","FIX","63d9f31dba727de153019798","bdp_rd","Sun Apr 09 2023 19:02:32 GMT-0400 (Eastern Daylight Time)","236162","html-keyboard-response","89","146736","0.0-5.0-1.28","","null","","<div class='trialBorder'><div class='vertical-center'><img style='vertical-align:center; align:center' src=img/fixation3.jpg></div></div>","null","","","","","",""
"","","","offer","63d9f31dba727de153019798","bdp_rd","Sun Apr 09 2023 19:02:32 GMT-0400 (Eastern Daylight Time)","236162","html-keyboard-response","90","148143","0.0-5.0-2.28","","1407","","<div class='trialBorder'><div class='vertical-center'><img style='vertical-align:center; align:center' src=img/fixation3.jpg></div><div class='cl'><div class='vertical-center'>$2<br>for<br>sure</div></div><div class='cr'><div class='vertical-center'>$21<br>with a<br>50% chance</div></div><div class='respDivL'><div class='vertical-center'>(E)</div></div><div class='respDivR'><div class='vertical-center'>(I)</div></div></div>","I","$2","$21","0","2","21","RISKY"
"","","","offerFB","63d9f31dba727de153019798","bdp_rd","Sun Apr 09 2023 19:02:32 GMT-0400 (Eastern Daylight Time)","236162","html-keyboard-response","91","148395","0.0-5.0-3.28","","null","","<div class='trialBorder'><div class='vertical-center'><img style='vertical-align:center; align:center' src=img/fixation3.jpg></div><div class='cl'><div class='vertical-center'>$2<br>for<br>sure</div></div><div class='cr'><div class='vertical-center'><font style='color:orange'>$21<br>with a<br>50% chance</font></div></div><div class='respDivL'><div class='vertical-center'>(E)</div></div><div class='respDivR'><div class='vertical-center'><font style='color:orange'>(I)</font></div></div></div>","null","$2","$21","0","2","21",""
"","","","FIX","63d9f31dba727de153019798","bdp_rd","Sun Apr 09 2023 19:02:32 GMT-0400 (Eastern Daylight Time)","236162","html-keyboard-response","92","148896","0.0-5.0-1.29","","null","","<div class='trialBorder'><div class='vertical-center'><img style='vertical-align:center; align:center' src=img/fixation3.jpg></div></div>","null","","","","","",""
"","","","offer","63d9f31dba727de153019798","bdp_rd","Sun Apr 09 2023 19:02:32 GMT-0400 (Eastern Daylight Time)","236162","html-keyboard-response","93","152055","0.0-5.0-2.29","","3159","","<div class='trialBorder'><div class='vertical-center'><img style='vertical-align:center; align:center' src=img/fixation3.jpg></div><div class='cl'><div class='vertical-center'>$10<br>with a<br>50% chance</div></div><div class='cr'><div class='vertical-center'>$7<br>for<br>sure</div></div><div class='respDivL'><div class='vertical-center'>(E)</div></div><div class='respDivR'><div class='vertical-center'>(I)</div></div></div>","I","$7","$10","1","7","10","SURE"
"","","","offerFB","63d9f31dba727de153019798","bdp_rd","Sun Apr 09 2023 19:02:32 GMT-0400 (Eastern Daylight Time)","236162","html-keyboard-response","94","152320","0.0-5.0-3.29","","null","","<div class='trialBorder'><div class='vertical-center'><img style='vertical-align:center; align:center' src=img/fixation3.jpg></div><div class='cl'><div class='vertical-center'>$10<br>with a<br>50% chance</div></div><div class='cr'><div class='vertical-center'><font style='color:orange'>$7<br>for<br>sure</font></div></div><div class='respDivL'><div class='vertical-center'>(E)</div></div><div class='respDivR'><div class='vertical-center'><font style='color:orange'>(I)</font></div></div></div>","null","$7","$10","1","7","10",""
"","","","FIX","63d9f31dba727de153019798","bdp_rd","Sun Apr 09 2023 19:02:32 GMT-0400 (Eastern Daylight Time)","236162","html-keyboard-response","95","152822","0.0-5.0-1.30","","null","","<div class='trialBorder'><div class='vertical-center'><img style='vertical-align:center; align:center' src=img/fixation3.jpg></div></div>","null","","","","","",""
"","","","offer","63d9f31dba727de153019798","bdp_rd","Sun Apr 09 2023 19:02:32 GMT-0400 (Eastern Daylight Time)","236162","html-keyboard-response","96","154567","0.0-5.0-2.30","","1745","","<div class='trialBorder'><div class='vertical-center'><img style='vertical-align:center; align:center' src=img/fixation3.jpg></div><div class='cl'><div class='vertical-center'>$9<br>for<br>sure</div></div><div class='cr'><div class='vertical-center'>$18<br>with a<br>50% chance</div></div><div class='respDivL'><div class='vertical-center'>(E)</div></div><div class='respDivR'><div class='vertical-center'>(I)</div></div></div>","E","$9","$18","0","9","18","SURE"
"","","","offerFB","63d9f31dba727de153019798","bdp_rd","Sun Apr 09 2023 19:02:32 GMT-0400 (Eastern Daylight Time)","236162","html-keyboard-response","97","154827","0.0-5.0-3.30","","null","","<div class='trialBorder'><div class='vertical-center'><img style='vertical-align:center; align:center' src=img/fixation3.jpg></div><div class='cl'><div class='vertical-center'><font style='color:orange'>$9<br>for<br>sure</font></div></div><div class='cr'><div class='vertical-center'>$18<br>with a<br>50% chance</div></div><div class='respDivL'><div class='vertical-center'><font style='color:orange'>(E)</font></div></div><div class='respDivR'><div class='vertical-center'>(I)</div></div></div>","null","$9","$18","0","9","18",""
"","","","FIX","63d9f31dba727de153019798","bdp_rd","Sun Apr 09 2023 19:02:32 GMT-0400 (Eastern Daylight Time)","236162","html-keyboard-response","98","155328","0.0-5.0-1.31","","null","","<div class='trialBorder'><div class='vertical-center'><img style='vertical-align:center; align:center' src=img/fixation3.jpg></div></div>","null","","","","","",""
"","","","offer","63d9f31dba727de153019798","bdp_rd","Sun Apr 09 2023 19:02:32 GMT-0400 (Eastern Daylight Time)","236162","html-keyboard-response","99","157375","0.0-5.0-2.31","","2047","","<div class='trialBorder'><div class='vertical-center'><img style='vertical-align:center; align:center' src=img/fixation3.jpg></div><div class='cl'><div class='vertical-center'>$24<br>with a<br>50% chance</div></div><div class='cr'><div class='vertical-center'>$13<br>for<br>sure</div></div><div class='respDivL'><div class='vertical-center'>(E)</div></div><div class='respDivR'><div class='vertical-center'>(I)</div></div></div>","E","$13","$24","1","13","24","RISKY"
"","","","offerFB","63d9f31dba727de153019798","bdp_rd","Sun Apr 09 2023 19:02:32 GMT-0400 (Eastern Daylight Time)","236162","html-keyboard-response","100","157634","0.0-5.0-3.31","","null","","<div class='trialBorder'><div class='vertical-center'><img style='vertical-align:center; align:center' src=img/fixation3.jpg></div><div class='cl'><div class='vertical-center'><font style='color:orange'>$24<br>with a<br>50% chance</font></div></div><div class='cr'><div class='vertical-center'>$13<br>for<br>sure</div></div><div class='respDivL'><div class='vertical-center'><font style='color:orange'>(E)</font></div></div><div class='respDivR'><div class='vertical-center'>(I)</div></div></div>","null","$13","$24","1","13","24",""
"","","","FIX","63d9f31dba727de153019798","bdp_rd","Sun Apr 09 2023 19:02:32 GMT-0400 (Eastern Daylight Time)","236162","html-keyboard-response","101","158135","0.0-5.0-1.32","","null","","<div class='trialBorder'><div class='vertical-center'><img style='vertical-align:center; align:center' src=img/fixation3.jpg></div></div>","null","","","","","",""
"","","","offer","63d9f31dba727de153019798","bdp_rd","Sun Apr 09 2023 19:02:32 GMT-0400 (Eastern Daylight Time)","236162","html-keyboard-response","102","161072","0.0-5.0-2.32","","2935","","<div class='trialBorder'><div class='vertical-center'><img style='vertical-align:center; align:center' src=img/fixation3.jpg></div><div class='cl'><div class='vertical-center'>$18<br>for<br>sure</div></div><div class='cr'><div class='vertical-center'>$39<br>with a<br>50% chance</div></div><div class='respDivL'><div class='vertical-center'>(E)</div></div><div class='respDivR'><div class='vertical-center'>(I)</div></div></div>","E","$18","$39","0","18","39","SURE"
"","","","offerFB","63d9f31dba727de153019798","bdp_rd","Sun Apr 09 2023 19:02:32 GMT-0400 (Eastern Daylight Time)","236162","html-keyboard-response","103","161329","0.0-5.0-3.32","","null","","<div class='trialBorder'><div class='vertical-center'><img style='vertical-align:center; align:center' src=img/fixation3.jpg></div><div class='cl'><div class='vertical-center'><font style='color:orange'>$18<br>for<br>sure</font></div></div><div class='cr'><div class='vertical-center'>$39<br>with a<br>50% chance</div></div><div class='respDivL'><div class='vertical-center'><font style='color:orange'>(E)</font></div></div><div class='respDivR'><div class='vertical-center'>(I)</div></div></div>","null","$18","$39","0","18","39",""
"","","","FIX","63d9f31dba727de153019798","bdp_rd","Sun Apr 09 2023 19:02:32 GMT-0400 (Eastern Daylight Time)","236162","html-keyboard-response","104","161830","0.0-5.0-1.33","","null","","<div class='trialBorder'><div class='vertical-center'><img style='vertical-align:center; align:center' src=img/fixation3.jpg></div></div>","null","","","","","",""
"","","","offer","63d9f31dba727de153019798","bdp_rd","Sun Apr 09 2023 19:02:32 GMT-0400 (Eastern Daylight Time)","236162","html-keyboard-response","105","163280","0.0-5.0-2.33","","1449","","<div class='trialBorder'><div class='vertical-center'><img style='vertical-align:center; align:center' src=img/fixation3.jpg></div><div class='cl'><div class='vertical-center'>$33<br>with a<br>50% chance</div></div><div class='cr'><div class='vertical-center'>$1<br>for<br>sure</div></div><div class='respDivL'><div class='vertical-center'>(E)</div></div><div class='respDivR'><div class='vertical-center'>(I)</div></div></div>","E","$1","$33","1","1","33","RISKY"
"","","","offerFB","63d9f31dba727de153019798","bdp_rd","Sun Apr 09 2023 19:02:32 GMT-0400 (Eastern Daylight Time)","236162","html-keyboard-response","106","163534","0.0-5.0-3.33","","null","","<div class='trialBorder'><div class='vertical-center'><img style='vertical-align:center; align:center' src=img/fixation3.jpg></div><div class='cl'><div class='vertical-center'><font style='color:orange'>$33<br>with a<br>50% chance</font></div></div><div class='cr'><div class='vertical-center'>$1<br>for<br>sure</div></div><div class='respDivL'><div class='vertical-center'><font style='color:orange'>(E)</font></div></div><div class='respDivR'><div class='vertical-center'>(I)</div></div></div>","null","$1","$33","1","1","33",""
"","","","FIX","63d9f31dba727de153019798","bdp_rd","Sun Apr 09 2023 19:02:32 GMT-0400 (Eastern Daylight Time)","236162","html-keyboard-response","107","164036","0.0-5.0-1.34","","null","","<div class='trialBorder'><div class='vertical-center'><img style='vertical-align:center; align:center' src=img/fixation3.jpg></div></div>","null","","","","","",""
"","","","offer","63d9f31dba727de153019798","bdp_rd","Sun Apr 09 2023 19:02:32 GMT-0400 (Eastern Daylight Time)","236162","html-keyboard-response","108","166432","0.0-5.0-2.34","","2396","","<div class='trialBorder'><div class='vertical-center'><img style='vertical-align:center; align:center' src=img/fixation3.jpg></div><div class='cl'><div class='vertical-center'>$98<br>with a<br>50% chance</div></div><div class='cr'><div class='vertical-center'>$53<br>for<br>sure</div></div><div class='respDivL'><div class='vertical-center'>(E)</div></div><div class='respDivR'><div class='vertical-center'>(I)</div></div></div>","I","$53","$98","1","53","98","SURE"
"","","","offerFB","63d9f31dba727de153019798","bdp_rd","Sun Apr 09 2023 19:02:32 GMT-0400 (Eastern Daylight Time)","236162","html-keyboard-response","109","166689","0.0-5.0-3.34","","null","","<div class='trialBorder'><div class='vertical-center'><img style='vertical-align:center; align:center' src=img/fixation3.jpg></div><div class='cl'><div class='vertical-center'>$98<br>with a<br>50% chance</div></div><div class='cr'><div class='vertical-center'><font style='color:orange'>$53<br>for<br>sure</font></div></div><div class='respDivL'><div class='vertical-center'>(E)</div></div><div class='respDivR'><div class='vertical-center'><font style='color:orange'>(I)</font></div></div></div>","null","$53","$98","1","53","98",""
"","","","FIX","63d9f31dba727de153019798","bdp_rd","Sun Apr 09 2023 19:02:32 GMT-0400 (Eastern Daylight Time)","236162","html-keyboard-response","110","167190","0.0-5.0-1.35","","null","","<div class='trialBorder'><div class='vertical-center'><img style='vertical-align:center; align:center' src=img/fixation3.jpg></div></div>","null","","","","","",""
"","","","offer","63d9f31dba727de153019798","bdp_rd","Sun Apr 09 2023 19:02:32 GMT-0400 (Eastern Daylight Time)","236162","html-keyboard-response","111","168856","0.0-5.0-2.35","","1666","","<div class='trialBorder'><div class='vertical-center'><img style='vertical-align:center; align:center' src=img/fixation3.jpg></div><div class='cl'><div class='vertical-center'>$8<br>for<br>sure</div></div><div class='cr'><div class='vertical-center'>$45<br>with a<br>50% chance</div></div><div class='respDivL'><div class='vertical-center'>(E)</div></div><div class='respDivR'><div class='vertical-center'>(I)</div></div></div>","I","$8","$45","0","8","45","RISKY"
"","","","offerFB","63d9f31dba727de153019798","bdp_rd","Sun Apr 09 2023 19:02:32 GMT-0400 (Eastern Daylight Time)","236162","html-keyboard-response","112","169111","0.0-5.0-3.35","","null","","<div class='trialBorder'><div class='vertical-center'><img style='vertical-align:center; align:center' src=img/fixation3.jpg></div><div class='cl'><div class='vertical-center'>$8<br>for<br>sure</div></div><div class='cr'><div class='vertical-center'><font style='color:orange'>$45<br>with a<br>50% chance</font></div></div><div class='respDivL'><div class='vertical-center'>(E)</div></div><div class='respDivR'><div class='vertical-center'><font style='color:orange'>(I)</font></div></div></div>","null","$8","$45","0","8","45",""
"","","","FIX","63d9f31dba727de153019798","bdp_rd","Sun Apr 09 2023 19:02:32 GMT-0400 (Eastern Daylight Time)","236162","html-keyboard-response","113","169612","0.0-5.0-1.36","","null","","<div class='trialBorder'><div class='vertical-center'><img style='vertical-align:center; align:center' src=img/fixation3.jpg></div></div>","null","","","","","",""
"","","","offer","63d9f31dba727de153019798","bdp_rd","Sun Apr 09 2023 19:02:32 GMT-0400 (Eastern Daylight Time)","236162","html-keyboard-response","114","171904","0.0-5.0-2.36","","2291","","<div class='trialBorder'><div class='vertical-center'><img style='vertical-align:center; align:center' src=img/fixation3.jpg></div><div class='cl'><div class='vertical-center'>$46<br>with a<br>50% chance</div></div><div class='cr'><div class='vertical-center'>$29<br>for<br>sure</div></div><div class='respDivL'><div class='vertical-center'>(E)</div></div><div class='respDivR'><div class='vertical-center'>(I)</div></div></div>","E","$29","$46","1","29","46","RISKY"
"","","","offerFB","63d9f31dba727de153019798","bdp_rd","Sun Apr 09 2023 19:02:32 GMT-0400 (Eastern Daylight Time)","236162","html-keyboard-response","115","172157","0.0-5.0-3.36","","null","","<div class='trialBorder'><div class='vertical-center'><img style='vertical-align:center; align:center' src=img/fixation3.jpg></div><div class='cl'><div class='vertical-center'><font style='color:orange'>$46<br>with a<br>50% chance</font></div></div><div class='cr'><div class='vertical-center'>$29<br>for<br>sure</div></div><div class='respDivL'><div class='vertical-center'><font style='color:orange'>(E)</font></div></div><div class='respDivR'><div class='vertical-center'>(I)</div></div></div>","null","$29","$46","1","29","46",""
"","","","FIX","63d9f31dba727de153019798","bdp_rd","Sun Apr 09 2023 19:02:32 GMT-0400 (Eastern Daylight Time)","236162","html-keyboard-response","116","172657","0.0-5.0-1.37","","null","","<div class='trialBorder'><div class='vertical-center'><img style='vertical-align:center; align:center' src=img/fixation3.jpg></div></div>","null","","","","","",""
"","","","offer","63d9f31dba727de153019798","bdp_rd","Sun Apr 09 2023 19:02:32 GMT-0400 (Eastern Daylight Time)","236162","html-keyboard-response","117","174447","0.0-5.0-2.37","","1789","","<div class='trialBorder'><div class='vertical-center'><img style='vertical-align:center; align:center' src=img/fixation3.jpg></div><div class='cl'><div class='vertical-center'>$41<br>with a<br>50% chance</div></div><div class='cr'><div class='vertical-center'>$13<br>for<br>sure</div></div><div class='respDivL'><div class='vertical-center'>(E)</div></div><div class='respDivR'><div class='vertical-center'>(I)</div></div></div>","E","$13","$41","1","13","41","RISKY"
"","","","offerFB","63d9f31dba727de153019798","bdp_rd","Sun Apr 09 2023 19:02:32 GMT-0400 (Eastern Daylight Time)","236162","html-keyboard-response","118","174709","0.0-5.0-3.37","","null","","<div class='trialBorder'><div class='vertical-center'><img style='vertical-align:center; align:center' src=img/fixation3.jpg></div><div class='cl'><div class='vertical-center'><font style='color:orange'>$41<br>with a<br>50% chance</font></div></div><div class='cr'><div class='vertical-center'>$13<br>for<br>sure</div></div><div class='respDivL'><div class='vertical-center'><font style='color:orange'>(E)</font></div></div><div class='respDivR'><div class='vertical-center'>(I)</div></div></div>","null","$13","$41","1","13","41",""
"","","","FIX","63d9f31dba727de153019798","bdp_rd","Sun Apr 09 2023 19:02:32 GMT-0400 (Eastern Daylight Time)","236162","html-keyboard-response","119","175211","0.0-5.0-1.38","","null","","<div class='trialBorder'><div class='vertical-center'><img style='vertical-align:center; align:center' src=img/fixation3.jpg></div></div>","null","","","","","",""
"","","","offer","63d9f31dba727de153019798","bdp_rd","Sun Apr 09 2023 19:02:32 GMT-0400 (Eastern Daylight Time)","236162","html-keyboard-response","120","177143","0.0-5.0-2.38","","1932","","<div class='trialBorder'><div class='vertical-center'><img style='vertical-align:center; align:center' src=img/fixation3.jpg></div><div class='cl'><div class='vertical-center'>$25<br>for<br>sure</div></div><div class='cr'><div class='vertical-center'>$54<br>with a<br>50% chance</div></div><div class='respDivL'><div class='vertical-center'>(E)</div></div><div class='respDivR'><div class='vertical-center'>(I)</div></div></div>","I","$25","$54","0","25","54","RISKY"
"","","","offerFB","63d9f31dba727de153019798","bdp_rd","Sun Apr 09 2023 19:02:32 GMT-0400 (Eastern Daylight Time)","236162","html-keyboard-response","121","177401","0.0-5.0-3.38","","null","","<div class='trialBorder'><div class='vertical-center'><img style='vertical-align:center; align:center' src=img/fixation3.jpg></div><div class='cl'><div class='vertical-center'>$25<br>for<br>sure</div></div><div class='cr'><div class='vertical-center'><font style='color:orange'>$54<br>with a<br>50% chance</font></div></div><div class='respDivL'><div class='vertical-center'>(E)</div></div><div class='respDivR'><div class='vertical-center'><font style='color:orange'>(I)</font></div></div></div>","null","$25","$54","0","25","54",""
"","","","FIX","63d9f31dba727de153019798","bdp_rd","Sun Apr 09 2023 19:02:32 GMT-0400 (Eastern Daylight Time)","236162","html-keyboard-response","122","177902","0.0-5.0-1.39","","null","","<div class='trialBorder'><div class='vertical-center'><img style='vertical-align:center; align:center' src=img/fixation3.jpg></div></div>","null","","","","","",""
"","","","offer","63d9f31dba727de153019798","bdp_rd","Sun Apr 09 2023 19:02:32 GMT-0400 (Eastern Daylight Time)","236162","html-keyboard-response","123","179848","0.0-5.0-2.39","","1944","","<div class='trialBorder'><div class='vertical-center'><img style='vertical-align:center; align:center' src=img/fixation3.jpg></div><div class='cl'><div class='vertical-center'>$17<br>for<br>sure</div></div><div class='cr'><div class='vertical-center'>$43<br>with a<br>50% chance</div></div><div class='respDivL'><div class='vertical-center'>(E)</div></div><div class='respDivR'><div class='vertical-center'>(I)</div></div></div>","I","$17","$43","0","17","43","RISKY"
"","","","offerFB","63d9f31dba727de153019798","bdp_rd","Sun Apr 09 2023 19:02:32 GMT-0400 (Eastern Daylight Time)","236162","html-keyboard-response","124","180108","0.0-5.0-3.39","","null","","<div class='trialBorder'><div class='vertical-center'><img style='vertical-align:center; align:center' src=img/fixation3.jpg></div><div class='cl'><div class='vertical-center'>$17<br>for<br>sure</div></div><div class='cr'><div class='vertical-center'><font style='color:orange'>$43<br>with a<br>50% chance</font></div></div><div class='respDivL'><div class='vertical-center'>(E)</div></div><div class='respDivR'><div class='vertical-center'><font style='color:orange'>(I)</font></div></div></div>","null","$17","$43","0","17","43",""
"","","","FIX","63d9f31dba727de153019798","bdp_rd","Sun Apr 09 2023 19:02:32 GMT-0400 (Eastern Daylight Time)","236162","html-keyboard-response","125","180609","0.0-5.0-1.40","","null","","<div class='trialBorder'><div class='vertical-center'><img style='vertical-align:center; align:center' src=img/fixation3.jpg></div></div>","null","","","","","",""
"","","","offer","63d9f31dba727de153019798","bdp_rd","Sun Apr 09 2023 19:02:32 GMT-0400 (Eastern Daylight Time)","236162","html-keyboard-response","126","182607","0.0-5.0-2.40","","1997","","<div class='trialBorder'><div class='vertical-center'><img style='vertical-align:center; align:center' src=img/fixation3.jpg></div><div class='cl'><div class='vertical-center'>$62<br>with a<br>50% chance</div></div><div class='cr'><div class='vertical-center'>$11<br>for<br>sure</div></div><div class='respDivL'><div class='vertical-center'>(E)</div></div><div class='respDivR'><div class='vertical-center'>(I)</div></div></div>","E","$11","$62","1","11","62","RISKY"
"","","","offerFB","63d9f31dba727de153019798","bdp_rd","Sun Apr 09 2023 19:02:32 GMT-0400 (Eastern Daylight Time)","236162","html-keyboard-response","127","182862","0.0-5.0-3.40","","null","","<div class='trialBorder'><div class='vertical-center'><img style='vertical-align:center; align:center' src=img/fixation3.jpg></div><div class='cl'><div class='vertical-center'><font style='color:orange'>$62<br>with a<br>50% chance</font></div></div><div class='cr'><div class='vertical-center'>$11<br>for<br>sure</div></div><div class='respDivL'><div class='vertical-center'><font style='color:orange'>(E)</font></div></div><div class='respDivR'><div class='vertical-center'>(I)</div></div></div>","null","$11","$62","1","11","62",""
"","","","FIX","63d9f31dba727de153019798","bdp_rd","Sun Apr 09 2023 19:02:32 GMT-0400 (Eastern Daylight Time)","236162","html-keyboard-response","128","183363","0.0-5.0-1.41","","null","","<div class='trialBorder'><div class='vertical-center'><img style='vertical-align:center; align:center' src=img/fixation3.jpg></div></div>","null","","","","","",""
"","","","offer","63d9f31dba727de153019798","bdp_rd","Sun Apr 09 2023 19:02:32 GMT-0400 (Eastern Daylight Time)","236162","html-keyboard-response","129","186296","0.0-5.0-2.41","","2931","","<div class='trialBorder'><div class='vertical-center'><img style='vertical-align:center; align:center' src=img/fixation3.jpg></div><div class='cl'><div class='vertical-center'>$95<br>with a<br>50% chance</div></div><div class='cr'><div class='vertical-center'>$40<br>for<br>sure</div></div><div class='respDivL'><div class='vertical-center'>(E)</div></div><div class='respDivR'><div class='vertical-center'>(I)</div></div></div>","I","$40","$95","1","40","95","SURE"
"","","","offerFB","63d9f31dba727de153019798","bdp_rd","Sun Apr 09 2023 19:02:32 GMT-0400 (Eastern Daylight Time)","236162","html-keyboard-response","130","186556","0.0-5.0-3.41","","null","","<div class='trialBorder'><div class='vertical-center'><img style='vertical-align:center; align:center' src=img/fixation3.jpg></div><div class='cl'><div class='vertical-center'>$95<br>with a<br>50% chance</div></div><div class='cr'><div class='vertical-center'><font style='color:orange'>$40<br>for<br>sure</font></div></div><div class='respDivL'><div class='vertical-center'>(E)</div></div><div class='respDivR'><div class='vertical-center'><font style='color:orange'>(I)</font></div></div></div>","null","$40","$95","1","40","95",""
"","","","FIX","63d9f31dba727de153019798","bdp_rd","Sun Apr 09 2023 19:02:32 GMT-0400 (Eastern Daylight Time)","236162","html-keyboard-response","131","187057","0.0-5.0-1.42","","null","","<div class='trialBorder'><div class='vertical-center'><img style='vertical-align:center; align:center' src=img/fixation3.jpg></div></div>","null","","","","","",""
"","","","offer","63d9f31dba727de153019798","bdp_rd","Sun Apr 09 2023 19:02:32 GMT-0400 (Eastern Daylight Time)","236162","html-keyboard-response","132","188607","0.0-5.0-2.42","","1549","","<div class='trialBorder'><div class='vertical-center'><img style='vertical-align:center; align:center' src=img/fixation3.jpg></div><div class='cl'><div class='vertical-center'>$40<br>with a<br>50% chance</div></div><div class='cr'><div class='vertical-center'>$10<br>for<br>sure</div></div><div class='respDivL'><div class='vertical-center'>(E)</div></div><div class='respDivR'><div class='vertical-center'>(I)</div></div></div>","E","$10","$40","1","10","40","RISKY"
"","","","offerFB","63d9f31dba727de153019798","bdp_rd","Sun Apr 09 2023 19:02:32 GMT-0400 (Eastern Daylight Time)","236162","html-keyboard-response","133","188862","0.0-5.0-3.42","","null","","<div class='trialBorder'><div class='vertical-center'><img style='vertical-align:center; align:center' src=img/fixation3.jpg></div><div class='cl'><div class='vertical-center'><font style='color:orange'>$40<br>with a<br>50% chance</font></div></div><div class='cr'><div class='vertical-center'>$10<br>for<br>sure</div></div><div class='respDivL'><div class='vertical-center'><font style='color:orange'>(E)</font></div></div><div class='respDivR'><div class='vertical-center'>(I)</div></div></div>","null","$10","$40","1","10","40",""
"","","","FIX","63d9f31dba727de153019798","bdp_rd","Sun Apr 09 2023 19:02:32 GMT-0400 (Eastern Daylight Time)","236162","html-keyboard-response","134","189364","0.0-5.0-1.43","","null","","<div class='trialBorder'><div class='vertical-center'><img style='vertical-align:center; align:center' src=img/fixation3.jpg></div></div>","null","","","","","",""
"","","","offer","63d9f31dba727de153019798","bdp_rd","Sun Apr 09 2023 19:02:32 GMT-0400 (Eastern Daylight Time)","236162","html-keyboard-response","135","190991","0.0-5.0-2.43","","1627","","<div class='trialBorder'><div class='vertical-center'><img style='vertical-align:center; align:center' src=img/fixation3.jpg></div><div class='cl'><div class='vertical-center'>$11<br>for<br>sure</div></div><div class='cr'><div class='vertical-center'>$26<br>with a<br>50% chance</div></div><div class='respDivL'><div class='vertical-center'>(E)</div></div><div class='respDivR'><div class='vertical-center'>(I)</div></div></div>","E","$11","$26","0","11","26","SURE"
"","","","offerFB","63d9f31dba727de153019798","bdp_rd","Sun Apr 09 2023 19:02:32 GMT-0400 (Eastern Daylight Time)","236162","html-keyboard-response","136","191252","0.0-5.0-3.43","","null","","<div class='trialBorder'><div class='vertical-center'><img style='vertical-align:center; align:center' src=img/fixation3.jpg></div><div class='cl'><div class='vertical-center'><font style='color:orange'>$11<br>for<br>sure</font></div></div><div class='cr'><div class='vertical-center'>$26<br>with a<br>50% chance</div></div><div class='respDivL'><div class='vertical-center'><font style='color:orange'>(E)</font></div></div><div class='respDivR'><div class='vertical-center'>(I)</div></div></div>","null","$11","$26","0","11","26",""
"","","","FIX","63d9f31dba727de153019798","bdp_rd","Sun Apr 09 2023 19:02:32 GMT-0400 (Eastern Daylight Time)","236162","html-keyboard-response","137","191754","0.0-5.0-1.44","","null","","<div class='trialBorder'><div class='vertical-center'><img style='vertical-align:center; align:center' src=img/fixation3.jpg></div></div>","null","","","","","",""
"","","","offer","63d9f31dba727de153019798","bdp_rd","Sun Apr 09 2023 19:02:32 GMT-0400 (Eastern Daylight Time)","236162","html-keyboard-response","138","193407","0.0-5.0-2.44","","1653","","<div class='trialBorder'><div class='vertical-center'><img style='vertical-align:center; align:center' src=img/fixation3.jpg></div><div class='cl'><div class='vertical-center'>$5<br>for<br>sure</div></div><div class='cr'><div class='vertical-center'>$16<br>with a<br>50% chance</div></div><div class='respDivL'><div class='vertical-center'>(E)</div></div><div class='respDivR'><div class='vertical-center'>(I)</div></div></div>","E","$5","$16","0","5","16","SURE"
"","","","offerFB","63d9f31dba727de153019798","bdp_rd","Sun Apr 09 2023 19:02:32 GMT-0400 (Eastern Daylight Time)","236162","html-keyboard-response","139","193659","0.0-5.0-3.44","","null","","<div class='trialBorder'><div class='vertical-center'><img style='vertical-align:center; align:center' src=img/fixation3.jpg></div><div class='cl'><div class='vertical-center'><font style='color:orange'>$5<br>for<br>sure</font></div></div><div class='cr'><div class='vertical-center'>$16<br>with a<br>50% chance</div></div><div class='respDivL'><div class='vertical-center'><font style='color:orange'>(E)</font></div></div><div class='respDivR'><div class='vertical-center'>(I)</div></div></div>","null","$5","$16","0","5","16",""
"","","","FIX","63d9f31dba727de153019798","bdp_rd","Sun Apr 09 2023 19:02:32 GMT-0400 (Eastern Daylight Time)","236162","html-keyboard-response","140","194160","0.0-5.0-1.45","","null","","<div class='trialBorder'><div class='vertical-center'><img style='vertical-align:center; align:center' src=img/fixation3.jpg></div></div>","null","","","","","",""
"","","","offer","63d9f31dba727de153019798","bdp_rd","Sun Apr 09 2023 19:02:32 GMT-0400 (Eastern Daylight Time)","236162","html-keyboard-response","141","195783","0.0-5.0-2.45","","1622","","<div class='trialBorder'><div class='vertical-center'><img style='vertical-align:center; align:center' src=img/fixation3.jpg></div><div class='cl'><div class='vertical-center'>$5<br>for<br>sure</div></div><div class='cr'><div class='vertical-center'>$50<br>with a<br>50% chance</div></div><div class='respDivL'><div class='vertical-center'>(E)</div></div><div class='respDivR'><div class='vertical-center'>(I)</div></div></div>","I","$5","$50","0","5","50","RISKY"
"","","","offerFB","63d9f31dba727de153019798","bdp_rd","Sun Apr 09 2023 19:02:32 GMT-0400 (Eastern Daylight Time)","236162","html-keyboard-response","142","196034","0.0-5.0-3.45","","null","","<div class='trialBorder'><div class='vertical-center'><img style='vertical-align:center; align:center' src=img/fixation3.jpg></div><div class='cl'><div class='vertical-center'>$5<br>for<br>sure</div></div><div class='cr'><div class='vertical-center'><font style='color:orange'>$50<br>with a<br>50% chance</font></div></div><div class='respDivL'><div class='vertical-center'>(E)</div></div><div class='respDivR'><div class='vertical-center'><font style='color:orange'>(I)</font></div></div></div>","null","$5","$50","0","5","50",""
"","","","FIX","63d9f31dba727de153019798","bdp_rd","Sun Apr 09 2023 19:02:32 GMT-0400 (Eastern Daylight Time)","236162","html-keyboard-response","143","196535","0.0-5.0-1.46","","null","","<div class='trialBorder'><div class='vertical-center'><img style='vertical-align:center; align:center' src=img/fixation3.jpg></div></div>","null","","","","","",""
"","","","offer","63d9f31dba727de153019798","bdp_rd","Sun Apr 09 2023 19:02:32 GMT-0400 (Eastern Daylight Time)","236162","html-keyboard-response","144","198767","0.0-5.0-2.46","","2232","","<div class='trialBorder'><div class='vertical-center'><img style='vertical-align:center; align:center' src=img/fixation3.jpg></div><div class='cl'><div class='vertical-center'>$12<br>for<br>sure</div></div><div class='cr'><div class='vertical-center'>$35<br>with a<br>50% chance</div></div><div class='respDivL'><div class='vertical-center'>(E)</div></div><div class='respDivR'><div class='vertical-center'>(I)</div></div></div>","I","$12","$35","0","12","35","RISKY"
"","","","offerFB","63d9f31dba727de153019798","bdp_rd","Sun Apr 09 2023 19:02:32 GMT-0400 (Eastern Daylight Time)","236162","html-keyboard-response","145","199026","0.0-5.0-3.46","","null","","<div class='trialBorder'><div class='vertical-center'><img style='vertical-align:center; align:center' src=img/fixation3.jpg></div><div class='cl'><div class='vertical-center'>$12<br>for<br>sure</div></div><div class='cr'><div class='vertical-center'><font style='color:orange'>$35<br>with a<br>50% chance</font></div></div><div class='respDivL'><div class='vertical-center'>(E)</div></div><div class='respDivR'><div class='vertical-center'><font style='color:orange'>(I)</font></div></div></div>","null","$12","$35","0","12","35",""
"","","","FIX","63d9f31dba727de153019798","bdp_rd","Sun Apr 09 2023 19:02:32 GMT-0400 (Eastern Daylight Time)","236162","html-keyboard-response","146","199527","0.0-5.0-1.47","","null","","<div class='trialBorder'><div class='vertical-center'><img style='vertical-align:center; align:center' src=img/fixation3.jpg></div></div>","null","","","","","",""
"","","","offer","63d9f31dba727de153019798","bdp_rd","Sun Apr 09 2023 19:02:32 GMT-0400 (Eastern Daylight Time)","236162","html-keyboard-response","147","200800","0.0-5.0-2.47","","1271","","<div class='trialBorder'><div class='vertical-center'><img style='vertical-align:center; align:center' src=img/fixation3.jpg></div><div class='cl'><div class='vertical-center'>$30<br>with a<br>50% chance</div></div><div class='cr'><div class='vertical-center'>$1<br>for<br>sure</div></div><div class='respDivL'><div class='vertical-center'>(E)</div></div><div class='respDivR'><div class='vertical-center'>(I)</div></div></div>","E","$1","$30","1","1","30","RISKY"
"","","","offerFB","63d9f31dba727de153019798","bdp_rd","Sun Apr 09 2023 19:02:32 GMT-0400 (Eastern Daylight Time)","236162","html-keyboard-response","148","201062","0.0-5.0-3.47","","null","","<div class='trialBorder'><div class='vertical-center'><img style='vertical-align:center; align:center' src=img/fixation3.jpg></div><div class='cl'><div class='vertical-center'><font style='color:orange'>$30<br>with a<br>50% chance</font></div></div><div class='cr'><div class='vertical-center'>$1<br>for<br>sure</div></div><div class='respDivL'><div class='vertical-center'><font style='color:orange'>(E)</font></div></div><div class='respDivR'><div class='vertical-center'>(I)</div></div></div>","null","$1","$30","1","1","30",""
"","","","FIX","63d9f31dba727de153019798","bdp_rd","Sun Apr 09 2023 19:02:32 GMT-0400 (Eastern Daylight Time)","236162","html-keyboard-response","149","201564","0.0-5.0-1.48","","null","","<div class='trialBorder'><div class='vertical-center'><img style='vertical-align:center; align:center' src=img/fixation3.jpg></div></div>","null","","","","","",""
"","","","offer","63d9f31dba727de153019798","bdp_rd","Sun Apr 09 2023 19:02:32 GMT-0400 (Eastern Daylight Time)","236162","html-keyboard-response","150","202935","0.0-5.0-2.48","","1371","","<div class='trialBorder'><div class='vertical-center'><img style='vertical-align:center; align:center' src=img/fixation3.jpg></div><div class='cl'><div class='vertical-center'>$10<br>for<br>sure</div></div><div class='cr'><div class='vertical-center'>$19<br>with a<br>50% chance</div></div><div class='respDivL'><div class='vertical-center'>(E)</div></div><div class='respDivR'><div class='vertical-center'>(I)</div></div></div>","E","$10","$19","0","10","19","SURE"
"","","","offerFB","63d9f31dba727de153019798","bdp_rd","Sun Apr 09 2023 19:02:32 GMT-0400 (Eastern Daylight Time)","236162","html-keyboard-response","151","203200","0.0-5.0-3.48","","null","","<div class='trialBorder'><div class='vertical-center'><img style='vertical-align:center; align:center' src=img/fixation3.jpg></div><div class='cl'><div class='vertical-center'><font style='color:orange'>$10<br>for<br>sure</font></div></div><div class='cr'><div class='vertical-center'>$19<br>with a<br>50% chance</div></div><div class='respDivL'><div class='vertical-center'><font style='color:orange'>(E)</font></div></div><div class='respDivR'><div class='vertical-center'>(I)</div></div></div>","null","$10","$19","0","10","19",""
"","","","FIX","63d9f31dba727de153019798","bdp_rd","Sun Apr 09 2023 19:02:32 GMT-0400 (Eastern Daylight Time)","236162","html-keyboard-response","152","203701","0.0-5.0-1.49","","null","","<div class='trialBorder'><div class='vertical-center'><img style='vertical-align:center; align:center' src=img/fixation3.jpg></div></div>","null","","","","","",""
"","","","offer","63d9f31dba727de153019798","bdp_rd","Sun Apr 09 2023 19:02:32 GMT-0400 (Eastern Daylight Time)","236162","html-keyboard-response","153","205423","0.0-5.0-2.49","","1721","","<div class='trialBorder'><div class='vertical-center'><img style='vertical-align:center; align:center' src=img/fixation3.jpg></div><div class='cl'><div class='vertical-center'>$15<br>for<br>sure</div></div><div class='cr'><div class='vertical-center'>$31<br>with a<br>50% chance</div></div><div class='respDivL'><div class='vertical-center'>(E)</div></div><div class='respDivR'><div class='vertical-center'>(I)</div></div></div>","E","$15","$31","0","15","31","SURE"
"","","","offerFB","63d9f31dba727de153019798","bdp_rd","Sun Apr 09 2023 19:02:32 GMT-0400 (Eastern Daylight Time)","236162","html-keyboard-response","154","205675","0.0-5.0-3.49","","null","","<div class='trialBorder'><div class='vertical-center'><img style='vertical-align:center; align:center' src=img/fixation3.jpg></div><div class='cl'><div class='vertical-center'><font style='color:orange'>$15<br>for<br>sure</font></div></div><div class='cr'><div class='vertical-center'>$31<br>with a<br>50% chance</div></div><div class='respDivL'><div class='vertical-center'><font style='color:orange'>(E)</font></div></div><div class='respDivR'><div class='vertical-center'>(I)</div></div></div>","null","$15","$31","0","15","31",""
"","","","FIX","63d9f31dba727de153019798","bdp_rd","Sun Apr 09 2023 19:02:32 GMT-0400 (Eastern Daylight Time)","236162","html-keyboard-response","155","206176","0.0-5.0-1.50","","null","","<div class='trialBorder'><div class='vertical-center'><img style='vertical-align:center; align:center' src=img/fixation3.jpg></div></div>","null","","","","","",""
"","","","offer","63d9f31dba727de153019798","bdp_rd","Sun Apr 09 2023 19:02:32 GMT-0400 (Eastern Daylight Time)","236162","html-keyboard-response","156","207807","0.0-5.0-2.50","","1630","","<div class='trialBorder'><div class='vertical-center'><img style='vertical-align:center; align:center' src=img/fixation3.jpg></div><div class='cl'><div class='vertical-center'>$48<br>with a<br>50% chance</div></div><div class='cr'><div class='vertical-center'>$34<br>for<br>sure</div></div><div class='respDivL'><div class='vertical-center'>(E)</div></div><div class='respDivR'><div class='vertical-center'>(I)</div></div></div>","I","$34","$48","1","34","48","SURE"
"","","","offerFB","63d9f31dba727de153019798","bdp_rd","Sun Apr 09 2023 19:02:32 GMT-0400 (Eastern Daylight Time)","236162","html-keyboard-response","157","208065","0.0-5.0-3.50","","null","","<div class='trialBorder'><div class='vertical-center'><img style='vertical-align:center; align:center' src=img/fixation3.jpg></div><div class='cl'><div class='vertical-center'>$48<br>with a<br>50% chance</div></div><div class='cr'><div class='vertical-center'><font style='color:orange'>$34<br>for<br>sure</font></div></div><div class='respDivL'><div class='vertical-center'>(E)</div></div><div class='respDivR'><div class='vertical-center'><font style='color:orange'>(I)</font></div></div></div>","null","$34","$48","1","34","48",""
"","","","FIX","63d9f31dba727de153019798","bdp_rd","Sun Apr 09 2023 19:02:32 GMT-0400 (Eastern Daylight Time)","236162","html-keyboard-response","158","208567","0.0-5.0-1.51","","null","","<div class='trialBorder'><div class='vertical-center'><img style='vertical-align:center; align:center' src=img/fixation3.jpg></div></div>","null","","","","","",""
"","","","offer","63d9f31dba727de153019798","bdp_rd","Sun Apr 09 2023 19:02:32 GMT-0400 (Eastern Daylight Time)","236162","html-keyboard-response","159","210855","0.0-5.0-2.51","","2287","","<div class='trialBorder'><div class='vertical-center'><img style='vertical-align:center; align:center' src=img/fixation3.jpg></div><div class='cl'><div class='vertical-center'>$23<br>with a<br>50% chance</div></div><div class='cr'><div class='vertical-center'>$8<br>for<br>sure</div></div><div class='respDivL'><div class='vertical-center'>(E)</div></div><div class='respDivR'><div class='vertical-center'>(I)</div></div></div>","E","$8","$23","1","8","23","RISKY"
"","","","offerFB","63d9f31dba727de153019798","bdp_rd","Sun Apr 09 2023 19:02:32 GMT-0400 (Eastern Daylight Time)","236162","html-keyboard-response","160","211109","0.0-5.0-3.51","","null","","<div class='trialBorder'><div class='vertical-center'><img style='vertical-align:center; align:center' src=img/fixation3.jpg></div><div class='cl'><div class='vertical-center'><font style='color:orange'>$23<br>with a<br>50% chance</font></div></div><div class='cr'><div class='vertical-center'>$8<br>for<br>sure</div></div><div class='respDivL'><div class='vertical-center'><font style='color:orange'>(E)</font></div></div><div class='respDivR'><div class='vertical-center'>(I)</div></div></div>","null","$8","$23","1","8","23",""
"","","","FIX","63d9f31dba727de153019798","bdp_rd","Sun Apr 09 2023 19:02:32 GMT-0400 (Eastern Daylight Time)","236162","html-keyboard-response","161","211610","0.0-5.0-1.52","","null","","<div class='trialBorder'><div class='vertical-center'><img style='vertical-align:center; align:center' src=img/fixation3.jpg></div></div>","null","","","","","",""
"","","","offer","63d9f31dba727de153019798","bdp_rd","Sun Apr 09 2023 19:02:32 GMT-0400 (Eastern Daylight Time)","236162","html-keyboard-response","162","214167","0.0-5.0-2.52","","2557","","<div class='trialBorder'><div class='vertical-center'><img style='vertical-align:center; align:center' src=img/fixation3.jpg></div><div class='cl'><div class='vertical-center'>$37<br>for<br>sure</div></div><div class='cr'><div class='vertical-center'>$44<br>with a<br>50% chance</div></div><div class='respDivL'><div class='vertical-center'>(E)</div></div><div class='respDivR'><div class='vertical-center'>(I)</div></div></div>","E","$37","$44","0","37","44","SURE"
"","","","offerFB","63d9f31dba727de153019798","bdp_rd","Sun Apr 09 2023 19:02:32 GMT-0400 (Eastern Daylight Time)","236162","html-keyboard-response","163","214427","0.0-5.0-3.52","","null","","<div class='trialBorder'><div class='vertical-center'><img style='vertical-align:center; align:center' src=img/fixation3.jpg></div><div class='cl'><div class='vertical-center'><font style='color:orange'>$37<br>for<br>sure</font></div></div><div class='cr'><div class='vertical-center'>$44<br>with a<br>50% chance</div></div><div class='respDivL'><div class='vertical-center'><font style='color:orange'>(E)</font></div></div><div class='respDivR'><div class='vertical-center'>(I)</div></div></div>","null","$37","$44","0","37","44",""
"","","","FIX","63d9f31dba727de153019798","bdp_rd","Sun Apr 09 2023 19:02:32 GMT-0400 (Eastern Daylight Time)","236162","html-keyboard-response","164","214932","0.0-5.0-1.53","","null","","<div class='trialBorder'><div class='vertical-center'><img style='vertical-align:center; align:center' src=img/fixation3.jpg></div></div>","null","","","","","",""
"","","","offer","63d9f31dba727de153019798","bdp_rd","Sun Apr 09 2023 19:02:32 GMT-0400 (Eastern Daylight Time)","236162","html-keyboard-response","165","217855","0.0-5.0-2.53","","2922","","<div class='trialBorder'><div class='vertical-center'><img style='vertical-align:center; align:center' src=img/fixation3.jpg></div><div class='cl'><div class='vertical-center'>$36<br>with a<br>50% chance</div></div><div class='cr'><div class='vertical-center'>$18<br>for<br>sure</div></div><div class='respDivL'><div class='vertical-center'>(E)</div></div><div class='respDivR'><div class='vertical-center'>(I)</div></div></div>","E","$18","$36","1","18","36","RISKY"
"","","","offerFB","63d9f31dba727de153019798","bdp_rd","Sun Apr 09 2023 19:02:32 GMT-0400 (Eastern Daylight Time)","236162","html-keyboard-response","166","218117","0.0-5.0-3.53","","null","","<div class='trialBorder'><div class='vertical-center'><img style='vertical-align:center; align:center' src=img/fixation3.jpg></div><div class='cl'><div class='vertical-center'><font style='color:orange'>$36<br>with a<br>50% chance</font></div></div><div class='cr'><div class='vertical-center'>$18<br>for<br>sure</div></div><div class='respDivL'><div class='vertical-center'><font style='color:orange'>(E)</font></div></div><div class='respDivR'><div class='vertical-center'>(I)</div></div></div>","null","$18","$36","1","18","36",""
"","","","FIX","63d9f31dba727de153019798","bdp_rd","Sun Apr 09 2023 19:02:32 GMT-0400 (Eastern Daylight Time)","236162","html-keyboard-response","167","218622","0.0-5.0-1.54","","null","","<div class='trialBorder'><div class='vertical-center'><img style='vertical-align:center; align:center' src=img/fixation3.jpg></div></div>","null","","","","","",""
"","","","offer","63d9f31dba727de153019798","bdp_rd","Sun Apr 09 2023 19:02:32 GMT-0400 (Eastern Daylight Time)","236162","html-keyboard-response","168","221103","0.0-5.0-2.54","","2481","","<div class='trialBorder'><div class='vertical-center'><img style='vertical-align:center; align:center' src=img/fixation3.jpg></div><div class='cl'><div class='vertical-center'>$20<br>for<br>sure</div></div><div class='cr'><div class='vertical-center'>$37<br>with a<br>50% chance</div></div><div class='respDivL'><div class='vertical-center'>(E)</div></div><div class='respDivR'><div class='vertical-center'>(I)</div></div></div>","I","$20","$37","0","20","37","RISKY"
"","","","offerFB","63d9f31dba727de153019798","bdp_rd","Sun Apr 09 2023 19:02:32 GMT-0400 (Eastern Daylight Time)","236162","html-keyboard-response","169","221366","0.0-5.0-3.54","","null","","<div class='trialBorder'><div class='vertical-center'><img style='vertical-align:center; align:center' src=img/fixation3.jpg></div><div class='cl'><div class='vertical-center'>$20<br>for<br>sure</div></div><div class='cr'><div class='vertical-center'><font style='color:orange'>$37<br>with a<br>50% chance</font></div></div><div class='respDivL'><div class='vertical-center'>(E)</div></div><div class='respDivR'><div class='vertical-center'><font style='color:orange'>(I)</font></div></div></div>","null","$20","$37","0","20","37",""
"","","","FIX","63d9f31dba727de153019798","bdp_rd","Sun Apr 09 2023 19:02:32 GMT-0400 (Eastern Daylight Time)","236162","html-keyboard-response","170","221867","0.0-5.0-1.55","","null","","<div class='trialBorder'><div class='vertical-center'><img style='vertical-align:center; align:center' src=img/fixation3.jpg></div></div>","null","","","","","",""
"","","","offer","63d9f31dba727de153019798","bdp_rd","Sun Apr 09 2023 19:02:32 GMT-0400 (Eastern Daylight Time)","236162","html-keyboard-response","171","223847","0.0-5.0-2.55","","1980","","<div class='trialBorder'><div class='vertical-center'><img style='vertical-align:center; align:center' src=img/fixation3.jpg></div><div class='cl'><div class='vertical-center'>$19<br>for<br>sure</div></div><div class='cr'><div class='vertical-center'>$51<br>with a<br>50% chance</div></div><div class='respDivL'><div class='vertical-center'>(E)</div></div><div class='respDivR'><div class='vertical-center'>(I)</div></div></div>","I","$19","$51","0","19","51","RISKY"
"","","","offerFB","63d9f31dba727de153019798","bdp_rd","Sun Apr 09 2023 19:02:32 GMT-0400 (Eastern Daylight Time)","236162","html-keyboard-response","172","224113","0.0-5.0-3.55","","null","","<div class='trialBorder'><div class='vertical-center'><img style='vertical-align:center; align:center' src=img/fixation3.jpg></div><div class='cl'><div class='vertical-center'>$19<br>for<br>sure</div></div><div class='cr'><div class='vertical-center'><font style='color:orange'>$51<br>with a<br>50% chance</font></div></div><div class='respDivL'><div class='vertical-center'>(E)</div></div><div class='respDivR'><div class='vertical-center'><font style='color:orange'>(I)</font></div></div></div>","null","$19","$51","0","19","51",""
"","","","FIX","63d9f31dba727de153019798","bdp_rd","Sun Apr 09 2023 19:02:32 GMT-0400 (Eastern Daylight Time)","236162","html-keyboard-response","173","224614","0.0-5.0-1.56","","null","","<div class='trialBorder'><div class='vertical-center'><img style='vertical-align:center; align:center' src=img/fixation3.jpg></div></div>","null","","","","","",""
"","","","offer","63d9f31dba727de153019798","bdp_rd","Sun Apr 09 2023 19:02:32 GMT-0400 (Eastern Daylight Time)","236162","html-keyboard-response","174","226871","0.0-5.0-2.56","","2257","","<div class='trialBorder'><div class='vertical-center'><img style='vertical-align:center; align:center' src=img/fixation3.jpg></div><div class='cl'><div class='vertical-center'>$73<br>with a<br>50% chance</div></div><div class='cr'><div class='vertical-center'>$42<br>for<br>sure</div></div><div class='respDivL'><div class='vertical-center'>(E)</div></div><div class='respDivR'><div class='vertical-center'>(I)</div></div></div>","I","$42","$73","1","42","73","SURE"
