"trial_type","trial_index","time_elapsed","internal_node_id","subject_id","task","startTime","totalTime","view_history","rt","event","trial","time","trialtype","success","stimulus","key_press","sureOffer","riskyOffer","riskyLeft","sureAmt","riskyAmt","chosen"
"pavlovia","0","2","0.0-0.0","633471b7c7b5fa52a0a407a7","bdp_rd","Sat Apr 01 2023 11:57:42 GMT-0400 (Eastern Daylight Time)","188544","","","","","","","","","","","","","","",""
"instructions","1","3542","0.0-1.0","633471b7c7b5fa52a0a407a7","bdp_rd","Sat Apr 01 2023 11:57:42 GMT-0400 (Eastern Daylight Time)","188544","[{""page_index"":0,""viewing_time"":3540}]","3540","","","","","","","","","","","","",""
"","","","","633471b7c7b5fa52a0a407a7","bdp_rd","Sat Apr 01 2023 11:57:42 GMT-0400 (Eastern Daylight Time)","188544","","","fullscreenenter","2","5331","fullscreenenter","","","","","","","","",""
"fullscreen","2","6311","0.0-2.0","633471b7c7b5fa52a0a407a7","bdp_rd","Sat Apr 01 2023 11:57:42 GMT-0400 (Eastern Daylight Time)","188544","","","","","","","true","","","","","","","",""
"instructions","3","24528","0.0-4.0","633471b7c7b5fa52a0a407a7","bdp_rd","Sat Apr 01 2023 11:57:42 GMT-0400 (Eastern Daylight Time)","188544","[{""page_index"":0,""viewing_time"":13364},{""page_index"":1,""viewing_time"":2108},{""page_index"":2,""viewing_time"":2743}]","18216","","","","","","","","","","","","",""
"html-keyboard-response","4","25030","0.0-5.0-1.0","633471b7c7b5fa52a0a407a7","bdp_rd","Sat Apr 01 2023 11:57:42 GMT-0400 (Eastern Daylight Time)","188544","","null","","","","FIX","","<div class='trialBorder'><div class='vertical-center'><img style='vertical-align:center; align:center' src=img/fixation3.jpg></div></div>","null","","","","","",""
"html-keyboard-response","5","28162","0.0-5.0-2.0","633471b7c7b5fa52a0a407a7","bdp_rd","Sat Apr 01 2023 11:57:42 GMT-0400 (Eastern Daylight Time)","188544","","3131","","","","offer","","<div class='trialBorder'><div class='vertical-center'><img style='vertical-align:center; align:center' src=img/fixation3.jpg></div><div class='cl'><div class='vertical-center'>$24<br>with a<br>50% chance</div></div><div class='cr'><div class='vertical-center'>$13<br>for<br>sure</div></div><div class='respDivL'><div class='vertical-center'>(E)</div></div><div class='respDivR'><div class='vertical-center'>(I)</div></div></div>","I","$13","$24","1","13","24","SURE"
"html-keyboard-response","6","28413","0.0-5.0-3.0","633471b7c7b5fa52a0a407a7","bdp_rd","Sat Apr 01 2023 11:57:42 GMT-0400 (Eastern Daylight Time)","188544","","null","","","","offerFB","","<div class='trialBorder'><div class='vertical-center'><img style='vertical-align:center; align:center' src=img/fixation3.jpg></div><div class='cl'><div class='vertical-center'>$24<br>with a<br>50% chance</div></div><div class='cr'><div class='vertical-center'><font style='color:orange'>$13<br>for<br>sure</font></div></div><div class='respDivL'><div class='vertical-center'>(E)</div></div><div class='respDivR'><div class='vertical-center'><font style='color:orange'>(I)</font></div></div></div>","null","$13","$24","1","13","24",""
"html-keyboard-response","7","28915","0.0-5.0-1.1","633471b7c7b5fa52a0a407a7","bdp_rd","Sat Apr 01 2023 11:57:42 GMT-0400 (Eastern Daylight Time)","188544","","null","","","","FIX","","<div class='trialBorder'><div class='vertical-center'><img style='vertical-align:center; align:center' src=img/fixation3.jpg></div></div>","null","","","","","",""
"html-keyboard-response","8","30654","0.0-5.0-2.1","633471b7c7b5fa52a0a407a7","bdp_rd","Sat Apr 01 2023 11:57:42 GMT-0400 (Eastern Daylight Time)","188544","","1738","","","","offer","","<div class='trialBorder'><div class='vertical-center'><img style='vertical-align:center; align:center' src=img/fixation3.jpg></div><div class='cl'><div class='vertical-center'>$43<br>with a<br>50% chance</div></div><div class='cr'><div class='vertical-center'>$17<br>for<br>sure</div></div><div class='respDivL'><div class='vertical-center'>(E)</div></div><div class='respDivR'><div class='vertical-center'>(I)</div></div></div>","E","$17","$43","1","17","43","RISKY"
"html-keyboard-response","9","30905","0.0-5.0-3.1","633471b7c7b5fa52a0a407a7","bdp_rd","Sat Apr 01 2023 11:57:42 GMT-0400 (Eastern Daylight Time)","188544","","null","","","","offerFB","","<div class='trialBorder'><div class='vertical-center'><img style='vertical-align:center; align:center' src=img/fixation3.jpg></div><div class='cl'><div class='vertical-center'><font style='color:orange'>$43<br>with a<br>50% chance</font></div></div><div class='cr'><div class='vertical-center'>$17<br>for<br>sure</div></div><div class='respDivL'><div class='vertical-center'><font style='color:orange'>(E)</font></div></div><div class='respDivR'><div class='vertical-center'>(I)</div></div></div>","null","$17","$43","1","17","43",""
"html-keyboard-response","10","31406","0.0-5.0-1.2","633471b7c7b5fa52a0a407a7","bdp_rd","Sat Apr 01 2023 11:57:42 GMT-0400 (Eastern Daylight Time)","188544","","null","","","","FIX","","<div class='trialBorder'><div class='vertical-center'><img style='vertical-align:center; align:center' src=img/fixation3.jpg></div></div>","null","","","","","",""
"html-keyboard-response","11","34175","0.0-5.0-2.2","633471b7c7b5fa52a0a407a7","bdp_rd","Sat Apr 01 2023 11:57:42 GMT-0400 (Eastern Daylight Time)","188544","","2768","","","","offer","","<div class='trialBorder'><div class='vertical-center'><img style='vertical-align:center; align:center' src=img/fixation3.jpg></div><div class='cl'><div class='vertical-center'>$25<br>with a<br>50% chance</div></div><div class='cr'><div class='vertical-center'>$21<br>for<br>sure</div></div><div class='respDivL'><div class='vertical-center'>(E)</div></div><div class='respDivR'><div class='vertical-center'>(I)</div></div></div>","I","$21","$25","1","21","25","SURE"
"html-keyboard-response","12","34427","0.0-5.0-3.2","633471b7c7b5fa52a0a407a7","bdp_rd","Sat Apr 01 2023 11:57:42 GMT-0400 (Eastern Daylight Time)","188544","","null","","","","offerFB","","<div class='trialBorder'><div class='vertical-center'><img style='vertical-align:center; align:center' src=img/fixation3.jpg></div><div class='cl'><div class='vertical-center'>$25<br>with a<br>50% chance</div></div><div class='cr'><div class='vertical-center'><font style='color:orange'>$21<br>for<br>sure</font></div></div><div class='respDivL'><div class='vertical-center'>(E)</div></div><div class='respDivR'><div class='vertical-center'><font style='color:orange'>(I)</font></div></div></div>","null","$21","$25","1","21","25",""
"html-keyboard-response","13","34928","0.0-5.0-1.3","633471b7c7b5fa52a0a407a7","bdp_rd","Sat Apr 01 2023 11:57:42 GMT-0400 (Eastern Daylight Time)","188544","","null","","","","FIX","","<div class='trialBorder'><div class='vertical-center'><img style='vertical-align:center; align:center' src=img/fixation3.jpg></div></div>","null","","","","","",""
"html-keyboard-response","14","37545","0.0-5.0-2.3","633471b7c7b5fa52a0a407a7","bdp_rd","Sat Apr 01 2023 11:57:42 GMT-0400 (Eastern Daylight Time)","188544","","2617","","","","offer","","<div class='trialBorder'><div class='vertical-center'><img style='vertical-align:center; align:center' src=img/fixation3.jpg></div><div class='cl'><div class='vertical-center'>$47<br>with a<br>50% chance</div></div><div class='cr'><div class='vertical-center'>$27<br>for<br>sure</div></div><div class='respDivL'><div class='vertical-center'>(E)</div></div><div class='respDivR'><div class='vertical-center'>(I)</div></div></div>","E","$27","$47","1","27","47","RISKY"
"html-keyboard-response","15","37796","0.0-5.0-3.3","633471b7c7b5fa52a0a407a7","bdp_rd","Sat Apr 01 2023 11:57:42 GMT-0400 (Eastern Daylight Time)","188544","","null","","","","offerFB","","<div class='trialBorder'><div class='vertical-center'><img style='vertical-align:center; align:center' src=img/fixation3.jpg></div><div class='cl'><div class='vertical-center'><font style='color:orange'>$47<br>with a<br>50% chance</font></div></div><div class='cr'><div class='vertical-center'>$27<br>for<br>sure</div></div><div class='respDivL'><div class='vertical-center'><font style='color:orange'>(E)</font></div></div><div class='respDivR'><div class='vertical-center'>(I)</div></div></div>","null","$27","$47","1","27","47",""
"html-keyboard-response","16","38298","0.0-5.0-1.4","633471b7c7b5fa52a0a407a7","bdp_rd","Sat Apr 01 2023 11:57:42 GMT-0400 (Eastern Daylight Time)","188544","","null","","","","FIX","","<div class='trialBorder'><div class='vertical-center'><img style='vertical-align:center; align:center' src=img/fixation3.jpg></div></div>","null","","","","","",""
"html-keyboard-response","17","40351","0.0-5.0-2.4","633471b7c7b5fa52a0a407a7","bdp_rd","Sat Apr 01 2023 11:57:42 GMT-0400 (Eastern Daylight Time)","188544","","2053","","","","offer","","<div class='trialBorder'><div class='vertical-center'><img style='vertical-align:center; align:center' src=img/fixation3.jpg></div><div class='cl'><div class='vertical-center'>$33<br>for<br>sure</div></div><div class='cr'><div class='vertical-center'>$66<br>with a<br>50% chance</div></div><div class='respDivL'><div class='vertical-center'>(E)</div></div><div class='respDivR'><div class='vertical-center'>(I)</div></div></div>","E","$33","$66","0","33","66","SURE"
"html-keyboard-response","18","40603","0.0-5.0-3.4","633471b7c7b5fa52a0a407a7","bdp_rd","Sat Apr 01 2023 11:57:42 GMT-0400 (Eastern Daylight Time)","188544","","null","","","","offerFB","","<div class='trialBorder'><div class='vertical-center'><img style='vertical-align:center; align:center' src=img/fixation3.jpg></div><div class='cl'><div class='vertical-center'><font style='color:orange'>$33<br>for<br>sure</font></div></div><div class='cr'><div class='vertical-center'>$66<br>with a<br>50% chance</div></div><div class='respDivL'><div class='vertical-center'><font style='color:orange'>(E)</font></div></div><div class='respDivR'><div class='vertical-center'>(I)</div></div></div>","null","$33","$66","0","33","66",""
"html-keyboard-response","19","41104","0.0-5.0-1.5","633471b7c7b5fa52a0a407a7","bdp_rd","Sat Apr 01 2023 11:57:42 GMT-0400 (Eastern Daylight Time)","188544","","null","","","","FIX","","<div class='trialBorder'><div class='vertical-center'><img style='vertical-align:center; align:center' src=img/fixation3.jpg></div></div>","null","","","","","",""
"html-keyboard-response","20","44050","0.0-5.0-2.5","633471b7c7b5fa52a0a407a7","bdp_rd","Sat Apr 01 2023 11:57:42 GMT-0400 (Eastern Daylight Time)","188544","","2945","","","","offer","","<div class='trialBorder'><div class='vertical-center'><img style='vertical-align:center; align:center' src=img/fixation3.jpg></div><div class='cl'><div class='vertical-center'>$20<br>for<br>sure</div></div><div class='cr'><div class='vertical-center'>$37<br>with a<br>50% chance</div></div><div class='respDivL'><div class='vertical-center'>(E)</div></div><div class='respDivR'><div class='vertical-center'>(I)</div></div></div>","E","$20","$37","0","20","37","SURE"
"html-keyboard-response","21","44301","0.0-5.0-3.5","633471b7c7b5fa52a0a407a7","bdp_rd","Sat Apr 01 2023 11:57:42 GMT-0400 (Eastern Daylight Time)","188544","","null","","","","offerFB","","<div class='trialBorder'><div class='vertical-center'><img style='vertical-align:center; align:center' src=img/fixation3.jpg></div><div class='cl'><div class='vertical-center'><font style='color:orange'>$20<br>for<br>sure</font></div></div><div class='cr'><div class='vertical-center'>$37<br>with a<br>50% chance</div></div><div class='respDivL'><div class='vertical-center'><font style='color:orange'>(E)</font></div></div><div class='respDivR'><div class='vertical-center'>(I)</div></div></div>","null","$20","$37","0","20","37",""
"html-keyboard-response","22","44802","0.0-5.0-1.6","633471b7c7b5fa52a0a407a7","bdp_rd","Sat Apr 01 2023 11:57:42 GMT-0400 (Eastern Daylight Time)","188544","","null","","","","FIX","","<div class='trialBorder'><div class='vertical-center'><img style='vertical-align:center; align:center' src=img/fixation3.jpg></div></div>","null","","","","","",""
"html-keyboard-response","23","46946","0.0-5.0-2.6","633471b7c7b5fa52a0a407a7","bdp_rd","Sat Apr 01 2023 11:57:42 GMT-0400 (Eastern Daylight Time)","188544","","2142","","","","offer","","<div class='trialBorder'><div class='vertical-center'><img style='vertical-align:center; align:center' src=img/fixation3.jpg></div><div class='cl'><div class='vertical-center'>$10<br>for<br>sure</div></div><div class='cr'><div class='vertical-center'>$19<br>with a<br>50% chance</div></div><div class='respDivL'><div class='vertical-center'>(E)</div></div><div class='respDivR'><div class='vertical-center'>(I)</div></div></div>","I","$10","$19","0","10","19","RISKY"
"html-keyboard-response","24","47197","0.0-5.0-3.6","633471b7c7b5fa52a0a407a7","bdp_rd","Sat Apr 01 2023 11:57:42 GMT-0400 (Eastern Daylight Time)","188544","","null","","","","offerFB","","<div class='trialBorder'><div class='vertical-center'><img style='vertical-align:center; align:center' src=img/fixation3.jpg></div><div class='cl'><div class='vertical-center'>$10<br>for<br>sure</div></div><div class='cr'><div class='vertical-center'><font style='color:orange'>$19<br>with a<br>50% chance</font></div></div><div class='respDivL'><div class='vertical-center'>(E)</div></div><div class='respDivR'><div class='vertical-center'><font style='color:orange'>(I)</font></div></div></div>","null","$10","$19","0","10","19",""
"html-keyboard-response","25","47699","0.0-5.0-1.7","633471b7c7b5fa52a0a407a7","bdp_rd","Sat Apr 01 2023 11:57:42 GMT-0400 (Eastern Daylight Time)","188544","","null","","","","FIX","","<div class='trialBorder'><div class='vertical-center'><img style='vertical-align:center; align:center' src=img/fixation3.jpg></div></div>","null","","","","","",""
"html-keyboard-response","26","49667","0.0-5.0-2.7","633471b7c7b5fa52a0a407a7","bdp_rd","Sat Apr 01 2023 11:57:42 GMT-0400 (Eastern Daylight Time)","188544","","1968","","","","offer","","<div class='trialBorder'><div class='vertical-center'><img style='vertical-align:center; align:center' src=img/fixation3.jpg></div><div class='cl'><div class='vertical-center'>$37<br>for<br>sure</div></div><div class='cr'><div class='vertical-center'>$44<br>with a<br>50% chance</div></div><div class='respDivL'><div class='vertical-center'>(E)</div></div><div class='respDivR'><div class='vertical-center'>(I)</div></div></div>","E","$37","$44","0","37","44","SURE"
"html-keyboard-response","27","49918","0.0-5.0-3.7","633471b7c7b5fa52a0a407a7","bdp_rd","Sat Apr 01 2023 11:57:42 GMT-0400 (Eastern Daylight Time)","188544","","null","","","","offerFB","","<div class='trialBorder'><div class='vertical-center'><img style='vertical-align:center; align:center' src=img/fixation3.jpg></div><div class='cl'><div class='vertical-center'><font style='color:orange'>$37<br>for<br>sure</font></div></div><div class='cr'><div class='vertical-center'>$44<br>with a<br>50% chance</div></div><div class='respDivL'><div class='vertical-center'><font style='color:orange'>(E)</font></div></div><div class='respDivR'><div class='vertical-center'>(I)</div></div></div>","null","$37","$44","0","37","44",""
"html-keyboard-response","28","50419","0.0-5.0-1.8","633471b7c7b5fa52a0a407a7","bdp_rd","Sat Apr 01 2023 11:57:42 GMT-0400 (Eastern Daylight Time)","188544","","null","","","","FIX","","<div class='trialBorder'><div class='vertical-center'><img style='vertical-align:center; align:center' src=img/fixation3.jpg></div></div>","null","","","","","",""
"html-keyboard-response","29","52985","0.0-5.0-2.8","633471b7c7b5fa52a0a407a7","bdp_rd","Sat Apr 01 2023 11:57:42 GMT-0400 (Eastern Daylight Time)","188544","","2564","","","","offer","","<div class='trialBorder'><div class='vertical-center'><img style='vertical-align:center; align:center' src=img/fixation3.jpg></div><div class='cl'><div class='vertical-center'>$1<br>for<br>sure</div></div><div class='cr'><div class='vertical-center'>$33<br>with a<br>50% chance</div></div><div class='respDivL'><div class='vertical-center'>(E)</div></div><div class='respDivR'><div class='vertical-center'>(I)</div></div></div>","I","$1","$33","0","1","33","RISKY"
"html-keyboard-response","30","53236","0.0-5.0-3.8","633471b7c7b5fa52a0a407a7","bdp_rd","Sat Apr 01 2023 11:57:42 GMT-0400 (Eastern Daylight Time)","188544","","null","","","","offerFB","","<div class='trialBorder'><div class='vertical-center'><img style='vertical-align:center; align:center' src=img/fixation3.jpg></div><div class='cl'><div class='vertical-center'>$1<br>for<br>sure</div></div><div class='cr'><div class='vertical-center'><font style='color:orange'>$33<br>with a<br>50% chance</font></div></div><div class='respDivL'><div class='vertical-center'>(E)</div></div><div class='respDivR'><div class='vertical-center'><font style='color:orange'>(I)</font></div></div></div>","null","$1","$33","0","1","33",""
"html-keyboard-response","31","53737","0.0-5.0-1.9","633471b7c7b5fa52a0a407a7","bdp_rd","Sat Apr 01 2023 11:57:42 GMT-0400 (Eastern Daylight Time)","188544","","null","","","","FIX","","<div class='trialBorder'><div class='vertical-center'><img style='vertical-align:center; align:center' src=img/fixation3.jpg></div></div>","null","","","","","",""
"html-keyboard-response","32","55391","0.0-5.0-2.9","633471b7c7b5fa52a0a407a7","bdp_rd","Sat Apr 01 2023 11:57:42 GMT-0400 (Eastern Daylight Time)","188544","","1653","","","","offer","","<div class='trialBorder'><div class='vertical-center'><img style='vertical-align:center; align:center' src=img/fixation3.jpg></div><div class='cl'><div class='vertical-center'>$2<br>for<br>sure</div></div><div class='cr'><div class='vertical-center'>$21<br>with a<br>50% chance</div></div><div class='respDivL'><div class='vertical-center'>(E)</div></div><div class='respDivR'><div class='vertical-center'>(I)</div></div></div>","I","$2","$21","0","2","21","RISKY"
"html-keyboard-response","33","55643","0.0-5.0-3.9","633471b7c7b5fa52a0a407a7","bdp_rd","Sat Apr 01 2023 11:57:42 GMT-0400 (Eastern Daylight Time)","188544","","null","","","","offerFB","","<div class='trialBorder'><div class='vertical-center'><img style='vertical-align:center; align:center' src=img/fixation3.jpg></div><div class='cl'><div class='vertical-center'>$2<br>for<br>sure</div></div><div class='cr'><div class='vertical-center'><font style='color:orange'>$21<br>with a<br>50% chance</font></div></div><div class='respDivL'><div class='vertical-center'>(E)</div></div><div class='respDivR'><div class='vertical-center'><font style='color:orange'>(I)</font></div></div></div>","null","$2","$21","0","2","21",""
"html-keyboard-response","34","56145","0.0-5.0-1.10","633471b7c7b5fa52a0a407a7","bdp_rd","Sat Apr 01 2023 11:57:42 GMT-0400 (Eastern Daylight Time)","188544","","null","","","","FIX","","<div class='trialBorder'><div class='vertical-center'><img style='vertical-align:center; align:center' src=img/fixation3.jpg></div></div>","null","","","","","",""
"html-keyboard-response","35","59536","0.0-5.0-2.10","633471b7c7b5fa52a0a407a7","bdp_rd","Sat Apr 01 2023 11:57:42 GMT-0400 (Eastern Daylight Time)","188544","","3390","","","","offer","","<div class='trialBorder'><div class='vertical-center'><img style='vertical-align:center; align:center' src=img/fixation3.jpg></div><div class='cl'><div class='vertical-center'>$9<br>for<br>sure</div></div><div class='cr'><div class='vertical-center'>$32<br>with a<br>50% chance</div></div><div class='respDivL'><div class='vertical-center'>(E)</div></div><div class='respDivR'><div class='vertical-center'>(I)</div></div></div>","I","$9","$32","0","9","32","RISKY"
"html-keyboard-response","36","59787","0.0-5.0-3.10","633471b7c7b5fa52a0a407a7","bdp_rd","Sat Apr 01 2023 11:57:42 GMT-0400 (Eastern Daylight Time)","188544","","null","","","","offerFB","","<div class='trialBorder'><div class='vertical-center'><img style='vertical-align:center; align:center' src=img/fixation3.jpg></div><div class='cl'><div class='vertical-center'>$9<br>for<br>sure</div></div><div class='cr'><div class='vertical-center'><font style='color:orange'>$32<br>with a<br>50% chance</font></div></div><div class='respDivL'><div class='vertical-center'>(E)</div></div><div class='respDivR'><div class='vertical-center'><font style='color:orange'>(I)</font></div></div></div>","null","$9","$32","0","9","32",""
"html-keyboard-response","37","60288","0.0-5.0-1.11","633471b7c7b5fa52a0a407a7","bdp_rd","Sat Apr 01 2023 11:57:42 GMT-0400 (Eastern Daylight Time)","188544","","null","","","","FIX","","<div class='trialBorder'><div class='vertical-center'><img style='vertical-align:center; align:center' src=img/fixation3.jpg></div></div>","null","","","","","",""
"html-keyboard-response","38","62421","0.0-5.0-2.11","633471b7c7b5fa52a0a407a7","bdp_rd","Sat Apr 01 2023 11:57:42 GMT-0400 (Eastern Daylight Time)","188544","","2132","","","","offer","","<div class='trialBorder'><div class='vertical-center'><img style='vertical-align:center; align:center' src=img/fixation3.jpg></div><div class='cl'><div class='vertical-center'>$15<br>for<br>sure</div></div><div class='cr'><div class='vertical-center'>$34<br>with a<br>50% chance</div></div><div class='respDivL'><div class='vertical-center'>(E)</div></div><div class='respDivR'><div class='vertical-center'>(I)</div></div></div>","E","$15","$34","0","15","34","SURE"
"html-keyboard-response","39","62673","0.0-5.0-3.11","633471b7c7b5fa52a0a407a7","bdp_rd","Sat Apr 01 2023 11:57:42 GMT-0400 (Eastern Daylight Time)","188544","","null","","","","offerFB","","<div class='trialBorder'><div class='vertical-center'><img style='vertical-align:center; align:center' src=img/fixation3.jpg></div><div class='cl'><div class='vertical-center'><font style='color:orange'>$15<br>for<br>sure</font></div></div><div class='cr'><div class='vertical-center'>$34<br>with a<br>50% chance</div></div><div class='respDivL'><div class='vertical-center'><font style='color:orange'>(E)</font></div></div><div class='respDivR'><div class='vertical-center'>(I)</div></div></div>","null","$15","$34","0","15","34",""
"html-keyboard-response","40","63174","0.0-5.0-1.12","633471b7c7b5fa52a0a407a7","bdp_rd","Sat Apr 01 2023 11:57:42 GMT-0400 (Eastern Daylight Time)","188544","","null","","","","FIX","","<div class='trialBorder'><div class='vertical-center'><img style='vertical-align:center; align:center' src=img/fixation3.jpg></div></div>","null","","","","","",""
"html-keyboard-response","41","65132","0.0-5.0-2.12","633471b7c7b5fa52a0a407a7","bdp_rd","Sat Apr 01 2023 11:57:42 GMT-0400 (Eastern Daylight Time)","188544","","1957","","","","offer","","<div class='trialBorder'><div class='vertical-center'><img style='vertical-align:center; align:center' src=img/fixation3.jpg></div><div class='cl'><div class='vertical-center'>$45<br>for<br>sure</div></div><div class='cr'><div class='vertical-center'>$86<br>with a<br>50% chance</div></div><div class='respDivL'><div class='vertical-center'>(E)</div></div><div class='respDivR'><div class='vertical-center'>(I)</div></div></div>","I","$45","$86","0","45","86","RISKY"
"html-keyboard-response","42","65383","0.0-5.0-3.12","633471b7c7b5fa52a0a407a7","bdp_rd","Sat Apr 01 2023 11:57:42 GMT-0400 (Eastern Daylight Time)","188544","","null","","","","offerFB","","<div class='trialBorder'><div class='vertical-center'><img style='vertical-align:center; align:center' src=img/fixation3.jpg></div><div class='cl'><div class='vertical-center'>$45<br>for<br>sure</div></div><div class='cr'><div class='vertical-center'><font style='color:orange'>$86<br>with a<br>50% chance</font></div></div><div class='respDivL'><div class='vertical-center'>(E)</div></div><div class='respDivR'><div class='vertical-center'><font style='color:orange'>(I)</font></div></div></div>","null","$45","$86","0","45","86",""
"html-keyboard-response","43","65885","0.0-5.0-1.13","633471b7c7b5fa52a0a407a7","bdp_rd","Sat Apr 01 2023 11:57:42 GMT-0400 (Eastern Daylight Time)","188544","","null","","","","FIX","","<div class='trialBorder'><div class='vertical-center'><img style='vertical-align:center; align:center' src=img/fixation3.jpg></div></div>","null","","","","","",""
"html-keyboard-response","44","68690","0.0-5.0-2.13","633471b7c7b5fa52a0a407a7","bdp_rd","Sat Apr 01 2023 11:57:42 GMT-0400 (Eastern Daylight Time)","188544","","2805","","","","offer","","<div class='trialBorder'><div class='vertical-center'><img style='vertical-align:center; align:center' src=img/fixation3.jpg></div><div class='cl'><div class='vertical-center'>$14<br>with a<br>50% chance</div></div><div class='cr'><div class='vertical-center'>$4<br>for<br>sure</div></div><div class='respDivL'><div class='vertical-center'>(E)</div></div><div class='respDivR'><div class='vertical-center'>(I)</div></div></div>","I","$4","$14","1","4","14","SURE"
"html-keyboard-response","45","68942","0.0-5.0-3.13","633471b7c7b5fa52a0a407a7","bdp_rd","Sat Apr 01 2023 11:57:42 GMT-0400 (Eastern Daylight Time)","188544","","null","","","","offerFB","","<div class='trialBorder'><div class='vertical-center'><img style='vertical-align:center; align:center' src=img/fixation3.jpg></div><div class='cl'><div class='vertical-center'>$14<br>with a<br>50% chance</div></div><div class='cr'><div class='vertical-center'><font style='color:orange'>$4<br>for<br>sure</font></div></div><div class='respDivL'><div class='vertical-center'>(E)</div></div><div class='respDivR'><div class='vertical-center'><font style='color:orange'>(I)</font></div></div></div>","null","$4","$14","1","4","14",""
"html-keyboard-response","46","69443","0.0-5.0-1.14","633471b7c7b5fa52a0a407a7","bdp_rd","Sat Apr 01 2023 11:57:42 GMT-0400 (Eastern Daylight Time)","188544","","null","","","","FIX","","<div class='trialBorder'><div class='vertical-center'><img style='vertical-align:center; align:center' src=img/fixation3.jpg></div></div>","null","","","","","",""
"html-keyboard-response","47","71917","0.0-5.0-2.14","633471b7c7b5fa52a0a407a7","bdp_rd","Sat Apr 01 2023 11:57:42 GMT-0400 (Eastern Daylight Time)","188544","","2472","","","","offer","","<div class='trialBorder'><div class='vertical-center'><img style='vertical-align:center; align:center' src=img/fixation3.jpg></div><div class='cl'><div class='vertical-center'>$30<br>for<br>sure</div></div><div class='cr'><div class='vertical-center'>$68<br>with a<br>50% chance</div></div><div class='respDivL'><div class='vertical-center'>(E)</div></div><div class='respDivR'><div class='vertical-center'>(I)</div></div></div>","E","$30","$68","0","30","68","SURE"
"html-keyboard-response","48","72168","0.0-5.0-3.14","633471b7c7b5fa52a0a407a7","bdp_rd","Sat Apr 01 2023 11:57:42 GMT-0400 (Eastern Daylight Time)","188544","","null","","","","offerFB","","<div class='trialBorder'><div class='vertical-center'><img style='vertical-align:center; align:center' src=img/fixation3.jpg></div><div class='cl'><div class='vertical-center'><font style='color:orange'>$30<br>for<br>sure</font></div></div><div class='cr'><div class='vertical-center'>$68<br>with a<br>50% chance</div></div><div class='respDivL'><div class='vertical-center'><font style='color:orange'>(E)</font></div></div><div class='respDivR'><div class='vertical-center'>(I)</div></div></div>","null","$30","$68","0","30","68",""
"html-keyboard-response","49","72669","0.0-5.0-1.15","633471b7c7b5fa52a0a407a7","bdp_rd","Sat Apr 01 2023 11:57:42 GMT-0400 (Eastern Daylight Time)","188544","","null","","","","FIX","","<div class='trialBorder'><div class='vertical-center'><img style='vertical-align:center; align:center' src=img/fixation3.jpg></div></div>","null","","","","","",""
"html-keyboard-response","50","74732","0.0-5.0-2.15","633471b7c7b5fa52a0a407a7","bdp_rd","Sat Apr 01 2023 11:57:42 GMT-0400 (Eastern Daylight Time)","188544","","2061","","","","offer","","<div class='trialBorder'><div class='vertical-center'><img style='vertical-align:center; align:center' src=img/fixation3.jpg></div><div class='cl'><div class='vertical-center'>$92<br>with a<br>50% chance</div></div><div class='cr'><div class='vertical-center'>$26<br>for<br>sure</div></div><div class='respDivL'><div class='vertical-center'>(E)</div></div><div class='respDivR'><div class='vertical-center'>(I)</div></div></div>","E","$26","$92","1","26","92","RISKY"
"html-keyboard-response","51","74983","0.0-5.0-3.15","633471b7c7b5fa52a0a407a7","bdp_rd","Sat Apr 01 2023 11:57:42 GMT-0400 (Eastern Daylight Time)","188544","","null","","","","offerFB","","<div class='trialBorder'><div class='vertical-center'><img style='vertical-align:center; align:center' src=img/fixation3.jpg></div><div class='cl'><div class='vertical-center'><font style='color:orange'>$92<br>with a<br>50% chance</font></div></div><div class='cr'><div class='vertical-center'>$26<br>for<br>sure</div></div><div class='respDivL'><div class='vertical-center'><font style='color:orange'>(E)</font></div></div><div class='respDivR'><div class='vertical-center'>(I)</div></div></div>","null","$26","$92","1","26","92",""
"html-keyboard-response","52","75485","0.0-5.0-1.16","633471b7c7b5fa52a0a407a7","bdp_rd","Sat Apr 01 2023 11:57:42 GMT-0400 (Eastern Daylight Time)","188544","","null","","","","FIX","","<div class='trialBorder'><div class='vertical-center'><img style='vertical-align:center; align:center' src=img/fixation3.jpg></div></div>","null","","","","","",""
"html-keyboard-response","53","76676","0.0-5.0-2.16","633471b7c7b5fa52a0a407a7","bdp_rd","Sat Apr 01 2023 11:57:42 GMT-0400 (Eastern Daylight Time)","188544","","1190","","","","offer","","<div class='trialBorder'><div class='vertical-center'><img style='vertical-align:center; align:center' src=img/fixation3.jpg></div><div class='cl'><div class='vertical-center'>$31<br>for<br>sure</div></div><div class='cr'><div class='vertical-center'>$78<br>with a<br>50% chance</div></div><div class='respDivL'><div class='vertical-center'>(E)</div></div><div class='respDivR'><div class='vertical-center'>(I)</div></div></div>","I","$31","$78","0","31","78","RISKY"
"html-keyboard-response","54","76927","0.0-5.0-3.16","633471b7c7b5fa52a0a407a7","bdp_rd","Sat Apr 01 2023 11:57:42 GMT-0400 (Eastern Daylight Time)","188544","","null","","","","offerFB","","<div class='trialBorder'><div class='vertical-center'><img style='vertical-align:center; align:center' src=img/fixation3.jpg></div><div class='cl'><div class='vertical-center'>$31<br>for<br>sure</div></div><div class='cr'><div class='vertical-center'><font style='color:orange'>$78<br>with a<br>50% chance</font></div></div><div class='respDivL'><div class='vertical-center'>(E)</div></div><div class='respDivR'><div class='vertical-center'><font style='color:orange'>(I)</font></div></div></div>","null","$31","$78","0","31","78",""
"html-keyboard-response","55","77429","0.0-5.0-1.17","633471b7c7b5fa52a0a407a7","bdp_rd","Sat Apr 01 2023 11:57:42 GMT-0400 (Eastern Daylight Time)","188544","","null","","","","FIX","","<div class='trialBorder'><div class='vertical-center'><img style='vertical-align:center; align:center' src=img/fixation3.jpg></div></div>","null","","","","","",""
"html-keyboard-response","56","78633","0.0-5.0-2.17","633471b7c7b5fa52a0a407a7","bdp_rd","Sat Apr 01 2023 11:57:42 GMT-0400 (Eastern Daylight Time)","188544","","1204","","","","offer","","<div class='trialBorder'><div class='vertical-center'><img style='vertical-align:center; align:center' src=img/fixation3.jpg></div><div class='cl'><div class='vertical-center'>$12<br>for<br>sure</div></div><div class='cr'><div class='vertical-center'>$27<br>with a<br>50% chance</div></div><div class='respDivL'><div class='vertical-center'>(E)</div></div><div class='respDivR'><div class='vertical-center'>(I)</div></div></div>","E","$12","$27","0","12","27","SURE"
"html-keyboard-response","57","78884","0.0-5.0-3.17","633471b7c7b5fa52a0a407a7","bdp_rd","Sat Apr 01 2023 11:57:42 GMT-0400 (Eastern Daylight Time)","188544","","null","","","","offerFB","","<div class='trialBorder'><div class='vertical-center'><img style='vertical-align:center; align:center' src=img/fixation3.jpg></div><div class='cl'><div class='vertical-center'><font style='color:orange'>$12<br>for<br>sure</font></div></div><div class='cr'><div class='vertical-center'>$27<br>with a<br>50% chance</div></div><div class='respDivL'><div class='vertical-center'><font style='color:orange'>(E)</font></div></div><div class='respDivR'><div class='vertical-center'>(I)</div></div></div>","null","$12","$27","0","12","27",""
"html-keyboard-response","58","79386","0.0-5.0-1.18","633471b7c7b5fa52a0a407a7","bdp_rd","Sat Apr 01 2023 11:57:42 GMT-0400 (Eastern Daylight Time)","188544","","null","","","","FIX","","<div class='trialBorder'><div class='vertical-center'><img style='vertical-align:center; align:center' src=img/fixation3.jpg></div></div>","null","","","","","",""
"html-keyboard-response","59","81453","0.0-5.0-2.18","633471b7c7b5fa52a0a407a7","bdp_rd","Sat Apr 01 2023 11:57:42 GMT-0400 (Eastern Daylight Time)","188544","","2067","","","","offer","","<div class='trialBorder'><div class='vertical-center'><img style='vertical-align:center; align:center' src=img/fixation3.jpg></div><div class='cl'><div class='vertical-center'>$98<br>with a<br>50% chance</div></div><div class='cr'><div class='vertical-center'>$53<br>for<br>sure</div></div><div class='respDivL'><div class='vertical-center'>(E)</div></div><div class='respDivR'><div class='vertical-center'>(I)</div></div></div>","E","$53","$98","1","53","98","RISKY"
"html-keyboard-response","60","81704","0.0-5.0-3.18","633471b7c7b5fa52a0a407a7","bdp_rd","Sat Apr 01 2023 11:57:42 GMT-0400 (Eastern Daylight Time)","188544","","null","","","","offerFB","","<div class='trialBorder'><div class='vertical-center'><img style='vertical-align:center; align:center' src=img/fixation3.jpg></div><div class='cl'><div class='vertical-center'><font style='color:orange'>$98<br>with a<br>50% chance</font></div></div><div class='cr'><div class='vertical-center'>$53<br>for<br>sure</div></div><div class='respDivL'><div class='vertical-center'><font style='color:orange'>(E)</font></div></div><div class='respDivR'><div class='vertical-center'>(I)</div></div></div>","null","$53","$98","1","53","98",""
"html-keyboard-response","61","82205","0.0-5.0-1.19","633471b7c7b5fa52a0a407a7","bdp_rd","Sat Apr 01 2023 11:57:42 GMT-0400 (Eastern Daylight Time)","188544","","null","","","","FIX","","<div class='trialBorder'><div class='vertical-center'><img style='vertical-align:center; align:center' src=img/fixation3.jpg></div></div>","null","","","","","",""
"html-keyboard-response","62","83378","0.0-5.0-2.19","633471b7c7b5fa52a0a407a7","bdp_rd","Sat Apr 01 2023 11:57:42 GMT-0400 (Eastern Daylight Time)","188544","","1172","","","","offer","","<div class='trialBorder'><div class='vertical-center'><img style='vertical-align:center; align:center' src=img/fixation3.jpg></div><div class='cl'><div class='vertical-center'>$70<br>with a<br>50% chance</div></div><div class='cr'><div class='vertical-center'>$24<br>for<br>sure</div></div><div class='respDivL'><div class='vertical-center'>(E)</div></div><div class='respDivR'><div class='vertical-center'>(I)</div></div></div>","E","$24","$70","1","24","70","RISKY"
"html-keyboard-response","63","83630","0.0-5.0-3.19","633471b7c7b5fa52a0a407a7","bdp_rd","Sat Apr 01 2023 11:57:42 GMT-0400 (Eastern Daylight Time)","188544","","null","","","","offerFB","","<div class='trialBorder'><div class='vertical-center'><img style='vertical-align:center; align:center' src=img/fixation3.jpg></div><div class='cl'><div class='vertical-center'><font style='color:orange'>$70<br>with a<br>50% chance</font></div></div><div class='cr'><div class='vertical-center'>$24<br>for<br>sure</div></div><div class='respDivL'><div class='vertical-center'><font style='color:orange'>(E)</font></div></div><div class='respDivR'><div class='vertical-center'>(I)</div></div></div>","null","$24","$70","1","24","70",""
"html-keyboard-response","64","84131","0.0-5.0-1.20","633471b7c7b5fa52a0a407a7","bdp_rd","Sat Apr 01 2023 11:57:42 GMT-0400 (Eastern Daylight Time)","188544","","null","","","","FIX","","<div class='trialBorder'><div class='vertical-center'><img style='vertical-align:center; align:center' src=img/fixation3.jpg></div></div>","null","","","","","",""
"html-keyboard-response","65","87560","0.0-5.0-2.20","633471b7c7b5fa52a0a407a7","bdp_rd","Sat Apr 01 2023 11:57:42 GMT-0400 (Eastern Daylight Time)","188544","","3429","","","","offer","","<div class='trialBorder'><div class='vertical-center'><img style='vertical-align:center; align:center' src=img/fixation3.jpg></div><div class='cl'><div class='vertical-center'>$39<br>with a<br>50% chance</div></div><div class='cr'><div class='vertical-center'>$18<br>for<br>sure</div></div><div class='respDivL'><div class='vertical-center'>(E)</div></div><div class='respDivR'><div class='vertical-center'>(I)</div></div></div>","E","$18","$39","1","18","39","RISKY"
"html-keyboard-response","66","87812","0.0-5.0-3.20","633471b7c7b5fa52a0a407a7","bdp_rd","Sat Apr 01 2023 11:57:42 GMT-0400 (Eastern Daylight Time)","188544","","null","","","","offerFB","","<div class='trialBorder'><div class='vertical-center'><img style='vertical-align:center; align:center' src=img/fixation3.jpg></div><div class='cl'><div class='vertical-center'><font style='color:orange'>$39<br>with a<br>50% chance</font></div></div><div class='cr'><div class='vertical-center'>$18<br>for<br>sure</div></div><div class='respDivL'><div class='vertical-center'><font style='color:orange'>(E)</font></div></div><div class='respDivR'><div class='vertical-center'>(I)</div></div></div>","null","$18","$39","1","18","39",""
"html-keyboard-response","67","88313","0.0-5.0-1.21","633471b7c7b5fa52a0a407a7","bdp_rd","Sat Apr 01 2023 11:57:42 GMT-0400 (Eastern Daylight Time)","188544","","null","","","","FIX","","<div class='trialBorder'><div class='vertical-center'><img style='vertical-align:center; align:center' src=img/fixation3.jpg></div></div>","null","","","","","",""
"html-keyboard-response","68","90043","0.0-5.0-2.21","633471b7c7b5fa52a0a407a7","bdp_rd","Sat Apr 01 2023 11:57:42 GMT-0400 (Eastern Daylight Time)","188544","","1729","","","","offer","","<div class='trialBorder'><div class='vertical-center'><img style='vertical-align:center; align:center' src=img/fixation3.jpg></div><div class='cl'><div class='vertical-center'>$15<br>for<br>sure</div></div><div class='cr'><div class='vertical-center'>$31<br>with a<br>50% chance</div></div><div class='respDivL'><div class='vertical-center'>(E)</div></div><div class='respDivR'><div class='vertical-center'>(I)</div></div></div>","E","$15","$31","0","15","31","SURE"
"html-keyboard-response","69","90295","0.0-5.0-3.21","633471b7c7b5fa52a0a407a7","bdp_rd","Sat Apr 01 2023 11:57:42 GMT-0400 (Eastern Daylight Time)","188544","","null","","","","offerFB","","<div class='trialBorder'><div class='vertical-center'><img style='vertical-align:center; align:center' src=img/fixation3.jpg></div><div class='cl'><div class='vertical-center'><font style='color:orange'>$15<br>for<br>sure</font></div></div><div class='cr'><div class='vertical-center'>$31<br>with a<br>50% chance</div></div><div class='respDivL'><div class='vertical-center'><font style='color:orange'>(E)</font></div></div><div class='respDivR'><div class='vertical-center'>(I)</div></div></div>","null","$15","$31","0","15","31",""
"html-keyboard-response","70","90797","0.0-5.0-1.22","633471b7c7b5fa52a0a407a7","bdp_rd","Sat Apr 01 2023 11:57:42 GMT-0400 (Eastern Daylight Time)","188544","","null","","","","FIX","","<div class='trialBorder'><div class='vertical-center'><img style='vertical-align:center; align:center' src=img/fixation3.jpg></div></div>","null","","","","","",""
"html-keyboard-response","71","93100","0.0-5.0-2.22","633471b7c7b5fa52a0a407a7","bdp_rd","Sat Apr 01 2023 11:57:42 GMT-0400 (Eastern Daylight Time)","188544","","2302","","","","offer","","<div class='trialBorder'><div class='vertical-center'><img style='vertical-align:center; align:center' src=img/fixation3.jpg></div><div class='cl'><div class='vertical-center'>$41<br>with a<br>50% chance</div></div><div class='cr'><div class='vertical-center'>$13<br>for<br>sure</div></div><div class='respDivL'><div class='vertical-center'>(E)</div></div><div class='respDivR'><div class='vertical-center'>(I)</div></div></div>","E","$13","$41","1","13","41","RISKY"
"html-keyboard-response","72","93352","0.0-5.0-3.22","633471b7c7b5fa52a0a407a7","bdp_rd","Sat Apr 01 2023 11:57:42 GMT-0400 (Eastern Daylight Time)","188544","","null","","","","offerFB","","<div class='trialBorder'><div class='vertical-center'><img style='vertical-align:center; align:center' src=img/fixation3.jpg></div><div class='cl'><div class='vertical-center'><font style='color:orange'>$41<br>with a<br>50% chance</font></div></div><div class='cr'><div class='vertical-center'>$13<br>for<br>sure</div></div><div class='respDivL'><div class='vertical-center'><font style='color:orange'>(E)</font></div></div><div class='respDivR'><div class='vertical-center'>(I)</div></div></div>","null","$13","$41","1","13","41",""
"html-keyboard-response","73","93855","0.0-5.0-1.23","633471b7c7b5fa52a0a407a7","bdp_rd","Sat Apr 01 2023 11:57:42 GMT-0400 (Eastern Daylight Time)","188544","","null","","","","FIX","","<div class='trialBorder'><div class='vertical-center'><img style='vertical-align:center; align:center' src=img/fixation3.jpg></div></div>","null","","","","","",""
"html-keyboard-response","74","95386","0.0-5.0-2.23","633471b7c7b5fa52a0a407a7","bdp_rd","Sat Apr 01 2023 11:57:42 GMT-0400 (Eastern Daylight Time)","188544","","1530","","","","offer","","<div class='trialBorder'><div class='vertical-center'><img style='vertical-align:center; align:center' src=img/fixation3.jpg></div><div class='cl'><div class='vertical-center'>$7<br>for<br>sure</div></div><div class='cr'><div class='vertical-center'>$10<br>with a<br>50% chance</div></div><div class='respDivL'><div class='vertical-center'>(E)</div></div><div class='respDivR'><div class='vertical-center'>(I)</div></div></div>","E","$7","$10","0","7","10","SURE"
"html-keyboard-response","75","95637","0.0-5.0-3.23","633471b7c7b5fa52a0a407a7","bdp_rd","Sat Apr 01 2023 11:57:42 GMT-0400 (Eastern Daylight Time)","188544","","null","","","","offerFB","","<div class='trialBorder'><div class='vertical-center'><img style='vertical-align:center; align:center' src=img/fixation3.jpg></div><div class='cl'><div class='vertical-center'><font style='color:orange'>$7<br>for<br>sure</font></div></div><div class='cr'><div class='vertical-center'>$10<br>with a<br>50% chance</div></div><div class='respDivL'><div class='vertical-center'><font style='color:orange'>(E)</font></div></div><div class='respDivR'><div class='vertical-center'>(I)</div></div></div>","null","$7","$10","0","7","10",""
"html-keyboard-response","76","96138","0.0-5.0-1.24","633471b7c7b5fa52a0a407a7","bdp_rd","Sat Apr 01 2023 11:57:42 GMT-0400 (Eastern Daylight Time)","188544","","null","","","","FIX","","<div class='trialBorder'><div class='vertical-center'><img style='vertical-align:center; align:center' src=img/fixation3.jpg></div></div>","null","","","","","",""
"html-keyboard-response","77","97551","0.0-5.0-2.24","633471b7c7b5fa52a0a407a7","bdp_rd","Sat Apr 01 2023 11:57:42 GMT-0400 (Eastern Daylight Time)","188544","","1413","","","","offer","","<div class='trialBorder'><div class='vertical-center'><img style='vertical-align:center; align:center' src=img/fixation3.jpg></div><div class='cl'><div class='vertical-center'>$51<br>with a<br>50% chance</div></div><div class='cr'><div class='vertical-center'>$19<br>for<br>sure</div></div><div class='respDivL'><div class='vertical-center'>(E)</div></div><div class='respDivR'><div class='vertical-center'>(I)</div></div></div>","E","$19","$51","1","19","51","RISKY"
"html-keyboard-response","78","97803","0.0-5.0-3.24","633471b7c7b5fa52a0a407a7","bdp_rd","Sat Apr 01 2023 11:57:42 GMT-0400 (Eastern Daylight Time)","188544","","null","","","","offerFB","","<div class='trialBorder'><div class='vertical-center'><img style='vertical-align:center; align:center' src=img/fixation3.jpg></div><div class='cl'><div class='vertical-center'><font style='color:orange'>$51<br>with a<br>50% chance</font></div></div><div class='cr'><div class='vertical-center'>$19<br>for<br>sure</div></div><div class='respDivL'><div class='vertical-center'><font style='color:orange'>(E)</font></div></div><div class='respDivR'><div class='vertical-center'>(I)</div></div></div>","null","$19","$51","1","19","51",""
"html-keyboard-response","79","98305","0.0-5.0-1.25","633471b7c7b5fa52a0a407a7","bdp_rd","Sat Apr 01 2023 11:57:42 GMT-0400 (Eastern Daylight Time)","188544","","null","","","","FIX","","<div class='trialBorder'><div class='vertical-center'><img style='vertical-align:center; align:center' src=img/fixation3.jpg></div></div>","null","","","","","",""
"html-keyboard-response","80","100140","0.0-5.0-2.25","633471b7c7b5fa52a0a407a7","bdp_rd","Sat Apr 01 2023 11:57:42 GMT-0400 (Eastern Daylight Time)","188544","","1835","","","","offer","","<div class='trialBorder'><div class='vertical-center'><img style='vertical-align:center; align:center' src=img/fixation3.jpg></div><div class='cl'><div class='vertical-center'>$100<br>with a<br>50% chance</div></div><div class='cr'><div class='vertical-center'>$63<br>for<br>sure</div></div><div class='respDivL'><div class='vertical-center'>(E)</div></div><div class='respDivR'><div class='vertical-center'>(I)</div></div></div>","E","$63","$100","1","63","10","RISKY"
"html-keyboard-response","81","100391","0.0-5.0-3.25","633471b7c7b5fa52a0a407a7","bdp_rd","Sat Apr 01 2023 11:57:42 GMT-0400 (Eastern Daylight Time)","188544","","null","","","","offerFB","","<div class='trialBorder'><div class='vertical-center'><img style='vertical-align:center; align:center' src=img/fixation3.jpg></div><div class='cl'><div class='vertical-center'><font style='color:orange'>$100<br>with a<br>50% chance</font></div></div><div class='cr'><div class='vertical-center'>$63<br>for<br>sure</div></div><div class='respDivL'><div class='vertical-center'><font style='color:orange'>(E)</font></div></div><div class='respDivR'><div class='vertical-center'>(I)</div></div></div>","null","$63","$100","1","63","10",""
"html-keyboard-response","82","100892","0.0-5.0-1.26","633471b7c7b5fa52a0a407a7","bdp_rd","Sat Apr 01 2023 11:57:42 GMT-0400 (Eastern Daylight Time)","188544","","null","","","","FIX","","<div class='trialBorder'><div class='vertical-center'><img style='vertical-align:center; align:center' src=img/fixation3.jpg></div></div>","null","","","","","",""
"html-keyboard-response","83","101971","0.0-5.0-2.26","633471b7c7b5fa52a0a407a7","bdp_rd","Sat Apr 01 2023 11:57:42 GMT-0400 (Eastern Daylight Time)","188544","","1078","","","","offer","","<div class='trialBorder'><div class='vertical-center'><img style='vertical-align:center; align:center' src=img/fixation3.jpg></div><div class='cl'><div class='vertical-center'>$45<br>with a<br>50% chance</div></div><div class='cr'><div class='vertical-center'>$8<br>for<br>sure</div></div><div class='respDivL'><div class='vertical-center'>(E)</div></div><div class='respDivR'><div class='vertical-center'>(I)</div></div></div>","E","$8","$45","1","8","45","RISKY"
"html-keyboard-response","84","102223","0.0-5.0-3.26","633471b7c7b5fa52a0a407a7","bdp_rd","Sat Apr 01 2023 11:57:42 GMT-0400 (Eastern Daylight Time)","188544","","null","","","","offerFB","","<div class='trialBorder'><div class='vertical-center'><img style='vertical-align:center; align:center' src=img/fixation3.jpg></div><div class='cl'><div class='vertical-center'><font style='color:orange'>$45<br>with a<br>50% chance</font></div></div><div class='cr'><div class='vertical-center'>$8<br>for<br>sure</div></div><div class='respDivL'><div class='vertical-center'><font style='color:orange'>(E)</font></div></div><div class='respDivR'><div class='vertical-center'>(I)</div></div></div>","null","$8","$45","1","8","45",""
"html-keyboard-response","85","102725","0.0-5.0-1.27","633471b7c7b5fa52a0a407a7","bdp_rd","Sat Apr 01 2023 11:57:42 GMT-0400 (Eastern Daylight Time)","188544","","null","","","","FIX","","<div class='trialBorder'><div class='vertical-center'><img style='vertical-align:center; align:center' src=img/fixation3.jpg></div></div>","null","","","","","",""
"html-keyboard-response","86","105017","0.0-5.0-2.27","633471b7c7b5fa52a0a407a7","bdp_rd","Sat Apr 01 2023 11:57:42 GMT-0400 (Eastern Daylight Time)","188544","","2291","","","","offer","","<div class='trialBorder'><div class='vertical-center'><img style='vertical-align:center; align:center' src=img/fixation3.jpg></div><div class='cl'><div class='vertical-center'>$26<br>with a<br>50% chance</div></div><div class='cr'><div class='vertical-center'>$11<br>for<br>sure</div></div><div class='respDivL'><div class='vertical-center'>(E)</div></div><div class='respDivR'><div class='vertical-center'>(I)</div></div></div>","I","$11","$26","1","11","26","SURE"
"html-keyboard-response","87","105268","0.0-5.0-3.27","633471b7c7b5fa52a0a407a7","bdp_rd","Sat Apr 01 2023 11:57:42 GMT-0400 (Eastern Daylight Time)","188544","","null","","","","offerFB","","<div class='trialBorder'><div class='vertical-center'><img style='vertical-align:center; align:center' src=img/fixation3.jpg></div><div class='cl'><div class='vertical-center'>$26<br>with a<br>50% chance</div></div><div class='cr'><div class='vertical-center'><font style='color:orange'>$11<br>for<br>sure</font></div></div><div class='respDivL'><div class='vertical-center'>(E)</div></div><div class='respDivR'><div class='vertical-center'><font style='color:orange'>(I)</font></div></div></div>","null","$11","$26","1","11","26",""
"html-keyboard-response","88","105769","0.0-5.0-1.28","633471b7c7b5fa52a0a407a7","bdp_rd","Sat Apr 01 2023 11:57:42 GMT-0400 (Eastern Daylight Time)","188544","","null","","","","FIX","","<div class='trialBorder'><div class='vertical-center'><img style='vertical-align:center; align:center' src=img/fixation3.jpg></div></div>","null","","","","","",""
"html-keyboard-response","89","106998","0.0-5.0-2.28","633471b7c7b5fa52a0a407a7","bdp_rd","Sat Apr 01 2023 11:57:42 GMT-0400 (Eastern Daylight Time)","188544","","1229","","","","offer","","<div class='trialBorder'><div class='vertical-center'><img style='vertical-align:center; align:center' src=img/fixation3.jpg></div><div class='cl'><div class='vertical-center'>$28<br>for<br>sure</div></div><div class='cr'><div class='vertical-center'>$89<br>with a<br>50% chance</div></div><div class='respDivL'><div class='vertical-center'>(E)</div></div><div class='respDivR'><div class='vertical-center'>(I)</div></div></div>","I","$28","$89","0","28","89","RISKY"
"html-keyboard-response","90","107250","0.0-5.0-3.28","633471b7c7b5fa52a0a407a7","bdp_rd","Sat Apr 01 2023 11:57:42 GMT-0400 (Eastern Daylight Time)","188544","","null","","","","offerFB","","<div class='trialBorder'><div class='vertical-center'><img style='vertical-align:center; align:center' src=img/fixation3.jpg></div><div class='cl'><div class='vertical-center'>$28<br>for<br>sure</div></div><div class='cr'><div class='vertical-center'><font style='color:orange'>$89<br>with a<br>50% chance</font></div></div><div class='respDivL'><div class='vertical-center'>(E)</div></div><div class='respDivR'><div class='vertical-center'><font style='color:orange'>(I)</font></div></div></div>","null","$28","$89","0","28","89",""
"html-keyboard-response","91","107751","0.0-5.0-1.29","633471b7c7b5fa52a0a407a7","bdp_rd","Sat Apr 01 2023 11:57:42 GMT-0400 (Eastern Daylight Time)","188544","","null","","","","FIX","","<div class='trialBorder'><div class='vertical-center'><img style='vertical-align:center; align:center' src=img/fixation3.jpg></div></div>","null","","","","","",""
"html-keyboard-response","92","109570","0.0-5.0-2.29","633471b7c7b5fa52a0a407a7","bdp_rd","Sat Apr 01 2023 11:57:42 GMT-0400 (Eastern Daylight Time)","188544","","1818","","","","offer","","<div class='trialBorder'><div class='vertical-center'><img style='vertical-align:center; align:center' src=img/fixation3.jpg></div><div class='cl'><div class='vertical-center'>$50<br>with a<br>50% chance</div></div><div class='cr'><div class='vertical-center'>$5<br>for<br>sure</div></div><div class='respDivL'><div class='vertical-center'>(E)</div></div><div class='respDivR'><div class='vertical-center'>(I)</div></div></div>","E","$5","$50","1","5","50","RISKY"
"html-keyboard-response","93","109822","0.0-5.0-3.29","633471b7c7b5fa52a0a407a7","bdp_rd","Sat Apr 01 2023 11:57:42 GMT-0400 (Eastern Daylight Time)","188544","","null","","","","offerFB","","<div class='trialBorder'><div class='vertical-center'><img style='vertical-align:center; align:center' src=img/fixation3.jpg></div><div class='cl'><div class='vertical-center'><font style='color:orange'>$50<br>with a<br>50% chance</font></div></div><div class='cr'><div class='vertical-center'>$5<br>for<br>sure</div></div><div class='respDivL'><div class='vertical-center'><font style='color:orange'>(E)</font></div></div><div class='respDivR'><div class='vertical-center'>(I)</div></div></div>","null","$5","$50","1","5","50",""
"html-keyboard-response","94","110322","0.0-5.0-1.30","633471b7c7b5fa52a0a407a7","bdp_rd","Sat Apr 01 2023 11:57:42 GMT-0400 (Eastern Daylight Time)","188544","","null","","","","FIX","","<div class='trialBorder'><div class='vertical-center'><img style='vertical-align:center; align:center' src=img/fixation3.jpg></div></div>","null","","","","","",""
"html-keyboard-response","95","113451","0.0-5.0-2.30","633471b7c7b5fa52a0a407a7","bdp_rd","Sat Apr 01 2023 11:57:42 GMT-0400 (Eastern Daylight Time)","188544","","3128","","","","offer","","<div class='trialBorder'><div class='vertical-center'><img style='vertical-align:center; align:center' src=img/fixation3.jpg></div><div class='cl'><div class='vertical-center'>$80<br>with a<br>50% chance</div></div><div class='cr'><div class='vertical-center'>$20<br>for<br>sure</div></div><div class='respDivL'><div class='vertical-center'>(E)</div></div><div class='respDivR'><div class='vertical-center'>(I)</div></div></div>","E","$20","$80","1","20","80","RISKY"
"html-keyboard-response","96","113703","0.0-5.0-3.30","633471b7c7b5fa52a0a407a7","bdp_rd","Sat Apr 01 2023 11:57:42 GMT-0400 (Eastern Daylight Time)","188544","","null","","","","offerFB","","<div class='trialBorder'><div class='vertical-center'><img style='vertical-align:center; align:center' src=img/fixation3.jpg></div><div class='cl'><div class='vertical-center'><font style='color:orange'>$80<br>with a<br>50% chance</font></div></div><div class='cr'><div class='vertical-center'>$20<br>for<br>sure</div></div><div class='respDivL'><div class='vertical-center'><font style='color:orange'>(E)</font></div></div><div class='respDivR'><div class='vertical-center'>(I)</div></div></div>","null","$20","$80","1","20","80",""
"html-keyboard-response","97","114204","0.0-5.0-1.31","633471b7c7b5fa52a0a407a7","bdp_rd","Sat Apr 01 2023 11:57:42 GMT-0400 (Eastern Daylight Time)","188544","","null","","","","FIX","","<div class='trialBorder'><div class='vertical-center'><img style='vertical-align:center; align:center' src=img/fixation3.jpg></div></div>","null","","","","","",""
"html-keyboard-response","98","118792","0.0-5.0-2.31","633471b7c7b5fa52a0a407a7","bdp_rd","Sat Apr 01 2023 11:57:42 GMT-0400 (Eastern Daylight Time)","188544","","4587","","","","offer","","<div class='trialBorder'><div class='vertical-center'><img style='vertical-align:center; align:center' src=img/fixation3.jpg></div><div class='cl'><div class='vertical-center'>$6<br>for<br>sure</div></div><div class='cr'><div class='vertical-center'>$15<br>with a<br>50% chance</div></div><div class='respDivL'><div class='vertical-center'>(E)</div></div><div class='respDivR'><div class='vertical-center'>(I)</div></div></div>","E","$6","$15","0","6","15","SURE"
"html-keyboard-response","99","119043","0.0-5.0-3.31","633471b7c7b5fa52a0a407a7","bdp_rd","Sat Apr 01 2023 11:57:42 GMT-0400 (Eastern Daylight Time)","188544","","null","","","","offerFB","","<div class='trialBorder'><div class='vertical-center'><img style='vertical-align:center; align:center' src=img/fixation3.jpg></div><div class='cl'><div class='vertical-center'><font style='color:orange'>$6<br>for<br>sure</font></div></div><div class='cr'><div class='vertical-center'>$15<br>with a<br>50% chance</div></div><div class='respDivL'><div class='vertical-center'><font style='color:orange'>(E)</font></div></div><div class='respDivR'><div class='vertical-center'>(I)</div></div></div>","null","$6","$15","0","6","15",""
"html-keyboard-response","100","119544","0.0-5.0-1.32","633471b7c7b5fa52a0a407a7","bdp_rd","Sat Apr 01 2023 11:57:42 GMT-0400 (Eastern Daylight Time)","188544","","null","","","","FIX","","<div class='trialBorder'><div class='vertical-center'><img style='vertical-align:center; align:center' src=img/fixation3.jpg></div></div>","null","","","","","",""
"html-keyboard-response","101","121890","0.0-5.0-2.32","633471b7c7b5fa52a0a407a7","bdp_rd","Sat Apr 01 2023 11:57:42 GMT-0400 (Eastern Daylight Time)","188544","","2345","","","","offer","","<div class='trialBorder'><div class='vertical-center'><img style='vertical-align:center; align:center' src=img/fixation3.jpg></div><div class='cl'><div class='vertical-center'>$18<br>for<br>sure</div></div><div class='cr'><div class='vertical-center'>$36<br>with a<br>50% chance</div></div><div class='respDivL'><div class='vertical-center'>(E)</div></div><div class='respDivR'><div class='vertical-center'>(I)</div></div></div>","E","$18","$36","0","18","36","SURE"
"html-keyboard-response","102","122141","0.0-5.0-3.32","633471b7c7b5fa52a0a407a7","bdp_rd","Sat Apr 01 2023 11:57:42 GMT-0400 (Eastern Daylight Time)","188544","","null","","","","offerFB","","<div class='trialBorder'><div class='vertical-center'><img style='vertical-align:center; align:center' src=img/fixation3.jpg></div><div class='cl'><div class='vertical-center'><font style='color:orange'>$18<br>for<br>sure</font></div></div><div class='cr'><div class='vertical-center'>$36<br>with a<br>50% chance</div></div><div class='respDivL'><div class='vertical-center'><font style='color:orange'>(E)</font></div></div><div class='respDivR'><div class='vertical-center'>(I)</div></div></div>","null","$18","$36","0","18","36",""
"html-keyboard-response","103","122643","0.0-5.0-1.33","633471b7c7b5fa52a0a407a7","bdp_rd","Sat Apr 01 2023 11:57:42 GMT-0400 (Eastern Daylight Time)","188544","","null","","","","FIX","","<div class='trialBorder'><div class='vertical-center'><img style='vertical-align:center; align:center' src=img/fixation3.jpg></div></div>","null","","","","","",""
"html-keyboard-response","104","123995","0.0-5.0-2.33","633471b7c7b5fa52a0a407a7","bdp_rd","Sat Apr 01 2023 11:57:42 GMT-0400 (Eastern Daylight Time)","188544","","1352","","","","offer","","<div class='trialBorder'><div class='vertical-center'><img style='vertical-align:center; align:center' src=img/fixation3.jpg></div><div class='cl'><div class='vertical-center'>$58<br>for<br>sure</div></div><div class='cr'><div class='vertical-center'>$69<br>with a<br>50% chance</div></div><div class='respDivL'><div class='vertical-center'>(E)</div></div><div class='respDivR'><div class='vertical-center'>(I)</div></div></div>","E","$58","$69","0","58","69","SURE"
"html-keyboard-response","105","124246","0.0-5.0-3.33","633471b7c7b5fa52a0a407a7","bdp_rd","Sat Apr 01 2023 11:57:42 GMT-0400 (Eastern Daylight Time)","188544","","null","","","","offerFB","","<div class='trialBorder'><div class='vertical-center'><img style='vertical-align:center; align:center' src=img/fixation3.jpg></div><div class='cl'><div class='vertical-center'><font style='color:orange'>$58<br>for<br>sure</font></div></div><div class='cr'><div class='vertical-center'>$69<br>with a<br>50% chance</div></div><div class='respDivL'><div class='vertical-center'><font style='color:orange'>(E)</font></div></div><div class='respDivR'><div class='vertical-center'>(I)</div></div></div>","null","$58","$69","0","58","69",""
"html-keyboard-response","106","124748","0.0-5.0-1.34","633471b7c7b5fa52a0a407a7","bdp_rd","Sat Apr 01 2023 11:57:42 GMT-0400 (Eastern Daylight Time)","188544","","null","","","","FIX","","<div class='trialBorder'><div class='vertical-center'><img style='vertical-align:center; align:center' src=img/fixation3.jpg></div></div>","null","","","","","",""
"html-keyboard-response","107","126986","0.0-5.0-2.34","633471b7c7b5fa52a0a407a7","bdp_rd","Sat Apr 01 2023 11:57:42 GMT-0400 (Eastern Daylight Time)","188544","","2238","","","","offer","","<div class='trialBorder'><div class='vertical-center'><img style='vertical-align:center; align:center' src=img/fixation3.jpg></div><div class='cl'><div class='vertical-center'>$13<br>with a<br>50% chance</div></div><div class='cr'><div class='vertical-center'>$6<br>for<br>sure</div></div><div class='respDivL'><div class='vertical-center'>(E)</div></div><div class='respDivR'><div class='vertical-center'>(I)</div></div></div>","I","$6","$13","1","6","13","SURE"
"html-keyboard-response","108","127238","0.0-5.0-3.34","633471b7c7b5fa52a0a407a7","bdp_rd","Sat Apr 01 2023 11:57:42 GMT-0400 (Eastern Daylight Time)","188544","","null","","","","offerFB","","<div class='trialBorder'><div class='vertical-center'><img style='vertical-align:center; align:center' src=img/fixation3.jpg></div><div class='cl'><div class='vertical-center'>$13<br>with a<br>50% chance</div></div><div class='cr'><div class='vertical-center'><font style='color:orange'>$6<br>for<br>sure</font></div></div><div class='respDivL'><div class='vertical-center'>(E)</div></div><div class='respDivR'><div class='vertical-center'><font style='color:orange'>(I)</font></div></div></div>","null","$6","$13","1","6","13",""
"html-keyboard-response","109","127739","0.0-5.0-1.35","633471b7c7b5fa52a0a407a7","bdp_rd","Sat Apr 01 2023 11:57:42 GMT-0400 (Eastern Daylight Time)","188544","","null","","","","FIX","","<div class='trialBorder'><div class='vertical-center'><img style='vertical-align:center; align:center' src=img/fixation3.jpg></div></div>","null","","","","","",""
"html-keyboard-response","110","128935","0.0-5.0-2.35","633471b7c7b5fa52a0a407a7","bdp_rd","Sat Apr 01 2023 11:57:42 GMT-0400 (Eastern Daylight Time)","188544","","1195","","","","offer","","<div class='trialBorder'><div class='vertical-center'><img style='vertical-align:center; align:center' src=img/fixation3.jpg></div><div class='cl'><div class='vertical-center'>$16<br>for<br>sure</div></div><div class='cr'><div class='vertical-center'>$28<br>with a<br>50% chance</div></div><div class='respDivL'><div class='vertical-center'>(E)</div></div><div class='respDivR'><div class='vertical-center'>(I)</div></div></div>","I","$16","$28","0","16","28","RISKY"
"html-keyboard-response","111","129187","0.0-5.0-3.35","633471b7c7b5fa52a0a407a7","bdp_rd","Sat Apr 01 2023 11:57:42 GMT-0400 (Eastern Daylight Time)","188544","","null","","","","offerFB","","<div class='trialBorder'><div class='vertical-center'><img style='vertical-align:center; align:center' src=img/fixation3.jpg></div><div class='cl'><div class='vertical-center'>$16<br>for<br>sure</div></div><div class='cr'><div class='vertical-center'><font style='color:orange'>$28<br>with a<br>50% chance</font></div></div><div class='respDivL'><div class='vertical-center'>(E)</div></div><div class='respDivR'><div class='vertical-center'><font style='color:orange'>(I)</font></div></div></div>","null","$16","$28","0","16","28",""
"html-keyboard-response","112","129688","0.0-5.0-1.36","633471b7c7b5fa52a0a407a7","bdp_rd","Sat Apr 01 2023 11:57:42 GMT-0400 (Eastern Daylight Time)","188544","","null","","","","FIX","","<div class='trialBorder'><div class='vertical-center'><img style='vertical-align:center; align:center' src=img/fixation3.jpg></div></div>","null","","","","","",""
"html-keyboard-response","113","132019","0.0-5.0-2.36","633471b7c7b5fa52a0a407a7","bdp_rd","Sat Apr 01 2023 11:57:42 GMT-0400 (Eastern Daylight Time)","188544","","2331","","","","offer","","<div class='trialBorder'><div class='vertical-center'><img style='vertical-align:center; align:center' src=img/fixation3.jpg></div><div class='cl'><div class='vertical-center'>$39<br>for<br>sure</div></div><div class='cr'><div class='vertical-center'>$81<br>with a<br>50% chance</div></div><div class='respDivL'><div class='vertical-center'>(E)</div></div><div class='respDivR'><div class='vertical-center'>(I)</div></div></div>","I","$39","$81","0","39","81","RISKY"
"html-keyboard-response","114","132271","0.0-5.0-3.36","633471b7c7b5fa52a0a407a7","bdp_rd","Sat Apr 01 2023 11:57:42 GMT-0400 (Eastern Daylight Time)","188544","","null","","","","offerFB","","<div class='trialBorder'><div class='vertical-center'><img style='vertical-align:center; align:center' src=img/fixation3.jpg></div><div class='cl'><div class='vertical-center'>$39<br>for<br>sure</div></div><div class='cr'><div class='vertical-center'><font style='color:orange'>$81<br>with a<br>50% chance</font></div></div><div class='respDivL'><div class='vertical-center'>(E)</div></div><div class='respDivR'><div class='vertical-center'><font style='color:orange'>(I)</font></div></div></div>","null","$39","$81","0","39","81",""
"html-keyboard-response","115","132773","0.0-5.0-1.37","633471b7c7b5fa52a0a407a7","bdp_rd","Sat Apr 01 2023 11:57:42 GMT-0400 (Eastern Daylight Time)","188544","","null","","","","FIX","","<div class='trialBorder'><div class='vertical-center'><img style='vertical-align:center; align:center' src=img/fixation3.jpg></div></div>","null","","","","","",""
"html-keyboard-response","116","134040","0.0-5.0-2.37","633471b7c7b5fa52a0a407a7","bdp_rd","Sat Apr 01 2023 11:57:42 GMT-0400 (Eastern Daylight Time)","188544","","1266","","","","offer","","<div class='trialBorder'><div class='vertical-center'><img style='vertical-align:center; align:center' src=img/fixation3.jpg></div><div class='cl'><div class='vertical-center'>$14<br>for<br>sure</div></div><div class='cr'><div class='vertical-center'>$29<br>with a<br>50% chance</div></div><div class='respDivL'><div class='vertical-center'>(E)</div></div><div class='respDivR'><div class='vertical-center'>(I)</div></div></div>","E","$14","$29","0","14","29","SURE"
"html-keyboard-response","117","134291","0.0-5.0-3.37","633471b7c7b5fa52a0a407a7","bdp_rd","Sat Apr 01 2023 11:57:42 GMT-0400 (Eastern Daylight Time)","188544","","null","","","","offerFB","","<div class='trialBorder'><div class='vertical-center'><img style='vertical-align:center; align:center' src=img/fixation3.jpg></div><div class='cl'><div class='vertical-center'><font style='color:orange'>$14<br>for<br>sure</font></div></div><div class='cr'><div class='vertical-center'>$29<br>with a<br>50% chance</div></div><div class='respDivL'><div class='vertical-center'><font style='color:orange'>(E)</font></div></div><div class='respDivR'><div class='vertical-center'>(I)</div></div></div>","null","$14","$29","0","14","29",""
"html-keyboard-response","118","134793","0.0-5.0-1.38","633471b7c7b5fa52a0a407a7","bdp_rd","Sat Apr 01 2023 11:57:42 GMT-0400 (Eastern Daylight Time)","188544","","null","","","","FIX","","<div class='trialBorder'><div class='vertical-center'><img style='vertical-align:center; align:center' src=img/fixation3.jpg></div></div>","null","","","","","",""
"html-keyboard-response","119","138013","0.0-5.0-2.38","633471b7c7b5fa52a0a407a7","bdp_rd","Sat Apr 01 2023 11:57:42 GMT-0400 (Eastern Daylight Time)","188544","","3219","","","","offer","","<div class='trialBorder'><div class='vertical-center'><img style='vertical-align:center; align:center' src=img/fixation3.jpg></div><div class='cl'><div class='vertical-center'>$12<br>for<br>sure</div></div><div class='cr'><div class='vertical-center'>$35<br>with a<br>50% chance</div></div><div class='respDivL'><div class='vertical-center'>(E)</div></div><div class='respDivR'><div class='vertical-center'>(I)</div></div></div>","I","$12","$35","0","12","35","RISKY"
"html-keyboard-response","120","138265","0.0-5.0-3.38","633471b7c7b5fa52a0a407a7","bdp_rd","Sat Apr 01 2023 11:57:42 GMT-0400 (Eastern Daylight Time)","188544","","null","","","","offerFB","","<div class='trialBorder'><div class='vertical-center'><img style='vertical-align:center; align:center' src=img/fixation3.jpg></div><div class='cl'><div class='vertical-center'>$12<br>for<br>sure</div></div><div class='cr'><div class='vertical-center'><font style='color:orange'>$35<br>with a<br>50% chance</font></div></div><div class='respDivL'><div class='vertical-center'>(E)</div></div><div class='respDivR'><div class='vertical-center'><font style='color:orange'>(I)</font></div></div></div>","null","$12","$35","0","12","35",""
"html-keyboard-response","121","138767","0.0-5.0-1.39","633471b7c7b5fa52a0a407a7","bdp_rd","Sat Apr 01 2023 11:57:42 GMT-0400 (Eastern Daylight Time)","188544","","null","","","","FIX","","<div class='trialBorder'><div class='vertical-center'><img style='vertical-align:center; align:center' src=img/fixation3.jpg></div></div>","null","","","","","",""
"html-keyboard-response","122","140106","0.0-5.0-2.39","633471b7c7b5fa52a0a407a7","bdp_rd","Sat Apr 01 2023 11:57:42 GMT-0400 (Eastern Daylight Time)","188544","","1338","","","","offer","","<div class='trialBorder'><div class='vertical-center'><img style='vertical-align:center; align:center' src=img/fixation3.jpg></div><div class='cl'><div class='vertical-center'>$5<br>for<br>sure</div></div><div class='cr'><div class='vertical-center'>$16<br>with a<br>50% chance</div></div><div class='respDivL'><div class='vertical-center'>(E)</div></div><div class='respDivR'><div class='vertical-center'>(I)</div></div></div>","E","$5","$16","0","5","16","SURE"
"html-keyboard-response","123","140357","0.0-5.0-3.39","633471b7c7b5fa52a0a407a7","bdp_rd","Sat Apr 01 2023 11:57:42 GMT-0400 (Eastern Daylight Time)","188544","","null","","","","offerFB","","<div class='trialBorder'><div class='vertical-center'><img style='vertical-align:center; align:center' src=img/fixation3.jpg></div><div class='cl'><div class='vertical-center'><font style='color:orange'>$5<br>for<br>sure</font></div></div><div class='cr'><div class='vertical-center'>$16<br>with a<br>50% chance</div></div><div class='respDivL'><div class='vertical-center'><font style='color:orange'>(E)</font></div></div><div class='respDivR'><div class='vertical-center'>(I)</div></div></div>","null","$5","$16","0","5","16",""
"html-keyboard-response","124","140857","0.0-5.0-1.40","633471b7c7b5fa52a0a407a7","bdp_rd","Sat Apr 01 2023 11:57:42 GMT-0400 (Eastern Daylight Time)","188544","","null","","","","FIX","","<div class='trialBorder'><div class='vertical-center'><img style='vertical-align:center; align:center' src=img/fixation3.jpg></div></div>","null","","","","","",""
"html-keyboard-response","125","142497","0.0-5.0-2.40","633471b7c7b5fa52a0a407a7","bdp_rd","Sat Apr 01 2023 11:57:42 GMT-0400 (Eastern Daylight Time)","188544","","1639","","","","offer","","<div class='trialBorder'><div class='vertical-center'><img style='vertical-align:center; align:center' src=img/fixation3.jpg></div><div class='cl'><div class='vertical-center'>$62<br>with a<br>50% chance</div></div><div class='cr'><div class='vertical-center'>$11<br>for<br>sure</div></div><div class='respDivL'><div class='vertical-center'>(E)</div></div><div class='respDivR'><div class='vertical-center'>(I)</div></div></div>","E","$11","$62","1","11","62","RISKY"
"html-keyboard-response","126","142749","0.0-5.0-3.40","633471b7c7b5fa52a0a407a7","bdp_rd","Sat Apr 01 2023 11:57:42 GMT-0400 (Eastern Daylight Time)","188544","","null","","","","offerFB","","<div class='trialBorder'><div class='vertical-center'><img style='vertical-align:center; align:center' src=img/fixation3.jpg></div><div class='cl'><div class='vertical-center'><font style='color:orange'>$62<br>with a<br>50% chance</font></div></div><div class='cr'><div class='vertical-center'>$11<br>for<br>sure</div></div><div class='respDivL'><div class='vertical-center'><font style='color:orange'>(E)</font></div></div><div class='respDivR'><div class='vertical-center'>(I)</div></div></div>","null","$11","$62","1","11","62",""
"html-keyboard-response","127","143251","0.0-5.0-1.41","633471b7c7b5fa52a0a407a7","bdp_rd","Sat Apr 01 2023 11:57:42 GMT-0400 (Eastern Daylight Time)","188544","","null","","","","FIX","","<div class='trialBorder'><div class='vertical-center'><img style='vertical-align:center; align:center' src=img/fixation3.jpg></div></div>","null","","","","","",""
"html-keyboard-response","128","144849","0.0-5.0-2.41","633471b7c7b5fa52a0a407a7","bdp_rd","Sat Apr 01 2023 11:57:42 GMT-0400 (Eastern Daylight Time)","188544","","1598","","","","offer","","<div class='trialBorder'><div class='vertical-center'><img style='vertical-align:center; align:center' src=img/fixation3.jpg></div><div class='cl'><div class='vertical-center'>$4<br>for<br>sure</div></div><div class='cr'><div class='vertical-center'>$11<br>with a<br>50% chance</div></div><div class='respDivL'><div class='vertical-center'>(E)</div></div><div class='respDivR'><div class='vertical-center'>(I)</div></div></div>","E","$4","$11","0","4","11","SURE"
"html-keyboard-response","129","145100","0.0-5.0-3.41","633471b7c7b5fa52a0a407a7","bdp_rd","Sat Apr 01 2023 11:57:42 GMT-0400 (Eastern Daylight Time)","188544","","null","","","","offerFB","","<div class='trialBorder'><div class='vertical-center'><img style='vertical-align:center; align:center' src=img/fixation3.jpg></div><div class='cl'><div class='vertical-center'><font style='color:orange'>$4<br>for<br>sure</font></div></div><div class='cr'><div class='vertical-center'>$11<br>with a<br>50% chance</div></div><div class='respDivL'><div class='vertical-center'><font style='color:orange'>(E)</font></div></div><div class='respDivR'><div class='vertical-center'>(I)</div></div></div>","null","$4","$11","0","4","11",""
"html-keyboard-response","130","145602","0.0-5.0-1.42","633471b7c7b5fa52a0a407a7","bdp_rd","Sat Apr 01 2023 11:57:42 GMT-0400 (Eastern Daylight Time)","188544","","null","","","","FIX","","<div class='trialBorder'><div class='vertical-center'><img style='vertical-align:center; align:center' src=img/fixation3.jpg></div></div>","null","","","","","",""
"html-keyboard-response","131","146781","0.0-5.0-2.42","633471b7c7b5fa52a0a407a7","bdp_rd","Sat Apr 01 2023 11:57:42 GMT-0400 (Eastern Daylight Time)","188544","","1179","","","","offer","","<div class='trialBorder'><div class='vertical-center'><img style='vertical-align:center; align:center' src=img/fixation3.jpg></div><div class='cl'><div class='vertical-center'>$30<br>with a<br>50% chance</div></div><div class='cr'><div class='vertical-center'>$1<br>for<br>sure</div></div><div class='respDivL'><div class='vertical-center'>(E)</div></div><div class='respDivR'><div class='vertical-center'>(I)</div></div></div>","E","$1","$30","1","1","30","RISKY"
"html-keyboard-response","132","147032","0.0-5.0-3.42","633471b7c7b5fa52a0a407a7","bdp_rd","Sat Apr 01 2023 11:57:42 GMT-0400 (Eastern Daylight Time)","188544","","null","","","","offerFB","","<div class='trialBorder'><div class='vertical-center'><img style='vertical-align:center; align:center' src=img/fixation3.jpg></div><div class='cl'><div class='vertical-center'><font style='color:orange'>$30<br>with a<br>50% chance</font></div></div><div class='cr'><div class='vertical-center'>$1<br>for<br>sure</div></div><div class='respDivL'><div class='vertical-center'><font style='color:orange'>(E)</font></div></div><div class='respDivR'><div class='vertical-center'>(I)</div></div></div>","null","$1","$30","1","1","30",""
"html-keyboard-response","133","147533","0.0-5.0-1.43","633471b7c7b5fa52a0a407a7","bdp_rd","Sat Apr 01 2023 11:57:42 GMT-0400 (Eastern Daylight Time)","188544","","null","","","","FIX","","<div class='trialBorder'><div class='vertical-center'><img style='vertical-align:center; align:center' src=img/fixation3.jpg></div></div>","null","","","","","",""
"html-keyboard-response","134","149203","0.0-5.0-2.43","633471b7c7b5fa52a0a407a7","bdp_rd","Sat Apr 01 2023 11:57:42 GMT-0400 (Eastern Daylight Time)","188544","","1669","","","","offer","","<div class='trialBorder'><div class='vertical-center'><img style='vertical-align:center; align:center' src=img/fixation3.jpg></div><div class='cl'><div class='vertical-center'>$46<br>with a<br>50% chance</div></div><div class='cr'><div class='vertical-center'>$29<br>for<br>sure</div></div><div class='respDivL'><div class='vertical-center'>(E)</div></div><div class='respDivR'><div class='vertical-center'>(I)</div></div></div>","I","$29","$46","1","29","46","SURE"
"html-keyboard-response","135","149454","0.0-5.0-3.43","633471b7c7b5fa52a0a407a7","bdp_rd","Sat Apr 01 2023 11:57:42 GMT-0400 (Eastern Daylight Time)","188544","","null","","","","offerFB","","<div class='trialBorder'><div class='vertical-center'><img style='vertical-align:center; align:center' src=img/fixation3.jpg></div><div class='cl'><div class='vertical-center'>$46<br>with a<br>50% chance</div></div><div class='cr'><div class='vertical-center'><font style='color:orange'>$29<br>for<br>sure</font></div></div><div class='respDivL'><div class='vertical-center'>(E)</div></div><div class='respDivR'><div class='vertical-center'><font style='color:orange'>(I)</font></div></div></div>","null","$29","$46","1","29","46",""
"html-keyboard-response","136","149956","0.0-5.0-1.44","633471b7c7b5fa52a0a407a7","bdp_rd","Sat Apr 01 2023 11:57:42 GMT-0400 (Eastern Daylight Time)","188544","","null","","","","FIX","","<div class='trialBorder'><div class='vertical-center'><img style='vertical-align:center; align:center' src=img/fixation3.jpg></div></div>","null","","","","","",""
"html-keyboard-response","137","151725","0.0-5.0-2.44","633471b7c7b5fa52a0a407a7","bdp_rd","Sat Apr 01 2023 11:57:42 GMT-0400 (Eastern Daylight Time)","188544","","1768","","","","offer","","<div class='trialBorder'><div class='vertical-center'><img style='vertical-align:center; align:center' src=img/fixation3.jpg></div><div class='cl'><div class='vertical-center'>$22<br>for<br>sure</div></div><div class='cr'><div class='vertical-center'>$42<br>with a<br>50% chance</div></div><div class='respDivL'><div class='vertical-center'>(E)</div></div><div class='respDivR'><div class='vertical-center'>(I)</div></div></div>","E","$22","$42","0","22","42","SURE"
"html-keyboard-response","138","151977","0.0-5.0-3.44","633471b7c7b5fa52a0a407a7","bdp_rd","Sat Apr 01 2023 11:57:42 GMT-0400 (Eastern Daylight Time)","188544","","null","","","","offerFB","","<div class='trialBorder'><div class='vertical-center'><img style='vertical-align:center; align:center' src=img/fixation3.jpg></div><div class='cl'><div class='vertical-center'><font style='color:orange'>$22<br>for<br>sure</font></div></div><div class='cr'><div class='vertical-center'>$42<br>with a<br>50% chance</div></div><div class='respDivL'><div class='vertical-center'><font style='color:orange'>(E)</font></div></div><div class='respDivR'><div class='vertical-center'>(I)</div></div></div>","null","$22","$42","0","22","42",""
"html-keyboard-response","139","152479","0.0-5.0-1.45","633471b7c7b5fa52a0a407a7","bdp_rd","Sat Apr 01 2023 11:57:42 GMT-0400 (Eastern Daylight Time)","188544","","null","","","","FIX","","<div class='trialBorder'><div class='vertical-center'><img style='vertical-align:center; align:center' src=img/fixation3.jpg></div></div>","null","","","","","",""
"html-keyboard-response","140","153716","0.0-5.0-2.45","633471b7c7b5fa52a0a407a7","bdp_rd","Sat Apr 01 2023 11:57:42 GMT-0400 (Eastern Daylight Time)","188544","","1236","","","","offer","","<div class='trialBorder'><div class='vertical-center'><img style='vertical-align:center; align:center' src=img/fixation3.jpg></div><div class='cl'><div class='vertical-center'>$71<br>with a<br>50% chance</div></div><div class='cr'><div class='vertical-center'>$7<br>for<br>sure</div></div><div class='respDivL'><div class='vertical-center'>(E)</div></div><div class='respDivR'><div class='vertical-center'>(I)</div></div></div>","E","$7","$71","1","7","71","RISKY"
"html-keyboard-response","141","153968","0.0-5.0-3.45","633471b7c7b5fa52a0a407a7","bdp_rd","Sat Apr 01 2023 11:57:42 GMT-0400 (Eastern Daylight Time)","188544","","null","","","","offerFB","","<div class='trialBorder'><div class='vertical-center'><img style='vertical-align:center; align:center' src=img/fixation3.jpg></div><div class='cl'><div class='vertical-center'><font style='color:orange'>$71<br>with a<br>50% chance</font></div></div><div class='cr'><div class='vertical-center'>$7<br>for<br>sure</div></div><div class='respDivL'><div class='vertical-center'><font style='color:orange'>(E)</font></div></div><div class='respDivR'><div class='vertical-center'>(I)</div></div></div>","null","$7","$71","1","7","71",""
"html-keyboard-response","142","154469","0.0-5.0-1.46","633471b7c7b5fa52a0a407a7","bdp_rd","Sat Apr 01 2023 11:57:42 GMT-0400 (Eastern Daylight Time)","188544","","null","","","","FIX","","<div class='trialBorder'><div class='vertical-center'><img style='vertical-align:center; align:center' src=img/fixation3.jpg></div></div>","null","","","","","",""
"html-keyboard-response","143","155537","0.0-5.0-2.46","633471b7c7b5fa52a0a407a7","bdp_rd","Sat Apr 01 2023 11:57:42 GMT-0400 (Eastern Daylight Time)","188544","","1067","","","","offer","","<div class='trialBorder'><div class='vertical-center'><img style='vertical-align:center; align:center' src=img/fixation3.jpg></div><div class='cl'><div class='vertical-center'>$3<br>for<br>sure</div></div><div class='cr'><div class='vertical-center'>$17<br>with a<br>50% chance</div></div><div class='respDivL'><div class='vertical-center'>(E)</div></div><div class='respDivR'><div class='vertical-center'>(I)</div></div></div>","I","$3","$17","0","3","17","RISKY"
"html-keyboard-response","144","155789","0.0-5.0-3.46","633471b7c7b5fa52a0a407a7","bdp_rd","Sat Apr 01 2023 11:57:42 GMT-0400 (Eastern Daylight Time)","188544","","null","","","","offerFB","","<div class='trialBorder'><div class='vertical-center'><img style='vertical-align:center; align:center' src=img/fixation3.jpg></div><div class='cl'><div class='vertical-center'>$3<br>for<br>sure</div></div><div class='cr'><div class='vertical-center'><font style='color:orange'>$17<br>with a<br>50% chance</font></div></div><div class='respDivL'><div class='vertical-center'>(E)</div></div><div class='respDivR'><div class='vertical-center'><font style='color:orange'>(I)</font></div></div></div>","null","$3","$17","0","3","17",""
"html-keyboard-response","145","156291","0.0-5.0-1.47","633471b7c7b5fa52a0a407a7","bdp_rd","Sat Apr 01 2023 11:57:42 GMT-0400 (Eastern Daylight Time)","188544","","null","","","","FIX","","<div class='trialBorder'><div class='vertical-center'><img style='vertical-align:center; align:center' src=img/fixation3.jpg></div></div>","null","","","","","",""
"html-keyboard-response","146","157770","0.0-5.0-2.47","633471b7c7b5fa52a0a407a7","bdp_rd","Sat Apr 01 2023 11:57:42 GMT-0400 (Eastern Daylight Time)","188544","","1479","","","","offer","","<div class='trialBorder'><div class='vertical-center'><img style='vertical-align:center; align:center' src=img/fixation3.jpg></div><div class='cl'><div class='vertical-center'>$14<br>for<br>sure</div></div><div class='cr'><div class='vertical-center'>$22<br>with a<br>50% chance</div></div><div class='respDivL'><div class='vertical-center'>(E)</div></div><div class='respDivR'><div class='vertical-center'>(I)</div></div></div>","I","$14","$22","0","14","22","RISKY"
"html-keyboard-response","147","158021","0.0-5.0-3.47","633471b7c7b5fa52a0a407a7","bdp_rd","Sat Apr 01 2023 11:57:42 GMT-0400 (Eastern Daylight Time)","188544","","null","","","","offerFB","","<div class='trialBorder'><div class='vertical-center'><img style='vertical-align:center; align:center' src=img/fixation3.jpg></div><div class='cl'><div class='vertical-center'>$14<br>for<br>sure</div></div><div class='cr'><div class='vertical-center'><font style='color:orange'>$22<br>with a<br>50% chance</font></div></div><div class='respDivL'><div class='vertical-center'>(E)</div></div><div class='respDivR'><div class='vertical-center'><font style='color:orange'>(I)</font></div></div></div>","null","$14","$22","0","14","22",""
"html-keyboard-response","148","158523","0.0-5.0-1.48","633471b7c7b5fa52a0a407a7","bdp_rd","Sat Apr 01 2023 11:57:42 GMT-0400 (Eastern Daylight Time)","188544","","null","","","","FIX","","<div class='trialBorder'><div class='vertical-center'><img style='vertical-align:center; align:center' src=img/fixation3.jpg></div></div>","null","","","","","",""
"html-keyboard-response","149","160591","0.0-5.0-2.48","633471b7c7b5fa52a0a407a7","bdp_rd","Sat Apr 01 2023 11:57:42 GMT-0400 (Eastern Daylight Time)","188544","","2068","","","","offer","","<div class='trialBorder'><div class='vertical-center'><img style='vertical-align:center; align:center' src=img/fixation3.jpg></div><div class='cl'><div class='vertical-center'>$16<br>for<br>sure</div></div><div class='cr'><div class='vertical-center'>$38<br>with a<br>50% chance</div></div><div class='respDivL'><div class='vertical-center'>(E)</div></div><div class='respDivR'><div class='vertical-center'>(I)</div></div></div>","I","$16","$38","0","16","38","RISKY"
"html-keyboard-response","150","160844","0.0-5.0-3.48","633471b7c7b5fa52a0a407a7","bdp_rd","Sat Apr 01 2023 11:57:42 GMT-0400 (Eastern Daylight Time)","188544","","null","","","","offerFB","","<div class='trialBorder'><div class='vertical-center'><img style='vertical-align:center; align:center' src=img/fixation3.jpg></div><div class='cl'><div class='vertical-center'>$16<br>for<br>sure</div></div><div class='cr'><div class='vertical-center'><font style='color:orange'>$38<br>with a<br>50% chance</font></div></div><div class='respDivL'><div class='vertical-center'>(E)</div></div><div class='respDivR'><div class='vertical-center'><font style='color:orange'>(I)</font></div></div></div>","null","$16","$38","0","16","38",""
"html-keyboard-response","151","161345","0.0-5.0-1.49","633471b7c7b5fa52a0a407a7","bdp_rd","Sat Apr 01 2023 11:57:42 GMT-0400 (Eastern Daylight Time)","188544","","null","","","","FIX","","<div class='trialBorder'><div class='vertical-center'><img style='vertical-align:center; align:center' src=img/fixation3.jpg></div></div>","null","","","","","",""
"html-keyboard-response","152","162493","0.0-5.0-2.49","633471b7c7b5fa52a0a407a7","bdp_rd","Sat Apr 01 2023 11:57:42 GMT-0400 (Eastern Daylight Time)","188544","","1148","","","","offer","","<div class='trialBorder'><div class='vertical-center'><img style='vertical-align:center; align:center' src=img/fixation3.jpg></div><div class='cl'><div class='vertical-center'>$64<br>with a<br>50% chance</div></div><div class='cr'><div class='vertical-center'>$2<br>for<br>sure</div></div><div class='respDivL'><div class='vertical-center'>(E)</div></div><div class='respDivR'><div class='vertical-center'>(I)</div></div></div>","E","$2","$64","1","2","64","RISKY"
"html-keyboard-response","153","162744","0.0-5.0-3.49","633471b7c7b5fa52a0a407a7","bdp_rd","Sat Apr 01 2023 11:57:42 GMT-0400 (Eastern Daylight Time)","188544","","null","","","","offerFB","","<div class='trialBorder'><div class='vertical-center'><img style='vertical-align:center; align:center' src=img/fixation3.jpg></div><div class='cl'><div class='vertical-center'><font style='color:orange'>$64<br>with a<br>50% chance</font></div></div><div class='cr'><div class='vertical-center'>$2<br>for<br>sure</div></div><div class='respDivL'><div class='vertical-center'><font style='color:orange'>(E)</font></div></div><div class='respDivR'><div class='vertical-center'>(I)</div></div></div>","null","$2","$64","1","2","64",""
"html-keyboard-response","154","163246","0.0-5.0-1.50","633471b7c7b5fa52a0a407a7","bdp_rd","Sat Apr 01 2023 11:57:42 GMT-0400 (Eastern Daylight Time)","188544","","null","","","","FIX","","<div class='trialBorder'><div class='vertical-center'><img style='vertical-align:center; align:center' src=img/fixation3.jpg></div></div>","null","","","","","",""
"html-keyboard-response","155","164504","0.0-5.0-2.50","633471b7c7b5fa52a0a407a7","bdp_rd","Sat Apr 01 2023 11:57:42 GMT-0400 (Eastern Daylight Time)","188544","","1258","","","","offer","","<div class='trialBorder'><div class='vertical-center'><img style='vertical-align:center; align:center' src=img/fixation3.jpg></div><div class='cl'><div class='vertical-center'>$8<br>for<br>sure</div></div><div class='cr'><div class='vertical-center'>$23<br>with a<br>50% chance</div></div><div class='respDivL'><div class='vertical-center'>(E)</div></div><div class='respDivR'><div class='vertical-center'>(I)</div></div></div>","I","$8","$23","0","8","23","RISKY"
"html-keyboard-response","156","164755","0.0-5.0-3.50","633471b7c7b5fa52a0a407a7","bdp_rd","Sat Apr 01 2023 11:57:42 GMT-0400 (Eastern Daylight Time)","188544","","null","","","","offerFB","","<div class='trialBorder'><div class='vertical-center'><img style='vertical-align:center; align:center' src=img/fixation3.jpg></div><div class='cl'><div class='vertical-center'>$8<br>for<br>sure</div></div><div class='cr'><div class='vertical-center'><font style='color:orange'>$23<br>with a<br>50% chance</font></div></div><div class='respDivL'><div class='vertical-center'>(E)</div></div><div class='respDivR'><div class='vertical-center'><font style='color:orange'>(I)</font></div></div></div>","null","$8","$23","0","8","23",""
"html-keyboard-response","157","165257","0.0-5.0-1.51","633471b7c7b5fa52a0a407a7","bdp_rd","Sat Apr 01 2023 11:57:42 GMT-0400 (Eastern Daylight Time)","188544","","null","","","","FIX","","<div class='trialBorder'><div class='vertical-center'><img style='vertical-align:center; align:center' src=img/fixation3.jpg></div></div>","null","","","","","",""
"html-keyboard-response","158","167226","0.0-5.0-2.51","633471b7c7b5fa52a0a407a7","bdp_rd","Sat Apr 01 2023 11:57:42 GMT-0400 (Eastern Daylight Time)","188544","","1969","","","","offer","","<div class='trialBorder'><div class='vertical-center'><img style='vertical-align:center; align:center' src=img/fixation3.jpg></div><div class='cl'><div class='vertical-center'>$25<br>for<br>sure</div></div><div class='cr'><div class='vertical-center'>$54<br>with a<br>50% chance</div></div><div class='respDivL'><div class='vertical-center'>(E)</div></div><div class='respDivR'><div class='vertical-center'>(I)</div></div></div>","E","$25","$54","0","25","54","SURE"
"html-keyboard-response","159","167478","0.0-5.0-3.51","633471b7c7b5fa52a0a407a7","bdp_rd","Sat Apr 01 2023 11:57:42 GMT-0400 (Eastern Daylight Time)","188544","","null","","","","offerFB","","<div class='trialBorder'><div class='vertical-center'><img style='vertical-align:center; align:center' src=img/fixation3.jpg></div><div class='cl'><div class='vertical-center'><font style='color:orange'>$25<br>for<br>sure</font></div></div><div class='cr'><div class='vertical-center'>$54<br>with a<br>50% chance</div></div><div class='respDivL'><div class='vertical-center'><font style='color:orange'>(E)</font></div></div><div class='respDivR'><div class='vertical-center'>(I)</div></div></div>","null","$25","$54","0","25","54",""
"html-keyboard-response","160","167979","0.0-5.0-1.52","633471b7c7b5fa52a0a407a7","bdp_rd","Sat Apr 01 2023 11:57:42 GMT-0400 (Eastern Daylight Time)","188544","","null","","","","FIX","","<div class='trialBorder'><div class='vertical-center'><img style='vertical-align:center; align:center' src=img/fixation3.jpg></div></div>","null","","","","","",""
"html-keyboard-response","161","169818","0.0-5.0-2.52","633471b7c7b5fa52a0a407a7","bdp_rd","Sat Apr 01 2023 11:57:42 GMT-0400 (Eastern Daylight Time)","188544","","1839","","","","offer","","<div class='trialBorder'><div class='vertical-center'><img style='vertical-align:center; align:center' src=img/fixation3.jpg></div><div class='cl'><div class='vertical-center'>$18<br>with a<br>50% chance</div></div><div class='cr'><div class='vertical-center'>$9<br>for<br>sure</div></div><div class='respDivL'><div class='vertical-center'>(E)</div></div><div class='respDivR'><div class='vertical-center'>(I)</div></div></div>","I","$9","$18","1","9","18","SURE"
"html-keyboard-response","162","170069","0.0-5.0-3.52","633471b7c7b5fa52a0a407a7","bdp_rd","Sat Apr 01 2023 11:57:42 GMT-0400 (Eastern Daylight Time)","188544","","null","","","","offerFB","","<div class='trialBorder'><div class='vertical-center'><img style='vertical-align:center; align:center' src=img/fixation3.jpg></div><div class='cl'><div class='vertical-center'>$18<br>with a<br>50% chance</div></div><div class='cr'><div class='vertical-center'><font style='color:orange'>$9<br>for<br>sure</font></div></div><div class='respDivL'><div class='vertical-center'>(E)</div></div><div class='respDivR'><div class='vertical-center'><font style='color:orange'>(I)</font></div></div></div>","null","$9","$18","1","9","18",""
"html-keyboard-response","163","170571","0.0-5.0-1.53","633471b7c7b5fa52a0a407a7","bdp_rd","Sat Apr 01 2023 11:57:42 GMT-0400 (Eastern Daylight Time)","188544","","null","","","","FIX","","<div class='trialBorder'><div class='vertical-center'><img style='vertical-align:center; align:center' src=img/fixation3.jpg></div></div>","null","","","","","",""
"html-keyboard-response","164","171329","0.0-5.0-2.53","633471b7c7b5fa52a0a407a7","bdp_rd","Sat Apr 01 2023 11:57:42 GMT-0400 (Eastern Daylight Time)","188544","","758","","","","offer","","<div class='trialBorder'><div class='vertical-center'><img style='vertical-align:center; align:center' src=img/fixation3.jpg></div><div class='cl'><div class='vertical-center'>$73<br>with a<br>50% chance</div></div><div class='cr'><div class='vertical-center'>$42<br>for<br>sure</div></div><div class='respDivL'><div class='vertical-center'>(E)</div></div><div class='respDivR'><div class='vertical-center'>(I)</div></div></div>","E","$42","$73","1","42","73","RISKY"
"html-keyboard-response","165","171581","0.0-5.0-3.53","633471b7c7b5fa52a0a407a7","bdp_rd","Sat Apr 01 2023 11:57:42 GMT-0400 (Eastern Daylight Time)","188544","","null","","","","offerFB","","<div class='trialBorder'><div class='vertical-center'><img style='vertical-align:center; align:center' src=img/fixation3.jpg></div><div class='cl'><div class='vertical-center'><font style='color:orange'>$73<br>with a<br>50% chance</font></div></div><div class='cr'><div class='vertical-center'>$42<br>for<br>sure</div></div><div class='respDivL'><div class='vertical-center'><font style='color:orange'>(E)</font></div></div><div class='respDivR'><div class='vertical-center'>(I)</div></div></div>","null","$42","$73","1","42","73",""
"html-keyboard-response","166","172083","0.0-5.0-1.54","633471b7c7b5fa52a0a407a7","bdp_rd","Sat Apr 01 2023 11:57:42 GMT-0400 (Eastern Daylight Time)","188544","","null","","","","FIX","","<div class='trialBorder'><div class='vertical-center'><img style='vertical-align:center; align:center' src=img/fixation3.jpg></div></div>","null","","","","","",""
"html-keyboard-response","167","174522","0.0-5.0-2.54","633471b7c7b5fa52a0a407a7","bdp_rd","Sat Apr 01 2023 11:57:42 GMT-0400 (Eastern Daylight Time)","188544","","2439","","","","offer","","<div class='trialBorder'><div class='vertical-center'><img style='vertical-align:center; align:center' src=img/fixation3.jpg></div><div class='cl'><div class='vertical-center'>$59<br>with a<br>50% chance</div></div><div class='cr'><div class='vertical-center'>$22<br>for<br>sure</div></div><div class='respDivL'><div class='vertical-center'>(E)</div></div><div class='respDivR'><div class='vertical-center'>(I)</div></div></div>","I","$22","$59","1","22","59","SURE"
"html-keyboard-response","168","174774","0.0-5.0-3.54","633471b7c7b5fa52a0a407a7","bdp_rd","Sat Apr 01 2023 11:57:42 GMT-0400 (Eastern Daylight Time)","188544","","null","","","","offerFB","","<div class='trialBorder'><div class='vertical-center'><img style='vertical-align:center; align:center' src=img/fixation3.jpg></div><div class='cl'><div class='vertical-center'>$59<br>with a<br>50% chance</div></div><div class='cr'><div class='vertical-center'><font style='color:orange'>$22<br>for<br>sure</font></div></div><div class='respDivL'><div class='vertical-center'>(E)</div></div><div class='respDivR'><div class='vertical-center'><font style='color:orange'>(I)</font></div></div></div>","null","$22","$59","1","22","59",""
"html-keyboard-response","169","175276","0.0-5.0-1.55","633471b7c7b5fa52a0a407a7","bdp_rd","Sat Apr 01 2023 11:57:42 GMT-0400 (Eastern Daylight Time)","188544","","null","","","","FIX","","<div class='trialBorder'><div class='vertical-center'><img style='vertical-align:center; align:center' src=img/fixation3.jpg></div></div>","null","","","","","",""
"html-keyboard-response","170","176404","0.0-5.0-2.55","633471b7c7b5fa52a0a407a7","bdp_rd","Sat Apr 01 2023 11:57:42 GMT-0400 (Eastern Daylight Time)","188544","","1128","","","","offer","","<div class='trialBorder'><div class='vertical-center'><img style='vertical-align:center; align:center' src=img/fixation3.jpg></div><div class='cl'><div class='vertical-center'>$12<br>with a<br>50% chance</div></div><div class='cr'><div class='vertical-center'>$3<br>for<br>sure</div></div><div class='respDivL'><div class='vertical-center'>(E)</div></div><div class='respDivR'><div class='vertical-center'>(I)</div></div></div>","E","$3","$12","1","3","12","RISKY"
"html-keyboard-response","171","176655","0.0-5.0-3.55","633471b7c7b5fa52a0a407a7","bdp_rd","Sat Apr 01 2023 11:57:42 GMT-0400 (Eastern Daylight Time)","188544","","null","","","","offerFB","","<div class='trialBorder'><div class='vertical-center'><img style='vertical-align:center; align:center' src=img/fixation3.jpg></div><div class='cl'><div class='vertical-center'><font style='color:orange'>$12<br>with a<br>50% chance</font></div></div><div class='cr'><div class='vertical-center'>$3<br>for<br>sure</div></div><div class='respDivL'><div class='vertical-center'><font style='color:orange'>(E)</font></div></div><div class='respDivR'><div class='vertical-center'>(I)</div></div></div>","null","$3","$12","1","3","12",""
"html-keyboard-response","172","177157","0.0-5.0-1.56","633471b7c7b5fa52a0a407a7","bdp_rd","Sat Apr 01 2023 11:57:42 GMT-0400 (Eastern Daylight Time)","188544","","null","","","","FIX","","<div class='trialBorder'><div class='vertical-center'><img style='vertical-align:center; align:center' src=img/fixation3.jpg></div></div>","null","","","","","",""
"html-keyboard-response","173","178565","0.0-5.0-2.56","633471b7c7b5fa52a0a407a7","bdp_rd","Sat Apr 01 2023 11:57:42 GMT-0400 (Eastern Daylight Time)","188544","","1407","","","","offer","","<div class='trialBorder'><div class='vertical-center'><img style='vertical-align:center; align:center' src=img/fixation3.jpg></div><div class='cl'><div class='vertical-center'>$95<br>with a<br>50% chance</div></div><div class='cr'><div class='vertical-center'>$40<br>for<br>sure</div></div><div class='respDivL'><div class='vertical-center'>(E)</div></div><div class='respDivR'><div class='vertical-center'>(I)</div></div></div>","E","$40","$95","1","40","95","RISKY"
