"trial_type","trial_index","time_elapsed","internal_node_id","subject_id","task","startTime","totalTime","view_history","rt","event","trial","time","trialtype","success","stimulus","key_press","sureOffer","riskyOffer","riskyLeft","sureAmt","riskyAmt","chosen"
"pavlovia","0","4","0.0-0.0","63d69e4d6648b39324fdf0ad","bdp_rd","Mon Mar 27 2023 10:29:10 GMT-0400 (Eastern Daylight Time)","130383","","","","","","","","","","","","","","",""
"instructions","1","603","0.0-1.0","63d69e4d6648b39324fdf0ad","bdp_rd","Mon Mar 27 2023 10:29:10 GMT-0400 (Eastern Daylight Time)","130383","[{""page_index"":0,""viewing_time"":599}]","599","","","","","","","","","","","","",""
"","","","","63d69e4d6648b39324fdf0ad","bdp_rd","Mon Mar 27 2023 10:29:10 GMT-0400 (Eastern Daylight Time)","130383","","","fullscreenenter","2","1324","fullscreenenter","","","","","","","","",""
"fullscreen","2","2299","0.0-2.0","63d69e4d6648b39324fdf0ad","bdp_rd","Mon Mar 27 2023 10:29:10 GMT-0400 (Eastern Daylight Time)","130383","","","","","","","true","","","","","","","",""
"instructions","3","11880","0.0-4.0","63d69e4d6648b39324fdf0ad","bdp_rd","Mon Mar 27 2023 10:29:10 GMT-0400 (Eastern Daylight Time)","130383","[{""page_index"":0,""viewing_time"":6524},{""page_index"":1,""viewing_time"":1848},{""page_index"":2,""viewing_time"":1207}]","9579","","","","","","","","","","","","",""
"html-keyboard-response","4","12382","0.0-5.0-1.0","63d69e4d6648b39324fdf0ad","bdp_rd","Mon Mar 27 2023 10:29:10 GMT-0400 (Eastern Daylight Time)","130383","","null","","","","FIX","","<div class='trialBorder'><div class='vertical-center'><img style='vertical-align:center; align:center' src=img/fixation3.jpg></div></div>","null","","","","","",""
"html-keyboard-response","5","14885","0.0-5.0-2.0","63d69e4d6648b39324fdf0ad","bdp_rd","Mon Mar 27 2023 10:29:10 GMT-0400 (Eastern Daylight Time)","130383","","2502","","","","offer","","<div class='trialBorder'><div class='vertical-center'><img style='vertical-align:center; align:center' src=img/fixation3.jpg></div><div class='cl'><div class='vertical-center'>$36<br>with a<br>50% chance</div></div><div class='cr'><div class='vertical-center'>$18<br>for<br>sure</div></div><div class='respDivL'><div class='vertical-center'>(E)</div></div><div class='respDivR'><div class='vertical-center'>(I)</div></div></div>","I","$18","$36","1","18","36","SURE"
"html-keyboard-response","6","15137","0.0-5.0-3.0","63d69e4d6648b39324fdf0ad","bdp_rd","Mon Mar 27 2023 10:29:10 GMT-0400 (Eastern Daylight Time)","130383","","null","","","","offerFB","","<div class='trialBorder'><div class='vertical-center'><img style='vertical-align:center; align:center' src=img/fixation3.jpg></div><div class='cl'><div class='vertical-center'>$36<br>with a<br>50% chance</div></div><div class='cr'><div class='vertical-center'><font style='color:orange'>$18<br>for<br>sure</font></div></div><div class='respDivL'><div class='vertical-center'>(E)</div></div><div class='respDivR'><div class='vertical-center'><font style='color:orange'>(I)</font></div></div></div>","null","$18","$36","1","18","36",""
"html-keyboard-response","7","15638","0.0-5.0-1.1","63d69e4d6648b39324fdf0ad","bdp_rd","Mon Mar 27 2023 10:29:10 GMT-0400 (Eastern Daylight Time)","130383","","null","","","","FIX","","<div class='trialBorder'><div class='vertical-center'><img style='vertical-align:center; align:center' src=img/fixation3.jpg></div></div>","null","","","","","",""
"html-keyboard-response","8","16630","0.0-5.0-2.1","63d69e4d6648b39324fdf0ad","bdp_rd","Mon Mar 27 2023 10:29:10 GMT-0400 (Eastern Daylight Time)","130383","","991","","","","offer","","<div class='trialBorder'><div class='vertical-center'><img style='vertical-align:center; align:center' src=img/fixation3.jpg></div><div class='cl'><div class='vertical-center'>$29<br>for<br>sure</div></div><div class='cr'><div class='vertical-center'>$46<br>with a<br>50% chance</div></div><div class='respDivL'><div class='vertical-center'>(E)</div></div><div class='respDivR'><div class='vertical-center'>(I)</div></div></div>","E","$29","$46","0","29","46","SURE"
"html-keyboard-response","9","16883","0.0-5.0-3.1","63d69e4d6648b39324fdf0ad","bdp_rd","Mon Mar 27 2023 10:29:10 GMT-0400 (Eastern Daylight Time)","130383","","null","","","","offerFB","","<div class='trialBorder'><div class='vertical-center'><img style='vertical-align:center; align:center' src=img/fixation3.jpg></div><div class='cl'><div class='vertical-center'><font style='color:orange'>$29<br>for<br>sure</font></div></div><div class='cr'><div class='vertical-center'>$46<br>with a<br>50% chance</div></div><div class='respDivL'><div class='vertical-center'><font style='color:orange'>(E)</font></div></div><div class='respDivR'><div class='vertical-center'>(I)</div></div></div>","null","$29","$46","0","29","46",""
"html-keyboard-response","10","17384","0.0-5.0-1.2","63d69e4d6648b39324fdf0ad","bdp_rd","Mon Mar 27 2023 10:29:10 GMT-0400 (Eastern Daylight Time)","130383","","null","","","","FIX","","<div class='trialBorder'><div class='vertical-center'><img style='vertical-align:center; align:center' src=img/fixation3.jpg></div></div>","null","","","","","",""
"html-keyboard-response","11","18821","0.0-5.0-2.2","63d69e4d6648b39324fdf0ad","bdp_rd","Mon Mar 27 2023 10:29:10 GMT-0400 (Eastern Daylight Time)","130383","","1436","","","","offer","","<div class='trialBorder'><div class='vertical-center'><img style='vertical-align:center; align:center' src=img/fixation3.jpg></div><div class='cl'><div class='vertical-center'>$65<br>with a<br>50% chance</div></div><div class='cr'><div class='vertical-center'>$46<br>for<br>sure</div></div><div class='respDivL'><div class='vertical-center'>(E)</div></div><div class='respDivR'><div class='vertical-center'>(I)</div></div></div>","I","$46","$65","1","46","65","SURE"
"html-keyboard-response","12","19072","0.0-5.0-3.2","63d69e4d6648b39324fdf0ad","bdp_rd","Mon Mar 27 2023 10:29:10 GMT-0400 (Eastern Daylight Time)","130383","","null","","","","offerFB","","<div class='trialBorder'><div class='vertical-center'><img style='vertical-align:center; align:center' src=img/fixation3.jpg></div><div class='cl'><div class='vertical-center'>$65<br>with a<br>50% chance</div></div><div class='cr'><div class='vertical-center'><font style='color:orange'>$46<br>for<br>sure</font></div></div><div class='respDivL'><div class='vertical-center'>(E)</div></div><div class='respDivR'><div class='vertical-center'><font style='color:orange'>(I)</font></div></div></div>","null","$46","$65","1","46","65",""
"html-keyboard-response","13","19574","0.0-5.0-1.3","63d69e4d6648b39324fdf0ad","bdp_rd","Mon Mar 27 2023 10:29:10 GMT-0400 (Eastern Daylight Time)","130383","","null","","","","FIX","","<div class='trialBorder'><div class='vertical-center'><img style='vertical-align:center; align:center' src=img/fixation3.jpg></div></div>","null","","","","","",""
"html-keyboard-response","14","21270","0.0-5.0-2.3","63d69e4d6648b39324fdf0ad","bdp_rd","Mon Mar 27 2023 10:29:10 GMT-0400 (Eastern Daylight Time)","130383","","1695","","","","offer","","<div class='trialBorder'><div class='vertical-center'><img style='vertical-align:center; align:center' src=img/fixation3.jpg></div><div class='cl'><div class='vertical-center'>$39<br>for<br>sure</div></div><div class='cr'><div class='vertical-center'>$81<br>with a<br>50% chance</div></div><div class='respDivL'><div class='vertical-center'>(E)</div></div><div class='respDivR'><div class='vertical-center'>(I)</div></div></div>","I","$39","$81","0","39","81","RISKY"
"html-keyboard-response","15","21522","0.0-5.0-3.3","63d69e4d6648b39324fdf0ad","bdp_rd","Mon Mar 27 2023 10:29:10 GMT-0400 (Eastern Daylight Time)","130383","","null","","","","offerFB","","<div class='trialBorder'><div class='vertical-center'><img style='vertical-align:center; align:center' src=img/fixation3.jpg></div><div class='cl'><div class='vertical-center'>$39<br>for<br>sure</div></div><div class='cr'><div class='vertical-center'><font style='color:orange'>$81<br>with a<br>50% chance</font></div></div><div class='respDivL'><div class='vertical-center'>(E)</div></div><div class='respDivR'><div class='vertical-center'><font style='color:orange'>(I)</font></div></div></div>","null","$39","$81","0","39","81",""
"html-keyboard-response","16","22024","0.0-5.0-1.4","63d69e4d6648b39324fdf0ad","bdp_rd","Mon Mar 27 2023 10:29:10 GMT-0400 (Eastern Daylight Time)","130383","","null","","","","FIX","","<div class='trialBorder'><div class='vertical-center'><img style='vertical-align:center; align:center' src=img/fixation3.jpg></div></div>","null","","","","","",""
"html-keyboard-response","17","23812","0.0-5.0-2.4","63d69e4d6648b39324fdf0ad","bdp_rd","Mon Mar 27 2023 10:29:10 GMT-0400 (Eastern Daylight Time)","130383","","1787","","","","offer","","<div class='trialBorder'><div class='vertical-center'><img style='vertical-align:center; align:center' src=img/fixation3.jpg></div><div class='cl'><div class='vertical-center'>$10<br>for<br>sure</div></div><div class='cr'><div class='vertical-center'>$19<br>with a<br>50% chance</div></div><div class='respDivL'><div class='vertical-center'>(E)</div></div><div class='respDivR'><div class='vertical-center'>(I)</div></div></div>","E","$10","$19","0","10","19","SURE"
"html-keyboard-response","18","24064","0.0-5.0-3.4","63d69e4d6648b39324fdf0ad","bdp_rd","Mon Mar 27 2023 10:29:10 GMT-0400 (Eastern Daylight Time)","130383","","null","","","","offerFB","","<div class='trialBorder'><div class='vertical-center'><img style='vertical-align:center; align:center' src=img/fixation3.jpg></div><div class='cl'><div class='vertical-center'><font style='color:orange'>$10<br>for<br>sure</font></div></div><div class='cr'><div class='vertical-center'>$19<br>with a<br>50% chance</div></div><div class='respDivL'><div class='vertical-center'><font style='color:orange'>(E)</font></div></div><div class='respDivR'><div class='vertical-center'>(I)</div></div></div>","null","$10","$19","0","10","19",""
"html-keyboard-response","19","24566","0.0-5.0-1.5","63d69e4d6648b39324fdf0ad","bdp_rd","Mon Mar 27 2023 10:29:10 GMT-0400 (Eastern Daylight Time)","130383","","null","","","","FIX","","<div class='trialBorder'><div class='vertical-center'><img style='vertical-align:center; align:center' src=img/fixation3.jpg></div></div>","null","","","","","",""
"html-keyboard-response","20","25546","0.0-5.0-2.5","63d69e4d6648b39324fdf0ad","bdp_rd","Mon Mar 27 2023 10:29:10 GMT-0400 (Eastern Daylight Time)","130383","","979","","","","offer","","<div class='trialBorder'><div class='vertical-center'><img style='vertical-align:center; align:center' src=img/fixation3.jpg></div><div class='cl'><div class='vertical-center'>$25<br>with a<br>50% chance</div></div><div class='cr'><div class='vertical-center'>$21<br>for<br>sure</div></div><div class='respDivL'><div class='vertical-center'>(E)</div></div><div class='respDivR'><div class='vertical-center'>(I)</div></div></div>","I","$21","$25","1","21","25","SURE"
"html-keyboard-response","21","25798","0.0-5.0-3.5","63d69e4d6648b39324fdf0ad","bdp_rd","Mon Mar 27 2023 10:29:10 GMT-0400 (Eastern Daylight Time)","130383","","null","","","","offerFB","","<div class='trialBorder'><div class='vertical-center'><img style='vertical-align:center; align:center' src=img/fixation3.jpg></div><div class='cl'><div class='vertical-center'>$25<br>with a<br>50% chance</div></div><div class='cr'><div class='vertical-center'><font style='color:orange'>$21<br>for<br>sure</font></div></div><div class='respDivL'><div class='vertical-center'>(E)</div></div><div class='respDivR'><div class='vertical-center'><font style='color:orange'>(I)</font></div></div></div>","null","$21","$25","1","21","25",""
"html-keyboard-response","22","26299","0.0-5.0-1.6","63d69e4d6648b39324fdf0ad","bdp_rd","Mon Mar 27 2023 10:29:10 GMT-0400 (Eastern Daylight Time)","130383","","null","","","","FIX","","<div class='trialBorder'><div class='vertical-center'><img style='vertical-align:center; align:center' src=img/fixation3.jpg></div></div>","null","","","","","",""
"html-keyboard-response","23","27517","0.0-5.0-2.6","63d69e4d6648b39324fdf0ad","bdp_rd","Mon Mar 27 2023 10:29:10 GMT-0400 (Eastern Daylight Time)","130383","","1217","","","","offer","","<div class='trialBorder'><div class='vertical-center'><img style='vertical-align:center; align:center' src=img/fixation3.jpg></div><div class='cl'><div class='vertical-center'>$45<br>for<br>sure</div></div><div class='cr'><div class='vertical-center'>$86<br>with a<br>50% chance</div></div><div class='respDivL'><div class='vertical-center'>(E)</div></div><div class='respDivR'><div class='vertical-center'>(I)</div></div></div>","I","$45","$86","0","45","86","RISKY"
"html-keyboard-response","24","27768","0.0-5.0-3.6","63d69e4d6648b39324fdf0ad","bdp_rd","Mon Mar 27 2023 10:29:10 GMT-0400 (Eastern Daylight Time)","130383","","null","","","","offerFB","","<div class='trialBorder'><div class='vertical-center'><img style='vertical-align:center; align:center' src=img/fixation3.jpg></div><div class='cl'><div class='vertical-center'>$45<br>for<br>sure</div></div><div class='cr'><div class='vertical-center'><font style='color:orange'>$86<br>with a<br>50% chance</font></div></div><div class='respDivL'><div class='vertical-center'>(E)</div></div><div class='respDivR'><div class='vertical-center'><font style='color:orange'>(I)</font></div></div></div>","null","$45","$86","0","45","86",""
"html-keyboard-response","25","28270","0.0-5.0-1.7","63d69e4d6648b39324fdf0ad","bdp_rd","Mon Mar 27 2023 10:29:10 GMT-0400 (Eastern Daylight Time)","130383","","null","","","","FIX","","<div class='trialBorder'><div class='vertical-center'><img style='vertical-align:center; align:center' src=img/fixation3.jpg></div></div>","null","","","","","",""
"html-keyboard-response","26","28996","0.0-5.0-2.7","63d69e4d6648b39324fdf0ad","bdp_rd","Mon Mar 27 2023 10:29:10 GMT-0400 (Eastern Daylight Time)","130383","","726","","","","offer","","<div class='trialBorder'><div class='vertical-center'><img style='vertical-align:center; align:center' src=img/fixation3.jpg></div><div class='cl'><div class='vertical-center'>$38<br>with a<br>50% chance</div></div><div class='cr'><div class='vertical-center'>$16<br>for<br>sure</div></div><div class='respDivL'><div class='vertical-center'>(E)</div></div><div class='respDivR'><div class='vertical-center'>(I)</div></div></div>","I","$16","$38","1","16","38","SURE"
"html-keyboard-response","27","29248","0.0-5.0-3.7","63d69e4d6648b39324fdf0ad","bdp_rd","Mon Mar 27 2023 10:29:10 GMT-0400 (Eastern Daylight Time)","130383","","null","","","","offerFB","","<div class='trialBorder'><div class='vertical-center'><img style='vertical-align:center; align:center' src=img/fixation3.jpg></div><div class='cl'><div class='vertical-center'>$38<br>with a<br>50% chance</div></div><div class='cr'><div class='vertical-center'><font style='color:orange'>$16<br>for<br>sure</font></div></div><div class='respDivL'><div class='vertical-center'>(E)</div></div><div class='respDivR'><div class='vertical-center'><font style='color:orange'>(I)</font></div></div></div>","null","$16","$38","1","16","38",""
"html-keyboard-response","28","29749","0.0-5.0-1.8","63d69e4d6648b39324fdf0ad","bdp_rd","Mon Mar 27 2023 10:29:10 GMT-0400 (Eastern Daylight Time)","130383","","null","","","","FIX","","<div class='trialBorder'><div class='vertical-center'><img style='vertical-align:center; align:center' src=img/fixation3.jpg></div></div>","null","","","","","",""
"html-keyboard-response","29","31382","0.0-5.0-2.8","63d69e4d6648b39324fdf0ad","bdp_rd","Mon Mar 27 2023 10:29:10 GMT-0400 (Eastern Daylight Time)","130383","","1632","","","","offer","","<div class='trialBorder'><div class='vertical-center'><img style='vertical-align:center; align:center' src=img/fixation3.jpg></div><div class='cl'><div class='vertical-center'>$1<br>for<br>sure</div></div><div class='cr'><div class='vertical-center'>$33<br>with a<br>50% chance</div></div><div class='respDivL'><div class='vertical-center'>(E)</div></div><div class='respDivR'><div class='vertical-center'>(I)</div></div></div>","I","$1","$33","0","1","33","RISKY"
"html-keyboard-response","30","31634","0.0-5.0-3.8","63d69e4d6648b39324fdf0ad","bdp_rd","Mon Mar 27 2023 10:29:10 GMT-0400 (Eastern Daylight Time)","130383","","null","","","","offerFB","","<div class='trialBorder'><div class='vertical-center'><img style='vertical-align:center; align:center' src=img/fixation3.jpg></div><div class='cl'><div class='vertical-center'>$1<br>for<br>sure</div></div><div class='cr'><div class='vertical-center'><font style='color:orange'>$33<br>with a<br>50% chance</font></div></div><div class='respDivL'><div class='vertical-center'>(E)</div></div><div class='respDivR'><div class='vertical-center'><font style='color:orange'>(I)</font></div></div></div>","null","$1","$33","0","1","33",""
"html-keyboard-response","31","32135","0.0-5.0-1.9","63d69e4d6648b39324fdf0ad","bdp_rd","Mon Mar 27 2023 10:29:10 GMT-0400 (Eastern Daylight Time)","130383","","null","","","","FIX","","<div class='trialBorder'><div class='vertical-center'><img style='vertical-align:center; align:center' src=img/fixation3.jpg></div></div>","null","","","","","",""
"html-keyboard-response","32","34156","0.0-5.0-2.9","63d69e4d6648b39324fdf0ad","bdp_rd","Mon Mar 27 2023 10:29:10 GMT-0400 (Eastern Daylight Time)","130383","","2019","","","","offer","","<div class='trialBorder'><div class='vertical-center'><img style='vertical-align:center; align:center' src=img/fixation3.jpg></div><div class='cl'><div class='vertical-center'>$5<br>for<br>sure</div></div><div class='cr'><div class='vertical-center'>$16<br>with a<br>50% chance</div></div><div class='respDivL'><div class='vertical-center'>(E)</div></div><div class='respDivR'><div class='vertical-center'>(I)</div></div></div>","E","$5","$16","0","5","16","SURE"
"html-keyboard-response","33","34408","0.0-5.0-3.9","63d69e4d6648b39324fdf0ad","bdp_rd","Mon Mar 27 2023 10:29:10 GMT-0400 (Eastern Daylight Time)","130383","","null","","","","offerFB","","<div class='trialBorder'><div class='vertical-center'><img style='vertical-align:center; align:center' src=img/fixation3.jpg></div><div class='cl'><div class='vertical-center'><font style='color:orange'>$5<br>for<br>sure</font></div></div><div class='cr'><div class='vertical-center'>$16<br>with a<br>50% chance</div></div><div class='respDivL'><div class='vertical-center'><font style='color:orange'>(E)</font></div></div><div class='respDivR'><div class='vertical-center'>(I)</div></div></div>","null","$5","$16","0","5","16",""
"html-keyboard-response","34","34909","0.0-5.0-1.10","63d69e4d6648b39324fdf0ad","bdp_rd","Mon Mar 27 2023 10:29:10 GMT-0400 (Eastern Daylight Time)","130383","","null","","","","FIX","","<div class='trialBorder'><div class='vertical-center'><img style='vertical-align:center; align:center' src=img/fixation3.jpg></div></div>","null","","","","","",""
"html-keyboard-response","35","35914","0.0-5.0-2.10","63d69e4d6648b39324fdf0ad","bdp_rd","Mon Mar 27 2023 10:29:10 GMT-0400 (Eastern Daylight Time)","130383","","1004","","","","offer","","<div class='trialBorder'><div class='vertical-center'><img style='vertical-align:center; align:center' src=img/fixation3.jpg></div><div class='cl'><div class='vertical-center'>$63<br>for<br>sure</div></div><div class='cr'><div class='vertical-center'>$100<br>with a<br>50% chance</div></div><div class='respDivL'><div class='vertical-center'>(E)</div></div><div class='respDivR'><div class='vertical-center'>(I)</div></div></div>","I","$63","$100","0","63","10","RISKY"
"html-keyboard-response","36","36166","0.0-5.0-3.10","63d69e4d6648b39324fdf0ad","bdp_rd","Mon Mar 27 2023 10:29:10 GMT-0400 (Eastern Daylight Time)","130383","","null","","","","offerFB","","<div class='trialBorder'><div class='vertical-center'><img style='vertical-align:center; align:center' src=img/fixation3.jpg></div><div class='cl'><div class='vertical-center'>$63<br>for<br>sure</div></div><div class='cr'><div class='vertical-center'><font style='color:orange'>$100<br>with a<br>50% chance</font></div></div><div class='respDivL'><div class='vertical-center'>(E)</div></div><div class='respDivR'><div class='vertical-center'><font style='color:orange'>(I)</font></div></div></div>","null","$63","$100","0","63","10",""
"html-keyboard-response","37","36667","0.0-5.0-1.11","63d69e4d6648b39324fdf0ad","bdp_rd","Mon Mar 27 2023 10:29:10 GMT-0400 (Eastern Daylight Time)","130383","","null","","","","FIX","","<div class='trialBorder'><div class='vertical-center'><img style='vertical-align:center; align:center' src=img/fixation3.jpg></div></div>","null","","","","","",""
"html-keyboard-response","38","37772","0.0-5.0-2.11","63d69e4d6648b39324fdf0ad","bdp_rd","Mon Mar 27 2023 10:29:10 GMT-0400 (Eastern Daylight Time)","130383","","1104","","","","offer","","<div class='trialBorder'><div class='vertical-center'><img style='vertical-align:center; align:center' src=img/fixation3.jpg></div><div class='cl'><div class='vertical-center'>$31<br>with a<br>50% chance</div></div><div class='cr'><div class='vertical-center'>$15<br>for<br>sure</div></div><div class='respDivL'><div class='vertical-center'>(E)</div></div><div class='respDivR'><div class='vertical-center'>(I)</div></div></div>","I","$15","$31","1","15","31","SURE"
"html-keyboard-response","39","38024","0.0-5.0-3.11","63d69e4d6648b39324fdf0ad","bdp_rd","Mon Mar 27 2023 10:29:10 GMT-0400 (Eastern Daylight Time)","130383","","null","","","","offerFB","","<div class='trialBorder'><div class='vertical-center'><img style='vertical-align:center; align:center' src=img/fixation3.jpg></div><div class='cl'><div class='vertical-center'>$31<br>with a<br>50% chance</div></div><div class='cr'><div class='vertical-center'><font style='color:orange'>$15<br>for<br>sure</font></div></div><div class='respDivL'><div class='vertical-center'>(E)</div></div><div class='respDivR'><div class='vertical-center'><font style='color:orange'>(I)</font></div></div></div>","null","$15","$31","1","15","31",""
"html-keyboard-response","40","38525","0.0-5.0-1.12","63d69e4d6648b39324fdf0ad","bdp_rd","Mon Mar 27 2023 10:29:10 GMT-0400 (Eastern Daylight Time)","130383","","null","","","","FIX","","<div class='trialBorder'><div class='vertical-center'><img style='vertical-align:center; align:center' src=img/fixation3.jpg></div></div>","null","","","","","",""
"html-keyboard-response","41","39323","0.0-5.0-2.12","63d69e4d6648b39324fdf0ad","bdp_rd","Mon Mar 27 2023 10:29:10 GMT-0400 (Eastern Daylight Time)","130383","","797","","","","offer","","<div class='trialBorder'><div class='vertical-center'><img style='vertical-align:center; align:center' src=img/fixation3.jpg></div><div class='cl'><div class='vertical-center'>$5<br>for<br>sure</div></div><div class='cr'><div class='vertical-center'>$50<br>with a<br>50% chance</div></div><div class='respDivL'><div class='vertical-center'>(E)</div></div><div class='respDivR'><div class='vertical-center'>(I)</div></div></div>","I","$5","$50","0","5","50","RISKY"
"html-keyboard-response","42","39574","0.0-5.0-3.12","63d69e4d6648b39324fdf0ad","bdp_rd","Mon Mar 27 2023 10:29:10 GMT-0400 (Eastern Daylight Time)","130383","","null","","","","offerFB","","<div class='trialBorder'><div class='vertical-center'><img style='vertical-align:center; align:center' src=img/fixation3.jpg></div><div class='cl'><div class='vertical-center'>$5<br>for<br>sure</div></div><div class='cr'><div class='vertical-center'><font style='color:orange'>$50<br>with a<br>50% chance</font></div></div><div class='respDivL'><div class='vertical-center'>(E)</div></div><div class='respDivR'><div class='vertical-center'><font style='color:orange'>(I)</font></div></div></div>","null","$5","$50","0","5","50",""
"html-keyboard-response","43","40076","0.0-5.0-1.13","63d69e4d6648b39324fdf0ad","bdp_rd","Mon Mar 27 2023 10:29:10 GMT-0400 (Eastern Daylight Time)","130383","","null","","","","FIX","","<div class='trialBorder'><div class='vertical-center'><img style='vertical-align:center; align:center' src=img/fixation3.jpg></div></div>","null","","","","","",""
"html-keyboard-response","44","41526","0.0-5.0-2.13","63d69e4d6648b39324fdf0ad","bdp_rd","Mon Mar 27 2023 10:29:10 GMT-0400 (Eastern Daylight Time)","130383","","1449","","","","offer","","<div class='trialBorder'><div class='vertical-center'><img style='vertical-align:center; align:center' src=img/fixation3.jpg></div><div class='cl'><div class='vertical-center'>$42<br>with a<br>50% chance</div></div><div class='cr'><div class='vertical-center'>$22<br>for<br>sure</div></div><div class='respDivL'><div class='vertical-center'>(E)</div></div><div class='respDivR'><div class='vertical-center'>(I)</div></div></div>","I","$22","$42","1","22","42","SURE"
"html-keyboard-response","45","41778","0.0-5.0-3.13","63d69e4d6648b39324fdf0ad","bdp_rd","Mon Mar 27 2023 10:29:10 GMT-0400 (Eastern Daylight Time)","130383","","null","","","","offerFB","","<div class='trialBorder'><div class='vertical-center'><img style='vertical-align:center; align:center' src=img/fixation3.jpg></div><div class='cl'><div class='vertical-center'>$42<br>with a<br>50% chance</div></div><div class='cr'><div class='vertical-center'><font style='color:orange'>$22<br>for<br>sure</font></div></div><div class='respDivL'><div class='vertical-center'>(E)</div></div><div class='respDivR'><div class='vertical-center'><font style='color:orange'>(I)</font></div></div></div>","null","$22","$42","1","22","42",""
"html-keyboard-response","46","42280","0.0-5.0-1.14","63d69e4d6648b39324fdf0ad","bdp_rd","Mon Mar 27 2023 10:29:10 GMT-0400 (Eastern Daylight Time)","130383","","null","","","","FIX","","<div class='trialBorder'><div class='vertical-center'><img style='vertical-align:center; align:center' src=img/fixation3.jpg></div></div>","null","","","","","",""
"html-keyboard-response","47","43761","0.0-5.0-2.14","63d69e4d6648b39324fdf0ad","bdp_rd","Mon Mar 27 2023 10:29:10 GMT-0400 (Eastern Daylight Time)","130383","","1481","","","","offer","","<div class='trialBorder'><div class='vertical-center'><img style='vertical-align:center; align:center' src=img/fixation3.jpg></div><div class='cl'><div class='vertical-center'>$21<br>with a<br>50% chance</div></div><div class='cr'><div class='vertical-center'>$2<br>for<br>sure</div></div><div class='respDivL'><div class='vertical-center'>(E)</div></div><div class='respDivR'><div class='vertical-center'>(I)</div></div></div>","E","$2","$21","1","2","21","RISKY"
"html-keyboard-response","48","44012","0.0-5.0-3.14","63d69e4d6648b39324fdf0ad","bdp_rd","Mon Mar 27 2023 10:29:10 GMT-0400 (Eastern Daylight Time)","130383","","null","","","","offerFB","","<div class='trialBorder'><div class='vertical-center'><img style='vertical-align:center; align:center' src=img/fixation3.jpg></div><div class='cl'><div class='vertical-center'><font style='color:orange'>$21<br>with a<br>50% chance</font></div></div><div class='cr'><div class='vertical-center'>$2<br>for<br>sure</div></div><div class='respDivL'><div class='vertical-center'><font style='color:orange'>(E)</font></div></div><div class='respDivR'><div class='vertical-center'>(I)</div></div></div>","null","$2","$21","1","2","21",""
"html-keyboard-response","49","44514","0.0-5.0-1.15","63d69e4d6648b39324fdf0ad","bdp_rd","Mon Mar 27 2023 10:29:10 GMT-0400 (Eastern Daylight Time)","130383","","null","","","","FIX","","<div class='trialBorder'><div class='vertical-center'><img style='vertical-align:center; align:center' src=img/fixation3.jpg></div></div>","null","","","","","",""
"html-keyboard-response","50","45538","0.0-5.0-2.15","63d69e4d6648b39324fdf0ad","bdp_rd","Mon Mar 27 2023 10:29:10 GMT-0400 (Eastern Daylight Time)","130383","","1023","","","","offer","","<div class='trialBorder'><div class='vertical-center'><img style='vertical-align:center; align:center' src=img/fixation3.jpg></div><div class='cl'><div class='vertical-center'>$92<br>with a<br>50% chance</div></div><div class='cr'><div class='vertical-center'>$26<br>for<br>sure</div></div><div class='respDivL'><div class='vertical-center'>(E)</div></div><div class='respDivR'><div class='vertical-center'>(I)</div></div></div>","E","$26","$92","1","26","92","RISKY"
"html-keyboard-response","51","45791","0.0-5.0-3.15","63d69e4d6648b39324fdf0ad","bdp_rd","Mon Mar 27 2023 10:29:10 GMT-0400 (Eastern Daylight Time)","130383","","null","","","","offerFB","","<div class='trialBorder'><div class='vertical-center'><img style='vertical-align:center; align:center' src=img/fixation3.jpg></div><div class='cl'><div class='vertical-center'><font style='color:orange'>$92<br>with a<br>50% chance</font></div></div><div class='cr'><div class='vertical-center'>$26<br>for<br>sure</div></div><div class='respDivL'><div class='vertical-center'><font style='color:orange'>(E)</font></div></div><div class='respDivR'><div class='vertical-center'>(I)</div></div></div>","null","$26","$92","1","26","92",""
"html-keyboard-response","52","46292","0.0-5.0-1.16","63d69e4d6648b39324fdf0ad","bdp_rd","Mon Mar 27 2023 10:29:10 GMT-0400 (Eastern Daylight Time)","130383","","null","","","","FIX","","<div class='trialBorder'><div class='vertical-center'><img style='vertical-align:center; align:center' src=img/fixation3.jpg></div></div>","null","","","","","",""
"html-keyboard-response","53","47871","0.0-5.0-2.16","63d69e4d6648b39324fdf0ad","bdp_rd","Mon Mar 27 2023 10:29:10 GMT-0400 (Eastern Daylight Time)","130383","","1578","","","","offer","","<div class='trialBorder'><div class='vertical-center'><img style='vertical-align:center; align:center' src=img/fixation3.jpg></div><div class='cl'><div class='vertical-center'>$51<br>with a<br>50% chance</div></div><div class='cr'><div class='vertical-center'>$19<br>for<br>sure</div></div><div class='respDivL'><div class='vertical-center'>(E)</div></div><div class='respDivR'><div class='vertical-center'>(I)</div></div></div>","I","$19","$51","1","19","51","SURE"
"html-keyboard-response","54","48123","0.0-5.0-3.16","63d69e4d6648b39324fdf0ad","bdp_rd","Mon Mar 27 2023 10:29:10 GMT-0400 (Eastern Daylight Time)","130383","","null","","","","offerFB","","<div class='trialBorder'><div class='vertical-center'><img style='vertical-align:center; align:center' src=img/fixation3.jpg></div><div class='cl'><div class='vertical-center'>$51<br>with a<br>50% chance</div></div><div class='cr'><div class='vertical-center'><font style='color:orange'>$19<br>for<br>sure</font></div></div><div class='respDivL'><div class='vertical-center'>(E)</div></div><div class='respDivR'><div class='vertical-center'><font style='color:orange'>(I)</font></div></div></div>","null","$19","$51","1","19","51",""
"html-keyboard-response","55","48625","0.0-5.0-1.17","63d69e4d6648b39324fdf0ad","bdp_rd","Mon Mar 27 2023 10:29:10 GMT-0400 (Eastern Daylight Time)","130383","","null","","","","FIX","","<div class='trialBorder'><div class='vertical-center'><img style='vertical-align:center; align:center' src=img/fixation3.jpg></div></div>","null","","","","","",""
"html-keyboard-response","56","50676","0.0-5.0-2.17","63d69e4d6648b39324fdf0ad","bdp_rd","Mon Mar 27 2023 10:29:10 GMT-0400 (Eastern Daylight Time)","130383","","2049","","","","offer","","<div class='trialBorder'><div class='vertical-center'><img style='vertical-align:center; align:center' src=img/fixation3.jpg></div><div class='cl'><div class='vertical-center'>$32<br>with a<br>50% chance</div></div><div class='cr'><div class='vertical-center'>$9<br>for<br>sure</div></div><div class='respDivL'><div class='vertical-center'>(E)</div></div><div class='respDivR'><div class='vertical-center'>(I)</div></div></div>","I","$9","$32","1","9","32","SURE"
"html-keyboard-response","57","50927","0.0-5.0-3.17","63d69e4d6648b39324fdf0ad","bdp_rd","Mon Mar 27 2023 10:29:10 GMT-0400 (Eastern Daylight Time)","130383","","null","","","","offerFB","","<div class='trialBorder'><div class='vertical-center'><img style='vertical-align:center; align:center' src=img/fixation3.jpg></div><div class='cl'><div class='vertical-center'>$32<br>with a<br>50% chance</div></div><div class='cr'><div class='vertical-center'><font style='color:orange'>$9<br>for<br>sure</font></div></div><div class='respDivL'><div class='vertical-center'>(E)</div></div><div class='respDivR'><div class='vertical-center'><font style='color:orange'>(I)</font></div></div></div>","null","$9","$32","1","9","32",""
"html-keyboard-response","58","51428","0.0-5.0-1.18","63d69e4d6648b39324fdf0ad","bdp_rd","Mon Mar 27 2023 10:29:10 GMT-0400 (Eastern Daylight Time)","130383","","null","","","","FIX","","<div class='trialBorder'><div class='vertical-center'><img style='vertical-align:center; align:center' src=img/fixation3.jpg></div></div>","null","","","","","",""
"html-keyboard-response","59","52506","0.0-5.0-2.18","63d69e4d6648b39324fdf0ad","bdp_rd","Mon Mar 27 2023 10:29:10 GMT-0400 (Eastern Daylight Time)","130383","","1076","","","","offer","","<div class='trialBorder'><div class='vertical-center'><img style='vertical-align:center; align:center' src=img/fixation3.jpg></div><div class='cl'><div class='vertical-center'>$9<br>for<br>sure</div></div><div class='cr'><div class='vertical-center'>$18<br>with a<br>50% chance</div></div><div class='respDivL'><div class='vertical-center'>(E)</div></div><div class='respDivR'><div class='vertical-center'>(I)</div></div></div>","E","$9","$18","0","9","18","SURE"
"html-keyboard-response","60","52757","0.0-5.0-3.18","63d69e4d6648b39324fdf0ad","bdp_rd","Mon Mar 27 2023 10:29:10 GMT-0400 (Eastern Daylight Time)","130383","","null","","","","offerFB","","<div class='trialBorder'><div class='vertical-center'><img style='vertical-align:center; align:center' src=img/fixation3.jpg></div><div class='cl'><div class='vertical-center'><font style='color:orange'>$9<br>for<br>sure</font></div></div><div class='cr'><div class='vertical-center'>$18<br>with a<br>50% chance</div></div><div class='respDivL'><div class='vertical-center'><font style='color:orange'>(E)</font></div></div><div class='respDivR'><div class='vertical-center'>(I)</div></div></div>","null","$9","$18","0","9","18",""
"html-keyboard-response","61","53258","0.0-5.0-1.19","63d69e4d6648b39324fdf0ad","bdp_rd","Mon Mar 27 2023 10:29:10 GMT-0400 (Eastern Daylight Time)","130383","","null","","","","FIX","","<div class='trialBorder'><div class='vertical-center'><img style='vertical-align:center; align:center' src=img/fixation3.jpg></div></div>","null","","","","","",""
"html-keyboard-response","62","54781","0.0-5.0-2.19","63d69e4d6648b39324fdf0ad","bdp_rd","Mon Mar 27 2023 10:29:10 GMT-0400 (Eastern Daylight Time)","130383","","1522","","","","offer","","<div class='trialBorder'><div class='vertical-center'><img style='vertical-align:center; align:center' src=img/fixation3.jpg></div><div class='cl'><div class='vertical-center'>$37<br>for<br>sure</div></div><div class='cr'><div class='vertical-center'>$44<br>with a<br>50% chance</div></div><div class='respDivL'><div class='vertical-center'>(E)</div></div><div class='respDivR'><div class='vertical-center'>(I)</div></div></div>","E","$37","$44","0","37","44","SURE"
"html-keyboard-response","63","55033","0.0-5.0-3.19","63d69e4d6648b39324fdf0ad","bdp_rd","Mon Mar 27 2023 10:29:10 GMT-0400 (Eastern Daylight Time)","130383","","null","","","","offerFB","","<div class='trialBorder'><div class='vertical-center'><img style='vertical-align:center; align:center' src=img/fixation3.jpg></div><div class='cl'><div class='vertical-center'><font style='color:orange'>$37<br>for<br>sure</font></div></div><div class='cr'><div class='vertical-center'>$44<br>with a<br>50% chance</div></div><div class='respDivL'><div class='vertical-center'><font style='color:orange'>(E)</font></div></div><div class='respDivR'><div class='vertical-center'>(I)</div></div></div>","null","$37","$44","0","37","44",""
"html-keyboard-response","64","55534","0.0-5.0-1.20","63d69e4d6648b39324fdf0ad","bdp_rd","Mon Mar 27 2023 10:29:10 GMT-0400 (Eastern Daylight Time)","130383","","null","","","","FIX","","<div class='trialBorder'><div class='vertical-center'><img style='vertical-align:center; align:center' src=img/fixation3.jpg></div></div>","null","","","","","",""
"html-keyboard-response","65","57293","0.0-5.0-2.20","63d69e4d6648b39324fdf0ad","bdp_rd","Mon Mar 27 2023 10:29:10 GMT-0400 (Eastern Daylight Time)","130383","","1758","","","","offer","","<div class='trialBorder'><div class='vertical-center'><img style='vertical-align:center; align:center' src=img/fixation3.jpg></div><div class='cl'><div class='vertical-center'>$20<br>for<br>sure</div></div><div class='cr'><div class='vertical-center'>$37<br>with a<br>50% chance</div></div><div class='respDivL'><div class='vertical-center'>(E)</div></div><div class='respDivR'><div class='vertical-center'>(I)</div></div></div>","E","$20","$37","0","20","37","SURE"
"html-keyboard-response","66","57545","0.0-5.0-3.20","63d69e4d6648b39324fdf0ad","bdp_rd","Mon Mar 27 2023 10:29:10 GMT-0400 (Eastern Daylight Time)","130383","","null","","","","offerFB","","<div class='trialBorder'><div class='vertical-center'><img style='vertical-align:center; align:center' src=img/fixation3.jpg></div><div class='cl'><div class='vertical-center'><font style='color:orange'>$20<br>for<br>sure</font></div></div><div class='cr'><div class='vertical-center'>$37<br>with a<br>50% chance</div></div><div class='respDivL'><div class='vertical-center'><font style='color:orange'>(E)</font></div></div><div class='respDivR'><div class='vertical-center'>(I)</div></div></div>","null","$20","$37","0","20","37",""
"html-keyboard-response","67","58047","0.0-5.0-1.21","63d69e4d6648b39324fdf0ad","bdp_rd","Mon Mar 27 2023 10:29:10 GMT-0400 (Eastern Daylight Time)","130383","","null","","","","FIX","","<div class='trialBorder'><div class='vertical-center'><img style='vertical-align:center; align:center' src=img/fixation3.jpg></div></div>","null","","","","","",""
"html-keyboard-response","68","59257","0.0-5.0-2.21","63d69e4d6648b39324fdf0ad","bdp_rd","Mon Mar 27 2023 10:29:10 GMT-0400 (Eastern Daylight Time)","130383","","1210","","","","offer","","<div class='trialBorder'><div class='vertical-center'><img style='vertical-align:center; align:center' src=img/fixation3.jpg></div><div class='cl'><div class='vertical-center'>$58<br>for<br>sure</div></div><div class='cr'><div class='vertical-center'>$69<br>with a<br>50% chance</div></div><div class='respDivL'><div class='vertical-center'>(E)</div></div><div class='respDivR'><div class='vertical-center'>(I)</div></div></div>","E","$58","$69","0","58","69","SURE"
"html-keyboard-response","69","59508","0.0-5.0-3.21","63d69e4d6648b39324fdf0ad","bdp_rd","Mon Mar 27 2023 10:29:10 GMT-0400 (Eastern Daylight Time)","130383","","null","","","","offerFB","","<div class='trialBorder'><div class='vertical-center'><img style='vertical-align:center; align:center' src=img/fixation3.jpg></div><div class='cl'><div class='vertical-center'><font style='color:orange'>$58<br>for<br>sure</font></div></div><div class='cr'><div class='vertical-center'>$69<br>with a<br>50% chance</div></div><div class='respDivL'><div class='vertical-center'><font style='color:orange'>(E)</font></div></div><div class='respDivR'><div class='vertical-center'>(I)</div></div></div>","null","$58","$69","0","58","69",""
"html-keyboard-response","70","60010","0.0-5.0-1.22","63d69e4d6648b39324fdf0ad","bdp_rd","Mon Mar 27 2023 10:29:10 GMT-0400 (Eastern Daylight Time)","130383","","null","","","","FIX","","<div class='trialBorder'><div class='vertical-center'><img style='vertical-align:center; align:center' src=img/fixation3.jpg></div></div>","null","","","","","",""
"html-keyboard-response","71","61931","0.0-5.0-2.22","63d69e4d6648b39324fdf0ad","bdp_rd","Mon Mar 27 2023 10:29:10 GMT-0400 (Eastern Daylight Time)","130383","","1920","","","","offer","","<div class='trialBorder'><div class='vertical-center'><img style='vertical-align:center; align:center' src=img/fixation3.jpg></div><div class='cl'><div class='vertical-center'>$20<br>for<br>sure</div></div><div class='cr'><div class='vertical-center'>$80<br>with a<br>50% chance</div></div><div class='respDivL'><div class='vertical-center'>(E)</div></div><div class='respDivR'><div class='vertical-center'>(I)</div></div></div>","I","$20","$80","0","20","80","RISKY"
"html-keyboard-response","72","62182","0.0-5.0-3.22","63d69e4d6648b39324fdf0ad","bdp_rd","Mon Mar 27 2023 10:29:10 GMT-0400 (Eastern Daylight Time)","130383","","null","","","","offerFB","","<div class='trialBorder'><div class='vertical-center'><img style='vertical-align:center; align:center' src=img/fixation3.jpg></div><div class='cl'><div class='vertical-center'>$20<br>for<br>sure</div></div><div class='cr'><div class='vertical-center'><font style='color:orange'>$80<br>with a<br>50% chance</font></div></div><div class='respDivL'><div class='vertical-center'>(E)</div></div><div class='respDivR'><div class='vertical-center'><font style='color:orange'>(I)</font></div></div></div>","null","$20","$80","0","20","80",""
"html-keyboard-response","73","62684","0.0-5.0-1.23","63d69e4d6648b39324fdf0ad","bdp_rd","Mon Mar 27 2023 10:29:10 GMT-0400 (Eastern Daylight Time)","130383","","null","","","","FIX","","<div class='trialBorder'><div class='vertical-center'><img style='vertical-align:center; align:center' src=img/fixation3.jpg></div></div>","null","","","","","",""
"html-keyboard-response","74","63900","0.0-5.0-2.23","63d69e4d6648b39324fdf0ad","bdp_rd","Mon Mar 27 2023 10:29:10 GMT-0400 (Eastern Daylight Time)","130383","","1216","","","","offer","","<div class='trialBorder'><div class='vertical-center'><img style='vertical-align:center; align:center' src=img/fixation3.jpg></div><div class='cl'><div class='vertical-center'>$70<br>with a<br>50% chance</div></div><div class='cr'><div class='vertical-center'>$24<br>for<br>sure</div></div><div class='respDivL'><div class='vertical-center'>(E)</div></div><div class='respDivR'><div class='vertical-center'>(I)</div></div></div>","E","$24","$70","1","24","70","RISKY"
"html-keyboard-response","75","64152","0.0-5.0-3.23","63d69e4d6648b39324fdf0ad","bdp_rd","Mon Mar 27 2023 10:29:10 GMT-0400 (Eastern Daylight Time)","130383","","null","","","","offerFB","","<div class='trialBorder'><div class='vertical-center'><img style='vertical-align:center; align:center' src=img/fixation3.jpg></div><div class='cl'><div class='vertical-center'><font style='color:orange'>$70<br>with a<br>50% chance</font></div></div><div class='cr'><div class='vertical-center'>$24<br>for<br>sure</div></div><div class='respDivL'><div class='vertical-center'><font style='color:orange'>(E)</font></div></div><div class='respDivR'><div class='vertical-center'>(I)</div></div></div>","null","$24","$70","1","24","70",""
"html-keyboard-response","76","64654","0.0-5.0-1.24","63d69e4d6648b39324fdf0ad","bdp_rd","Mon Mar 27 2023 10:29:10 GMT-0400 (Eastern Daylight Time)","130383","","null","","","","FIX","","<div class='trialBorder'><div class='vertical-center'><img style='vertical-align:center; align:center' src=img/fixation3.jpg></div></div>","null","","","","","",""
"html-keyboard-response","77","65558","0.0-5.0-2.24","63d69e4d6648b39324fdf0ad","bdp_rd","Mon Mar 27 2023 10:29:10 GMT-0400 (Eastern Daylight Time)","130383","","903","","","","offer","","<div class='trialBorder'><div class='vertical-center'><img style='vertical-align:center; align:center' src=img/fixation3.jpg></div><div class='cl'><div class='vertical-center'>$95<br>with a<br>50% chance</div></div><div class='cr'><div class='vertical-center'>$40<br>for<br>sure</div></div><div class='respDivL'><div class='vertical-center'>(E)</div></div><div class='respDivR'><div class='vertical-center'>(I)</div></div></div>","E","$40","$95","1","40","95","RISKY"
"html-keyboard-response","78","65810","0.0-5.0-3.24","63d69e4d6648b39324fdf0ad","bdp_rd","Mon Mar 27 2023 10:29:10 GMT-0400 (Eastern Daylight Time)","130383","","null","","","","offerFB","","<div class='trialBorder'><div class='vertical-center'><img style='vertical-align:center; align:center' src=img/fixation3.jpg></div><div class='cl'><div class='vertical-center'><font style='color:orange'>$95<br>with a<br>50% chance</font></div></div><div class='cr'><div class='vertical-center'>$40<br>for<br>sure</div></div><div class='respDivL'><div class='vertical-center'><font style='color:orange'>(E)</font></div></div><div class='respDivR'><div class='vertical-center'>(I)</div></div></div>","null","$40","$95","1","40","95",""
"html-keyboard-response","79","66312","0.0-5.0-1.25","63d69e4d6648b39324fdf0ad","bdp_rd","Mon Mar 27 2023 10:29:10 GMT-0400 (Eastern Daylight Time)","130383","","null","","","","FIX","","<div class='trialBorder'><div class='vertical-center'><img style='vertical-align:center; align:center' src=img/fixation3.jpg></div></div>","null","","","","","",""
"html-keyboard-response","80","67252","0.0-5.0-2.25","63d69e4d6648b39324fdf0ad","bdp_rd","Mon Mar 27 2023 10:29:10 GMT-0400 (Eastern Daylight Time)","130383","","939","","","","offer","","<div class='trialBorder'><div class='vertical-center'><img style='vertical-align:center; align:center' src=img/fixation3.jpg></div><div class='cl'><div class='vertical-center'>$7<br>for<br>sure</div></div><div class='cr'><div class='vertical-center'>$10<br>with a<br>50% chance</div></div><div class='respDivL'><div class='vertical-center'>(E)</div></div><div class='respDivR'><div class='vertical-center'>(I)</div></div></div>","E","$7","$10","0","7","10","SURE"
"html-keyboard-response","81","67504","0.0-5.0-3.25","63d69e4d6648b39324fdf0ad","bdp_rd","Mon Mar 27 2023 10:29:10 GMT-0400 (Eastern Daylight Time)","130383","","null","","","","offerFB","","<div class='trialBorder'><div class='vertical-center'><img style='vertical-align:center; align:center' src=img/fixation3.jpg></div><div class='cl'><div class='vertical-center'><font style='color:orange'>$7<br>for<br>sure</font></div></div><div class='cr'><div class='vertical-center'>$10<br>with a<br>50% chance</div></div><div class='respDivL'><div class='vertical-center'><font style='color:orange'>(E)</font></div></div><div class='respDivR'><div class='vertical-center'>(I)</div></div></div>","null","$7","$10","0","7","10",""
"html-keyboard-response","82","68006","0.0-5.0-1.26","63d69e4d6648b39324fdf0ad","bdp_rd","Mon Mar 27 2023 10:29:10 GMT-0400 (Eastern Daylight Time)","130383","","null","","","","FIX","","<div class='trialBorder'><div class='vertical-center'><img style='vertical-align:center; align:center' src=img/fixation3.jpg></div></div>","null","","","","","",""
"html-keyboard-response","83","69269","0.0-5.0-2.26","63d69e4d6648b39324fdf0ad","bdp_rd","Mon Mar 27 2023 10:29:10 GMT-0400 (Eastern Daylight Time)","130383","","1263","","","","offer","","<div class='trialBorder'><div class='vertical-center'><img style='vertical-align:center; align:center' src=img/fixation3.jpg></div><div class='cl'><div class='vertical-center'>$4<br>for<br>sure</div></div><div class='cr'><div class='vertical-center'>$14<br>with a<br>50% chance</div></div><div class='respDivL'><div class='vertical-center'>(E)</div></div><div class='respDivR'><div class='vertical-center'>(I)</div></div></div>","E","$4","$14","0","4","14","SURE"
"html-keyboard-response","84","69521","0.0-5.0-3.26","63d69e4d6648b39324fdf0ad","bdp_rd","Mon Mar 27 2023 10:29:10 GMT-0400 (Eastern Daylight Time)","130383","","null","","","","offerFB","","<div class='trialBorder'><div class='vertical-center'><img style='vertical-align:center; align:center' src=img/fixation3.jpg></div><div class='cl'><div class='vertical-center'><font style='color:orange'>$4<br>for<br>sure</font></div></div><div class='cr'><div class='vertical-center'>$14<br>with a<br>50% chance</div></div><div class='respDivL'><div class='vertical-center'><font style='color:orange'>(E)</font></div></div><div class='respDivR'><div class='vertical-center'>(I)</div></div></div>","null","$4","$14","0","4","14",""
"html-keyboard-response","85","70022","0.0-5.0-1.27","63d69e4d6648b39324fdf0ad","bdp_rd","Mon Mar 27 2023 10:29:10 GMT-0400 (Eastern Daylight Time)","130383","","null","","","","FIX","","<div class='trialBorder'><div class='vertical-center'><img style='vertical-align:center; align:center' src=img/fixation3.jpg></div></div>","null","","","","","",""
"html-keyboard-response","86","71785","0.0-5.0-2.27","63d69e4d6648b39324fdf0ad","bdp_rd","Mon Mar 27 2023 10:29:10 GMT-0400 (Eastern Daylight Time)","130383","","1761","","","","offer","","<div class='trialBorder'><div class='vertical-center'><img style='vertical-align:center; align:center' src=img/fixation3.jpg></div><div class='cl'><div class='vertical-center'>$14<br>for<br>sure</div></div><div class='cr'><div class='vertical-center'>$29<br>with a<br>50% chance</div></div><div class='respDivL'><div class='vertical-center'>(E)</div></div><div class='respDivR'><div class='vertical-center'>(I)</div></div></div>","E","$14","$29","0","14","29","SURE"
"html-keyboard-response","87","72036","0.0-5.0-3.27","63d69e4d6648b39324fdf0ad","bdp_rd","Mon Mar 27 2023 10:29:10 GMT-0400 (Eastern Daylight Time)","130383","","null","","","","offerFB","","<div class='trialBorder'><div class='vertical-center'><img style='vertical-align:center; align:center' src=img/fixation3.jpg></div><div class='cl'><div class='vertical-center'><font style='color:orange'>$14<br>for<br>sure</font></div></div><div class='cr'><div class='vertical-center'>$29<br>with a<br>50% chance</div></div><div class='respDivL'><div class='vertical-center'><font style='color:orange'>(E)</font></div></div><div class='respDivR'><div class='vertical-center'>(I)</div></div></div>","null","$14","$29","0","14","29",""
"html-keyboard-response","88","72537","0.0-5.0-1.28","63d69e4d6648b39324fdf0ad","bdp_rd","Mon Mar 27 2023 10:29:10 GMT-0400 (Eastern Daylight Time)","130383","","null","","","","FIX","","<div class='trialBorder'><div class='vertical-center'><img style='vertical-align:center; align:center' src=img/fixation3.jpg></div></div>","null","","","","","",""
"html-keyboard-response","89","74155","0.0-5.0-2.28","63d69e4d6648b39324fdf0ad","bdp_rd","Mon Mar 27 2023 10:29:10 GMT-0400 (Eastern Daylight Time)","130383","","1617","","","","offer","","<div class='trialBorder'><div class='vertical-center'><img style='vertical-align:center; align:center' src=img/fixation3.jpg></div><div class='cl'><div class='vertical-center'>$17<br>with a<br>50% chance</div></div><div class='cr'><div class='vertical-center'>$3<br>for<br>sure</div></div><div class='respDivL'><div class='vertical-center'>(E)</div></div><div class='respDivR'><div class='vertical-center'>(I)</div></div></div>","I","$3","$17","1","3","17","SURE"
"html-keyboard-response","90","74408","0.0-5.0-3.28","63d69e4d6648b39324fdf0ad","bdp_rd","Mon Mar 27 2023 10:29:10 GMT-0400 (Eastern Daylight Time)","130383","","null","","","","offerFB","","<div class='trialBorder'><div class='vertical-center'><img style='vertical-align:center; align:center' src=img/fixation3.jpg></div><div class='cl'><div class='vertical-center'>$17<br>with a<br>50% chance</div></div><div class='cr'><div class='vertical-center'><font style='color:orange'>$3<br>for<br>sure</font></div></div><div class='respDivL'><div class='vertical-center'>(E)</div></div><div class='respDivR'><div class='vertical-center'><font style='color:orange'>(I)</font></div></div></div>","null","$3","$17","1","3","17",""
"html-keyboard-response","91","74909","0.0-5.0-1.29","63d69e4d6648b39324fdf0ad","bdp_rd","Mon Mar 27 2023 10:29:10 GMT-0400 (Eastern Daylight Time)","130383","","null","","","","FIX","","<div class='trialBorder'><div class='vertical-center'><img style='vertical-align:center; align:center' src=img/fixation3.jpg></div></div>","null","","","","","",""
"html-keyboard-response","92","76392","0.0-5.0-2.29","63d69e4d6648b39324fdf0ad","bdp_rd","Mon Mar 27 2023 10:29:10 GMT-0400 (Eastern Daylight Time)","130383","","1482","","","","offer","","<div class='trialBorder'><div class='vertical-center'><img style='vertical-align:center; align:center' src=img/fixation3.jpg></div><div class='cl'><div class='vertical-center'>$53<br>for<br>sure</div></div><div class='cr'><div class='vertical-center'>$98<br>with a<br>50% chance</div></div><div class='respDivL'><div class='vertical-center'>(E)</div></div><div class='respDivR'><div class='vertical-center'>(I)</div></div></div>","I","$53","$98","0","53","98","RISKY"
"html-keyboard-response","93","76644","0.0-5.0-3.29","63d69e4d6648b39324fdf0ad","bdp_rd","Mon Mar 27 2023 10:29:10 GMT-0400 (Eastern Daylight Time)","130383","","null","","","","offerFB","","<div class='trialBorder'><div class='vertical-center'><img style='vertical-align:center; align:center' src=img/fixation3.jpg></div><div class='cl'><div class='vertical-center'>$53<br>for<br>sure</div></div><div class='cr'><div class='vertical-center'><font style='color:orange'>$98<br>with a<br>50% chance</font></div></div><div class='respDivL'><div class='vertical-center'>(E)</div></div><div class='respDivR'><div class='vertical-center'><font style='color:orange'>(I)</font></div></div></div>","null","$53","$98","0","53","98",""
"html-keyboard-response","94","77146","0.0-5.0-1.30","63d69e4d6648b39324fdf0ad","bdp_rd","Mon Mar 27 2023 10:29:10 GMT-0400 (Eastern Daylight Time)","130383","","null","","","","FIX","","<div class='trialBorder'><div class='vertical-center'><img style='vertical-align:center; align:center' src=img/fixation3.jpg></div></div>","null","","","","","",""
"html-keyboard-response","95","78253","0.0-5.0-2.30","63d69e4d6648b39324fdf0ad","bdp_rd","Mon Mar 27 2023 10:29:10 GMT-0400 (Eastern Daylight Time)","130383","","1106","","","","offer","","<div class='trialBorder'><div class='vertical-center'><img style='vertical-align:center; align:center' src=img/fixation3.jpg></div><div class='cl'><div class='vertical-center'>$35<br>with a<br>50% chance</div></div><div class='cr'><div class='vertical-center'>$12<br>for<br>sure</div></div><div class='respDivL'><div class='vertical-center'>(E)</div></div><div class='respDivR'><div class='vertical-center'>(I)</div></div></div>","E","$12","$35","1","12","35","RISKY"
"html-keyboard-response","96","78505","0.0-5.0-3.30","63d69e4d6648b39324fdf0ad","bdp_rd","Mon Mar 27 2023 10:29:10 GMT-0400 (Eastern Daylight Time)","130383","","null","","","","offerFB","","<div class='trialBorder'><div class='vertical-center'><img style='vertical-align:center; align:center' src=img/fixation3.jpg></div><div class='cl'><div class='vertical-center'><font style='color:orange'>$35<br>with a<br>50% chance</font></div></div><div class='cr'><div class='vertical-center'>$12<br>for<br>sure</div></div><div class='respDivL'><div class='vertical-center'><font style='color:orange'>(E)</font></div></div><div class='respDivR'><div class='vertical-center'>(I)</div></div></div>","null","$12","$35","1","12","35",""
"html-keyboard-response","97","79007","0.0-5.0-1.31","63d69e4d6648b39324fdf0ad","bdp_rd","Mon Mar 27 2023 10:29:10 GMT-0400 (Eastern Daylight Time)","130383","","null","","","","FIX","","<div class='trialBorder'><div class='vertical-center'><img style='vertical-align:center; align:center' src=img/fixation3.jpg></div></div>","null","","","","","",""
"html-keyboard-response","98","81067","0.0-5.0-2.31","63d69e4d6648b39324fdf0ad","bdp_rd","Mon Mar 27 2023 10:29:10 GMT-0400 (Eastern Daylight Time)","130383","","2059","","","","offer","","<div class='trialBorder'><div class='vertical-center'><img style='vertical-align:center; align:center' src=img/fixation3.jpg></div><div class='cl'><div class='vertical-center'>$40<br>with a<br>50% chance</div></div><div class='cr'><div class='vertical-center'>$10<br>for<br>sure</div></div><div class='respDivL'><div class='vertical-center'>(E)</div></div><div class='respDivR'><div class='vertical-center'>(I)</div></div></div>","E","$10","$40","1","10","40","RISKY"
"html-keyboard-response","99","81319","0.0-5.0-3.31","63d69e4d6648b39324fdf0ad","bdp_rd","Mon Mar 27 2023 10:29:10 GMT-0400 (Eastern Daylight Time)","130383","","null","","","","offerFB","","<div class='trialBorder'><div class='vertical-center'><img style='vertical-align:center; align:center' src=img/fixation3.jpg></div><div class='cl'><div class='vertical-center'><font style='color:orange'>$40<br>with a<br>50% chance</font></div></div><div class='cr'><div class='vertical-center'>$10<br>for<br>sure</div></div><div class='respDivL'><div class='vertical-center'><font style='color:orange'>(E)</font></div></div><div class='respDivR'><div class='vertical-center'>(I)</div></div></div>","null","$10","$40","1","10","40",""
"html-keyboard-response","100","81820","0.0-5.0-1.32","63d69e4d6648b39324fdf0ad","bdp_rd","Mon Mar 27 2023 10:29:10 GMT-0400 (Eastern Daylight Time)","130383","","null","","","","FIX","","<div class='trialBorder'><div class='vertical-center'><img style='vertical-align:center; align:center' src=img/fixation3.jpg></div></div>","null","","","","","",""
"html-keyboard-response","101","82612","0.0-5.0-2.32","63d69e4d6648b39324fdf0ad","bdp_rd","Mon Mar 27 2023 10:29:10 GMT-0400 (Eastern Daylight Time)","130383","","791","","","","offer","","<div class='trialBorder'><div class='vertical-center'><img style='vertical-align:center; align:center' src=img/fixation3.jpg></div><div class='cl'><div class='vertical-center'>$68<br>with a<br>50% chance</div></div><div class='cr'><div class='vertical-center'>$30<br>for<br>sure</div></div><div class='respDivL'><div class='vertical-center'>(E)</div></div><div class='respDivR'><div class='vertical-center'>(I)</div></div></div>","E","$30","$68","1","30","68","RISKY"
"html-keyboard-response","102","82864","0.0-5.0-3.32","63d69e4d6648b39324fdf0ad","bdp_rd","Mon Mar 27 2023 10:29:10 GMT-0400 (Eastern Daylight Time)","130383","","null","","","","offerFB","","<div class='trialBorder'><div class='vertical-center'><img style='vertical-align:center; align:center' src=img/fixation3.jpg></div><div class='cl'><div class='vertical-center'><font style='color:orange'>$68<br>with a<br>50% chance</font></div></div><div class='cr'><div class='vertical-center'>$30<br>for<br>sure</div></div><div class='respDivL'><div class='vertical-center'><font style='color:orange'>(E)</font></div></div><div class='respDivR'><div class='vertical-center'>(I)</div></div></div>","null","$30","$68","1","30","68",""
"html-keyboard-response","103","83366","0.0-5.0-1.33","63d69e4d6648b39324fdf0ad","bdp_rd","Mon Mar 27 2023 10:29:10 GMT-0400 (Eastern Daylight Time)","130383","","null","","","","FIX","","<div class='trialBorder'><div class='vertical-center'><img style='vertical-align:center; align:center' src=img/fixation3.jpg></div></div>","null","","","","","",""
"html-keyboard-response","104","84171","0.0-5.0-2.33","63d69e4d6648b39324fdf0ad","bdp_rd","Mon Mar 27 2023 10:29:10 GMT-0400 (Eastern Daylight Time)","130383","","805","","","","offer","","<div class='trialBorder'><div class='vertical-center'><img style='vertical-align:center; align:center' src=img/fixation3.jpg></div><div class='cl'><div class='vertical-center'>$30<br>with a<br>50% chance</div></div><div class='cr'><div class='vertical-center'>$1<br>for<br>sure</div></div><div class='respDivL'><div class='vertical-center'>(E)</div></div><div class='respDivR'><div class='vertical-center'>(I)</div></div></div>","E","$1","$30","1","1","30","RISKY"
"html-keyboard-response","105","84423","0.0-5.0-3.33","63d69e4d6648b39324fdf0ad","bdp_rd","Mon Mar 27 2023 10:29:10 GMT-0400 (Eastern Daylight Time)","130383","","null","","","","offerFB","","<div class='trialBorder'><div class='vertical-center'><img style='vertical-align:center; align:center' src=img/fixation3.jpg></div><div class='cl'><div class='vertical-center'><font style='color:orange'>$30<br>with a<br>50% chance</font></div></div><div class='cr'><div class='vertical-center'>$1<br>for<br>sure</div></div><div class='respDivL'><div class='vertical-center'><font style='color:orange'>(E)</font></div></div><div class='respDivR'><div class='vertical-center'>(I)</div></div></div>","null","$1","$30","1","1","30",""
"html-keyboard-response","106","84924","0.0-5.0-1.34","63d69e4d6648b39324fdf0ad","bdp_rd","Mon Mar 27 2023 10:29:10 GMT-0400 (Eastern Daylight Time)","130383","","null","","","","FIX","","<div class='trialBorder'><div class='vertical-center'><img style='vertical-align:center; align:center' src=img/fixation3.jpg></div></div>","null","","","","","",""
"html-keyboard-response","107","85625","0.0-5.0-2.34","63d69e4d6648b39324fdf0ad","bdp_rd","Mon Mar 27 2023 10:29:10 GMT-0400 (Eastern Daylight Time)","130383","","700","","","","offer","","<div class='trialBorder'><div class='vertical-center'><img style='vertical-align:center; align:center' src=img/fixation3.jpg></div><div class='cl'><div class='vertical-center'>$2<br>for<br>sure</div></div><div class='cr'><div class='vertical-center'>$64<br>with a<br>50% chance</div></div><div class='respDivL'><div class='vertical-center'>(E)</div></div><div class='respDivR'><div class='vertical-center'>(I)</div></div></div>","I","$2","$64","0","2","64","RISKY"
"html-keyboard-response","108","85877","0.0-5.0-3.34","63d69e4d6648b39324fdf0ad","bdp_rd","Mon Mar 27 2023 10:29:10 GMT-0400 (Eastern Daylight Time)","130383","","null","","","","offerFB","","<div class='trialBorder'><div class='vertical-center'><img style='vertical-align:center; align:center' src=img/fixation3.jpg></div><div class='cl'><div class='vertical-center'>$2<br>for<br>sure</div></div><div class='cr'><div class='vertical-center'><font style='color:orange'>$64<br>with a<br>50% chance</font></div></div><div class='respDivL'><div class='vertical-center'>(E)</div></div><div class='respDivR'><div class='vertical-center'><font style='color:orange'>(I)</font></div></div></div>","null","$2","$64","0","2","64",""
"html-keyboard-response","109","86378","0.0-5.0-1.35","63d69e4d6648b39324fdf0ad","bdp_rd","Mon Mar 27 2023 10:29:10 GMT-0400 (Eastern Daylight Time)","130383","","null","","","","FIX","","<div class='trialBorder'><div class='vertical-center'><img style='vertical-align:center; align:center' src=img/fixation3.jpg></div></div>","null","","","","","",""
"html-keyboard-response","110","86980","0.0-5.0-2.35","63d69e4d6648b39324fdf0ad","bdp_rd","Mon Mar 27 2023 10:29:10 GMT-0400 (Eastern Daylight Time)","130383","","601","","","","offer","","<div class='trialBorder'><div class='vertical-center'><img style='vertical-align:center; align:center' src=img/fixation3.jpg></div><div class='cl'><div class='vertical-center'>$78<br>with a<br>50% chance</div></div><div class='cr'><div class='vertical-center'>$31<br>for<br>sure</div></div><div class='respDivL'><div class='vertical-center'>(E)</div></div><div class='respDivR'><div class='vertical-center'>(I)</div></div></div>","E","$31","$78","1","31","78","RISKY"
"html-keyboard-response","111","87232","0.0-5.0-3.35","63d69e4d6648b39324fdf0ad","bdp_rd","Mon Mar 27 2023 10:29:10 GMT-0400 (Eastern Daylight Time)","130383","","null","","","","offerFB","","<div class='trialBorder'><div class='vertical-center'><img style='vertical-align:center; align:center' src=img/fixation3.jpg></div><div class='cl'><div class='vertical-center'><font style='color:orange'>$78<br>with a<br>50% chance</font></div></div><div class='cr'><div class='vertical-center'>$31<br>for<br>sure</div></div><div class='respDivL'><div class='vertical-center'><font style='color:orange'>(E)</font></div></div><div class='respDivR'><div class='vertical-center'>(I)</div></div></div>","null","$31","$78","1","31","78",""
"html-keyboard-response","112","87734","0.0-5.0-1.36","63d69e4d6648b39324fdf0ad","bdp_rd","Mon Mar 27 2023 10:29:10 GMT-0400 (Eastern Daylight Time)","130383","","null","","","","FIX","","<div class='trialBorder'><div class='vertical-center'><img style='vertical-align:center; align:center' src=img/fixation3.jpg></div></div>","null","","","","","",""
"html-keyboard-response","113","88527","0.0-5.0-2.36","63d69e4d6648b39324fdf0ad","bdp_rd","Mon Mar 27 2023 10:29:10 GMT-0400 (Eastern Daylight Time)","130383","","792","","","","offer","","<div class='trialBorder'><div class='vertical-center'><img style='vertical-align:center; align:center' src=img/fixation3.jpg></div><div class='cl'><div class='vertical-center'>$27<br>for<br>sure</div></div><div class='cr'><div class='vertical-center'>$47<br>with a<br>50% chance</div></div><div class='respDivL'><div class='vertical-center'>(E)</div></div><div class='respDivR'><div class='vertical-center'>(I)</div></div></div>","I","$27","$47","0","27","47","RISKY"
"html-keyboard-response","114","88779","0.0-5.0-3.36","63d69e4d6648b39324fdf0ad","bdp_rd","Mon Mar 27 2023 10:29:10 GMT-0400 (Eastern Daylight Time)","130383","","null","","","","offerFB","","<div class='trialBorder'><div class='vertical-center'><img style='vertical-align:center; align:center' src=img/fixation3.jpg></div><div class='cl'><div class='vertical-center'>$27<br>for<br>sure</div></div><div class='cr'><div class='vertical-center'><font style='color:orange'>$47<br>with a<br>50% chance</font></div></div><div class='respDivL'><div class='vertical-center'>(E)</div></div><div class='respDivR'><div class='vertical-center'><font style='color:orange'>(I)</font></div></div></div>","null","$27","$47","0","27","47",""
"html-keyboard-response","115","89281","0.0-5.0-1.37","63d69e4d6648b39324fdf0ad","bdp_rd","Mon Mar 27 2023 10:29:10 GMT-0400 (Eastern Daylight Time)","130383","","null","","","","FIX","","<div class='trialBorder'><div class='vertical-center'><img style='vertical-align:center; align:center' src=img/fixation3.jpg></div></div>","null","","","","","",""
"html-keyboard-response","116","89989","0.0-5.0-2.37","63d69e4d6648b39324fdf0ad","bdp_rd","Mon Mar 27 2023 10:29:10 GMT-0400 (Eastern Daylight Time)","130383","","707","","","","offer","","<div class='trialBorder'><div class='vertical-center'><img style='vertical-align:center; align:center' src=img/fixation3.jpg></div><div class='cl'><div class='vertical-center'>$18<br>for<br>sure</div></div><div class='cr'><div class='vertical-center'>$39<br>with a<br>50% chance</div></div><div class='respDivL'><div class='vertical-center'>(E)</div></div><div class='respDivR'><div class='vertical-center'>(I)</div></div></div>","I","$18","$39","0","18","39","RISKY"
"html-keyboard-response","117","90241","0.0-5.0-3.37","63d69e4d6648b39324fdf0ad","bdp_rd","Mon Mar 27 2023 10:29:10 GMT-0400 (Eastern Daylight Time)","130383","","null","","","","offerFB","","<div class='trialBorder'><div class='vertical-center'><img style='vertical-align:center; align:center' src=img/fixation3.jpg></div><div class='cl'><div class='vertical-center'>$18<br>for<br>sure</div></div><div class='cr'><div class='vertical-center'><font style='color:orange'>$39<br>with a<br>50% chance</font></div></div><div class='respDivL'><div class='vertical-center'>(E)</div></div><div class='respDivR'><div class='vertical-center'><font style='color:orange'>(I)</font></div></div></div>","null","$18","$39","0","18","39",""
"html-keyboard-response","118","90742","0.0-5.0-1.38","63d69e4d6648b39324fdf0ad","bdp_rd","Mon Mar 27 2023 10:29:10 GMT-0400 (Eastern Daylight Time)","130383","","null","","","","FIX","","<div class='trialBorder'><div class='vertical-center'><img style='vertical-align:center; align:center' src=img/fixation3.jpg></div></div>","null","","","","","",""
"html-keyboard-response","119","91428","0.0-5.0-2.38","63d69e4d6648b39324fdf0ad","bdp_rd","Mon Mar 27 2023 10:29:10 GMT-0400 (Eastern Daylight Time)","130383","","685","","","","offer","","<div class='trialBorder'><div class='vertical-center'><img style='vertical-align:center; align:center' src=img/fixation3.jpg></div><div class='cl'><div class='vertical-center'>$43<br>with a<br>50% chance</div></div><div class='cr'><div class='vertical-center'>$17<br>for<br>sure</div></div><div class='respDivL'><div class='vertical-center'>(E)</div></div><div class='respDivR'><div class='vertical-center'>(I)</div></div></div>","E","$17","$43","1","17","43","RISKY"
"html-keyboard-response","120","91680","0.0-5.0-3.38","63d69e4d6648b39324fdf0ad","bdp_rd","Mon Mar 27 2023 10:29:10 GMT-0400 (Eastern Daylight Time)","130383","","null","","","","offerFB","","<div class='trialBorder'><div class='vertical-center'><img style='vertical-align:center; align:center' src=img/fixation3.jpg></div><div class='cl'><div class='vertical-center'><font style='color:orange'>$43<br>with a<br>50% chance</font></div></div><div class='cr'><div class='vertical-center'>$17<br>for<br>sure</div></div><div class='respDivL'><div class='vertical-center'><font style='color:orange'>(E)</font></div></div><div class='respDivR'><div class='vertical-center'>(I)</div></div></div>","null","$17","$43","1","17","43",""
"html-keyboard-response","121","92182","0.0-5.0-1.39","63d69e4d6648b39324fdf0ad","bdp_rd","Mon Mar 27 2023 10:29:10 GMT-0400 (Eastern Daylight Time)","130383","","null","","","","FIX","","<div class='trialBorder'><div class='vertical-center'><img style='vertical-align:center; align:center' src=img/fixation3.jpg></div></div>","null","","","","","",""
"html-keyboard-response","122","93058","0.0-5.0-2.39","63d69e4d6648b39324fdf0ad","bdp_rd","Mon Mar 27 2023 10:29:10 GMT-0400 (Eastern Daylight Time)","130383","","875","","","","offer","","<div class='trialBorder'><div class='vertical-center'><img style='vertical-align:center; align:center' src=img/fixation3.jpg></div><div class='cl'><div class='vertical-center'>$34<br>with a<br>50% chance</div></div><div class='cr'><div class='vertical-center'>$15<br>for<br>sure</div></div><div class='respDivL'><div class='vertical-center'>(E)</div></div><div class='respDivR'><div class='vertical-center'>(I)</div></div></div>","E","$15","$34","1","15","34","RISKY"
"html-keyboard-response","123","93310","0.0-5.0-3.39","63d69e4d6648b39324fdf0ad","bdp_rd","Mon Mar 27 2023 10:29:10 GMT-0400 (Eastern Daylight Time)","130383","","null","","","","offerFB","","<div class='trialBorder'><div class='vertical-center'><img style='vertical-align:center; align:center' src=img/fixation3.jpg></div><div class='cl'><div class='vertical-center'><font style='color:orange'>$34<br>with a<br>50% chance</font></div></div><div class='cr'><div class='vertical-center'>$15<br>for<br>sure</div></div><div class='respDivL'><div class='vertical-center'><font style='color:orange'>(E)</font></div></div><div class='respDivR'><div class='vertical-center'>(I)</div></div></div>","null","$15","$34","1","15","34",""
"html-keyboard-response","124","93811","0.0-5.0-1.40","63d69e4d6648b39324fdf0ad","bdp_rd","Mon Mar 27 2023 10:29:10 GMT-0400 (Eastern Daylight Time)","130383","","null","","","","FIX","","<div class='trialBorder'><div class='vertical-center'><img style='vertical-align:center; align:center' src=img/fixation3.jpg></div></div>","null","","","","","",""
"html-keyboard-response","125","94458","0.0-5.0-2.40","63d69e4d6648b39324fdf0ad","bdp_rd","Mon Mar 27 2023 10:29:10 GMT-0400 (Eastern Daylight Time)","130383","","646","","","","offer","","<div class='trialBorder'><div class='vertical-center'><img style='vertical-align:center; align:center' src=img/fixation3.jpg></div><div class='cl'><div class='vertical-center'>$6<br>for<br>sure</div></div><div class='cr'><div class='vertical-center'>$13<br>with a<br>50% chance</div></div><div class='respDivL'><div class='vertical-center'>(E)</div></div><div class='respDivR'><div class='vertical-center'>(I)</div></div></div>","I","$6","$13","0","6","13","RISKY"
"html-keyboard-response","126","94709","0.0-5.0-3.40","63d69e4d6648b39324fdf0ad","bdp_rd","Mon Mar 27 2023 10:29:10 GMT-0400 (Eastern Daylight Time)","130383","","null","","","","offerFB","","<div class='trialBorder'><div class='vertical-center'><img style='vertical-align:center; align:center' src=img/fixation3.jpg></div><div class='cl'><div class='vertical-center'>$6<br>for<br>sure</div></div><div class='cr'><div class='vertical-center'><font style='color:orange'>$13<br>with a<br>50% chance</font></div></div><div class='respDivL'><div class='vertical-center'>(E)</div></div><div class='respDivR'><div class='vertical-center'><font style='color:orange'>(I)</font></div></div></div>","null","$6","$13","0","6","13",""
"html-keyboard-response","127","95210","0.0-5.0-1.41","63d69e4d6648b39324fdf0ad","bdp_rd","Mon Mar 27 2023 10:29:10 GMT-0400 (Eastern Daylight Time)","130383","","null","","","","FIX","","<div class='trialBorder'><div class='vertical-center'><img style='vertical-align:center; align:center' src=img/fixation3.jpg></div></div>","null","","","","","",""
"html-keyboard-response","128","95879","0.0-5.0-2.41","63d69e4d6648b39324fdf0ad","bdp_rd","Mon Mar 27 2023 10:29:10 GMT-0400 (Eastern Daylight Time)","130383","","668","","","","offer","","<div class='trialBorder'><div class='vertical-center'><img style='vertical-align:center; align:center' src=img/fixation3.jpg></div><div class='cl'><div class='vertical-center'>$59<br>with a<br>50% chance</div></div><div class='cr'><div class='vertical-center'>$22<br>for<br>sure</div></div><div class='respDivL'><div class='vertical-center'>(E)</div></div><div class='respDivR'><div class='vertical-center'>(I)</div></div></div>","E","$22","$59","1","22","59","RISKY"
"html-keyboard-response","129","96130","0.0-5.0-3.41","63d69e4d6648b39324fdf0ad","bdp_rd","Mon Mar 27 2023 10:29:10 GMT-0400 (Eastern Daylight Time)","130383","","null","","","","offerFB","","<div class='trialBorder'><div class='vertical-center'><img style='vertical-align:center; align:center' src=img/fixation3.jpg></div><div class='cl'><div class='vertical-center'><font style='color:orange'>$59<br>with a<br>50% chance</font></div></div><div class='cr'><div class='vertical-center'>$22<br>for<br>sure</div></div><div class='respDivL'><div class='vertical-center'><font style='color:orange'>(E)</font></div></div><div class='respDivR'><div class='vertical-center'>(I)</div></div></div>","null","$22","$59","1","22","59",""
"html-keyboard-response","130","96632","0.0-5.0-1.42","63d69e4d6648b39324fdf0ad","bdp_rd","Mon Mar 27 2023 10:29:10 GMT-0400 (Eastern Daylight Time)","130383","","null","","","","FIX","","<div class='trialBorder'><div class='vertical-center'><img style='vertical-align:center; align:center' src=img/fixation3.jpg></div></div>","null","","","","","",""
"html-keyboard-response","131","97243","0.0-5.0-2.42","63d69e4d6648b39324fdf0ad","bdp_rd","Mon Mar 27 2023 10:29:10 GMT-0400 (Eastern Daylight Time)","130383","","611","","","","offer","","<div class='trialBorder'><div class='vertical-center'><img style='vertical-align:center; align:center' src=img/fixation3.jpg></div><div class='cl'><div class='vertical-center'>$89<br>with a<br>50% chance</div></div><div class='cr'><div class='vertical-center'>$28<br>for<br>sure</div></div><div class='respDivL'><div class='vertical-center'>(E)</div></div><div class='respDivR'><div class='vertical-center'>(I)</div></div></div>","E","$28","$89","1","28","89","RISKY"
"html-keyboard-response","132","97495","0.0-5.0-3.42","63d69e4d6648b39324fdf0ad","bdp_rd","Mon Mar 27 2023 10:29:10 GMT-0400 (Eastern Daylight Time)","130383","","null","","","","offerFB","","<div class='trialBorder'><div class='vertical-center'><img style='vertical-align:center; align:center' src=img/fixation3.jpg></div><div class='cl'><div class='vertical-center'><font style='color:orange'>$89<br>with a<br>50% chance</font></div></div><div class='cr'><div class='vertical-center'>$28<br>for<br>sure</div></div><div class='respDivL'><div class='vertical-center'><font style='color:orange'>(E)</font></div></div><div class='respDivR'><div class='vertical-center'>(I)</div></div></div>","null","$28","$89","1","28","89",""
"html-keyboard-response","133","97996","0.0-5.0-1.43","63d69e4d6648b39324fdf0ad","bdp_rd","Mon Mar 27 2023 10:29:10 GMT-0400 (Eastern Daylight Time)","130383","","null","","","","FIX","","<div class='trialBorder'><div class='vertical-center'><img style='vertical-align:center; align:center' src=img/fixation3.jpg></div></div>","null","","","","","",""
"html-keyboard-response","134","99065","0.0-5.0-2.43","63d69e4d6648b39324fdf0ad","bdp_rd","Mon Mar 27 2023 10:29:10 GMT-0400 (Eastern Daylight Time)","130383","","1067","","","","offer","","<div class='trialBorder'><div class='vertical-center'><img style='vertical-align:center; align:center' src=img/fixation3.jpg></div><div class='cl'><div class='vertical-center'>$11<br>for<br>sure</div></div><div class='cr'><div class='vertical-center'>$62<br>with a<br>50% chance</div></div><div class='respDivL'><div class='vertical-center'>(E)</div></div><div class='respDivR'><div class='vertical-center'>(I)</div></div></div>","I","$11","$62","0","11","62","RISKY"
"html-keyboard-response","135","99316","0.0-5.0-3.43","63d69e4d6648b39324fdf0ad","bdp_rd","Mon Mar 27 2023 10:29:10 GMT-0400 (Eastern Daylight Time)","130383","","null","","","","offerFB","","<div class='trialBorder'><div class='vertical-center'><img style='vertical-align:center; align:center' src=img/fixation3.jpg></div><div class='cl'><div class='vertical-center'>$11<br>for<br>sure</div></div><div class='cr'><div class='vertical-center'><font style='color:orange'>$62<br>with a<br>50% chance</font></div></div><div class='respDivL'><div class='vertical-center'>(E)</div></div><div class='respDivR'><div class='vertical-center'><font style='color:orange'>(I)</font></div></div></div>","null","$11","$62","0","11","62",""
"html-keyboard-response","136","99818","0.0-5.0-1.44","63d69e4d6648b39324fdf0ad","bdp_rd","Mon Mar 27 2023 10:29:10 GMT-0400 (Eastern Daylight Time)","130383","","null","","","","FIX","","<div class='trialBorder'><div class='vertical-center'><img style='vertical-align:center; align:center' src=img/fixation3.jpg></div></div>","null","","","","","",""
"html-keyboard-response","137","100945","0.0-5.0-2.44","63d69e4d6648b39324fdf0ad","bdp_rd","Mon Mar 27 2023 10:29:10 GMT-0400 (Eastern Daylight Time)","130383","","1127","","","","offer","","<div class='trialBorder'><div class='vertical-center'><img style='vertical-align:center; align:center' src=img/fixation3.jpg></div><div class='cl'><div class='vertical-center'>$45<br>with a<br>50% chance</div></div><div class='cr'><div class='vertical-center'>$8<br>for<br>sure</div></div><div class='respDivL'><div class='vertical-center'>(E)</div></div><div class='respDivR'><div class='vertical-center'>(I)</div></div></div>","E","$8","$45","1","8","45","RISKY"
"html-keyboard-response","138","101197","0.0-5.0-3.44","63d69e4d6648b39324fdf0ad","bdp_rd","Mon Mar 27 2023 10:29:10 GMT-0400 (Eastern Daylight Time)","130383","","null","","","","offerFB","","<div class='trialBorder'><div class='vertical-center'><img style='vertical-align:center; align:center' src=img/fixation3.jpg></div><div class='cl'><div class='vertical-center'><font style='color:orange'>$45<br>with a<br>50% chance</font></div></div><div class='cr'><div class='vertical-center'>$8<br>for<br>sure</div></div><div class='respDivL'><div class='vertical-center'><font style='color:orange'>(E)</font></div></div><div class='respDivR'><div class='vertical-center'>(I)</div></div></div>","null","$8","$45","1","8","45",""
"html-keyboard-response","139","101698","0.0-5.0-1.45","63d69e4d6648b39324fdf0ad","bdp_rd","Mon Mar 27 2023 10:29:10 GMT-0400 (Eastern Daylight Time)","130383","","null","","","","FIX","","<div class='trialBorder'><div class='vertical-center'><img style='vertical-align:center; align:center' src=img/fixation3.jpg></div></div>","null","","","","","",""
"html-keyboard-response","140","102470","0.0-5.0-2.45","63d69e4d6648b39324fdf0ad","bdp_rd","Mon Mar 27 2023 10:29:10 GMT-0400 (Eastern Daylight Time)","130383","","771","","","","offer","","<div class='trialBorder'><div class='vertical-center'><img style='vertical-align:center; align:center' src=img/fixation3.jpg></div><div class='cl'><div class='vertical-center'>$42<br>for<br>sure</div></div><div class='cr'><div class='vertical-center'>$73<br>with a<br>50% chance</div></div><div class='respDivL'><div class='vertical-center'>(E)</div></div><div class='respDivR'><div class='vertical-center'>(I)</div></div></div>","I","$42","$73","0","42","73","RISKY"
"html-keyboard-response","141","102723","0.0-5.0-3.45","63d69e4d6648b39324fdf0ad","bdp_rd","Mon Mar 27 2023 10:29:10 GMT-0400 (Eastern Daylight Time)","130383","","null","","","","offerFB","","<div class='trialBorder'><div class='vertical-center'><img style='vertical-align:center; align:center' src=img/fixation3.jpg></div><div class='cl'><div class='vertical-center'>$42<br>for<br>sure</div></div><div class='cr'><div class='vertical-center'><font style='color:orange'>$73<br>with a<br>50% chance</font></div></div><div class='respDivL'><div class='vertical-center'>(E)</div></div><div class='respDivR'><div class='vertical-center'><font style='color:orange'>(I)</font></div></div></div>","null","$42","$73","0","42","73",""
"html-keyboard-response","142","103224","0.0-5.0-1.46","63d69e4d6648b39324fdf0ad","bdp_rd","Mon Mar 27 2023 10:29:10 GMT-0400 (Eastern Daylight Time)","130383","","null","","","","FIX","","<div class='trialBorder'><div class='vertical-center'><img style='vertical-align:center; align:center' src=img/fixation3.jpg></div></div>","null","","","","","",""
"html-keyboard-response","143","104835","0.0-5.0-2.46","63d69e4d6648b39324fdf0ad","bdp_rd","Mon Mar 27 2023 10:29:10 GMT-0400 (Eastern Daylight Time)","130383","","1610","","","","offer","","<div class='trialBorder'><div class='vertical-center'><img style='vertical-align:center; align:center' src=img/fixation3.jpg></div><div class='cl'><div class='vertical-center'>$12<br>with a<br>50% chance</div></div><div class='cr'><div class='vertical-center'>$3<br>for<br>sure</div></div><div class='respDivL'><div class='vertical-center'>(E)</div></div><div class='respDivR'><div class='vertical-center'>(I)</div></div></div>","E","$3","$12","1","3","12","RISKY"
"html-keyboard-response","144","105086","0.0-5.0-3.46","63d69e4d6648b39324fdf0ad","bdp_rd","Mon Mar 27 2023 10:29:10 GMT-0400 (Eastern Daylight Time)","130383","","null","","","","offerFB","","<div class='trialBorder'><div class='vertical-center'><img style='vertical-align:center; align:center' src=img/fixation3.jpg></div><div class='cl'><div class='vertical-center'><font style='color:orange'>$12<br>with a<br>50% chance</font></div></div><div class='cr'><div class='vertical-center'>$3<br>for<br>sure</div></div><div class='respDivL'><div class='vertical-center'><font style='color:orange'>(E)</font></div></div><div class='respDivR'><div class='vertical-center'>(I)</div></div></div>","null","$3","$12","1","3","12",""
"html-keyboard-response","145","105588","0.0-5.0-1.47","63d69e4d6648b39324fdf0ad","bdp_rd","Mon Mar 27 2023 10:29:10 GMT-0400 (Eastern Daylight Time)","130383","","null","","","","FIX","","<div class='trialBorder'><div class='vertical-center'><img style='vertical-align:center; align:center' src=img/fixation3.jpg></div></div>","null","","","","","",""
"html-keyboard-response","146","106436","0.0-5.0-2.47","63d69e4d6648b39324fdf0ad","bdp_rd","Mon Mar 27 2023 10:29:10 GMT-0400 (Eastern Daylight Time)","130383","","847","","","","offer","","<div class='trialBorder'><div class='vertical-center'><img style='vertical-align:center; align:center' src=img/fixation3.jpg></div><div class='cl'><div class='vertical-center'>$7<br>for<br>sure</div></div><div class='cr'><div class='vertical-center'>$71<br>with a<br>50% chance</div></div><div class='respDivL'><div class='vertical-center'>(E)</div></div><div class='respDivR'><div class='vertical-center'>(I)</div></div></div>","I","$7","$71","0","7","71","RISKY"
"html-keyboard-response","147","106687","0.0-5.0-3.47","63d69e4d6648b39324fdf0ad","bdp_rd","Mon Mar 27 2023 10:29:10 GMT-0400 (Eastern Daylight Time)","130383","","null","","","","offerFB","","<div class='trialBorder'><div class='vertical-center'><img style='vertical-align:center; align:center' src=img/fixation3.jpg></div><div class='cl'><div class='vertical-center'>$7<br>for<br>sure</div></div><div class='cr'><div class='vertical-center'><font style='color:orange'>$71<br>with a<br>50% chance</font></div></div><div class='respDivL'><div class='vertical-center'>(E)</div></div><div class='respDivR'><div class='vertical-center'><font style='color:orange'>(I)</font></div></div></div>","null","$7","$71","0","7","71",""
"html-keyboard-response","148","107189","0.0-5.0-1.48","63d69e4d6648b39324fdf0ad","bdp_rd","Mon Mar 27 2023 10:29:10 GMT-0400 (Eastern Daylight Time)","130383","","null","","","","FIX","","<div class='trialBorder'><div class='vertical-center'><img style='vertical-align:center; align:center' src=img/fixation3.jpg></div></div>","null","","","","","",""
"html-keyboard-response","149","108584","0.0-5.0-2.48","63d69e4d6648b39324fdf0ad","bdp_rd","Mon Mar 27 2023 10:29:10 GMT-0400 (Eastern Daylight Time)","130383","","1395","","","","offer","","<div class='trialBorder'><div class='vertical-center'><img style='vertical-align:center; align:center' src=img/fixation3.jpg></div><div class='cl'><div class='vertical-center'>$23<br>with a<br>50% chance</div></div><div class='cr'><div class='vertical-center'>$8<br>for<br>sure</div></div><div class='respDivL'><div class='vertical-center'>(E)</div></div><div class='respDivR'><div class='vertical-center'>(I)</div></div></div>","E","$8","$23","1","8","23","RISKY"
"html-keyboard-response","150","108836","0.0-5.0-3.48","63d69e4d6648b39324fdf0ad","bdp_rd","Mon Mar 27 2023 10:29:10 GMT-0400 (Eastern Daylight Time)","130383","","null","","","","offerFB","","<div class='trialBorder'><div class='vertical-center'><img style='vertical-align:center; align:center' src=img/fixation3.jpg></div><div class='cl'><div class='vertical-center'><font style='color:orange'>$23<br>with a<br>50% chance</font></div></div><div class='cr'><div class='vertical-center'>$8<br>for<br>sure</div></div><div class='respDivL'><div class='vertical-center'><font style='color:orange'>(E)</font></div></div><div class='respDivR'><div class='vertical-center'>(I)</div></div></div>","null","$8","$23","1","8","23",""
"html-keyboard-response","151","109338","0.0-5.0-1.49","63d69e4d6648b39324fdf0ad","bdp_rd","Mon Mar 27 2023 10:29:10 GMT-0400 (Eastern Daylight Time)","130383","","null","","","","FIX","","<div class='trialBorder'><div class='vertical-center'><img style='vertical-align:center; align:center' src=img/fixation3.jpg></div></div>","null","","","","","",""
"html-keyboard-response","152","110073","0.0-5.0-2.49","63d69e4d6648b39324fdf0ad","bdp_rd","Mon Mar 27 2023 10:29:10 GMT-0400 (Eastern Daylight Time)","130383","","735","","","","offer","","<div class='trialBorder'><div class='vertical-center'><img style='vertical-align:center; align:center' src=img/fixation3.jpg></div><div class='cl'><div class='vertical-center'>$41<br>with a<br>50% chance</div></div><div class='cr'><div class='vertical-center'>$13<br>for<br>sure</div></div><div class='respDivL'><div class='vertical-center'>(E)</div></div><div class='respDivR'><div class='vertical-center'>(I)</div></div></div>","E","$13","$41","1","13","41","RISKY"
"html-keyboard-response","153","110325","0.0-5.0-3.49","63d69e4d6648b39324fdf0ad","bdp_rd","Mon Mar 27 2023 10:29:10 GMT-0400 (Eastern Daylight Time)","130383","","null","","","","offerFB","","<div class='trialBorder'><div class='vertical-center'><img style='vertical-align:center; align:center' src=img/fixation3.jpg></div><div class='cl'><div class='vertical-center'><font style='color:orange'>$41<br>with a<br>50% chance</font></div></div><div class='cr'><div class='vertical-center'>$13<br>for<br>sure</div></div><div class='respDivL'><div class='vertical-center'><font style='color:orange'>(E)</font></div></div><div class='respDivR'><div class='vertical-center'>(I)</div></div></div>","null","$13","$41","1","13","41",""
"html-keyboard-response","154","110827","0.0-5.0-1.50","63d69e4d6648b39324fdf0ad","bdp_rd","Mon Mar 27 2023 10:29:10 GMT-0400 (Eastern Daylight Time)","130383","","null","","","","FIX","","<div class='trialBorder'><div class='vertical-center'><img style='vertical-align:center; align:center' src=img/fixation3.jpg></div></div>","null","","","","","",""
"html-keyboard-response","155","111572","0.0-5.0-2.50","63d69e4d6648b39324fdf0ad","bdp_rd","Mon Mar 27 2023 10:29:10 GMT-0400 (Eastern Daylight Time)","130383","","743","","","","offer","","<div class='trialBorder'><div class='vertical-center'><img style='vertical-align:center; align:center' src=img/fixation3.jpg></div><div class='cl'><div class='vertical-center'>$24<br>with a<br>50% chance</div></div><div class='cr'><div class='vertical-center'>$13<br>for<br>sure</div></div><div class='respDivL'><div class='vertical-center'>(E)</div></div><div class='respDivR'><div class='vertical-center'>(I)</div></div></div>","E","$13","$24","1","13","24","RISKY"
"html-keyboard-response","156","111824","0.0-5.0-3.50","63d69e4d6648b39324fdf0ad","bdp_rd","Mon Mar 27 2023 10:29:10 GMT-0400 (Eastern Daylight Time)","130383","","null","","","","offerFB","","<div class='trialBorder'><div class='vertical-center'><img style='vertical-align:center; align:center' src=img/fixation3.jpg></div><div class='cl'><div class='vertical-center'><font style='color:orange'>$24<br>with a<br>50% chance</font></div></div><div class='cr'><div class='vertical-center'>$13<br>for<br>sure</div></div><div class='respDivL'><div class='vertical-center'><font style='color:orange'>(E)</font></div></div><div class='respDivR'><div class='vertical-center'>(I)</div></div></div>","null","$13","$24","1","13","24",""
"html-keyboard-response","157","112325","0.0-5.0-1.51","63d69e4d6648b39324fdf0ad","bdp_rd","Mon Mar 27 2023 10:29:10 GMT-0400 (Eastern Daylight Time)","130383","","null","","","","FIX","","<div class='trialBorder'><div class='vertical-center'><img style='vertical-align:center; align:center' src=img/fixation3.jpg></div></div>","null","","","","","",""
"html-keyboard-response","158","113277","0.0-5.0-2.51","63d69e4d6648b39324fdf0ad","bdp_rd","Mon Mar 27 2023 10:29:10 GMT-0400 (Eastern Daylight Time)","130383","","951","","","","offer","","<div class='trialBorder'><div class='vertical-center'><img style='vertical-align:center; align:center' src=img/fixation3.jpg></div><div class='cl'><div class='vertical-center'>$33<br>for<br>sure</div></div><div class='cr'><div class='vertical-center'>$66<br>with a<br>50% chance</div></div><div class='respDivL'><div class='vertical-center'>(E)</div></div><div class='respDivR'><div class='vertical-center'>(I)</div></div></div>","I","$33","$66","0","33","66","RISKY"
"html-keyboard-response","159","113529","0.0-5.0-3.51","63d69e4d6648b39324fdf0ad","bdp_rd","Mon Mar 27 2023 10:29:10 GMT-0400 (Eastern Daylight Time)","130383","","null","","","","offerFB","","<div class='trialBorder'><div class='vertical-center'><img style='vertical-align:center; align:center' src=img/fixation3.jpg></div><div class='cl'><div class='vertical-center'>$33<br>for<br>sure</div></div><div class='cr'><div class='vertical-center'><font style='color:orange'>$66<br>with a<br>50% chance</font></div></div><div class='respDivL'><div class='vertical-center'>(E)</div></div><div class='respDivR'><div class='vertical-center'><font style='color:orange'>(I)</font></div></div></div>","null","$33","$66","0","33","66",""
"html-keyboard-response","160","114030","0.0-5.0-1.52","63d69e4d6648b39324fdf0ad","bdp_rd","Mon Mar 27 2023 10:29:10 GMT-0400 (Eastern Daylight Time)","130383","","null","","","","FIX","","<div class='trialBorder'><div class='vertical-center'><img style='vertical-align:center; align:center' src=img/fixation3.jpg></div></div>","null","","","","","",""
"html-keyboard-response","161","115608","0.0-5.0-2.52","63d69e4d6648b39324fdf0ad","bdp_rd","Mon Mar 27 2023 10:29:10 GMT-0400 (Eastern Daylight Time)","130383","","1577","","","","offer","","<div class='trialBorder'><div class='vertical-center'><img style='vertical-align:center; align:center' src=img/fixation3.jpg></div><div class='cl'><div class='vertical-center'>$11<br>with a<br>50% chance</div></div><div class='cr'><div class='vertical-center'>$4<br>for<br>sure</div></div><div class='respDivL'><div class='vertical-center'>(E)</div></div><div class='respDivR'><div class='vertical-center'>(I)</div></div></div>","E","$4","$11","1","4","11","RISKY"
"html-keyboard-response","162","115859","0.0-5.0-3.52","63d69e4d6648b39324fdf0ad","bdp_rd","Mon Mar 27 2023 10:29:10 GMT-0400 (Eastern Daylight Time)","130383","","null","","","","offerFB","","<div class='trialBorder'><div class='vertical-center'><img style='vertical-align:center; align:center' src=img/fixation3.jpg></div><div class='cl'><div class='vertical-center'><font style='color:orange'>$11<br>with a<br>50% chance</font></div></div><div class='cr'><div class='vertical-center'>$4<br>for<br>sure</div></div><div class='respDivL'><div class='vertical-center'><font style='color:orange'>(E)</font></div></div><div class='respDivR'><div class='vertical-center'>(I)</div></div></div>","null","$4","$11","1","4","11",""
"html-keyboard-response","163","116360","0.0-5.0-1.53","63d69e4d6648b39324fdf0ad","bdp_rd","Mon Mar 27 2023 10:29:10 GMT-0400 (Eastern Daylight Time)","130383","","null","","","","FIX","","<div class='trialBorder'><div class='vertical-center'><img style='vertical-align:center; align:center' src=img/fixation3.jpg></div></div>","null","","","","","",""
"html-keyboard-response","164","117610","0.0-5.0-2.53","63d69e4d6648b39324fdf0ad","bdp_rd","Mon Mar 27 2023 10:29:10 GMT-0400 (Eastern Daylight Time)","130383","","1249","","","","offer","","<div class='trialBorder'><div class='vertical-center'><img style='vertical-align:center; align:center' src=img/fixation3.jpg></div><div class='cl'><div class='vertical-center'>$14<br>for<br>sure</div></div><div class='cr'><div class='vertical-center'>$22<br>with a<br>50% chance</div></div><div class='respDivL'><div class='vertical-center'>(E)</div></div><div class='respDivR'><div class='vertical-center'>(I)</div></div></div>","E","$14","$22","0","14","22","SURE"
"html-keyboard-response","165","117861","0.0-5.0-3.53","63d69e4d6648b39324fdf0ad","bdp_rd","Mon Mar 27 2023 10:29:10 GMT-0400 (Eastern Daylight Time)","130383","","null","","","","offerFB","","<div class='trialBorder'><div class='vertical-center'><img style='vertical-align:center; align:center' src=img/fixation3.jpg></div><div class='cl'><div class='vertical-center'><font style='color:orange'>$14<br>for<br>sure</font></div></div><div class='cr'><div class='vertical-center'>$22<br>with a<br>50% chance</div></div><div class='respDivL'><div class='vertical-center'><font style='color:orange'>(E)</font></div></div><div class='respDivR'><div class='vertical-center'>(I)</div></div></div>","null","$14","$22","0","14","22",""
"html-keyboard-response","166","118364","0.0-5.0-1.54","63d69e4d6648b39324fdf0ad","bdp_rd","Mon Mar 27 2023 10:29:10 GMT-0400 (Eastern Daylight Time)","130383","","null","","","","FIX","","<div class='trialBorder'><div class='vertical-center'><img style='vertical-align:center; align:center' src=img/fixation3.jpg></div></div>","null","","","","","",""
"html-keyboard-response","167","119465","0.0-5.0-2.54","63d69e4d6648b39324fdf0ad","bdp_rd","Mon Mar 27 2023 10:29:10 GMT-0400 (Eastern Daylight Time)","130383","","1099","","","","offer","","<div class='trialBorder'><div class='vertical-center'><img style='vertical-align:center; align:center' src=img/fixation3.jpg></div><div class='cl'><div class='vertical-center'>$25<br>for<br>sure</div></div><div class='cr'><div class='vertical-center'>$54<br>with a<br>50% chance</div></div><div class='respDivL'><div class='vertical-center'>(E)</div></div><div class='respDivR'><div class='vertical-center'>(I)</div></div></div>","I","$25","$54","0","25","54","RISKY"
"html-keyboard-response","168","119716","0.0-5.0-3.54","63d69e4d6648b39324fdf0ad","bdp_rd","Mon Mar 27 2023 10:29:10 GMT-0400 (Eastern Daylight Time)","130383","","null","","","","offerFB","","<div class='trialBorder'><div class='vertical-center'><img style='vertical-align:center; align:center' src=img/fixation3.jpg></div><div class='cl'><div class='vertical-center'>$25<br>for<br>sure</div></div><div class='cr'><div class='vertical-center'><font style='color:orange'>$54<br>with a<br>50% chance</font></div></div><div class='respDivL'><div class='vertical-center'>(E)</div></div><div class='respDivR'><div class='vertical-center'><font style='color:orange'>(I)</font></div></div></div>","null","$25","$54","0","25","54",""
"html-keyboard-response","169","120218","0.0-5.0-1.55","63d69e4d6648b39324fdf0ad","bdp_rd","Mon Mar 27 2023 10:29:10 GMT-0400 (Eastern Daylight Time)","130383","","null","","","","FIX","","<div class='trialBorder'><div class='vertical-center'><img style='vertical-align:center; align:center' src=img/fixation3.jpg></div></div>","null","","","","","",""
"html-keyboard-response","170","121527","0.0-5.0-2.55","63d69e4d6648b39324fdf0ad","bdp_rd","Mon Mar 27 2023 10:29:10 GMT-0400 (Eastern Daylight Time)","130383","","1309","","","","offer","","<div class='trialBorder'><div class='vertical-center'><img style='vertical-align:center; align:center' src=img/fixation3.jpg></div><div class='cl'><div class='vertical-center'>$6<br>for<br>sure</div></div><div class='cr'><div class='vertical-center'>$15<br>with a<br>50% chance</div></div><div class='respDivL'><div class='vertical-center'>(E)</div></div><div class='respDivR'><div class='vertical-center'>(I)</div></div></div>","E","$6","$15","0","6","15","SURE"
"html-keyboard-response","171","121779","0.0-5.0-3.55","63d69e4d6648b39324fdf0ad","bdp_rd","Mon Mar 27 2023 10:29:10 GMT-0400 (Eastern Daylight Time)","130383","","null","","","","offerFB","","<div class='trialBorder'><div class='vertical-center'><img style='vertical-align:center; align:center' src=img/fixation3.jpg></div><div class='cl'><div class='vertical-center'><font style='color:orange'>$6<br>for<br>sure</font></div></div><div class='cr'><div class='vertical-center'>$15<br>with a<br>50% chance</div></div><div class='respDivL'><div class='vertical-center'><font style='color:orange'>(E)</font></div></div><div class='respDivR'><div class='vertical-center'>(I)</div></div></div>","null","$6","$15","0","6","15",""
"html-keyboard-response","172","122281","0.0-5.0-1.56","63d69e4d6648b39324fdf0ad","bdp_rd","Mon Mar 27 2023 10:29:10 GMT-0400 (Eastern Daylight Time)","130383","","null","","","","FIX","","<div class='trialBorder'><div class='vertical-center'><img style='vertical-align:center; align:center' src=img/fixation3.jpg></div></div>","null","","","","","",""
"html-keyboard-response","173","123411","0.0-5.0-2.56","63d69e4d6648b39324fdf0ad","bdp_rd","Mon Mar 27 2023 10:29:10 GMT-0400 (Eastern Daylight Time)","130383","","1129","","","","offer","","<div class='trialBorder'><div class='vertical-center'><img style='vertical-align:center; align:center' src=img/fixation3.jpg></div><div class='cl'><div class='vertical-center'>$27<br>with a<br>50% chance</div></div><div class='cr'><div class='vertical-center'>$12<br>for<br>sure</div></div><div class='respDivL'><div class='vertical-center'>(E)</div></div><div class='respDivR'><div class='vertical-center'>(I)</div></div></div>","I","$12","$27","1","12","27","SURE"
