"trial_type","trial_index","time_elapsed","internal_node_id","subject_id","task","startTime","totalTime","view_history","rt","event","trial","time","trialtype","success","stimulus","key_press","sureOffer","riskyOffer","riskyLeft","sureAmt","riskyAmt","chosen"
"pavlovia","0","2","0.0-0.0","5fd8025bcfda8b1165a0b16e","bdp_rd","Mon Mar 27 2023 12:16:03 GMT-0500 (アメリカ中部夏時間)","187560","","","","","","","","","","","","","","",""
"instructions","1","1792","0.0-1.0","5fd8025bcfda8b1165a0b16e","bdp_rd","Mon Mar 27 2023 12:16:03 GMT-0500 (アメリカ中部夏時間)","187560","[{""page_index"":0,""viewing_time"":1789}]","1789","","","","","","","","","","","","",""
"","","","","5fd8025bcfda8b1165a0b16e","bdp_rd","Mon Mar 27 2023 12:16:03 GMT-0500 (アメリカ中部夏時間)","187560","","","fullscreenenter","2","4112","fullscreenenter","","","","","","","","",""
"fullscreen","2","5110","0.0-2.0","5fd8025bcfda8b1165a0b16e","bdp_rd","Mon Mar 27 2023 12:16:03 GMT-0500 (アメリカ中部夏時間)","187560","","","","","","","true","","","","","","","",""
"instructions","3","33075","0.0-4.0","5fd8025bcfda8b1165a0b16e","bdp_rd","Mon Mar 27 2023 12:16:03 GMT-0500 (アメリカ中部夏時間)","187560","[{""page_index"":0,""viewing_time"":17139},{""page_index"":1,""viewing_time"":6200},{""page_index"":2,""viewing_time"":4625}]","27964","","","","","","","","","","","","",""
"html-keyboard-response","4","33577","0.0-5.0-1.0","5fd8025bcfda8b1165a0b16e","bdp_rd","Mon Mar 27 2023 12:16:03 GMT-0500 (アメリカ中部夏時間)","187560","","null","","","","FIX","","<div class='trialBorder'><div class='vertical-center'><img style='vertical-align:center; align:center' src=img/fixation3.jpg></div></div>","null","","","","","",""
"html-keyboard-response","5","37155","0.0-5.0-2.0","5fd8025bcfda8b1165a0b16e","bdp_rd","Mon Mar 27 2023 12:16:03 GMT-0500 (アメリカ中部夏時間)","187560","","3577","","","","offer","","<div class='trialBorder'><div class='vertical-center'><img style='vertical-align:center; align:center' src=img/fixation3.jpg></div><div class='cl'><div class='vertical-center'>$42<br>with a<br>50% chance</div></div><div class='cr'><div class='vertical-center'>$22<br>for<br>sure</div></div><div class='respDivL'><div class='vertical-center'>(E)</div></div><div class='respDivR'><div class='vertical-center'>(I)</div></div></div>","E","$22","$42","1","22","42","RISKY"
"html-keyboard-response","6","37407","0.0-5.0-3.0","5fd8025bcfda8b1165a0b16e","bdp_rd","Mon Mar 27 2023 12:16:03 GMT-0500 (アメリカ中部夏時間)","187560","","null","","","","offerFB","","<div class='trialBorder'><div class='vertical-center'><img style='vertical-align:center; align:center' src=img/fixation3.jpg></div><div class='cl'><div class='vertical-center'><font style='color:orange'>$42<br>with a<br>50% chance</font></div></div><div class='cr'><div class='vertical-center'>$22<br>for<br>sure</div></div><div class='respDivL'><div class='vertical-center'><font style='color:orange'>(E)</font></div></div><div class='respDivR'><div class='vertical-center'>(I)</div></div></div>","null","$22","$42","1","22","42",""
"html-keyboard-response","7","37909","0.0-5.0-1.1","5fd8025bcfda8b1165a0b16e","bdp_rd","Mon Mar 27 2023 12:16:03 GMT-0500 (アメリカ中部夏時間)","187560","","null","","","","FIX","","<div class='trialBorder'><div class='vertical-center'><img style='vertical-align:center; align:center' src=img/fixation3.jpg></div></div>","null","","","","","",""
"html-keyboard-response","8","39275","0.0-5.0-2.1","5fd8025bcfda8b1165a0b16e","bdp_rd","Mon Mar 27 2023 12:16:03 GMT-0500 (アメリカ中部夏時間)","187560","","1366","","","","offer","","<div class='trialBorder'><div class='vertical-center'><img style='vertical-align:center; align:center' src=img/fixation3.jpg></div><div class='cl'><div class='vertical-center'>$92<br>with a<br>50% chance</div></div><div class='cr'><div class='vertical-center'>$26<br>for<br>sure</div></div><div class='respDivL'><div class='vertical-center'>(E)</div></div><div class='respDivR'><div class='vertical-center'>(I)</div></div></div>","E","$26","$92","1","26","92","RISKY"
"html-keyboard-response","9","39527","0.0-5.0-3.1","5fd8025bcfda8b1165a0b16e","bdp_rd","Mon Mar 27 2023 12:16:03 GMT-0500 (アメリカ中部夏時間)","187560","","null","","","","offerFB","","<div class='trialBorder'><div class='vertical-center'><img style='vertical-align:center; align:center' src=img/fixation3.jpg></div><div class='cl'><div class='vertical-center'><font style='color:orange'>$92<br>with a<br>50% chance</font></div></div><div class='cr'><div class='vertical-center'>$26<br>for<br>sure</div></div><div class='respDivL'><div class='vertical-center'><font style='color:orange'>(E)</font></div></div><div class='respDivR'><div class='vertical-center'>(I)</div></div></div>","null","$26","$92","1","26","92",""
"html-keyboard-response","10","40027","0.0-5.0-1.2","5fd8025bcfda8b1165a0b16e","bdp_rd","Mon Mar 27 2023 12:16:03 GMT-0500 (アメリカ中部夏時間)","187560","","null","","","","FIX","","<div class='trialBorder'><div class='vertical-center'><img style='vertical-align:center; align:center' src=img/fixation3.jpg></div></div>","null","","","","","",""
"html-keyboard-response","11","43084","0.0-5.0-2.2","5fd8025bcfda8b1165a0b16e","bdp_rd","Mon Mar 27 2023 12:16:03 GMT-0500 (アメリカ中部夏時間)","187560","","3056","","","","offer","","<div class='trialBorder'><div class='vertical-center'><img style='vertical-align:center; align:center' src=img/fixation3.jpg></div><div class='cl'><div class='vertical-center'>$6<br>for<br>sure</div></div><div class='cr'><div class='vertical-center'>$13<br>with a<br>50% chance</div></div><div class='respDivL'><div class='vertical-center'>(E)</div></div><div class='respDivR'><div class='vertical-center'>(I)</div></div></div>","E","$6","$13","0","6","13","SURE"
"html-keyboard-response","12","43335","0.0-5.0-3.2","5fd8025bcfda8b1165a0b16e","bdp_rd","Mon Mar 27 2023 12:16:03 GMT-0500 (アメリカ中部夏時間)","187560","","null","","","","offerFB","","<div class='trialBorder'><div class='vertical-center'><img style='vertical-align:center; align:center' src=img/fixation3.jpg></div><div class='cl'><div class='vertical-center'><font style='color:orange'>$6<br>for<br>sure</font></div></div><div class='cr'><div class='vertical-center'>$13<br>with a<br>50% chance</div></div><div class='respDivL'><div class='vertical-center'><font style='color:orange'>(E)</font></div></div><div class='respDivR'><div class='vertical-center'>(I)</div></div></div>","null","$6","$13","0","6","13",""
"html-keyboard-response","13","43836","0.0-5.0-1.3","5fd8025bcfda8b1165a0b16e","bdp_rd","Mon Mar 27 2023 12:16:03 GMT-0500 (アメリカ中部夏時間)","187560","","null","","","","FIX","","<div class='trialBorder'><div class='vertical-center'><img style='vertical-align:center; align:center' src=img/fixation3.jpg></div></div>","null","","","","","",""
"html-keyboard-response","14","45933","0.0-5.0-2.3","5fd8025bcfda8b1165a0b16e","bdp_rd","Mon Mar 27 2023 12:16:03 GMT-0500 (アメリカ中部夏時間)","187560","","2095","","","","offer","","<div class='trialBorder'><div class='vertical-center'><img style='vertical-align:center; align:center' src=img/fixation3.jpg></div><div class='cl'><div class='vertical-center'>$45<br>with a<br>50% chance</div></div><div class='cr'><div class='vertical-center'>$8<br>for<br>sure</div></div><div class='respDivL'><div class='vertical-center'>(E)</div></div><div class='respDivR'><div class='vertical-center'>(I)</div></div></div>","E","$8","$45","1","8","45","RISKY"
"html-keyboard-response","15","46184","0.0-5.0-3.3","5fd8025bcfda8b1165a0b16e","bdp_rd","Mon Mar 27 2023 12:16:03 GMT-0500 (アメリカ中部夏時間)","187560","","null","","","","offerFB","","<div class='trialBorder'><div class='vertical-center'><img style='vertical-align:center; align:center' src=img/fixation3.jpg></div><div class='cl'><div class='vertical-center'><font style='color:orange'>$45<br>with a<br>50% chance</font></div></div><div class='cr'><div class='vertical-center'>$8<br>for<br>sure</div></div><div class='respDivL'><div class='vertical-center'><font style='color:orange'>(E)</font></div></div><div class='respDivR'><div class='vertical-center'>(I)</div></div></div>","null","$8","$45","1","8","45",""
"html-keyboard-response","16","46685","0.0-5.0-1.4","5fd8025bcfda8b1165a0b16e","bdp_rd","Mon Mar 27 2023 12:16:03 GMT-0500 (アメリカ中部夏時間)","187560","","null","","","","FIX","","<div class='trialBorder'><div class='vertical-center'><img style='vertical-align:center; align:center' src=img/fixation3.jpg></div></div>","null","","","","","",""
"html-keyboard-response","17","48460","0.0-5.0-2.4","5fd8025bcfda8b1165a0b16e","bdp_rd","Mon Mar 27 2023 12:16:03 GMT-0500 (アメリカ中部夏時間)","187560","","1775","","","","offer","","<div class='trialBorder'><div class='vertical-center'><img style='vertical-align:center; align:center' src=img/fixation3.jpg></div><div class='cl'><div class='vertical-center'>$27<br>with a<br>50% chance</div></div><div class='cr'><div class='vertical-center'>$12<br>for<br>sure</div></div><div class='respDivL'><div class='vertical-center'>(E)</div></div><div class='respDivR'><div class='vertical-center'>(I)</div></div></div>","E","$12","$27","1","12","27","RISKY"
"html-keyboard-response","18","48712","0.0-5.0-3.4","5fd8025bcfda8b1165a0b16e","bdp_rd","Mon Mar 27 2023 12:16:03 GMT-0500 (アメリカ中部夏時間)","187560","","null","","","","offerFB","","<div class='trialBorder'><div class='vertical-center'><img style='vertical-align:center; align:center' src=img/fixation3.jpg></div><div class='cl'><div class='vertical-center'><font style='color:orange'>$27<br>with a<br>50% chance</font></div></div><div class='cr'><div class='vertical-center'>$12<br>for<br>sure</div></div><div class='respDivL'><div class='vertical-center'><font style='color:orange'>(E)</font></div></div><div class='respDivR'><div class='vertical-center'>(I)</div></div></div>","null","$12","$27","1","12","27",""
"html-keyboard-response","19","49213","0.0-5.0-1.5","5fd8025bcfda8b1165a0b16e","bdp_rd","Mon Mar 27 2023 12:16:03 GMT-0500 (アメリカ中部夏時間)","187560","","null","","","","FIX","","<div class='trialBorder'><div class='vertical-center'><img style='vertical-align:center; align:center' src=img/fixation3.jpg></div></div>","null","","","","","",""
"html-keyboard-response","20","50997","0.0-5.0-2.5","5fd8025bcfda8b1165a0b16e","bdp_rd","Mon Mar 27 2023 12:16:03 GMT-0500 (アメリカ中部夏時間)","187560","","1783","","","","offer","","<div class='trialBorder'><div class='vertical-center'><img style='vertical-align:center; align:center' src=img/fixation3.jpg></div><div class='cl'><div class='vertical-center'>$86<br>with a<br>50% chance</div></div><div class='cr'><div class='vertical-center'>$45<br>for<br>sure</div></div><div class='respDivL'><div class='vertical-center'>(E)</div></div><div class='respDivR'><div class='vertical-center'>(I)</div></div></div>","E","$45","$86","1","45","86","RISKY"
"html-keyboard-response","21","51248","0.0-5.0-3.5","5fd8025bcfda8b1165a0b16e","bdp_rd","Mon Mar 27 2023 12:16:03 GMT-0500 (アメリカ中部夏時間)","187560","","null","","","","offerFB","","<div class='trialBorder'><div class='vertical-center'><img style='vertical-align:center; align:center' src=img/fixation3.jpg></div><div class='cl'><div class='vertical-center'><font style='color:orange'>$86<br>with a<br>50% chance</font></div></div><div class='cr'><div class='vertical-center'>$45<br>for<br>sure</div></div><div class='respDivL'><div class='vertical-center'><font style='color:orange'>(E)</font></div></div><div class='respDivR'><div class='vertical-center'>(I)</div></div></div>","null","$45","$86","1","45","86",""
"html-keyboard-response","22","51749","0.0-5.0-1.6","5fd8025bcfda8b1165a0b16e","bdp_rd","Mon Mar 27 2023 12:16:03 GMT-0500 (アメリカ中部夏時間)","187560","","null","","","","FIX","","<div class='trialBorder'><div class='vertical-center'><img style='vertical-align:center; align:center' src=img/fixation3.jpg></div></div>","null","","","","","",""
"html-keyboard-response","23","52869","0.0-5.0-2.6","5fd8025bcfda8b1165a0b16e","bdp_rd","Mon Mar 27 2023 12:16:03 GMT-0500 (アメリカ中部夏時間)","187560","","1119","","","","offer","","<div class='trialBorder'><div class='vertical-center'><img style='vertical-align:center; align:center' src=img/fixation3.jpg></div><div class='cl'><div class='vertical-center'>$28<br>for<br>sure</div></div><div class='cr'><div class='vertical-center'>$89<br>with a<br>50% chance</div></div><div class='respDivL'><div class='vertical-center'>(E)</div></div><div class='respDivR'><div class='vertical-center'>(I)</div></div></div>","I","$28","$89","0","28","89","RISKY"
"html-keyboard-response","24","53120","0.0-5.0-3.6","5fd8025bcfda8b1165a0b16e","bdp_rd","Mon Mar 27 2023 12:16:03 GMT-0500 (アメリカ中部夏時間)","187560","","null","","","","offerFB","","<div class='trialBorder'><div class='vertical-center'><img style='vertical-align:center; align:center' src=img/fixation3.jpg></div><div class='cl'><div class='vertical-center'>$28<br>for<br>sure</div></div><div class='cr'><div class='vertical-center'><font style='color:orange'>$89<br>with a<br>50% chance</font></div></div><div class='respDivL'><div class='vertical-center'>(E)</div></div><div class='respDivR'><div class='vertical-center'><font style='color:orange'>(I)</font></div></div></div>","null","$28","$89","0","28","89",""
"html-keyboard-response","25","53621","0.0-5.0-1.7","5fd8025bcfda8b1165a0b16e","bdp_rd","Mon Mar 27 2023 12:16:03 GMT-0500 (アメリカ中部夏時間)","187560","","null","","","","FIX","","<div class='trialBorder'><div class='vertical-center'><img style='vertical-align:center; align:center' src=img/fixation3.jpg></div></div>","null","","","","","",""
"html-keyboard-response","26","55037","0.0-5.0-2.7","5fd8025bcfda8b1165a0b16e","bdp_rd","Mon Mar 27 2023 12:16:03 GMT-0500 (アメリカ中部夏時間)","187560","","1415","","","","offer","","<div class='trialBorder'><div class='vertical-center'><img style='vertical-align:center; align:center' src=img/fixation3.jpg></div><div class='cl'><div class='vertical-center'>$20<br>for<br>sure</div></div><div class='cr'><div class='vertical-center'>$80<br>with a<br>50% chance</div></div><div class='respDivL'><div class='vertical-center'>(E)</div></div><div class='respDivR'><div class='vertical-center'>(I)</div></div></div>","I","$20","$80","0","20","80","RISKY"
"html-keyboard-response","27","55288","0.0-5.0-3.7","5fd8025bcfda8b1165a0b16e","bdp_rd","Mon Mar 27 2023 12:16:03 GMT-0500 (アメリカ中部夏時間)","187560","","null","","","","offerFB","","<div class='trialBorder'><div class='vertical-center'><img style='vertical-align:center; align:center' src=img/fixation3.jpg></div><div class='cl'><div class='vertical-center'>$20<br>for<br>sure</div></div><div class='cr'><div class='vertical-center'><font style='color:orange'>$80<br>with a<br>50% chance</font></div></div><div class='respDivL'><div class='vertical-center'>(E)</div></div><div class='respDivR'><div class='vertical-center'><font style='color:orange'>(I)</font></div></div></div>","null","$20","$80","0","20","80",""
"html-keyboard-response","28","55789","0.0-5.0-1.8","5fd8025bcfda8b1165a0b16e","bdp_rd","Mon Mar 27 2023 12:16:03 GMT-0500 (アメリカ中部夏時間)","187560","","null","","","","FIX","","<div class='trialBorder'><div class='vertical-center'><img style='vertical-align:center; align:center' src=img/fixation3.jpg></div></div>","null","","","","","",""
"html-keyboard-response","29","58478","0.0-5.0-2.8","5fd8025bcfda8b1165a0b16e","bdp_rd","Mon Mar 27 2023 12:16:03 GMT-0500 (アメリカ中部夏時間)","187560","","2689","","","","offer","","<div class='trialBorder'><div class='vertical-center'><img style='vertical-align:center; align:center' src=img/fixation3.jpg></div><div class='cl'><div class='vertical-center'>$15<br>for<br>sure</div></div><div class='cr'><div class='vertical-center'>$34<br>with a<br>50% chance</div></div><div class='respDivL'><div class='vertical-center'>(E)</div></div><div class='respDivR'><div class='vertical-center'>(I)</div></div></div>","I","$15","$34","0","15","34","RISKY"
"html-keyboard-response","30","58729","0.0-5.0-3.8","5fd8025bcfda8b1165a0b16e","bdp_rd","Mon Mar 27 2023 12:16:03 GMT-0500 (アメリカ中部夏時間)","187560","","null","","","","offerFB","","<div class='trialBorder'><div class='vertical-center'><img style='vertical-align:center; align:center' src=img/fixation3.jpg></div><div class='cl'><div class='vertical-center'>$15<br>for<br>sure</div></div><div class='cr'><div class='vertical-center'><font style='color:orange'>$34<br>with a<br>50% chance</font></div></div><div class='respDivL'><div class='vertical-center'>(E)</div></div><div class='respDivR'><div class='vertical-center'><font style='color:orange'>(I)</font></div></div></div>","null","$15","$34","0","15","34",""
"html-keyboard-response","31","59231","0.0-5.0-1.9","5fd8025bcfda8b1165a0b16e","bdp_rd","Mon Mar 27 2023 12:16:03 GMT-0500 (アメリカ中部夏時間)","187560","","null","","","","FIX","","<div class='trialBorder'><div class='vertical-center'><img style='vertical-align:center; align:center' src=img/fixation3.jpg></div></div>","null","","","","","",""
"html-keyboard-response","32","61246","0.0-5.0-2.9","5fd8025bcfda8b1165a0b16e","bdp_rd","Mon Mar 27 2023 12:16:03 GMT-0500 (アメリカ中部夏時間)","187560","","2014","","","","offer","","<div class='trialBorder'><div class='vertical-center'><img style='vertical-align:center; align:center' src=img/fixation3.jpg></div><div class='cl'><div class='vertical-center'>$7<br>for<br>sure</div></div><div class='cr'><div class='vertical-center'>$10<br>with a<br>50% chance</div></div><div class='respDivL'><div class='vertical-center'>(E)</div></div><div class='respDivR'><div class='vertical-center'>(I)</div></div></div>","E","$7","$10","0","7","10","SURE"
"html-keyboard-response","33","61497","0.0-5.0-3.9","5fd8025bcfda8b1165a0b16e","bdp_rd","Mon Mar 27 2023 12:16:03 GMT-0500 (アメリカ中部夏時間)","187560","","null","","","","offerFB","","<div class='trialBorder'><div class='vertical-center'><img style='vertical-align:center; align:center' src=img/fixation3.jpg></div><div class='cl'><div class='vertical-center'><font style='color:orange'>$7<br>for<br>sure</font></div></div><div class='cr'><div class='vertical-center'>$10<br>with a<br>50% chance</div></div><div class='respDivL'><div class='vertical-center'><font style='color:orange'>(E)</font></div></div><div class='respDivR'><div class='vertical-center'>(I)</div></div></div>","null","$7","$10","0","7","10",""
"html-keyboard-response","34","61998","0.0-5.0-1.10","5fd8025bcfda8b1165a0b16e","bdp_rd","Mon Mar 27 2023 12:16:03 GMT-0500 (アメリカ中部夏時間)","187560","","null","","","","FIX","","<div class='trialBorder'><div class='vertical-center'><img style='vertical-align:center; align:center' src=img/fixation3.jpg></div></div>","null","","","","","",""
"html-keyboard-response","35","67094","0.0-5.0-2.10","5fd8025bcfda8b1165a0b16e","bdp_rd","Mon Mar 27 2023 12:16:03 GMT-0500 (アメリカ中部夏時間)","187560","","5095","","","","offer","","<div class='trialBorder'><div class='vertical-center'><img style='vertical-align:center; align:center' src=img/fixation3.jpg></div><div class='cl'><div class='vertical-center'>$100<br>with a<br>50% chance</div></div><div class='cr'><div class='vertical-center'>$63<br>for<br>sure</div></div><div class='respDivL'><div class='vertical-center'>(E)</div></div><div class='respDivR'><div class='vertical-center'>(I)</div></div></div>","E","$63","$100","1","63","10","RISKY"
"html-keyboard-response","36","67345","0.0-5.0-3.10","5fd8025bcfda8b1165a0b16e","bdp_rd","Mon Mar 27 2023 12:16:03 GMT-0500 (アメリカ中部夏時間)","187560","","null","","","","offerFB","","<div class='trialBorder'><div class='vertical-center'><img style='vertical-align:center; align:center' src=img/fixation3.jpg></div><div class='cl'><div class='vertical-center'><font style='color:orange'>$100<br>with a<br>50% chance</font></div></div><div class='cr'><div class='vertical-center'>$63<br>for<br>sure</div></div><div class='respDivL'><div class='vertical-center'><font style='color:orange'>(E)</font></div></div><div class='respDivR'><div class='vertical-center'>(I)</div></div></div>","null","$63","$100","1","63","10",""
"html-keyboard-response","37","67846","0.0-5.0-1.11","5fd8025bcfda8b1165a0b16e","bdp_rd","Mon Mar 27 2023 12:16:03 GMT-0500 (アメリカ中部夏時間)","187560","","null","","","","FIX","","<div class='trialBorder'><div class='vertical-center'><img style='vertical-align:center; align:center' src=img/fixation3.jpg></div></div>","null","","","","","",""
"html-keyboard-response","38","69447","0.0-5.0-2.11","5fd8025bcfda8b1165a0b16e","bdp_rd","Mon Mar 27 2023 12:16:03 GMT-0500 (アメリカ中部夏時間)","187560","","1601","","","","offer","","<div class='trialBorder'><div class='vertical-center'><img style='vertical-align:center; align:center' src=img/fixation3.jpg></div><div class='cl'><div class='vertical-center'>$14<br>with a<br>50% chance</div></div><div class='cr'><div class='vertical-center'>$4<br>for<br>sure</div></div><div class='respDivL'><div class='vertical-center'>(E)</div></div><div class='respDivR'><div class='vertical-center'>(I)</div></div></div>","I","$4","$14","1","4","14","SURE"
"html-keyboard-response","39","69699","0.0-5.0-3.11","5fd8025bcfda8b1165a0b16e","bdp_rd","Mon Mar 27 2023 12:16:03 GMT-0500 (アメリカ中部夏時間)","187560","","null","","","","offerFB","","<div class='trialBorder'><div class='vertical-center'><img style='vertical-align:center; align:center' src=img/fixation3.jpg></div><div class='cl'><div class='vertical-center'>$14<br>with a<br>50% chance</div></div><div class='cr'><div class='vertical-center'><font style='color:orange'>$4<br>for<br>sure</font></div></div><div class='respDivL'><div class='vertical-center'>(E)</div></div><div class='respDivR'><div class='vertical-center'><font style='color:orange'>(I)</font></div></div></div>","null","$4","$14","1","4","14",""
"html-keyboard-response","40","70200","0.0-5.0-1.12","5fd8025bcfda8b1165a0b16e","bdp_rd","Mon Mar 27 2023 12:16:03 GMT-0500 (アメリカ中部夏時間)","187560","","null","","","","FIX","","<div class='trialBorder'><div class='vertical-center'><img style='vertical-align:center; align:center' src=img/fixation3.jpg></div></div>","null","","","","","",""
"html-keyboard-response","41","73671","0.0-5.0-2.12","5fd8025bcfda8b1165a0b16e","bdp_rd","Mon Mar 27 2023 12:16:03 GMT-0500 (アメリカ中部夏時間)","187560","","3470","","","","offer","","<div class='trialBorder'><div class='vertical-center'><img style='vertical-align:center; align:center' src=img/fixation3.jpg></div><div class='cl'><div class='vertical-center'>$31<br>with a<br>50% chance</div></div><div class='cr'><div class='vertical-center'>$15<br>for<br>sure</div></div><div class='respDivL'><div class='vertical-center'>(E)</div></div><div class='respDivR'><div class='vertical-center'>(I)</div></div></div>","I","$15","$31","1","15","31","SURE"
"html-keyboard-response","42","73922","0.0-5.0-3.12","5fd8025bcfda8b1165a0b16e","bdp_rd","Mon Mar 27 2023 12:16:03 GMT-0500 (アメリカ中部夏時間)","187560","","null","","","","offerFB","","<div class='trialBorder'><div class='vertical-center'><img style='vertical-align:center; align:center' src=img/fixation3.jpg></div><div class='cl'><div class='vertical-center'>$31<br>with a<br>50% chance</div></div><div class='cr'><div class='vertical-center'><font style='color:orange'>$15<br>for<br>sure</font></div></div><div class='respDivL'><div class='vertical-center'>(E)</div></div><div class='respDivR'><div class='vertical-center'><font style='color:orange'>(I)</font></div></div></div>","null","$15","$31","1","15","31",""
"html-keyboard-response","43","74424","0.0-5.0-1.13","5fd8025bcfda8b1165a0b16e","bdp_rd","Mon Mar 27 2023 12:16:03 GMT-0500 (アメリカ中部夏時間)","187560","","null","","","","FIX","","<div class='trialBorder'><div class='vertical-center'><img style='vertical-align:center; align:center' src=img/fixation3.jpg></div></div>","null","","","","","",""
"html-keyboard-response","44","76031","0.0-5.0-2.13","5fd8025bcfda8b1165a0b16e","bdp_rd","Mon Mar 27 2023 12:16:03 GMT-0500 (アメリカ中部夏時間)","187560","","1606","","","","offer","","<div class='trialBorder'><div class='vertical-center'><img style='vertical-align:center; align:center' src=img/fixation3.jpg></div><div class='cl'><div class='vertical-center'>$64<br>with a<br>50% chance</div></div><div class='cr'><div class='vertical-center'>$2<br>for<br>sure</div></div><div class='respDivL'><div class='vertical-center'>(E)</div></div><div class='respDivR'><div class='vertical-center'>(I)</div></div></div>","E","$2","$64","1","2","64","RISKY"
"html-keyboard-response","45","76282","0.0-5.0-3.13","5fd8025bcfda8b1165a0b16e","bdp_rd","Mon Mar 27 2023 12:16:03 GMT-0500 (アメリカ中部夏時間)","187560","","null","","","","offerFB","","<div class='trialBorder'><div class='vertical-center'><img style='vertical-align:center; align:center' src=img/fixation3.jpg></div><div class='cl'><div class='vertical-center'><font style='color:orange'>$64<br>with a<br>50% chance</font></div></div><div class='cr'><div class='vertical-center'>$2<br>for<br>sure</div></div><div class='respDivL'><div class='vertical-center'><font style='color:orange'>(E)</font></div></div><div class='respDivR'><div class='vertical-center'>(I)</div></div></div>","null","$2","$64","1","2","64",""
"html-keyboard-response","46","76783","0.0-5.0-1.14","5fd8025bcfda8b1165a0b16e","bdp_rd","Mon Mar 27 2023 12:16:03 GMT-0500 (アメリカ中部夏時間)","187560","","null","","","","FIX","","<div class='trialBorder'><div class='vertical-center'><img style='vertical-align:center; align:center' src=img/fixation3.jpg></div></div>","null","","","","","",""
"html-keyboard-response","47","79031","0.0-5.0-2.14","5fd8025bcfda8b1165a0b16e","bdp_rd","Mon Mar 27 2023 12:16:03 GMT-0500 (アメリカ中部夏時間)","187560","","2248","","","","offer","","<div class='trialBorder'><div class='vertical-center'><img style='vertical-align:center; align:center' src=img/fixation3.jpg></div><div class='cl'><div class='vertical-center'>$18<br>with a<br>50% chance</div></div><div class='cr'><div class='vertical-center'>$9<br>for<br>sure</div></div><div class='respDivL'><div class='vertical-center'>(E)</div></div><div class='respDivR'><div class='vertical-center'>(I)</div></div></div>","E","$9","$18","1","9","18","RISKY"
"html-keyboard-response","48","79282","0.0-5.0-3.14","5fd8025bcfda8b1165a0b16e","bdp_rd","Mon Mar 27 2023 12:16:03 GMT-0500 (アメリカ中部夏時間)","187560","","null","","","","offerFB","","<div class='trialBorder'><div class='vertical-center'><img style='vertical-align:center; align:center' src=img/fixation3.jpg></div><div class='cl'><div class='vertical-center'><font style='color:orange'>$18<br>with a<br>50% chance</font></div></div><div class='cr'><div class='vertical-center'>$9<br>for<br>sure</div></div><div class='respDivL'><div class='vertical-center'><font style='color:orange'>(E)</font></div></div><div class='respDivR'><div class='vertical-center'>(I)</div></div></div>","null","$9","$18","1","9","18",""
"html-keyboard-response","49","79784","0.0-5.0-1.15","5fd8025bcfda8b1165a0b16e","bdp_rd","Mon Mar 27 2023 12:16:03 GMT-0500 (アメリカ中部夏時間)","187560","","null","","","","FIX","","<div class='trialBorder'><div class='vertical-center'><img style='vertical-align:center; align:center' src=img/fixation3.jpg></div></div>","null","","","","","",""
"html-keyboard-response","50","81088","0.0-5.0-2.15","5fd8025bcfda8b1165a0b16e","bdp_rd","Mon Mar 27 2023 12:16:03 GMT-0500 (アメリカ中部夏時間)","187560","","1304","","","","offer","","<div class='trialBorder'><div class='vertical-center'><img style='vertical-align:center; align:center' src=img/fixation3.jpg></div><div class='cl'><div class='vertical-center'>$1<br>for<br>sure</div></div><div class='cr'><div class='vertical-center'>$30<br>with a<br>50% chance</div></div><div class='respDivL'><div class='vertical-center'>(E)</div></div><div class='respDivR'><div class='vertical-center'>(I)</div></div></div>","I","$1","$30","0","1","30","RISKY"
"html-keyboard-response","51","81339","0.0-5.0-3.15","5fd8025bcfda8b1165a0b16e","bdp_rd","Mon Mar 27 2023 12:16:03 GMT-0500 (アメリカ中部夏時間)","187560","","null","","","","offerFB","","<div class='trialBorder'><div class='vertical-center'><img style='vertical-align:center; align:center' src=img/fixation3.jpg></div><div class='cl'><div class='vertical-center'>$1<br>for<br>sure</div></div><div class='cr'><div class='vertical-center'><font style='color:orange'>$30<br>with a<br>50% chance</font></div></div><div class='respDivL'><div class='vertical-center'>(E)</div></div><div class='respDivR'><div class='vertical-center'><font style='color:orange'>(I)</font></div></div></div>","null","$1","$30","0","1","30",""
"html-keyboard-response","52","81840","0.0-5.0-1.16","5fd8025bcfda8b1165a0b16e","bdp_rd","Mon Mar 27 2023 12:16:03 GMT-0500 (アメリカ中部夏時間)","187560","","null","","","","FIX","","<div class='trialBorder'><div class='vertical-center'><img style='vertical-align:center; align:center' src=img/fixation3.jpg></div></div>","null","","","","","",""
"html-keyboard-response","53","83312","0.0-5.0-2.16","5fd8025bcfda8b1165a0b16e","bdp_rd","Mon Mar 27 2023 12:16:03 GMT-0500 (アメリカ中部夏時間)","187560","","1471","","","","offer","","<div class='trialBorder'><div class='vertical-center'><img style='vertical-align:center; align:center' src=img/fixation3.jpg></div><div class='cl'><div class='vertical-center'>$46<br>with a<br>50% chance</div></div><div class='cr'><div class='vertical-center'>$29<br>for<br>sure</div></div><div class='respDivL'><div class='vertical-center'>(E)</div></div><div class='respDivR'><div class='vertical-center'>(I)</div></div></div>","E","$29","$46","1","29","46","RISKY"
"html-keyboard-response","54","83563","0.0-5.0-3.16","5fd8025bcfda8b1165a0b16e","bdp_rd","Mon Mar 27 2023 12:16:03 GMT-0500 (アメリカ中部夏時間)","187560","","null","","","","offerFB","","<div class='trialBorder'><div class='vertical-center'><img style='vertical-align:center; align:center' src=img/fixation3.jpg></div><div class='cl'><div class='vertical-center'><font style='color:orange'>$46<br>with a<br>50% chance</font></div></div><div class='cr'><div class='vertical-center'>$29<br>for<br>sure</div></div><div class='respDivL'><div class='vertical-center'><font style='color:orange'>(E)</font></div></div><div class='respDivR'><div class='vertical-center'>(I)</div></div></div>","null","$29","$46","1","29","46",""
"html-keyboard-response","55","84064","0.0-5.0-1.17","5fd8025bcfda8b1165a0b16e","bdp_rd","Mon Mar 27 2023 12:16:03 GMT-0500 (アメリカ中部夏時間)","187560","","null","","","","FIX","","<div class='trialBorder'><div class='vertical-center'><img style='vertical-align:center; align:center' src=img/fixation3.jpg></div></div>","null","","","","","",""
"html-keyboard-response","56","85784","0.0-5.0-2.17","5fd8025bcfda8b1165a0b16e","bdp_rd","Mon Mar 27 2023 12:16:03 GMT-0500 (アメリカ中部夏時間)","187560","","1719","","","","offer","","<div class='trialBorder'><div class='vertical-center'><img style='vertical-align:center; align:center' src=img/fixation3.jpg></div><div class='cl'><div class='vertical-center'>$41<br>with a<br>50% chance</div></div><div class='cr'><div class='vertical-center'>$13<br>for<br>sure</div></div><div class='respDivL'><div class='vertical-center'>(E)</div></div><div class='respDivR'><div class='vertical-center'>(I)</div></div></div>","E","$13","$41","1","13","41","RISKY"
"html-keyboard-response","57","86036","0.0-5.0-3.17","5fd8025bcfda8b1165a0b16e","bdp_rd","Mon Mar 27 2023 12:16:03 GMT-0500 (アメリカ中部夏時間)","187560","","null","","","","offerFB","","<div class='trialBorder'><div class='vertical-center'><img style='vertical-align:center; align:center' src=img/fixation3.jpg></div><div class='cl'><div class='vertical-center'><font style='color:orange'>$41<br>with a<br>50% chance</font></div></div><div class='cr'><div class='vertical-center'>$13<br>for<br>sure</div></div><div class='respDivL'><div class='vertical-center'><font style='color:orange'>(E)</font></div></div><div class='respDivR'><div class='vertical-center'>(I)</div></div></div>","null","$13","$41","1","13","41",""
"html-keyboard-response","58","86538","0.0-5.0-1.18","5fd8025bcfda8b1165a0b16e","bdp_rd","Mon Mar 27 2023 12:16:03 GMT-0500 (アメリカ中部夏時間)","187560","","null","","","","FIX","","<div class='trialBorder'><div class='vertical-center'><img style='vertical-align:center; align:center' src=img/fixation3.jpg></div></div>","null","","","","","",""
"html-keyboard-response","59","87873","0.0-5.0-2.18","5fd8025bcfda8b1165a0b16e","bdp_rd","Mon Mar 27 2023 12:16:03 GMT-0500 (アメリカ中部夏時間)","187560","","1335","","","","offer","","<div class='trialBorder'><div class='vertical-center'><img style='vertical-align:center; align:center' src=img/fixation3.jpg></div><div class='cl'><div class='vertical-center'>$71<br>with a<br>50% chance</div></div><div class='cr'><div class='vertical-center'>$7<br>for<br>sure</div></div><div class='respDivL'><div class='vertical-center'>(E)</div></div><div class='respDivR'><div class='vertical-center'>(I)</div></div></div>","E","$7","$71","1","7","71","RISKY"
"html-keyboard-response","60","88124","0.0-5.0-3.18","5fd8025bcfda8b1165a0b16e","bdp_rd","Mon Mar 27 2023 12:16:03 GMT-0500 (アメリカ中部夏時間)","187560","","null","","","","offerFB","","<div class='trialBorder'><div class='vertical-center'><img style='vertical-align:center; align:center' src=img/fixation3.jpg></div><div class='cl'><div class='vertical-center'><font style='color:orange'>$71<br>with a<br>50% chance</font></div></div><div class='cr'><div class='vertical-center'>$7<br>for<br>sure</div></div><div class='respDivL'><div class='vertical-center'><font style='color:orange'>(E)</font></div></div><div class='respDivR'><div class='vertical-center'>(I)</div></div></div>","null","$7","$71","1","7","71",""
"html-keyboard-response","61","88626","0.0-5.0-1.19","5fd8025bcfda8b1165a0b16e","bdp_rd","Mon Mar 27 2023 12:16:03 GMT-0500 (アメリカ中部夏時間)","187560","","null","","","","FIX","","<div class='trialBorder'><div class='vertical-center'><img style='vertical-align:center; align:center' src=img/fixation3.jpg></div></div>","null","","","","","",""
"html-keyboard-response","62","90048","0.0-5.0-2.19","5fd8025bcfda8b1165a0b16e","bdp_rd","Mon Mar 27 2023 12:16:03 GMT-0500 (アメリカ中部夏時間)","187560","","1422","","","","offer","","<div class='trialBorder'><div class='vertical-center'><img style='vertical-align:center; align:center' src=img/fixation3.jpg></div><div class='cl'><div class='vertical-center'>$22<br>for<br>sure</div></div><div class='cr'><div class='vertical-center'>$59<br>with a<br>50% chance</div></div><div class='respDivL'><div class='vertical-center'>(E)</div></div><div class='respDivR'><div class='vertical-center'>(I)</div></div></div>","I","$22","$59","0","22","59","RISKY"
"html-keyboard-response","63","90300","0.0-5.0-3.19","5fd8025bcfda8b1165a0b16e","bdp_rd","Mon Mar 27 2023 12:16:03 GMT-0500 (アメリカ中部夏時間)","187560","","null","","","","offerFB","","<div class='trialBorder'><div class='vertical-center'><img style='vertical-align:center; align:center' src=img/fixation3.jpg></div><div class='cl'><div class='vertical-center'>$22<br>for<br>sure</div></div><div class='cr'><div class='vertical-center'><font style='color:orange'>$59<br>with a<br>50% chance</font></div></div><div class='respDivL'><div class='vertical-center'>(E)</div></div><div class='respDivR'><div class='vertical-center'><font style='color:orange'>(I)</font></div></div></div>","null","$22","$59","0","22","59",""
"html-keyboard-response","64","90801","0.0-5.0-1.20","5fd8025bcfda8b1165a0b16e","bdp_rd","Mon Mar 27 2023 12:16:03 GMT-0500 (アメリカ中部夏時間)","187560","","null","","","","FIX","","<div class='trialBorder'><div class='vertical-center'><img style='vertical-align:center; align:center' src=img/fixation3.jpg></div></div>","null","","","","","",""
"html-keyboard-response","65","92082","0.0-5.0-2.20","5fd8025bcfda8b1165a0b16e","bdp_rd","Mon Mar 27 2023 12:16:03 GMT-0500 (アメリカ中部夏時間)","187560","","1280","","","","offer","","<div class='trialBorder'><div class='vertical-center'><img style='vertical-align:center; align:center' src=img/fixation3.jpg></div><div class='cl'><div class='vertical-center'>$42<br>for<br>sure</div></div><div class='cr'><div class='vertical-center'>$73<br>with a<br>50% chance</div></div><div class='respDivL'><div class='vertical-center'>(E)</div></div><div class='respDivR'><div class='vertical-center'>(I)</div></div></div>","I","$42","$73","0","42","73","RISKY"
"html-keyboard-response","66","92333","0.0-5.0-3.20","5fd8025bcfda8b1165a0b16e","bdp_rd","Mon Mar 27 2023 12:16:03 GMT-0500 (アメリカ中部夏時間)","187560","","null","","","","offerFB","","<div class='trialBorder'><div class='vertical-center'><img style='vertical-align:center; align:center' src=img/fixation3.jpg></div><div class='cl'><div class='vertical-center'>$42<br>for<br>sure</div></div><div class='cr'><div class='vertical-center'><font style='color:orange'>$73<br>with a<br>50% chance</font></div></div><div class='respDivL'><div class='vertical-center'>(E)</div></div><div class='respDivR'><div class='vertical-center'><font style='color:orange'>(I)</font></div></div></div>","null","$42","$73","0","42","73",""
"html-keyboard-response","67","92834","0.0-5.0-1.21","5fd8025bcfda8b1165a0b16e","bdp_rd","Mon Mar 27 2023 12:16:03 GMT-0500 (アメリカ中部夏時間)","187560","","null","","","","FIX","","<div class='trialBorder'><div class='vertical-center'><img style='vertical-align:center; align:center' src=img/fixation3.jpg></div></div>","null","","","","","",""
"html-keyboard-response","68","94001","0.0-5.0-2.21","5fd8025bcfda8b1165a0b16e","bdp_rd","Mon Mar 27 2023 12:16:03 GMT-0500 (アメリカ中部夏時間)","187560","","1167","","","","offer","","<div class='trialBorder'><div class='vertical-center'><img style='vertical-align:center; align:center' src=img/fixation3.jpg></div><div class='cl'><div class='vertical-center'>$5<br>for<br>sure</div></div><div class='cr'><div class='vertical-center'>$16<br>with a<br>50% chance</div></div><div class='respDivL'><div class='vertical-center'>(E)</div></div><div class='respDivR'><div class='vertical-center'>(I)</div></div></div>","I","$5","$16","0","5","16","RISKY"
"html-keyboard-response","69","94253","0.0-5.0-3.21","5fd8025bcfda8b1165a0b16e","bdp_rd","Mon Mar 27 2023 12:16:03 GMT-0500 (アメリカ中部夏時間)","187560","","null","","","","offerFB","","<div class='trialBorder'><div class='vertical-center'><img style='vertical-align:center; align:center' src=img/fixation3.jpg></div><div class='cl'><div class='vertical-center'>$5<br>for<br>sure</div></div><div class='cr'><div class='vertical-center'><font style='color:orange'>$16<br>with a<br>50% chance</font></div></div><div class='respDivL'><div class='vertical-center'>(E)</div></div><div class='respDivR'><div class='vertical-center'><font style='color:orange'>(I)</font></div></div></div>","null","$5","$16","0","5","16",""
"html-keyboard-response","70","94754","0.0-5.0-1.22","5fd8025bcfda8b1165a0b16e","bdp_rd","Mon Mar 27 2023 12:16:03 GMT-0500 (アメリカ中部夏時間)","187560","","null","","","","FIX","","<div class='trialBorder'><div class='vertical-center'><img style='vertical-align:center; align:center' src=img/fixation3.jpg></div></div>","null","","","","","",""
"html-keyboard-response","71","95809","0.0-5.0-2.22","5fd8025bcfda8b1165a0b16e","bdp_rd","Mon Mar 27 2023 12:16:03 GMT-0500 (アメリカ中部夏時間)","187560","","1055","","","","offer","","<div class='trialBorder'><div class='vertical-center'><img style='vertical-align:center; align:center' src=img/fixation3.jpg></div><div class='cl'><div class='vertical-center'>$18<br>for<br>sure</div></div><div class='cr'><div class='vertical-center'>$39<br>with a<br>50% chance</div></div><div class='respDivL'><div class='vertical-center'>(E)</div></div><div class='respDivR'><div class='vertical-center'>(I)</div></div></div>","I","$18","$39","0","18","39","RISKY"
"html-keyboard-response","72","96060","0.0-5.0-3.22","5fd8025bcfda8b1165a0b16e","bdp_rd","Mon Mar 27 2023 12:16:03 GMT-0500 (アメリカ中部夏時間)","187560","","null","","","","offerFB","","<div class='trialBorder'><div class='vertical-center'><img style='vertical-align:center; align:center' src=img/fixation3.jpg></div><div class='cl'><div class='vertical-center'>$18<br>for<br>sure</div></div><div class='cr'><div class='vertical-center'><font style='color:orange'>$39<br>with a<br>50% chance</font></div></div><div class='respDivL'><div class='vertical-center'>(E)</div></div><div class='respDivR'><div class='vertical-center'><font style='color:orange'>(I)</font></div></div></div>","null","$18","$39","0","18","39",""
"html-keyboard-response","73","96563","0.0-5.0-1.23","5fd8025bcfda8b1165a0b16e","bdp_rd","Mon Mar 27 2023 12:16:03 GMT-0500 (アメリカ中部夏時間)","187560","","null","","","","FIX","","<div class='trialBorder'><div class='vertical-center'><img style='vertical-align:center; align:center' src=img/fixation3.jpg></div></div>","null","","","","","",""
"html-keyboard-response","74","98129","0.0-5.0-2.23","5fd8025bcfda8b1165a0b16e","bdp_rd","Mon Mar 27 2023 12:16:03 GMT-0500 (アメリカ中部夏時間)","187560","","1566","","","","offer","","<div class='trialBorder'><div class='vertical-center'><img style='vertical-align:center; align:center' src=img/fixation3.jpg></div><div class='cl'><div class='vertical-center'>$34<br>for<br>sure</div></div><div class='cr'><div class='vertical-center'>$48<br>with a<br>50% chance</div></div><div class='respDivL'><div class='vertical-center'>(E)</div></div><div class='respDivR'><div class='vertical-center'>(I)</div></div></div>","I","$34","$48","0","34","48","RISKY"
"html-keyboard-response","75","98381","0.0-5.0-3.23","5fd8025bcfda8b1165a0b16e","bdp_rd","Mon Mar 27 2023 12:16:03 GMT-0500 (アメリカ中部夏時間)","187560","","null","","","","offerFB","","<div class='trialBorder'><div class='vertical-center'><img style='vertical-align:center; align:center' src=img/fixation3.jpg></div><div class='cl'><div class='vertical-center'>$34<br>for<br>sure</div></div><div class='cr'><div class='vertical-center'><font style='color:orange'>$48<br>with a<br>50% chance</font></div></div><div class='respDivL'><div class='vertical-center'>(E)</div></div><div class='respDivR'><div class='vertical-center'><font style='color:orange'>(I)</font></div></div></div>","null","$34","$48","0","34","48",""
"html-keyboard-response","76","98881","0.0-5.0-1.24","5fd8025bcfda8b1165a0b16e","bdp_rd","Mon Mar 27 2023 12:16:03 GMT-0500 (アメリカ中部夏時間)","187560","","null","","","","FIX","","<div class='trialBorder'><div class='vertical-center'><img style='vertical-align:center; align:center' src=img/fixation3.jpg></div></div>","null","","","","","",""
"html-keyboard-response","77","100826","0.0-5.0-2.24","5fd8025bcfda8b1165a0b16e","bdp_rd","Mon Mar 27 2023 12:16:03 GMT-0500 (アメリカ中部夏時間)","187560","","1944","","","","offer","","<div class='trialBorder'><div class='vertical-center'><img style='vertical-align:center; align:center' src=img/fixation3.jpg></div><div class='cl'><div class='vertical-center'>$10<br>for<br>sure</div></div><div class='cr'><div class='vertical-center'>$40<br>with a<br>50% chance</div></div><div class='respDivL'><div class='vertical-center'>(E)</div></div><div class='respDivR'><div class='vertical-center'>(I)</div></div></div>","I","$10","$40","0","10","40","RISKY"
"html-keyboard-response","78","101078","0.0-5.0-3.24","5fd8025bcfda8b1165a0b16e","bdp_rd","Mon Mar 27 2023 12:16:03 GMT-0500 (アメリカ中部夏時間)","187560","","null","","","","offerFB","","<div class='trialBorder'><div class='vertical-center'><img style='vertical-align:center; align:center' src=img/fixation3.jpg></div><div class='cl'><div class='vertical-center'>$10<br>for<br>sure</div></div><div class='cr'><div class='vertical-center'><font style='color:orange'>$40<br>with a<br>50% chance</font></div></div><div class='respDivL'><div class='vertical-center'>(E)</div></div><div class='respDivR'><div class='vertical-center'><font style='color:orange'>(I)</font></div></div></div>","null","$10","$40","0","10","40",""
"html-keyboard-response","79","101579","0.0-5.0-1.25","5fd8025bcfda8b1165a0b16e","bdp_rd","Mon Mar 27 2023 12:16:03 GMT-0500 (アメリカ中部夏時間)","187560","","null","","","","FIX","","<div class='trialBorder'><div class='vertical-center'><img style='vertical-align:center; align:center' src=img/fixation3.jpg></div></div>","null","","","","","",""
"html-keyboard-response","80","102650","0.0-5.0-2.25","5fd8025bcfda8b1165a0b16e","bdp_rd","Mon Mar 27 2023 12:16:03 GMT-0500 (アメリカ中部夏時間)","187560","","1071","","","","offer","","<div class='trialBorder'><div class='vertical-center'><img style='vertical-align:center; align:center' src=img/fixation3.jpg></div><div class='cl'><div class='vertical-center'>$68<br>with a<br>50% chance</div></div><div class='cr'><div class='vertical-center'>$30<br>for<br>sure</div></div><div class='respDivL'><div class='vertical-center'>(E)</div></div><div class='respDivR'><div class='vertical-center'>(I)</div></div></div>","E","$30","$68","1","30","68","RISKY"
"html-keyboard-response","81","102903","0.0-5.0-3.25","5fd8025bcfda8b1165a0b16e","bdp_rd","Mon Mar 27 2023 12:16:03 GMT-0500 (アメリカ中部夏時間)","187560","","null","","","","offerFB","","<div class='trialBorder'><div class='vertical-center'><img style='vertical-align:center; align:center' src=img/fixation3.jpg></div><div class='cl'><div class='vertical-center'><font style='color:orange'>$68<br>with a<br>50% chance</font></div></div><div class='cr'><div class='vertical-center'>$30<br>for<br>sure</div></div><div class='respDivL'><div class='vertical-center'><font style='color:orange'>(E)</font></div></div><div class='respDivR'><div class='vertical-center'>(I)</div></div></div>","null","$30","$68","1","30","68",""
"html-keyboard-response","82","103403","0.0-5.0-1.26","5fd8025bcfda8b1165a0b16e","bdp_rd","Mon Mar 27 2023 12:16:03 GMT-0500 (アメリカ中部夏時間)","187560","","null","","","","FIX","","<div class='trialBorder'><div class='vertical-center'><img style='vertical-align:center; align:center' src=img/fixation3.jpg></div></div>","null","","","","","",""
"html-keyboard-response","83","104450","0.0-5.0-2.26","5fd8025bcfda8b1165a0b16e","bdp_rd","Mon Mar 27 2023 12:16:03 GMT-0500 (アメリカ中部夏時間)","187560","","1046","","","","offer","","<div class='trialBorder'><div class='vertical-center'><img style='vertical-align:center; align:center' src=img/fixation3.jpg></div><div class='cl'><div class='vertical-center'>$17<br>for<br>sure</div></div><div class='cr'><div class='vertical-center'>$43<br>with a<br>50% chance</div></div><div class='respDivL'><div class='vertical-center'>(E)</div></div><div class='respDivR'><div class='vertical-center'>(I)</div></div></div>","I","$17","$43","0","17","43","RISKY"
"html-keyboard-response","84","104701","0.0-5.0-3.26","5fd8025bcfda8b1165a0b16e","bdp_rd","Mon Mar 27 2023 12:16:03 GMT-0500 (アメリカ中部夏時間)","187560","","null","","","","offerFB","","<div class='trialBorder'><div class='vertical-center'><img style='vertical-align:center; align:center' src=img/fixation3.jpg></div><div class='cl'><div class='vertical-center'>$17<br>for<br>sure</div></div><div class='cr'><div class='vertical-center'><font style='color:orange'>$43<br>with a<br>50% chance</font></div></div><div class='respDivL'><div class='vertical-center'>(E)</div></div><div class='respDivR'><div class='vertical-center'><font style='color:orange'>(I)</font></div></div></div>","null","$17","$43","0","17","43",""
"html-keyboard-response","85","105202","0.0-5.0-1.27","5fd8025bcfda8b1165a0b16e","bdp_rd","Mon Mar 27 2023 12:16:03 GMT-0500 (アメリカ中部夏時間)","187560","","null","","","","FIX","","<div class='trialBorder'><div class='vertical-center'><img style='vertical-align:center; align:center' src=img/fixation3.jpg></div></div>","null","","","","","",""
"html-keyboard-response","86","106546","0.0-5.0-2.27","5fd8025bcfda8b1165a0b16e","bdp_rd","Mon Mar 27 2023 12:16:03 GMT-0500 (アメリカ中部夏時間)","187560","","1344","","","","offer","","<div class='trialBorder'><div class='vertical-center'><img style='vertical-align:center; align:center' src=img/fixation3.jpg></div><div class='cl'><div class='vertical-center'>$33<br>for<br>sure</div></div><div class='cr'><div class='vertical-center'>$66<br>with a<br>50% chance</div></div><div class='respDivL'><div class='vertical-center'>(E)</div></div><div class='respDivR'><div class='vertical-center'>(I)</div></div></div>","I","$33","$66","0","33","66","RISKY"
"html-keyboard-response","87","106798","0.0-5.0-3.27","5fd8025bcfda8b1165a0b16e","bdp_rd","Mon Mar 27 2023 12:16:03 GMT-0500 (アメリカ中部夏時間)","187560","","null","","","","offerFB","","<div class='trialBorder'><div class='vertical-center'><img style='vertical-align:center; align:center' src=img/fixation3.jpg></div><div class='cl'><div class='vertical-center'>$33<br>for<br>sure</div></div><div class='cr'><div class='vertical-center'><font style='color:orange'>$66<br>with a<br>50% chance</font></div></div><div class='respDivL'><div class='vertical-center'>(E)</div></div><div class='respDivR'><div class='vertical-center'><font style='color:orange'>(I)</font></div></div></div>","null","$33","$66","0","33","66",""
"html-keyboard-response","88","107299","0.0-5.0-1.28","5fd8025bcfda8b1165a0b16e","bdp_rd","Mon Mar 27 2023 12:16:03 GMT-0500 (アメリカ中部夏時間)","187560","","null","","","","FIX","","<div class='trialBorder'><div class='vertical-center'><img style='vertical-align:center; align:center' src=img/fixation3.jpg></div></div>","null","","","","","",""
"html-keyboard-response","89","108914","0.0-5.0-2.28","5fd8025bcfda8b1165a0b16e","bdp_rd","Mon Mar 27 2023 12:16:03 GMT-0500 (アメリカ中部夏時間)","187560","","1615","","","","offer","","<div class='trialBorder'><div class='vertical-center'><img style='vertical-align:center; align:center' src=img/fixation3.jpg></div><div class='cl'><div class='vertical-center'>$19<br>with a<br>50% chance</div></div><div class='cr'><div class='vertical-center'>$10<br>for<br>sure</div></div><div class='respDivL'><div class='vertical-center'>(E)</div></div><div class='respDivR'><div class='vertical-center'>(I)</div></div></div>","E","$10","$19","1","10","19","RISKY"
"html-keyboard-response","90","109166","0.0-5.0-3.28","5fd8025bcfda8b1165a0b16e","bdp_rd","Mon Mar 27 2023 12:16:03 GMT-0500 (アメリカ中部夏時間)","187560","","null","","","","offerFB","","<div class='trialBorder'><div class='vertical-center'><img style='vertical-align:center; align:center' src=img/fixation3.jpg></div><div class='cl'><div class='vertical-center'><font style='color:orange'>$19<br>with a<br>50% chance</font></div></div><div class='cr'><div class='vertical-center'>$10<br>for<br>sure</div></div><div class='respDivL'><div class='vertical-center'><font style='color:orange'>(E)</font></div></div><div class='respDivR'><div class='vertical-center'>(I)</div></div></div>","null","$10","$19","1","10","19",""
"html-keyboard-response","91","109667","0.0-5.0-1.29","5fd8025bcfda8b1165a0b16e","bdp_rd","Mon Mar 27 2023 12:16:03 GMT-0500 (アメリカ中部夏時間)","187560","","null","","","","FIX","","<div class='trialBorder'><div class='vertical-center'><img style='vertical-align:center; align:center' src=img/fixation3.jpg></div></div>","null","","","","","",""
"html-keyboard-response","92","110611","0.0-5.0-2.29","5fd8025bcfda8b1165a0b16e","bdp_rd","Mon Mar 27 2023 12:16:03 GMT-0500 (アメリカ中部夏時間)","187560","","943","","","","offer","","<div class='trialBorder'><div class='vertical-center'><img style='vertical-align:center; align:center' src=img/fixation3.jpg></div><div class='cl'><div class='vertical-center'>$18<br>for<br>sure</div></div><div class='cr'><div class='vertical-center'>$36<br>with a<br>50% chance</div></div><div class='respDivL'><div class='vertical-center'>(E)</div></div><div class='respDivR'><div class='vertical-center'>(I)</div></div></div>","I","$18","$36","0","18","36","RISKY"
"html-keyboard-response","93","110861","0.0-5.0-3.29","5fd8025bcfda8b1165a0b16e","bdp_rd","Mon Mar 27 2023 12:16:03 GMT-0500 (アメリカ中部夏時間)","187560","","null","","","","offerFB","","<div class='trialBorder'><div class='vertical-center'><img style='vertical-align:center; align:center' src=img/fixation3.jpg></div><div class='cl'><div class='vertical-center'>$18<br>for<br>sure</div></div><div class='cr'><div class='vertical-center'><font style='color:orange'>$36<br>with a<br>50% chance</font></div></div><div class='respDivL'><div class='vertical-center'>(E)</div></div><div class='respDivR'><div class='vertical-center'><font style='color:orange'>(I)</font></div></div></div>","null","$18","$36","0","18","36",""
"html-keyboard-response","94","111363","0.0-5.0-1.30","5fd8025bcfda8b1165a0b16e","bdp_rd","Mon Mar 27 2023 12:16:03 GMT-0500 (アメリカ中部夏時間)","187560","","null","","","","FIX","","<div class='trialBorder'><div class='vertical-center'><img style='vertical-align:center; align:center' src=img/fixation3.jpg></div></div>","null","","","","","",""
"html-keyboard-response","95","112819","0.0-5.0-2.30","5fd8025bcfda8b1165a0b16e","bdp_rd","Mon Mar 27 2023 12:16:03 GMT-0500 (アメリカ中部夏時間)","187560","","1456","","","","offer","","<div class='trialBorder'><div class='vertical-center'><img style='vertical-align:center; align:center' src=img/fixation3.jpg></div><div class='cl'><div class='vertical-center'>$37<br>with a<br>50% chance</div></div><div class='cr'><div class='vertical-center'>$20<br>for<br>sure</div></div><div class='respDivL'><div class='vertical-center'>(E)</div></div><div class='respDivR'><div class='vertical-center'>(I)</div></div></div>","E","$20","$37","1","20","37","RISKY"
"html-keyboard-response","96","113070","0.0-5.0-3.30","5fd8025bcfda8b1165a0b16e","bdp_rd","Mon Mar 27 2023 12:16:03 GMT-0500 (アメリカ中部夏時間)","187560","","null","","","","offerFB","","<div class='trialBorder'><div class='vertical-center'><img style='vertical-align:center; align:center' src=img/fixation3.jpg></div><div class='cl'><div class='vertical-center'><font style='color:orange'>$37<br>with a<br>50% chance</font></div></div><div class='cr'><div class='vertical-center'>$20<br>for<br>sure</div></div><div class='respDivL'><div class='vertical-center'><font style='color:orange'>(E)</font></div></div><div class='respDivR'><div class='vertical-center'>(I)</div></div></div>","null","$20","$37","1","20","37",""
"html-keyboard-response","97","113572","0.0-5.0-1.31","5fd8025bcfda8b1165a0b16e","bdp_rd","Mon Mar 27 2023 12:16:03 GMT-0500 (アメリカ中部夏時間)","187560","","null","","","","FIX","","<div class='trialBorder'><div class='vertical-center'><img style='vertical-align:center; align:center' src=img/fixation3.jpg></div></div>","null","","","","","",""
"html-keyboard-response","98","114787","0.0-5.0-2.31","5fd8025bcfda8b1165a0b16e","bdp_rd","Mon Mar 27 2023 12:16:03 GMT-0500 (アメリカ中部夏時間)","187560","","1215","","","","offer","","<div class='trialBorder'><div class='vertical-center'><img style='vertical-align:center; align:center' src=img/fixation3.jpg></div><div class='cl'><div class='vertical-center'>$11<br>for<br>sure</div></div><div class='cr'><div class='vertical-center'>$26<br>with a<br>50% chance</div></div><div class='respDivL'><div class='vertical-center'>(E)</div></div><div class='respDivR'><div class='vertical-center'>(I)</div></div></div>","I","$11","$26","0","11","26","RISKY"
"html-keyboard-response","99","115038","0.0-5.0-3.31","5fd8025bcfda8b1165a0b16e","bdp_rd","Mon Mar 27 2023 12:16:03 GMT-0500 (アメリカ中部夏時間)","187560","","null","","","","offerFB","","<div class='trialBorder'><div class='vertical-center'><img style='vertical-align:center; align:center' src=img/fixation3.jpg></div><div class='cl'><div class='vertical-center'>$11<br>for<br>sure</div></div><div class='cr'><div class='vertical-center'><font style='color:orange'>$26<br>with a<br>50% chance</font></div></div><div class='respDivL'><div class='vertical-center'>(E)</div></div><div class='respDivR'><div class='vertical-center'><font style='color:orange'>(I)</font></div></div></div>","null","$11","$26","0","11","26",""
"html-keyboard-response","100","115539","0.0-5.0-1.32","5fd8025bcfda8b1165a0b16e","bdp_rd","Mon Mar 27 2023 12:16:03 GMT-0500 (アメリカ中部夏時間)","187560","","null","","","","FIX","","<div class='trialBorder'><div class='vertical-center'><img style='vertical-align:center; align:center' src=img/fixation3.jpg></div></div>","null","","","","","",""
"html-keyboard-response","101","116971","0.0-5.0-2.32","5fd8025bcfda8b1165a0b16e","bdp_rd","Mon Mar 27 2023 12:16:03 GMT-0500 (アメリカ中部夏時間)","187560","","1432","","","","offer","","<div class='trialBorder'><div class='vertical-center'><img style='vertical-align:center; align:center' src=img/fixation3.jpg></div><div class='cl'><div class='vertical-center'>$58<br>for<br>sure</div></div><div class='cr'><div class='vertical-center'>$69<br>with a<br>50% chance</div></div><div class='respDivL'><div class='vertical-center'>(E)</div></div><div class='respDivR'><div class='vertical-center'>(I)</div></div></div>","E","$58","$69","0","58","69","SURE"
"html-keyboard-response","102","117223","0.0-5.0-3.32","5fd8025bcfda8b1165a0b16e","bdp_rd","Mon Mar 27 2023 12:16:03 GMT-0500 (アメリカ中部夏時間)","187560","","null","","","","offerFB","","<div class='trialBorder'><div class='vertical-center'><img style='vertical-align:center; align:center' src=img/fixation3.jpg></div><div class='cl'><div class='vertical-center'><font style='color:orange'>$58<br>for<br>sure</font></div></div><div class='cr'><div class='vertical-center'>$69<br>with a<br>50% chance</div></div><div class='respDivL'><div class='vertical-center'><font style='color:orange'>(E)</font></div></div><div class='respDivR'><div class='vertical-center'>(I)</div></div></div>","null","$58","$69","0","58","69",""
"html-keyboard-response","103","117724","0.0-5.0-1.33","5fd8025bcfda8b1165a0b16e","bdp_rd","Mon Mar 27 2023 12:16:03 GMT-0500 (アメリカ中部夏時間)","187560","","null","","","","FIX","","<div class='trialBorder'><div class='vertical-center'><img style='vertical-align:center; align:center' src=img/fixation3.jpg></div></div>","null","","","","","",""
"html-keyboard-response","104","119019","0.0-5.0-2.33","5fd8025bcfda8b1165a0b16e","bdp_rd","Mon Mar 27 2023 12:16:03 GMT-0500 (アメリカ中部夏時間)","187560","","1295","","","","offer","","<div class='trialBorder'><div class='vertical-center'><img style='vertical-align:center; align:center' src=img/fixation3.jpg></div><div class='cl'><div class='vertical-center'>$2<br>for<br>sure</div></div><div class='cr'><div class='vertical-center'>$21<br>with a<br>50% chance</div></div><div class='respDivL'><div class='vertical-center'>(E)</div></div><div class='respDivR'><div class='vertical-center'>(I)</div></div></div>","I","$2","$21","0","2","21","RISKY"
"html-keyboard-response","105","119271","0.0-5.0-3.33","5fd8025bcfda8b1165a0b16e","bdp_rd","Mon Mar 27 2023 12:16:03 GMT-0500 (アメリカ中部夏時間)","187560","","null","","","","offerFB","","<div class='trialBorder'><div class='vertical-center'><img style='vertical-align:center; align:center' src=img/fixation3.jpg></div><div class='cl'><div class='vertical-center'>$2<br>for<br>sure</div></div><div class='cr'><div class='vertical-center'><font style='color:orange'>$21<br>with a<br>50% chance</font></div></div><div class='respDivL'><div class='vertical-center'>(E)</div></div><div class='respDivR'><div class='vertical-center'><font style='color:orange'>(I)</font></div></div></div>","null","$2","$21","0","2","21",""
"html-keyboard-response","106","119772","0.0-5.0-1.34","5fd8025bcfda8b1165a0b16e","bdp_rd","Mon Mar 27 2023 12:16:03 GMT-0500 (アメリカ中部夏時間)","187560","","null","","","","FIX","","<div class='trialBorder'><div class='vertical-center'><img style='vertical-align:center; align:center' src=img/fixation3.jpg></div></div>","null","","","","","",""
"html-keyboard-response","107","121084","0.0-5.0-2.34","5fd8025bcfda8b1165a0b16e","bdp_rd","Mon Mar 27 2023 12:16:03 GMT-0500 (アメリカ中部夏時間)","187560","","1312","","","","offer","","<div class='trialBorder'><div class='vertical-center'><img style='vertical-align:center; align:center' src=img/fixation3.jpg></div><div class='cl'><div class='vertical-center'>$1<br>for<br>sure</div></div><div class='cr'><div class='vertical-center'>$33<br>with a<br>50% chance</div></div><div class='respDivL'><div class='vertical-center'>(E)</div></div><div class='respDivR'><div class='vertical-center'>(I)</div></div></div>","I","$1","$33","0","1","33","RISKY"
"html-keyboard-response","108","121335","0.0-5.0-3.34","5fd8025bcfda8b1165a0b16e","bdp_rd","Mon Mar 27 2023 12:16:03 GMT-0500 (アメリカ中部夏時間)","187560","","null","","","","offerFB","","<div class='trialBorder'><div class='vertical-center'><img style='vertical-align:center; align:center' src=img/fixation3.jpg></div><div class='cl'><div class='vertical-center'>$1<br>for<br>sure</div></div><div class='cr'><div class='vertical-center'><font style='color:orange'>$33<br>with a<br>50% chance</font></div></div><div class='respDivL'><div class='vertical-center'>(E)</div></div><div class='respDivR'><div class='vertical-center'><font style='color:orange'>(I)</font></div></div></div>","null","$1","$33","0","1","33",""
"html-keyboard-response","109","121836","0.0-5.0-1.35","5fd8025bcfda8b1165a0b16e","bdp_rd","Mon Mar 27 2023 12:16:03 GMT-0500 (アメリカ中部夏時間)","187560","","null","","","","FIX","","<div class='trialBorder'><div class='vertical-center'><img style='vertical-align:center; align:center' src=img/fixation3.jpg></div></div>","null","","","","","",""
"html-keyboard-response","110","123244","0.0-5.0-2.35","5fd8025bcfda8b1165a0b16e","bdp_rd","Mon Mar 27 2023 12:16:03 GMT-0500 (アメリカ中部夏時間)","187560","","1407","","","","offer","","<div class='trialBorder'><div class='vertical-center'><img style='vertical-align:center; align:center' src=img/fixation3.jpg></div><div class='cl'><div class='vertical-center'>$62<br>with a<br>50% chance</div></div><div class='cr'><div class='vertical-center'>$11<br>for<br>sure</div></div><div class='respDivL'><div class='vertical-center'>(E)</div></div><div class='respDivR'><div class='vertical-center'>(I)</div></div></div>","E","$11","$62","1","11","62","RISKY"
"html-keyboard-response","111","123496","0.0-5.0-3.35","5fd8025bcfda8b1165a0b16e","bdp_rd","Mon Mar 27 2023 12:16:03 GMT-0500 (アメリカ中部夏時間)","187560","","null","","","","offerFB","","<div class='trialBorder'><div class='vertical-center'><img style='vertical-align:center; align:center' src=img/fixation3.jpg></div><div class='cl'><div class='vertical-center'><font style='color:orange'>$62<br>with a<br>50% chance</font></div></div><div class='cr'><div class='vertical-center'>$11<br>for<br>sure</div></div><div class='respDivL'><div class='vertical-center'><font style='color:orange'>(E)</font></div></div><div class='respDivR'><div class='vertical-center'>(I)</div></div></div>","null","$11","$62","1","11","62",""
"html-keyboard-response","112","123998","0.0-5.0-1.36","5fd8025bcfda8b1165a0b16e","bdp_rd","Mon Mar 27 2023 12:16:03 GMT-0500 (アメリカ中部夏時間)","187560","","null","","","","FIX","","<div class='trialBorder'><div class='vertical-center'><img style='vertical-align:center; align:center' src=img/fixation3.jpg></div></div>","null","","","","","",""
"html-keyboard-response","113","125580","0.0-5.0-2.36","5fd8025bcfda8b1165a0b16e","bdp_rd","Mon Mar 27 2023 12:16:03 GMT-0500 (アメリカ中部夏時間)","187560","","1582","","","","offer","","<div class='trialBorder'><div class='vertical-center'><img style='vertical-align:center; align:center' src=img/fixation3.jpg></div><div class='cl'><div class='vertical-center'>$25<br>with a<br>50% chance</div></div><div class='cr'><div class='vertical-center'>$21<br>for<br>sure</div></div><div class='respDivL'><div class='vertical-center'>(E)</div></div><div class='respDivR'><div class='vertical-center'>(I)</div></div></div>","I","$21","$25","1","21","25","SURE"
"html-keyboard-response","114","125831","0.0-5.0-3.36","5fd8025bcfda8b1165a0b16e","bdp_rd","Mon Mar 27 2023 12:16:03 GMT-0500 (アメリカ中部夏時間)","187560","","null","","","","offerFB","","<div class='trialBorder'><div class='vertical-center'><img style='vertical-align:center; align:center' src=img/fixation3.jpg></div><div class='cl'><div class='vertical-center'>$25<br>with a<br>50% chance</div></div><div class='cr'><div class='vertical-center'><font style='color:orange'>$21<br>for<br>sure</font></div></div><div class='respDivL'><div class='vertical-center'>(E)</div></div><div class='respDivR'><div class='vertical-center'><font style='color:orange'>(I)</font></div></div></div>","null","$21","$25","1","21","25",""
"html-keyboard-response","115","126332","0.0-5.0-1.37","5fd8025bcfda8b1165a0b16e","bdp_rd","Mon Mar 27 2023 12:16:03 GMT-0500 (アメリカ中部夏時間)","187560","","null","","","","FIX","","<div class='trialBorder'><div class='vertical-center'><img style='vertical-align:center; align:center' src=img/fixation3.jpg></div></div>","null","","","","","",""
"html-keyboard-response","116","128300","0.0-5.0-2.37","5fd8025bcfda8b1165a0b16e","bdp_rd","Mon Mar 27 2023 12:16:03 GMT-0500 (アメリカ中部夏時間)","187560","","1967","","","","offer","","<div class='trialBorder'><div class='vertical-center'><img style='vertical-align:center; align:center' src=img/fixation3.jpg></div><div class='cl'><div class='vertical-center'>$8<br>for<br>sure</div></div><div class='cr'><div class='vertical-center'>$23<br>with a<br>50% chance</div></div><div class='respDivL'><div class='vertical-center'>(E)</div></div><div class='respDivR'><div class='vertical-center'>(I)</div></div></div>","I","$8","$23","0","8","23","RISKY"
"html-keyboard-response","117","128552","0.0-5.0-3.37","5fd8025bcfda8b1165a0b16e","bdp_rd","Mon Mar 27 2023 12:16:03 GMT-0500 (アメリカ中部夏時間)","187560","","null","","","","offerFB","","<div class='trialBorder'><div class='vertical-center'><img style='vertical-align:center; align:center' src=img/fixation3.jpg></div><div class='cl'><div class='vertical-center'>$8<br>for<br>sure</div></div><div class='cr'><div class='vertical-center'><font style='color:orange'>$23<br>with a<br>50% chance</font></div></div><div class='respDivL'><div class='vertical-center'>(E)</div></div><div class='respDivR'><div class='vertical-center'><font style='color:orange'>(I)</font></div></div></div>","null","$8","$23","0","8","23",""
"html-keyboard-response","118","129053","0.0-5.0-1.38","5fd8025bcfda8b1165a0b16e","bdp_rd","Mon Mar 27 2023 12:16:03 GMT-0500 (アメリカ中部夏時間)","187560","","null","","","","FIX","","<div class='trialBorder'><div class='vertical-center'><img style='vertical-align:center; align:center' src=img/fixation3.jpg></div></div>","null","","","","","",""
"html-keyboard-response","119","130220","0.0-5.0-2.38","5fd8025bcfda8b1165a0b16e","bdp_rd","Mon Mar 27 2023 12:16:03 GMT-0500 (アメリカ中部夏時間)","187560","","1167","","","","offer","","<div class='trialBorder'><div class='vertical-center'><img style='vertical-align:center; align:center' src=img/fixation3.jpg></div><div class='cl'><div class='vertical-center'>$44<br>with a<br>50% chance</div></div><div class='cr'><div class='vertical-center'>$37<br>for<br>sure</div></div><div class='respDivL'><div class='vertical-center'>(E)</div></div><div class='respDivR'><div class='vertical-center'>(I)</div></div></div>","I","$37","$44","1","37","44","SURE"
"html-keyboard-response","120","130473","0.0-5.0-3.38","5fd8025bcfda8b1165a0b16e","bdp_rd","Mon Mar 27 2023 12:16:03 GMT-0500 (アメリカ中部夏時間)","187560","","null","","","","offerFB","","<div class='trialBorder'><div class='vertical-center'><img style='vertical-align:center; align:center' src=img/fixation3.jpg></div><div class='cl'><div class='vertical-center'>$44<br>with a<br>50% chance</div></div><div class='cr'><div class='vertical-center'><font style='color:orange'>$37<br>for<br>sure</font></div></div><div class='respDivL'><div class='vertical-center'>(E)</div></div><div class='respDivR'><div class='vertical-center'><font style='color:orange'>(I)</font></div></div></div>","null","$37","$44","1","37","44",""
"html-keyboard-response","121","130974","0.0-5.0-1.39","5fd8025bcfda8b1165a0b16e","bdp_rd","Mon Mar 27 2023 12:16:03 GMT-0500 (アメリカ中部夏時間)","187560","","null","","","","FIX","","<div class='trialBorder'><div class='vertical-center'><img style='vertical-align:center; align:center' src=img/fixation3.jpg></div></div>","null","","","","","",""
"html-keyboard-response","122","132525","0.0-5.0-2.39","5fd8025bcfda8b1165a0b16e","bdp_rd","Mon Mar 27 2023 12:16:03 GMT-0500 (アメリカ中部夏時間)","187560","","1551","","","","offer","","<div class='trialBorder'><div class='vertical-center'><img style='vertical-align:center; align:center' src=img/fixation3.jpg></div><div class='cl'><div class='vertical-center'>$24<br>for<br>sure</div></div><div class='cr'><div class='vertical-center'>$70<br>with a<br>50% chance</div></div><div class='respDivL'><div class='vertical-center'>(E)</div></div><div class='respDivR'><div class='vertical-center'>(I)</div></div></div>","I","$24","$70","0","24","70","RISKY"
"html-keyboard-response","123","132777","0.0-5.0-3.39","5fd8025bcfda8b1165a0b16e","bdp_rd","Mon Mar 27 2023 12:16:03 GMT-0500 (アメリカ中部夏時間)","187560","","null","","","","offerFB","","<div class='trialBorder'><div class='vertical-center'><img style='vertical-align:center; align:center' src=img/fixation3.jpg></div><div class='cl'><div class='vertical-center'>$24<br>for<br>sure</div></div><div class='cr'><div class='vertical-center'><font style='color:orange'>$70<br>with a<br>50% chance</font></div></div><div class='respDivL'><div class='vertical-center'>(E)</div></div><div class='respDivR'><div class='vertical-center'><font style='color:orange'>(I)</font></div></div></div>","null","$24","$70","0","24","70",""
"html-keyboard-response","124","133279","0.0-5.0-1.40","5fd8025bcfda8b1165a0b16e","bdp_rd","Mon Mar 27 2023 12:16:03 GMT-0500 (アメリカ中部夏時間)","187560","","null","","","","FIX","","<div class='trialBorder'><div class='vertical-center'><img style='vertical-align:center; align:center' src=img/fixation3.jpg></div></div>","null","","","","","",""
"html-keyboard-response","125","134677","0.0-5.0-2.40","5fd8025bcfda8b1165a0b16e","bdp_rd","Mon Mar 27 2023 12:16:03 GMT-0500 (アメリカ中部夏時間)","187560","","1397","","","","offer","","<div class='trialBorder'><div class='vertical-center'><img style='vertical-align:center; align:center' src=img/fixation3.jpg></div><div class='cl'><div class='vertical-center'>$16<br>for<br>sure</div></div><div class='cr'><div class='vertical-center'>$38<br>with a<br>50% chance</div></div><div class='respDivL'><div class='vertical-center'>(E)</div></div><div class='respDivR'><div class='vertical-center'>(I)</div></div></div>","I","$16","$38","0","16","38","RISKY"
"html-keyboard-response","126","134928","0.0-5.0-3.40","5fd8025bcfda8b1165a0b16e","bdp_rd","Mon Mar 27 2023 12:16:03 GMT-0500 (アメリカ中部夏時間)","187560","","null","","","","offerFB","","<div class='trialBorder'><div class='vertical-center'><img style='vertical-align:center; align:center' src=img/fixation3.jpg></div><div class='cl'><div class='vertical-center'>$16<br>for<br>sure</div></div><div class='cr'><div class='vertical-center'><font style='color:orange'>$38<br>with a<br>50% chance</font></div></div><div class='respDivL'><div class='vertical-center'>(E)</div></div><div class='respDivR'><div class='vertical-center'><font style='color:orange'>(I)</font></div></div></div>","null","$16","$38","0","16","38",""
"html-keyboard-response","127","135429","0.0-5.0-1.41","5fd8025bcfda8b1165a0b16e","bdp_rd","Mon Mar 27 2023 12:16:03 GMT-0500 (アメリカ中部夏時間)","187560","","null","","","","FIX","","<div class='trialBorder'><div class='vertical-center'><img style='vertical-align:center; align:center' src=img/fixation3.jpg></div></div>","null","","","","","",""
"html-keyboard-response","128","138245","0.0-5.0-2.41","5fd8025bcfda8b1165a0b16e","bdp_rd","Mon Mar 27 2023 12:16:03 GMT-0500 (アメリカ中部夏時間)","187560","","2816","","","","offer","","<div class='trialBorder'><div class='vertical-center'><img style='vertical-align:center; align:center' src=img/fixation3.jpg></div><div class='cl'><div class='vertical-center'>$46<br>for<br>sure</div></div><div class='cr'><div class='vertical-center'>$65<br>with a<br>50% chance</div></div><div class='respDivL'><div class='vertical-center'>(E)</div></div><div class='respDivR'><div class='vertical-center'>(I)</div></div></div>","E","$46","$65","0","46","65","SURE"
"html-keyboard-response","129","138497","0.0-5.0-3.41","5fd8025bcfda8b1165a0b16e","bdp_rd","Mon Mar 27 2023 12:16:03 GMT-0500 (アメリカ中部夏時間)","187560","","null","","","","offerFB","","<div class='trialBorder'><div class='vertical-center'><img style='vertical-align:center; align:center' src=img/fixation3.jpg></div><div class='cl'><div class='vertical-center'><font style='color:orange'>$46<br>for<br>sure</font></div></div><div class='cr'><div class='vertical-center'>$65<br>with a<br>50% chance</div></div><div class='respDivL'><div class='vertical-center'><font style='color:orange'>(E)</font></div></div><div class='respDivR'><div class='vertical-center'>(I)</div></div></div>","null","$46","$65","0","46","65",""
"html-keyboard-response","130","138998","0.0-5.0-1.42","5fd8025bcfda8b1165a0b16e","bdp_rd","Mon Mar 27 2023 12:16:03 GMT-0500 (アメリカ中部夏時間)","187560","","null","","","","FIX","","<div class='trialBorder'><div class='vertical-center'><img style='vertical-align:center; align:center' src=img/fixation3.jpg></div></div>","null","","","","","",""
"html-keyboard-response","131","141014","0.0-5.0-2.42","5fd8025bcfda8b1165a0b16e","bdp_rd","Mon Mar 27 2023 12:16:03 GMT-0500 (アメリカ中部夏時間)","187560","","2014","","","","offer","","<div class='trialBorder'><div class='vertical-center'><img style='vertical-align:center; align:center' src=img/fixation3.jpg></div><div class='cl'><div class='vertical-center'>$15<br>with a<br>50% chance</div></div><div class='cr'><div class='vertical-center'>$6<br>for<br>sure</div></div><div class='respDivL'><div class='vertical-center'>(E)</div></div><div class='respDivR'><div class='vertical-center'>(I)</div></div></div>","E","$6","$15","1","6","15","RISKY"
"html-keyboard-response","132","141264","0.0-5.0-3.42","5fd8025bcfda8b1165a0b16e","bdp_rd","Mon Mar 27 2023 12:16:03 GMT-0500 (アメリカ中部夏時間)","187560","","null","","","","offerFB","","<div class='trialBorder'><div class='vertical-center'><img style='vertical-align:center; align:center' src=img/fixation3.jpg></div><div class='cl'><div class='vertical-center'><font style='color:orange'>$15<br>with a<br>50% chance</font></div></div><div class='cr'><div class='vertical-center'>$6<br>for<br>sure</div></div><div class='respDivL'><div class='vertical-center'><font style='color:orange'>(E)</font></div></div><div class='respDivR'><div class='vertical-center'>(I)</div></div></div>","null","$6","$15","1","6","15",""
"html-keyboard-response","133","141766","0.0-5.0-1.43","5fd8025bcfda8b1165a0b16e","bdp_rd","Mon Mar 27 2023 12:16:03 GMT-0500 (アメリカ中部夏時間)","187560","","null","","","","FIX","","<div class='trialBorder'><div class='vertical-center'><img style='vertical-align:center; align:center' src=img/fixation3.jpg></div></div>","null","","","","","",""
"html-keyboard-response","134","143366","0.0-5.0-2.43","5fd8025bcfda8b1165a0b16e","bdp_rd","Mon Mar 27 2023 12:16:03 GMT-0500 (アメリカ中部夏時間)","187560","","1599","","","","offer","","<div class='trialBorder'><div class='vertical-center'><img style='vertical-align:center; align:center' src=img/fixation3.jpg></div><div class='cl'><div class='vertical-center'>$95<br>with a<br>50% chance</div></div><div class='cr'><div class='vertical-center'>$40<br>for<br>sure</div></div><div class='respDivL'><div class='vertical-center'>(E)</div></div><div class='respDivR'><div class='vertical-center'>(I)</div></div></div>","E","$40","$95","1","40","95","RISKY"
"html-keyboard-response","135","143617","0.0-5.0-3.43","5fd8025bcfda8b1165a0b16e","bdp_rd","Mon Mar 27 2023 12:16:03 GMT-0500 (アメリカ中部夏時間)","187560","","null","","","","offerFB","","<div class='trialBorder'><div class='vertical-center'><img style='vertical-align:center; align:center' src=img/fixation3.jpg></div><div class='cl'><div class='vertical-center'><font style='color:orange'>$95<br>with a<br>50% chance</font></div></div><div class='cr'><div class='vertical-center'>$40<br>for<br>sure</div></div><div class='respDivL'><div class='vertical-center'><font style='color:orange'>(E)</font></div></div><div class='respDivR'><div class='vertical-center'>(I)</div></div></div>","null","$40","$95","1","40","95",""
"html-keyboard-response","136","144118","0.0-5.0-1.44","5fd8025bcfda8b1165a0b16e","bdp_rd","Mon Mar 27 2023 12:16:03 GMT-0500 (アメリカ中部夏時間)","187560","","null","","","","FIX","","<div class='trialBorder'><div class='vertical-center'><img style='vertical-align:center; align:center' src=img/fixation3.jpg></div></div>","null","","","","","",""
"html-keyboard-response","137","146223","0.0-5.0-2.44","5fd8025bcfda8b1165a0b16e","bdp_rd","Mon Mar 27 2023 12:16:03 GMT-0500 (アメリカ中部夏時間)","187560","","2103","","","","offer","","<div class='trialBorder'><div class='vertical-center'><img style='vertical-align:center; align:center' src=img/fixation3.jpg></div><div class='cl'><div class='vertical-center'>$54<br>with a<br>50% chance</div></div><div class='cr'><div class='vertical-center'>$25<br>for<br>sure</div></div><div class='respDivL'><div class='vertical-center'>(E)</div></div><div class='respDivR'><div class='vertical-center'>(I)</div></div></div>","E","$25","$54","1","25","54","RISKY"
"html-keyboard-response","138","146474","0.0-5.0-3.44","5fd8025bcfda8b1165a0b16e","bdp_rd","Mon Mar 27 2023 12:16:03 GMT-0500 (アメリカ中部夏時間)","187560","","null","","","","offerFB","","<div class='trialBorder'><div class='vertical-center'><img style='vertical-align:center; align:center' src=img/fixation3.jpg></div><div class='cl'><div class='vertical-center'><font style='color:orange'>$54<br>with a<br>50% chance</font></div></div><div class='cr'><div class='vertical-center'>$25<br>for<br>sure</div></div><div class='respDivL'><div class='vertical-center'><font style='color:orange'>(E)</font></div></div><div class='respDivR'><div class='vertical-center'>(I)</div></div></div>","null","$25","$54","1","25","54",""
"html-keyboard-response","139","146976","0.0-5.0-1.45","5fd8025bcfda8b1165a0b16e","bdp_rd","Mon Mar 27 2023 12:16:03 GMT-0500 (アメリカ中部夏時間)","187560","","null","","","","FIX","","<div class='trialBorder'><div class='vertical-center'><img style='vertical-align:center; align:center' src=img/fixation3.jpg></div></div>","null","","","","","",""
"html-keyboard-response","140","149319","0.0-5.0-2.45","5fd8025bcfda8b1165a0b16e","bdp_rd","Mon Mar 27 2023 12:16:03 GMT-0500 (アメリカ中部夏時間)","187560","","2342","","","","offer","","<div class='trialBorder'><div class='vertical-center'><img style='vertical-align:center; align:center' src=img/fixation3.jpg></div><div class='cl'><div class='vertical-center'>$51<br>with a<br>50% chance</div></div><div class='cr'><div class='vertical-center'>$19<br>for<br>sure</div></div><div class='respDivL'><div class='vertical-center'>(E)</div></div><div class='respDivR'><div class='vertical-center'>(I)</div></div></div>","E","$19","$51","1","19","51","RISKY"
"html-keyboard-response","141","149570","0.0-5.0-3.45","5fd8025bcfda8b1165a0b16e","bdp_rd","Mon Mar 27 2023 12:16:03 GMT-0500 (アメリカ中部夏時間)","187560","","null","","","","offerFB","","<div class='trialBorder'><div class='vertical-center'><img style='vertical-align:center; align:center' src=img/fixation3.jpg></div><div class='cl'><div class='vertical-center'><font style='color:orange'>$51<br>with a<br>50% chance</font></div></div><div class='cr'><div class='vertical-center'>$19<br>for<br>sure</div></div><div class='respDivL'><div class='vertical-center'><font style='color:orange'>(E)</font></div></div><div class='respDivR'><div class='vertical-center'>(I)</div></div></div>","null","$19","$51","1","19","51",""
"html-keyboard-response","142","150071","0.0-5.0-1.46","5fd8025bcfda8b1165a0b16e","bdp_rd","Mon Mar 27 2023 12:16:03 GMT-0500 (アメリカ中部夏時間)","187560","","null","","","","FIX","","<div class='trialBorder'><div class='vertical-center'><img style='vertical-align:center; align:center' src=img/fixation3.jpg></div></div>","null","","","","","",""
"html-keyboard-response","143","152047","0.0-5.0-2.46","5fd8025bcfda8b1165a0b16e","bdp_rd","Mon Mar 27 2023 12:16:03 GMT-0500 (アメリカ中部夏時間)","187560","","1975","","","","offer","","<div class='trialBorder'><div class='vertical-center'><img style='vertical-align:center; align:center' src=img/fixation3.jpg></div><div class='cl'><div class='vertical-center'>$98<br>with a<br>50% chance</div></div><div class='cr'><div class='vertical-center'>$53<br>for<br>sure</div></div><div class='respDivL'><div class='vertical-center'>(E)</div></div><div class='respDivR'><div class='vertical-center'>(I)</div></div></div>","I","$53","$98","1","53","98","SURE"
"html-keyboard-response","144","152298","0.0-5.0-3.46","5fd8025bcfda8b1165a0b16e","bdp_rd","Mon Mar 27 2023 12:16:03 GMT-0500 (アメリカ中部夏時間)","187560","","null","","","","offerFB","","<div class='trialBorder'><div class='vertical-center'><img style='vertical-align:center; align:center' src=img/fixation3.jpg></div><div class='cl'><div class='vertical-center'>$98<br>with a<br>50% chance</div></div><div class='cr'><div class='vertical-center'><font style='color:orange'>$53<br>for<br>sure</font></div></div><div class='respDivL'><div class='vertical-center'>(E)</div></div><div class='respDivR'><div class='vertical-center'><font style='color:orange'>(I)</font></div></div></div>","null","$53","$98","1","53","98",""
"html-keyboard-response","145","152799","0.0-5.0-1.47","5fd8025bcfda8b1165a0b16e","bdp_rd","Mon Mar 27 2023 12:16:03 GMT-0500 (アメリカ中部夏時間)","187560","","null","","","","FIX","","<div class='trialBorder'><div class='vertical-center'><img style='vertical-align:center; align:center' src=img/fixation3.jpg></div></div>","null","","","","","",""
"html-keyboard-response","146","155455","0.0-5.0-2.47","5fd8025bcfda8b1165a0b16e","bdp_rd","Mon Mar 27 2023 12:16:03 GMT-0500 (アメリカ中部夏時間)","187560","","2655","","","","offer","","<div class='trialBorder'><div class='vertical-center'><img style='vertical-align:center; align:center' src=img/fixation3.jpg></div><div class='cl'><div class='vertical-center'>$11<br>with a<br>50% chance</div></div><div class='cr'><div class='vertical-center'>$4<br>for<br>sure</div></div><div class='respDivL'><div class='vertical-center'>(E)</div></div><div class='respDivR'><div class='vertical-center'>(I)</div></div></div>","E","$4","$11","1","4","11","RISKY"
"html-keyboard-response","147","155707","0.0-5.0-3.47","5fd8025bcfda8b1165a0b16e","bdp_rd","Mon Mar 27 2023 12:16:03 GMT-0500 (アメリカ中部夏時間)","187560","","null","","","","offerFB","","<div class='trialBorder'><div class='vertical-center'><img style='vertical-align:center; align:center' src=img/fixation3.jpg></div><div class='cl'><div class='vertical-center'><font style='color:orange'>$11<br>with a<br>50% chance</font></div></div><div class='cr'><div class='vertical-center'>$4<br>for<br>sure</div></div><div class='respDivL'><div class='vertical-center'><font style='color:orange'>(E)</font></div></div><div class='respDivR'><div class='vertical-center'>(I)</div></div></div>","null","$4","$11","1","4","11",""
"html-keyboard-response","148","156208","0.0-5.0-1.48","5fd8025bcfda8b1165a0b16e","bdp_rd","Mon Mar 27 2023 12:16:03 GMT-0500 (アメリカ中部夏時間)","187560","","null","","","","FIX","","<div class='trialBorder'><div class='vertical-center'><img style='vertical-align:center; align:center' src=img/fixation3.jpg></div></div>","null","","","","","",""
"html-keyboard-response","149","158568","0.0-5.0-2.48","5fd8025bcfda8b1165a0b16e","bdp_rd","Mon Mar 27 2023 12:16:03 GMT-0500 (アメリカ中部夏時間)","187560","","2360","","","","offer","","<div class='trialBorder'><div class='vertical-center'><img style='vertical-align:center; align:center' src=img/fixation3.jpg></div><div class='cl'><div class='vertical-center'>$22<br>with a<br>50% chance</div></div><div class='cr'><div class='vertical-center'>$14<br>for<br>sure</div></div><div class='respDivL'><div class='vertical-center'>(E)</div></div><div class='respDivR'><div class='vertical-center'>(I)</div></div></div>","E","$14","$22","1","14","22","RISKY"
"html-keyboard-response","150","158820","0.0-5.0-3.48","5fd8025bcfda8b1165a0b16e","bdp_rd","Mon Mar 27 2023 12:16:03 GMT-0500 (アメリカ中部夏時間)","187560","","null","","","","offerFB","","<div class='trialBorder'><div class='vertical-center'><img style='vertical-align:center; align:center' src=img/fixation3.jpg></div><div class='cl'><div class='vertical-center'><font style='color:orange'>$22<br>with a<br>50% chance</font></div></div><div class='cr'><div class='vertical-center'>$14<br>for<br>sure</div></div><div class='respDivL'><div class='vertical-center'><font style='color:orange'>(E)</font></div></div><div class='respDivR'><div class='vertical-center'>(I)</div></div></div>","null","$14","$22","1","14","22",""
"html-keyboard-response","151","159322","0.0-5.0-1.49","5fd8025bcfda8b1165a0b16e","bdp_rd","Mon Mar 27 2023 12:16:03 GMT-0500 (アメリカ中部夏時間)","187560","","null","","","","FIX","","<div class='trialBorder'><div class='vertical-center'><img style='vertical-align:center; align:center' src=img/fixation3.jpg></div></div>","null","","","","","",""
"html-keyboard-response","152","162656","0.0-5.0-2.49","5fd8025bcfda8b1165a0b16e","bdp_rd","Mon Mar 27 2023 12:16:03 GMT-0500 (アメリカ中部夏時間)","187560","","3334","","","","offer","","<div class='trialBorder'><div class='vertical-center'><img style='vertical-align:center; align:center' src=img/fixation3.jpg></div><div class='cl'><div class='vertical-center'>$39<br>for<br>sure</div></div><div class='cr'><div class='vertical-center'>$81<br>with a<br>50% chance</div></div><div class='respDivL'><div class='vertical-center'>(E)</div></div><div class='respDivR'><div class='vertical-center'>(I)</div></div></div>","I","$39","$81","0","39","81","RISKY"
"html-keyboard-response","153","162907","0.0-5.0-3.49","5fd8025bcfda8b1165a0b16e","bdp_rd","Mon Mar 27 2023 12:16:03 GMT-0500 (アメリカ中部夏時間)","187560","","null","","","","offerFB","","<div class='trialBorder'><div class='vertical-center'><img style='vertical-align:center; align:center' src=img/fixation3.jpg></div><div class='cl'><div class='vertical-center'>$39<br>for<br>sure</div></div><div class='cr'><div class='vertical-center'><font style='color:orange'>$81<br>with a<br>50% chance</font></div></div><div class='respDivL'><div class='vertical-center'>(E)</div></div><div class='respDivR'><div class='vertical-center'><font style='color:orange'>(I)</font></div></div></div>","null","$39","$81","0","39","81",""
"html-keyboard-response","154","163409","0.0-5.0-1.50","5fd8025bcfda8b1165a0b16e","bdp_rd","Mon Mar 27 2023 12:16:03 GMT-0500 (アメリカ中部夏時間)","187560","","null","","","","FIX","","<div class='trialBorder'><div class='vertical-center'><img style='vertical-align:center; align:center' src=img/fixation3.jpg></div></div>","null","","","","","",""
"html-keyboard-response","155","164544","0.0-5.0-2.50","5fd8025bcfda8b1165a0b16e","bdp_rd","Mon Mar 27 2023 12:16:03 GMT-0500 (アメリカ中部夏時間)","187560","","1134","","","","offer","","<div class='trialBorder'><div class='vertical-center'><img style='vertical-align:center; align:center' src=img/fixation3.jpg></div><div class='cl'><div class='vertical-center'>$3<br>for<br>sure</div></div><div class='cr'><div class='vertical-center'>$12<br>with a<br>50% chance</div></div><div class='respDivL'><div class='vertical-center'>(E)</div></div><div class='respDivR'><div class='vertical-center'>(I)</div></div></div>","I","$3","$12","0","3","12","RISKY"
"html-keyboard-response","156","164796","0.0-5.0-3.50","5fd8025bcfda8b1165a0b16e","bdp_rd","Mon Mar 27 2023 12:16:03 GMT-0500 (アメリカ中部夏時間)","187560","","null","","","","offerFB","","<div class='trialBorder'><div class='vertical-center'><img style='vertical-align:center; align:center' src=img/fixation3.jpg></div><div class='cl'><div class='vertical-center'>$3<br>for<br>sure</div></div><div class='cr'><div class='vertical-center'><font style='color:orange'>$12<br>with a<br>50% chance</font></div></div><div class='respDivL'><div class='vertical-center'>(E)</div></div><div class='respDivR'><div class='vertical-center'><font style='color:orange'>(I)</font></div></div></div>","null","$3","$12","0","3","12",""
"html-keyboard-response","157","165298","0.0-5.0-1.51","5fd8025bcfda8b1165a0b16e","bdp_rd","Mon Mar 27 2023 12:16:03 GMT-0500 (アメリカ中部夏時間)","187560","","null","","","","FIX","","<div class='trialBorder'><div class='vertical-center'><img style='vertical-align:center; align:center' src=img/fixation3.jpg></div></div>","null","","","","","",""
"html-keyboard-response","158","166296","0.0-5.0-2.51","5fd8025bcfda8b1165a0b16e","bdp_rd","Mon Mar 27 2023 12:16:03 GMT-0500 (アメリカ中部夏時間)","187560","","998","","","","offer","","<div class='trialBorder'><div class='vertical-center'><img style='vertical-align:center; align:center' src=img/fixation3.jpg></div><div class='cl'><div class='vertical-center'>$12<br>for<br>sure</div></div><div class='cr'><div class='vertical-center'>$35<br>with a<br>50% chance</div></div><div class='respDivL'><div class='vertical-center'>(E)</div></div><div class='respDivR'><div class='vertical-center'>(I)</div></div></div>","I","$12","$35","0","12","35","RISKY"
"html-keyboard-response","159","166547","0.0-5.0-3.51","5fd8025bcfda8b1165a0b16e","bdp_rd","Mon Mar 27 2023 12:16:03 GMT-0500 (アメリカ中部夏時間)","187560","","null","","","","offerFB","","<div class='trialBorder'><div class='vertical-center'><img style='vertical-align:center; align:center' src=img/fixation3.jpg></div><div class='cl'><div class='vertical-center'>$12<br>for<br>sure</div></div><div class='cr'><div class='vertical-center'><font style='color:orange'>$35<br>with a<br>50% chance</font></div></div><div class='respDivL'><div class='vertical-center'>(E)</div></div><div class='respDivR'><div class='vertical-center'><font style='color:orange'>(I)</font></div></div></div>","null","$12","$35","0","12","35",""
"html-keyboard-response","160","167048","0.0-5.0-1.52","5fd8025bcfda8b1165a0b16e","bdp_rd","Mon Mar 27 2023 12:16:03 GMT-0500 (アメリカ中部夏時間)","187560","","null","","","","FIX","","<div class='trialBorder'><div class='vertical-center'><img style='vertical-align:center; align:center' src=img/fixation3.jpg></div></div>","null","","","","","",""
"html-keyboard-response","161","169489","0.0-5.0-2.52","5fd8025bcfda8b1165a0b16e","bdp_rd","Mon Mar 27 2023 12:16:03 GMT-0500 (アメリカ中部夏時間)","187560","","2441","","","","offer","","<div class='trialBorder'><div class='vertical-center'><img style='vertical-align:center; align:center' src=img/fixation3.jpg></div><div class='cl'><div class='vertical-center'>$3<br>for<br>sure</div></div><div class='cr'><div class='vertical-center'>$17<br>with a<br>50% chance</div></div><div class='respDivL'><div class='vertical-center'>(E)</div></div><div class='respDivR'><div class='vertical-center'>(I)</div></div></div>","I","$3","$17","0","3","17","RISKY"
"html-keyboard-response","162","169742","0.0-5.0-3.52","5fd8025bcfda8b1165a0b16e","bdp_rd","Mon Mar 27 2023 12:16:03 GMT-0500 (アメリカ中部夏時間)","187560","","null","","","","offerFB","","<div class='trialBorder'><div class='vertical-center'><img style='vertical-align:center; align:center' src=img/fixation3.jpg></div><div class='cl'><div class='vertical-center'>$3<br>for<br>sure</div></div><div class='cr'><div class='vertical-center'><font style='color:orange'>$17<br>with a<br>50% chance</font></div></div><div class='respDivL'><div class='vertical-center'>(E)</div></div><div class='respDivR'><div class='vertical-center'><font style='color:orange'>(I)</font></div></div></div>","null","$3","$17","0","3","17",""
"html-keyboard-response","163","170243","0.0-5.0-1.53","5fd8025bcfda8b1165a0b16e","bdp_rd","Mon Mar 27 2023 12:16:03 GMT-0500 (アメリカ中部夏時間)","187560","","null","","","","FIX","","<div class='trialBorder'><div class='vertical-center'><img style='vertical-align:center; align:center' src=img/fixation3.jpg></div></div>","null","","","","","",""
"html-keyboard-response","164","171857","0.0-5.0-2.53","5fd8025bcfda8b1165a0b16e","bdp_rd","Mon Mar 27 2023 12:16:03 GMT-0500 (アメリカ中部夏時間)","187560","","1613","","","","offer","","<div class='trialBorder'><div class='vertical-center'><img style='vertical-align:center; align:center' src=img/fixation3.jpg></div><div class='cl'><div class='vertical-center'>$16<br>for<br>sure</div></div><div class='cr'><div class='vertical-center'>$28<br>with a<br>50% chance</div></div><div class='respDivL'><div class='vertical-center'>(E)</div></div><div class='respDivR'><div class='vertical-center'>(I)</div></div></div>","I","$16","$28","0","16","28","RISKY"
"html-keyboard-response","165","172108","0.0-5.0-3.53","5fd8025bcfda8b1165a0b16e","bdp_rd","Mon Mar 27 2023 12:16:03 GMT-0500 (アメリカ中部夏時間)","187560","","null","","","","offerFB","","<div class='trialBorder'><div class='vertical-center'><img style='vertical-align:center; align:center' src=img/fixation3.jpg></div><div class='cl'><div class='vertical-center'>$16<br>for<br>sure</div></div><div class='cr'><div class='vertical-center'><font style='color:orange'>$28<br>with a<br>50% chance</font></div></div><div class='respDivL'><div class='vertical-center'>(E)</div></div><div class='respDivR'><div class='vertical-center'><font style='color:orange'>(I)</font></div></div></div>","null","$16","$28","0","16","28",""
"html-keyboard-response","166","172609","0.0-5.0-1.54","5fd8025bcfda8b1165a0b16e","bdp_rd","Mon Mar 27 2023 12:16:03 GMT-0500 (アメリカ中部夏時間)","187560","","null","","","","FIX","","<div class='trialBorder'><div class='vertical-center'><img style='vertical-align:center; align:center' src=img/fixation3.jpg></div></div>","null","","","","","",""
"html-keyboard-response","167","175321","0.0-5.0-2.54","5fd8025bcfda8b1165a0b16e","bdp_rd","Mon Mar 27 2023 12:16:03 GMT-0500 (アメリカ中部夏時間)","187560","","2712","","","","offer","","<div class='trialBorder'><div class='vertical-center'><img style='vertical-align:center; align:center' src=img/fixation3.jpg></div><div class='cl'><div class='vertical-center'>$50<br>with a<br>50% chance</div></div><div class='cr'><div class='vertical-center'>$5<br>for<br>sure</div></div><div class='respDivL'><div class='vertical-center'>(E)</div></div><div class='respDivR'><div class='vertical-center'>(I)</div></div></div>","E","$5","$50","1","5","50","RISKY"
"html-keyboard-response","168","175573","0.0-5.0-3.54","5fd8025bcfda8b1165a0b16e","bdp_rd","Mon Mar 27 2023 12:16:03 GMT-0500 (アメリカ中部夏時間)","187560","","null","","","","offerFB","","<div class='trialBorder'><div class='vertical-center'><img style='vertical-align:center; align:center' src=img/fixation3.jpg></div><div class='cl'><div class='vertical-center'><font style='color:orange'>$50<br>with a<br>50% chance</font></div></div><div class='cr'><div class='vertical-center'>$5<br>for<br>sure</div></div><div class='respDivL'><div class='vertical-center'><font style='color:orange'>(E)</font></div></div><div class='respDivR'><div class='vertical-center'>(I)</div></div></div>","null","$5","$50","1","5","50",""
"html-keyboard-response","169","176074","0.0-5.0-1.55","5fd8025bcfda8b1165a0b16e","bdp_rd","Mon Mar 27 2023 12:16:03 GMT-0500 (アメリカ中部夏時間)","187560","","null","","","","FIX","","<div class='trialBorder'><div class='vertical-center'><img style='vertical-align:center; align:center' src=img/fixation3.jpg></div></div>","null","","","","","",""
"html-keyboard-response","170","177065","0.0-5.0-2.55","5fd8025bcfda8b1165a0b16e","bdp_rd","Mon Mar 27 2023 12:16:03 GMT-0500 (アメリカ中部夏時間)","187560","","991","","","","offer","","<div class='trialBorder'><div class='vertical-center'><img style='vertical-align:center; align:center' src=img/fixation3.jpg></div><div class='cl'><div class='vertical-center'>$13<br>for<br>sure</div></div><div class='cr'><div class='vertical-center'>$24<br>with a<br>50% chance</div></div><div class='respDivL'><div class='vertical-center'>(E)</div></div><div class='respDivR'><div class='vertical-center'>(I)</div></div></div>","I","$13","$24","0","13","24","RISKY"
"html-keyboard-response","171","177317","0.0-5.0-3.55","5fd8025bcfda8b1165a0b16e","bdp_rd","Mon Mar 27 2023 12:16:03 GMT-0500 (アメリカ中部夏時間)","187560","","null","","","","offerFB","","<div class='trialBorder'><div class='vertical-center'><img style='vertical-align:center; align:center' src=img/fixation3.jpg></div><div class='cl'><div class='vertical-center'>$13<br>for<br>sure</div></div><div class='cr'><div class='vertical-center'><font style='color:orange'>$24<br>with a<br>50% chance</font></div></div><div class='respDivL'><div class='vertical-center'>(E)</div></div><div class='respDivR'><div class='vertical-center'><font style='color:orange'>(I)</font></div></div></div>","null","$13","$24","0","13","24",""
"html-keyboard-response","172","177818","0.0-5.0-1.56","5fd8025bcfda8b1165a0b16e","bdp_rd","Mon Mar 27 2023 12:16:03 GMT-0500 (アメリカ中部夏時間)","187560","","null","","","","FIX","","<div class='trialBorder'><div class='vertical-center'><img style='vertical-align:center; align:center' src=img/fixation3.jpg></div></div>","null","","","","","",""
"html-keyboard-response","173","179514","0.0-5.0-2.56","5fd8025bcfda8b1165a0b16e","bdp_rd","Mon Mar 27 2023 12:16:03 GMT-0500 (アメリカ中部夏時間)","187560","","1695","","","","offer","","<div class='trialBorder'><div class='vertical-center'><img style='vertical-align:center; align:center' src=img/fixation3.jpg></div><div class='cl'><div class='vertical-center'>$78<br>with a<br>50% chance</div></div><div class='cr'><div class='vertical-center'>$31<br>for<br>sure</div></div><div class='respDivL'><div class='vertical-center'>(E)</div></div><div class='respDivR'><div class='vertical-center'>(I)</div></div></div>","E","$31","$78","1","31","78","RISKY"
"html-keyboard-response","174","179766","0.0-5.0-3.56","5fd8025bcfda8b1165a0b16e","bdp_rd","Mon Mar 27 2023 12:16:03 GMT-0500 (アメリカ中部夏時間)","187560","","null","","","","offerFB","","<div class='trialBorder'><div class='vertical-center'><img style='vertical-align:center; align:center' src=img/fixation3.jpg></div><div class='cl'><div class='vertical-center'><font style='color:orange'>$78<br>with a<br>50% chance</font></div></div><div class='cr'><div class='vertical-center'>$31<br>for<br>sure</div></div><div class='respDivL'><div class='vertical-center'><font style='color:orange'>(E)</font></div></div><div class='respDivR'><div class='vertical-center'>(I)</div></div></div>","null","$31","$78","1","31","78",""
"html-keyboard-response","175","180267","0.0-5.0-1.57","5fd8025bcfda8b1165a0b16e","bdp_rd","Mon Mar 27 2023 12:16:03 GMT-0500 (アメリカ中部夏時間)","187560","","null","","","","FIX","","<div class='trialBorder'><div class='vertical-center'><img style='vertical-align:center; align:center' src=img/fixation3.jpg></div></div>","null","","","","","",""
"html-keyboard-response","176","182298","0.0-5.0-2.57","5fd8025bcfda8b1165a0b16e","bdp_rd","Mon Mar 27 2023 12:16:03 GMT-0500 (アメリカ中部夏時間)","187560","","2031","","","","offer","","<div class='trialBorder'><div class='vertical-center'><img style='vertical-align:center; align:center' src=img/fixation3.jpg></div><div class='cl'><div class='vertical-center'>$32<br>with a<br>50% chance</div></div><div class='cr'><div class='vertical-center'>$9<br>for<br>sure</div></div><div class='respDivL'><div class='vertical-center'>(E)</div></div><div class='respDivR'><div class='vertical-center'>(I)</div></div></div>","E","$9","$32","1","9","32","RISKY"
"html-keyboard-response","177","182550","0.0-5.0-3.57","5fd8025bcfda8b1165a0b16e","bdp_rd","Mon Mar 27 2023 12:16:03 GMT-0500 (アメリカ中部夏時間)","187560","","null","","","","offerFB","","<div class='trialBorder'><div class='vertical-center'><img style='vertical-align:center; align:center' src=img/fixation3.jpg></div><div class='cl'><div class='vertical-center'><font style='color:orange'>$32<br>with a<br>50% chance</font></div></div><div class='cr'><div class='vertical-center'>$9<br>for<br>sure</div></div><div class='respDivL'><div class='vertical-center'><font style='color:orange'>(E)</font></div></div><div class='respDivR'><div class='vertical-center'>(I)</div></div></div>","null","$9","$32","1","9","32",""
