"trial_type","trial_index","time_elapsed","internal_node_id","subject_id","task","startTime","totalTime","view_history","rt","event","trial","time","trialtype","success","stimulus","key_press","sureOffer","riskyOffer","riskyLeft","sureAmt","riskyAmt","chosen"
"pavlovia","0","4","0.0-0.0","628419137c4c3ded72e4874d","bdp_rd","Mon Mar 27 2023 15:36:11 GMT-0700 (Pacific Daylight Time)","249489","","","","","","","","","","","","","","",""
"instructions","1","1785","0.0-1.0","628419137c4c3ded72e4874d","bdp_rd","Mon Mar 27 2023 15:36:11 GMT-0700 (Pacific Daylight Time)","249489","[{""page_index"":0,""viewing_time"":1780}]","1780","","","","","","","","","","","","",""
"","","","","628419137c4c3ded72e4874d","bdp_rd","Mon Mar 27 2023 15:36:11 GMT-0700 (Pacific Daylight Time)","249489","","","fullscreenenter","2","4030","fullscreenenter","","","","","","","","",""
"fullscreen","2","5015","0.0-2.0","628419137c4c3ded72e4874d","bdp_rd","Mon Mar 27 2023 15:36:11 GMT-0700 (Pacific Daylight Time)","249489","","","","","","","true","","","","","","","",""
"instructions","3","20140","0.0-4.0","628419137c4c3ded72e4874d","bdp_rd","Mon Mar 27 2023 15:36:11 GMT-0700 (Pacific Daylight Time)","249489","[{""page_index"":0,""viewing_time"":11000},{""page_index"":1,""viewing_time"":1492},{""page_index"":2,""viewing_time"":2632}]","15124","","","","","","","","","","","","",""
"html-keyboard-response","4","20643","0.0-5.0-1.0","628419137c4c3ded72e4874d","bdp_rd","Mon Mar 27 2023 15:36:11 GMT-0700 (Pacific Daylight Time)","249489","","null","","","","FIX","","<div class='trialBorder'><div class='vertical-center'><img style='vertical-align:center; align:center' src=img/fixation3.jpg></div></div>","null","","","","","",""
"html-keyboard-response","5","24338","0.0-5.0-2.0","628419137c4c3ded72e4874d","bdp_rd","Mon Mar 27 2023 15:36:11 GMT-0700 (Pacific Daylight Time)","249489","","3694","","","","offer","","<div class='trialBorder'><div class='vertical-center'><img style='vertical-align:center; align:center' src=img/fixation3.jpg></div><div class='cl'><div class='vertical-center'>$26<br>with a<br>50% chance</div></div><div class='cr'><div class='vertical-center'>$11<br>for<br>sure</div></div><div class='respDivL'><div class='vertical-center'>(E)</div></div><div class='respDivR'><div class='vertical-center'>(I)</div></div></div>","I","$11","$26","1","11","26","SURE"
"html-keyboard-response","6","24591","0.0-5.0-3.0","628419137c4c3ded72e4874d","bdp_rd","Mon Mar 27 2023 15:36:11 GMT-0700 (Pacific Daylight Time)","249489","","null","","","","offerFB","","<div class='trialBorder'><div class='vertical-center'><img style='vertical-align:center; align:center' src=img/fixation3.jpg></div><div class='cl'><div class='vertical-center'>$26<br>with a<br>50% chance</div></div><div class='cr'><div class='vertical-center'><font style='color:orange'>$11<br>for<br>sure</font></div></div><div class='respDivL'><div class='vertical-center'>(E)</div></div><div class='respDivR'><div class='vertical-center'><font style='color:orange'>(I)</font></div></div></div>","null","$11","$26","1","11","26",""
"html-keyboard-response","7","25094","0.0-5.0-1.1","628419137c4c3ded72e4874d","bdp_rd","Mon Mar 27 2023 15:36:11 GMT-0700 (Pacific Daylight Time)","249489","","null","","","","FIX","","<div class='trialBorder'><div class='vertical-center'><img style='vertical-align:center; align:center' src=img/fixation3.jpg></div></div>","null","","","","","",""
"html-keyboard-response","8","27731","0.0-5.0-2.1","628419137c4c3ded72e4874d","bdp_rd","Mon Mar 27 2023 15:36:11 GMT-0700 (Pacific Daylight Time)","249489","","2636","","","","offer","","<div class='trialBorder'><div class='vertical-center'><img style='vertical-align:center; align:center' src=img/fixation3.jpg></div><div class='cl'><div class='vertical-center'>$7<br>for<br>sure</div></div><div class='cr'><div class='vertical-center'>$71<br>with a<br>50% chance</div></div><div class='respDivL'><div class='vertical-center'>(E)</div></div><div class='respDivR'><div class='vertical-center'>(I)</div></div></div>","I","$7","$71","0","7","71","RISKY"
"html-keyboard-response","9","27982","0.0-5.0-3.1","628419137c4c3ded72e4874d","bdp_rd","Mon Mar 27 2023 15:36:11 GMT-0700 (Pacific Daylight Time)","249489","","null","","","","offerFB","","<div class='trialBorder'><div class='vertical-center'><img style='vertical-align:center; align:center' src=img/fixation3.jpg></div><div class='cl'><div class='vertical-center'>$7<br>for<br>sure</div></div><div class='cr'><div class='vertical-center'><font style='color:orange'>$71<br>with a<br>50% chance</font></div></div><div class='respDivL'><div class='vertical-center'>(E)</div></div><div class='respDivR'><div class='vertical-center'><font style='color:orange'>(I)</font></div></div></div>","null","$7","$71","0","7","71",""
"html-keyboard-response","10","28484","0.0-5.0-1.2","628419137c4c3ded72e4874d","bdp_rd","Mon Mar 27 2023 15:36:11 GMT-0700 (Pacific Daylight Time)","249489","","null","","","","FIX","","<div class='trialBorder'><div class='vertical-center'><img style='vertical-align:center; align:center' src=img/fixation3.jpg></div></div>","null","","","","","",""
"html-keyboard-response","11","30803","0.0-5.0-2.2","628419137c4c3ded72e4874d","bdp_rd","Mon Mar 27 2023 15:36:11 GMT-0700 (Pacific Daylight Time)","249489","","2318","","","","offer","","<div class='trialBorder'><div class='vertical-center'><img style='vertical-align:center; align:center' src=img/fixation3.jpg></div><div class='cl'><div class='vertical-center'>$34<br>for<br>sure</div></div><div class='cr'><div class='vertical-center'>$48<br>with a<br>50% chance</div></div><div class='respDivL'><div class='vertical-center'>(E)</div></div><div class='respDivR'><div class='vertical-center'>(I)</div></div></div>","E","$34","$48","0","34","48","SURE"
"html-keyboard-response","12","31056","0.0-5.0-3.2","628419137c4c3ded72e4874d","bdp_rd","Mon Mar 27 2023 15:36:11 GMT-0700 (Pacific Daylight Time)","249489","","null","","","","offerFB","","<div class='trialBorder'><div class='vertical-center'><img style='vertical-align:center; align:center' src=img/fixation3.jpg></div><div class='cl'><div class='vertical-center'><font style='color:orange'>$34<br>for<br>sure</font></div></div><div class='cr'><div class='vertical-center'>$48<br>with a<br>50% chance</div></div><div class='respDivL'><div class='vertical-center'><font style='color:orange'>(E)</font></div></div><div class='respDivR'><div class='vertical-center'>(I)</div></div></div>","null","$34","$48","0","34","48",""
"html-keyboard-response","13","31558","0.0-5.0-1.3","628419137c4c3ded72e4874d","bdp_rd","Mon Mar 27 2023 15:36:11 GMT-0700 (Pacific Daylight Time)","249489","","null","","","","FIX","","<div class='trialBorder'><div class='vertical-center'><img style='vertical-align:center; align:center' src=img/fixation3.jpg></div></div>","null","","","","","",""
"html-keyboard-response","14","34141","0.0-5.0-2.3","628419137c4c3ded72e4874d","bdp_rd","Mon Mar 27 2023 15:36:11 GMT-0700 (Pacific Daylight Time)","249489","","2582","","","","offer","","<div class='trialBorder'><div class='vertical-center'><img style='vertical-align:center; align:center' src=img/fixation3.jpg></div><div class='cl'><div class='vertical-center'>$11<br>for<br>sure</div></div><div class='cr'><div class='vertical-center'>$62<br>with a<br>50% chance</div></div><div class='respDivL'><div class='vertical-center'>(E)</div></div><div class='respDivR'><div class='vertical-center'>(I)</div></div></div>","I","$11","$62","0","11","62","RISKY"
"html-keyboard-response","15","34393","0.0-5.0-3.3","628419137c4c3ded72e4874d","bdp_rd","Mon Mar 27 2023 15:36:11 GMT-0700 (Pacific Daylight Time)","249489","","null","","","","offerFB","","<div class='trialBorder'><div class='vertical-center'><img style='vertical-align:center; align:center' src=img/fixation3.jpg></div><div class='cl'><div class='vertical-center'>$11<br>for<br>sure</div></div><div class='cr'><div class='vertical-center'><font style='color:orange'>$62<br>with a<br>50% chance</font></div></div><div class='respDivL'><div class='vertical-center'>(E)</div></div><div class='respDivR'><div class='vertical-center'><font style='color:orange'>(I)</font></div></div></div>","null","$11","$62","0","11","62",""
"html-keyboard-response","16","34895","0.0-5.0-1.4","628419137c4c3ded72e4874d","bdp_rd","Mon Mar 27 2023 15:36:11 GMT-0700 (Pacific Daylight Time)","249489","","null","","","","FIX","","<div class='trialBorder'><div class='vertical-center'><img style='vertical-align:center; align:center' src=img/fixation3.jpg></div></div>","null","","","","","",""
"html-keyboard-response","17","37063","0.0-5.0-2.4","628419137c4c3ded72e4874d","bdp_rd","Mon Mar 27 2023 15:36:11 GMT-0700 (Pacific Daylight Time)","249489","","2167","","","","offer","","<div class='trialBorder'><div class='vertical-center'><img style='vertical-align:center; align:center' src=img/fixation3.jpg></div><div class='cl'><div class='vertical-center'>$80<br>with a<br>50% chance</div></div><div class='cr'><div class='vertical-center'>$20<br>for<br>sure</div></div><div class='respDivL'><div class='vertical-center'>(E)</div></div><div class='respDivR'><div class='vertical-center'>(I)</div></div></div>","E","$20","$80","1","20","80","RISKY"
"html-keyboard-response","18","37314","0.0-5.0-3.4","628419137c4c3ded72e4874d","bdp_rd","Mon Mar 27 2023 15:36:11 GMT-0700 (Pacific Daylight Time)","249489","","null","","","","offerFB","","<div class='trialBorder'><div class='vertical-center'><img style='vertical-align:center; align:center' src=img/fixation3.jpg></div><div class='cl'><div class='vertical-center'><font style='color:orange'>$80<br>with a<br>50% chance</font></div></div><div class='cr'><div class='vertical-center'>$20<br>for<br>sure</div></div><div class='respDivL'><div class='vertical-center'><font style='color:orange'>(E)</font></div></div><div class='respDivR'><div class='vertical-center'>(I)</div></div></div>","null","$20","$80","1","20","80",""
"html-keyboard-response","19","37816","0.0-5.0-1.5","628419137c4c3ded72e4874d","bdp_rd","Mon Mar 27 2023 15:36:11 GMT-0700 (Pacific Daylight Time)","249489","","null","","","","FIX","","<div class='trialBorder'><div class='vertical-center'><img style='vertical-align:center; align:center' src=img/fixation3.jpg></div></div>","null","","","","","",""
"html-keyboard-response","20","41232","0.0-5.0-2.5","628419137c4c3ded72e4874d","bdp_rd","Mon Mar 27 2023 15:36:11 GMT-0700 (Pacific Daylight Time)","249489","","3416","","","","offer","","<div class='trialBorder'><div class='vertical-center'><img style='vertical-align:center; align:center' src=img/fixation3.jpg></div><div class='cl'><div class='vertical-center'>$3<br>for<br>sure</div></div><div class='cr'><div class='vertical-center'>$17<br>with a<br>50% chance</div></div><div class='respDivL'><div class='vertical-center'>(E)</div></div><div class='respDivR'><div class='vertical-center'>(I)</div></div></div>","I","$3","$17","0","3","17","RISKY"
"html-keyboard-response","21","41484","0.0-5.0-3.5","628419137c4c3ded72e4874d","bdp_rd","Mon Mar 27 2023 15:36:11 GMT-0700 (Pacific Daylight Time)","249489","","null","","","","offerFB","","<div class='trialBorder'><div class='vertical-center'><img style='vertical-align:center; align:center' src=img/fixation3.jpg></div><div class='cl'><div class='vertical-center'>$3<br>for<br>sure</div></div><div class='cr'><div class='vertical-center'><font style='color:orange'>$17<br>with a<br>50% chance</font></div></div><div class='respDivL'><div class='vertical-center'>(E)</div></div><div class='respDivR'><div class='vertical-center'><font style='color:orange'>(I)</font></div></div></div>","null","$3","$17","0","3","17",""
"html-keyboard-response","22","41985","0.0-5.0-1.6","628419137c4c3ded72e4874d","bdp_rd","Mon Mar 27 2023 15:36:11 GMT-0700 (Pacific Daylight Time)","249489","","null","","","","FIX","","<div class='trialBorder'><div class='vertical-center'><img style='vertical-align:center; align:center' src=img/fixation3.jpg></div></div>","null","","","","","",""
"html-keyboard-response","23","43736","0.0-5.0-2.6","628419137c4c3ded72e4874d","bdp_rd","Mon Mar 27 2023 15:36:11 GMT-0700 (Pacific Daylight Time)","249489","","1750","","","","offer","","<div class='trialBorder'><div class='vertical-center'><img style='vertical-align:center; align:center' src=img/fixation3.jpg></div><div class='cl'><div class='vertical-center'>$40<br>with a<br>50% chance</div></div><div class='cr'><div class='vertical-center'>$10<br>for<br>sure</div></div><div class='respDivL'><div class='vertical-center'>(E)</div></div><div class='respDivR'><div class='vertical-center'>(I)</div></div></div>","E","$10","$40","1","10","40","RISKY"
"html-keyboard-response","24","43988","0.0-5.0-3.6","628419137c4c3ded72e4874d","bdp_rd","Mon Mar 27 2023 15:36:11 GMT-0700 (Pacific Daylight Time)","249489","","null","","","","offerFB","","<div class='trialBorder'><div class='vertical-center'><img style='vertical-align:center; align:center' src=img/fixation3.jpg></div><div class='cl'><div class='vertical-center'><font style='color:orange'>$40<br>with a<br>50% chance</font></div></div><div class='cr'><div class='vertical-center'>$10<br>for<br>sure</div></div><div class='respDivL'><div class='vertical-center'><font style='color:orange'>(E)</font></div></div><div class='respDivR'><div class='vertical-center'>(I)</div></div></div>","null","$10","$40","1","10","40",""
"html-keyboard-response","25","44490","0.0-5.0-1.7","628419137c4c3ded72e4874d","bdp_rd","Mon Mar 27 2023 15:36:11 GMT-0700 (Pacific Daylight Time)","249489","","null","","","","FIX","","<div class='trialBorder'><div class='vertical-center'><img style='vertical-align:center; align:center' src=img/fixation3.jpg></div></div>","null","","","","","",""
"html-keyboard-response","26","47160","0.0-5.0-2.7","628419137c4c3ded72e4874d","bdp_rd","Mon Mar 27 2023 15:36:11 GMT-0700 (Pacific Daylight Time)","249489","","2669","","","","offer","","<div class='trialBorder'><div class='vertical-center'><img style='vertical-align:center; align:center' src=img/fixation3.jpg></div><div class='cl'><div class='vertical-center'>$100<br>with a<br>50% chance</div></div><div class='cr'><div class='vertical-center'>$63<br>for<br>sure</div></div><div class='respDivL'><div class='vertical-center'>(E)</div></div><div class='respDivR'><div class='vertical-center'>(I)</div></div></div>","E","$63","$100","1","63","10","RISKY"
"html-keyboard-response","27","47412","0.0-5.0-3.7","628419137c4c3ded72e4874d","bdp_rd","Mon Mar 27 2023 15:36:11 GMT-0700 (Pacific Daylight Time)","249489","","null","","","","offerFB","","<div class='trialBorder'><div class='vertical-center'><img style='vertical-align:center; align:center' src=img/fixation3.jpg></div><div class='cl'><div class='vertical-center'><font style='color:orange'>$100<br>with a<br>50% chance</font></div></div><div class='cr'><div class='vertical-center'>$63<br>for<br>sure</div></div><div class='respDivL'><div class='vertical-center'><font style='color:orange'>(E)</font></div></div><div class='respDivR'><div class='vertical-center'>(I)</div></div></div>","null","$63","$100","1","63","10",""
"html-keyboard-response","28","47914","0.0-5.0-1.8","628419137c4c3ded72e4874d","bdp_rd","Mon Mar 27 2023 15:36:11 GMT-0700 (Pacific Daylight Time)","249489","","null","","","","FIX","","<div class='trialBorder'><div class='vertical-center'><img style='vertical-align:center; align:center' src=img/fixation3.jpg></div></div>","null","","","","","",""
"html-keyboard-response","29","50561","0.0-5.0-2.8","628419137c4c3ded72e4874d","bdp_rd","Mon Mar 27 2023 15:36:11 GMT-0700 (Pacific Daylight Time)","249489","","2646","","","","offer","","<div class='trialBorder'><div class='vertical-center'><img style='vertical-align:center; align:center' src=img/fixation3.jpg></div><div class='cl'><div class='vertical-center'>$22<br>for<br>sure</div></div><div class='cr'><div class='vertical-center'>$59<br>with a<br>50% chance</div></div><div class='respDivL'><div class='vertical-center'>(E)</div></div><div class='respDivR'><div class='vertical-center'>(I)</div></div></div>","I","$22","$59","0","22","59","RISKY"
"html-keyboard-response","30","50812","0.0-5.0-3.8","628419137c4c3ded72e4874d","bdp_rd","Mon Mar 27 2023 15:36:11 GMT-0700 (Pacific Daylight Time)","249489","","null","","","","offerFB","","<div class='trialBorder'><div class='vertical-center'><img style='vertical-align:center; align:center' src=img/fixation3.jpg></div><div class='cl'><div class='vertical-center'>$22<br>for<br>sure</div></div><div class='cr'><div class='vertical-center'><font style='color:orange'>$59<br>with a<br>50% chance</font></div></div><div class='respDivL'><div class='vertical-center'>(E)</div></div><div class='respDivR'><div class='vertical-center'><font style='color:orange'>(I)</font></div></div></div>","null","$22","$59","0","22","59",""
"html-keyboard-response","31","51315","0.0-5.0-1.9","628419137c4c3ded72e4874d","bdp_rd","Mon Mar 27 2023 15:36:11 GMT-0700 (Pacific Daylight Time)","249489","","null","","","","FIX","","<div class='trialBorder'><div class='vertical-center'><img style='vertical-align:center; align:center' src=img/fixation3.jpg></div></div>","null","","","","","",""
"html-keyboard-response","32","54760","0.0-5.0-2.9","628419137c4c3ded72e4874d","bdp_rd","Mon Mar 27 2023 15:36:11 GMT-0700 (Pacific Daylight Time)","249489","","3444","","","","offer","","<div class='trialBorder'><div class='vertical-center'><img style='vertical-align:center; align:center' src=img/fixation3.jpg></div><div class='cl'><div class='vertical-center'>$24<br>with a<br>50% chance</div></div><div class='cr'><div class='vertical-center'>$13<br>for<br>sure</div></div><div class='respDivL'><div class='vertical-center'>(E)</div></div><div class='respDivR'><div class='vertical-center'>(I)</div></div></div>","I","$13","$24","1","13","24","SURE"
"html-keyboard-response","33","55012","0.0-5.0-3.9","628419137c4c3ded72e4874d","bdp_rd","Mon Mar 27 2023 15:36:11 GMT-0700 (Pacific Daylight Time)","249489","","null","","","","offerFB","","<div class='trialBorder'><div class='vertical-center'><img style='vertical-align:center; align:center' src=img/fixation3.jpg></div><div class='cl'><div class='vertical-center'>$24<br>with a<br>50% chance</div></div><div class='cr'><div class='vertical-center'><font style='color:orange'>$13<br>for<br>sure</font></div></div><div class='respDivL'><div class='vertical-center'>(E)</div></div><div class='respDivR'><div class='vertical-center'><font style='color:orange'>(I)</font></div></div></div>","null","$13","$24","1","13","24",""
"html-keyboard-response","34","55514","0.0-5.0-1.10","628419137c4c3ded72e4874d","bdp_rd","Mon Mar 27 2023 15:36:11 GMT-0700 (Pacific Daylight Time)","249489","","null","","","","FIX","","<div class='trialBorder'><div class='vertical-center'><img style='vertical-align:center; align:center' src=img/fixation3.jpg></div></div>","null","","","","","",""
"html-keyboard-response","35","57743","0.0-5.0-2.10","628419137c4c3ded72e4874d","bdp_rd","Mon Mar 27 2023 15:36:11 GMT-0700 (Pacific Daylight Time)","249489","","2228","","","","offer","","<div class='trialBorder'><div class='vertical-center'><img style='vertical-align:center; align:center' src=img/fixation3.jpg></div><div class='cl'><div class='vertical-center'>$40<br>for<br>sure</div></div><div class='cr'><div class='vertical-center'>$95<br>with a<br>50% chance</div></div><div class='respDivL'><div class='vertical-center'>(E)</div></div><div class='respDivR'><div class='vertical-center'>(I)</div></div></div>","I","$40","$95","0","40","95","RISKY"
"html-keyboard-response","36","57994","0.0-5.0-3.10","628419137c4c3ded72e4874d","bdp_rd","Mon Mar 27 2023 15:36:11 GMT-0700 (Pacific Daylight Time)","249489","","null","","","","offerFB","","<div class='trialBorder'><div class='vertical-center'><img style='vertical-align:center; align:center' src=img/fixation3.jpg></div><div class='cl'><div class='vertical-center'>$40<br>for<br>sure</div></div><div class='cr'><div class='vertical-center'><font style='color:orange'>$95<br>with a<br>50% chance</font></div></div><div class='respDivL'><div class='vertical-center'>(E)</div></div><div class='respDivR'><div class='vertical-center'><font style='color:orange'>(I)</font></div></div></div>","null","$40","$95","0","40","95",""
"html-keyboard-response","37","58495","0.0-5.0-1.11","628419137c4c3ded72e4874d","bdp_rd","Mon Mar 27 2023 15:36:11 GMT-0700 (Pacific Daylight Time)","249489","","null","","","","FIX","","<div class='trialBorder'><div class='vertical-center'><img style='vertical-align:center; align:center' src=img/fixation3.jpg></div></div>","null","","","","","",""
"html-keyboard-response","38","65092","0.0-5.0-2.11","628419137c4c3ded72e4874d","bdp_rd","Mon Mar 27 2023 15:36:11 GMT-0700 (Pacific Daylight Time)","249489","","6596","","","","offer","","<div class='trialBorder'><div class='vertical-center'><img style='vertical-align:center; align:center' src=img/fixation3.jpg></div><div class='cl'><div class='vertical-center'>$73<br>with a<br>50% chance</div></div><div class='cr'><div class='vertical-center'>$42<br>for<br>sure</div></div><div class='respDivL'><div class='vertical-center'>(E)</div></div><div class='respDivR'><div class='vertical-center'>(I)</div></div></div>","I","$42","$73","1","42","73","SURE"
"html-keyboard-response","39","65344","0.0-5.0-3.11","628419137c4c3ded72e4874d","bdp_rd","Mon Mar 27 2023 15:36:11 GMT-0700 (Pacific Daylight Time)","249489","","null","","","","offerFB","","<div class='trialBorder'><div class='vertical-center'><img style='vertical-align:center; align:center' src=img/fixation3.jpg></div><div class='cl'><div class='vertical-center'>$73<br>with a<br>50% chance</div></div><div class='cr'><div class='vertical-center'><font style='color:orange'>$42<br>for<br>sure</font></div></div><div class='respDivL'><div class='vertical-center'>(E)</div></div><div class='respDivR'><div class='vertical-center'><font style='color:orange'>(I)</font></div></div></div>","null","$42","$73","1","42","73",""
"html-keyboard-response","40","65845","0.0-5.0-1.12","628419137c4c3ded72e4874d","bdp_rd","Mon Mar 27 2023 15:36:11 GMT-0700 (Pacific Daylight Time)","249489","","null","","","","FIX","","<div class='trialBorder'><div class='vertical-center'><img style='vertical-align:center; align:center' src=img/fixation3.jpg></div></div>","null","","","","","",""
"html-keyboard-response","41","68723","0.0-5.0-2.12","628419137c4c3ded72e4874d","bdp_rd","Mon Mar 27 2023 15:36:11 GMT-0700 (Pacific Daylight Time)","249489","","2877","","","","offer","","<div class='trialBorder'><div class='vertical-center'><img style='vertical-align:center; align:center' src=img/fixation3.jpg></div><div class='cl'><div class='vertical-center'>$27<br>for<br>sure</div></div><div class='cr'><div class='vertical-center'>$47<br>with a<br>50% chance</div></div><div class='respDivL'><div class='vertical-center'>(E)</div></div><div class='respDivR'><div class='vertical-center'>(I)</div></div></div>","E","$27","$47","0","27","47","SURE"
"html-keyboard-response","42","68976","0.0-5.0-3.12","628419137c4c3ded72e4874d","bdp_rd","Mon Mar 27 2023 15:36:11 GMT-0700 (Pacific Daylight Time)","249489","","null","","","","offerFB","","<div class='trialBorder'><div class='vertical-center'><img style='vertical-align:center; align:center' src=img/fixation3.jpg></div><div class='cl'><div class='vertical-center'><font style='color:orange'>$27<br>for<br>sure</font></div></div><div class='cr'><div class='vertical-center'>$47<br>with a<br>50% chance</div></div><div class='respDivL'><div class='vertical-center'><font style='color:orange'>(E)</font></div></div><div class='respDivR'><div class='vertical-center'>(I)</div></div></div>","null","$27","$47","0","27","47",""
"html-keyboard-response","43","69478","0.0-5.0-1.13","628419137c4c3ded72e4874d","bdp_rd","Mon Mar 27 2023 15:36:11 GMT-0700 (Pacific Daylight Time)","249489","","null","","","","FIX","","<div class='trialBorder'><div class='vertical-center'><img style='vertical-align:center; align:center' src=img/fixation3.jpg></div></div>","null","","","","","",""
"html-keyboard-response","44","71850","0.0-5.0-2.13","628419137c4c3ded72e4874d","bdp_rd","Mon Mar 27 2023 15:36:11 GMT-0700 (Pacific Daylight Time)","249489","","2371","","","","offer","","<div class='trialBorder'><div class='vertical-center'><img style='vertical-align:center; align:center' src=img/fixation3.jpg></div><div class='cl'><div class='vertical-center'>$33<br>for<br>sure</div></div><div class='cr'><div class='vertical-center'>$66<br>with a<br>50% chance</div></div><div class='respDivL'><div class='vertical-center'>(E)</div></div><div class='respDivR'><div class='vertical-center'>(I)</div></div></div>","I","$33","$66","0","33","66","RISKY"
"html-keyboard-response","45","72101","0.0-5.0-3.13","628419137c4c3ded72e4874d","bdp_rd","Mon Mar 27 2023 15:36:11 GMT-0700 (Pacific Daylight Time)","249489","","null","","","","offerFB","","<div class='trialBorder'><div class='vertical-center'><img style='vertical-align:center; align:center' src=img/fixation3.jpg></div><div class='cl'><div class='vertical-center'>$33<br>for<br>sure</div></div><div class='cr'><div class='vertical-center'><font style='color:orange'>$66<br>with a<br>50% chance</font></div></div><div class='respDivL'><div class='vertical-center'>(E)</div></div><div class='respDivR'><div class='vertical-center'><font style='color:orange'>(I)</font></div></div></div>","null","$33","$66","0","33","66",""
"html-keyboard-response","46","72602","0.0-5.0-1.14","628419137c4c3ded72e4874d","bdp_rd","Mon Mar 27 2023 15:36:11 GMT-0700 (Pacific Daylight Time)","249489","","null","","","","FIX","","<div class='trialBorder'><div class='vertical-center'><img style='vertical-align:center; align:center' src=img/fixation3.jpg></div></div>","null","","","","","",""
"html-keyboard-response","47","73963","0.0-5.0-2.14","628419137c4c3ded72e4874d","bdp_rd","Mon Mar 27 2023 15:36:11 GMT-0700 (Pacific Daylight Time)","249489","","1359","","","","offer","","<div class='trialBorder'><div class='vertical-center'><img style='vertical-align:center; align:center' src=img/fixation3.jpg></div><div class='cl'><div class='vertical-center'>$19<br>for<br>sure</div></div><div class='cr'><div class='vertical-center'>$51<br>with a<br>50% chance</div></div><div class='respDivL'><div class='vertical-center'>(E)</div></div><div class='respDivR'><div class='vertical-center'>(I)</div></div></div>","I","$19","$51","0","19","51","RISKY"
"html-keyboard-response","48","74217","0.0-5.0-3.14","628419137c4c3ded72e4874d","bdp_rd","Mon Mar 27 2023 15:36:11 GMT-0700 (Pacific Daylight Time)","249489","","null","","","","offerFB","","<div class='trialBorder'><div class='vertical-center'><img style='vertical-align:center; align:center' src=img/fixation3.jpg></div><div class='cl'><div class='vertical-center'>$19<br>for<br>sure</div></div><div class='cr'><div class='vertical-center'><font style='color:orange'>$51<br>with a<br>50% chance</font></div></div><div class='respDivL'><div class='vertical-center'>(E)</div></div><div class='respDivR'><div class='vertical-center'><font style='color:orange'>(I)</font></div></div></div>","null","$19","$51","0","19","51",""
"html-keyboard-response","49","74718","0.0-5.0-1.15","628419137c4c3ded72e4874d","bdp_rd","Mon Mar 27 2023 15:36:11 GMT-0700 (Pacific Daylight Time)","249489","","null","","","","FIX","","<div class='trialBorder'><div class='vertical-center'><img style='vertical-align:center; align:center' src=img/fixation3.jpg></div></div>","null","","","","","",""
"html-keyboard-response","50","77038","0.0-5.0-2.15","628419137c4c3ded72e4874d","bdp_rd","Mon Mar 27 2023 15:36:11 GMT-0700 (Pacific Daylight Time)","249489","","2318","","","","offer","","<div class='trialBorder'><div class='vertical-center'><img style='vertical-align:center; align:center' src=img/fixation3.jpg></div><div class='cl'><div class='vertical-center'>$22<br>for<br>sure</div></div><div class='cr'><div class='vertical-center'>$42<br>with a<br>50% chance</div></div><div class='respDivL'><div class='vertical-center'>(E)</div></div><div class='respDivR'><div class='vertical-center'>(I)</div></div></div>","E","$22","$42","0","22","42","SURE"
"html-keyboard-response","51","77290","0.0-5.0-3.15","628419137c4c3ded72e4874d","bdp_rd","Mon Mar 27 2023 15:36:11 GMT-0700 (Pacific Daylight Time)","249489","","null","","","","offerFB","","<div class='trialBorder'><div class='vertical-center'><img style='vertical-align:center; align:center' src=img/fixation3.jpg></div><div class='cl'><div class='vertical-center'><font style='color:orange'>$22<br>for<br>sure</font></div></div><div class='cr'><div class='vertical-center'>$42<br>with a<br>50% chance</div></div><div class='respDivL'><div class='vertical-center'><font style='color:orange'>(E)</font></div></div><div class='respDivR'><div class='vertical-center'>(I)</div></div></div>","null","$22","$42","0","22","42",""
"html-keyboard-response","52","77792","0.0-5.0-1.16","628419137c4c3ded72e4874d","bdp_rd","Mon Mar 27 2023 15:36:11 GMT-0700 (Pacific Daylight Time)","249489","","null","","","","FIX","","<div class='trialBorder'><div class='vertical-center'><img style='vertical-align:center; align:center' src=img/fixation3.jpg></div></div>","null","","","","","",""
"html-keyboard-response","53","79756","0.0-5.0-2.16","628419137c4c3ded72e4874d","bdp_rd","Mon Mar 27 2023 15:36:11 GMT-0700 (Pacific Daylight Time)","249489","","1963","","","","offer","","<div class='trialBorder'><div class='vertical-center'><img style='vertical-align:center; align:center' src=img/fixation3.jpg></div><div class='cl'><div class='vertical-center'>$14<br>for<br>sure</div></div><div class='cr'><div class='vertical-center'>$29<br>with a<br>50% chance</div></div><div class='respDivL'><div class='vertical-center'>(E)</div></div><div class='respDivR'><div class='vertical-center'>(I)</div></div></div>","E","$14","$29","0","14","29","SURE"
"html-keyboard-response","54","80008","0.0-5.0-3.16","628419137c4c3ded72e4874d","bdp_rd","Mon Mar 27 2023 15:36:11 GMT-0700 (Pacific Daylight Time)","249489","","null","","","","offerFB","","<div class='trialBorder'><div class='vertical-center'><img style='vertical-align:center; align:center' src=img/fixation3.jpg></div><div class='cl'><div class='vertical-center'><font style='color:orange'>$14<br>for<br>sure</font></div></div><div class='cr'><div class='vertical-center'>$29<br>with a<br>50% chance</div></div><div class='respDivL'><div class='vertical-center'><font style='color:orange'>(E)</font></div></div><div class='respDivR'><div class='vertical-center'>(I)</div></div></div>","null","$14","$29","0","14","29",""
"html-keyboard-response","55","80510","0.0-5.0-1.17","628419137c4c3ded72e4874d","bdp_rd","Mon Mar 27 2023 15:36:11 GMT-0700 (Pacific Daylight Time)","249489","","null","","","","FIX","","<div class='trialBorder'><div class='vertical-center'><img style='vertical-align:center; align:center' src=img/fixation3.jpg></div></div>","null","","","","","",""
"html-keyboard-response","56","81663","0.0-5.0-2.17","628419137c4c3ded72e4874d","bdp_rd","Mon Mar 27 2023 15:36:11 GMT-0700 (Pacific Daylight Time)","249489","","1152","","","","offer","","<div class='trialBorder'><div class='vertical-center'><img style='vertical-align:center; align:center' src=img/fixation3.jpg></div><div class='cl'><div class='vertical-center'>$1<br>for<br>sure</div></div><div class='cr'><div class='vertical-center'>$33<br>with a<br>50% chance</div></div><div class='respDivL'><div class='vertical-center'>(E)</div></div><div class='respDivR'><div class='vertical-center'>(I)</div></div></div>","I","$1","$33","0","1","33","RISKY"
"html-keyboard-response","57","81914","0.0-5.0-3.17","628419137c4c3ded72e4874d","bdp_rd","Mon Mar 27 2023 15:36:11 GMT-0700 (Pacific Daylight Time)","249489","","null","","","","offerFB","","<div class='trialBorder'><div class='vertical-center'><img style='vertical-align:center; align:center' src=img/fixation3.jpg></div><div class='cl'><div class='vertical-center'>$1<br>for<br>sure</div></div><div class='cr'><div class='vertical-center'><font style='color:orange'>$33<br>with a<br>50% chance</font></div></div><div class='respDivL'><div class='vertical-center'>(E)</div></div><div class='respDivR'><div class='vertical-center'><font style='color:orange'>(I)</font></div></div></div>","null","$1","$33","0","1","33",""
"html-keyboard-response","58","82416","0.0-5.0-1.18","628419137c4c3ded72e4874d","bdp_rd","Mon Mar 27 2023 15:36:11 GMT-0700 (Pacific Daylight Time)","249489","","null","","","","FIX","","<div class='trialBorder'><div class='vertical-center'><img style='vertical-align:center; align:center' src=img/fixation3.jpg></div></div>","null","","","","","",""
"html-keyboard-response","59","85202","0.0-5.0-2.18","628419137c4c3ded72e4874d","bdp_rd","Mon Mar 27 2023 15:36:11 GMT-0700 (Pacific Daylight Time)","249489","","2785","","","","offer","","<div class='trialBorder'><div class='vertical-center'><img style='vertical-align:center; align:center' src=img/fixation3.jpg></div><div class='cl'><div class='vertical-center'>$44<br>with a<br>50% chance</div></div><div class='cr'><div class='vertical-center'>$37<br>for<br>sure</div></div><div class='respDivL'><div class='vertical-center'>(E)</div></div><div class='respDivR'><div class='vertical-center'>(I)</div></div></div>","I","$37","$44","1","37","44","SURE"
"html-keyboard-response","60","85456","0.0-5.0-3.18","628419137c4c3ded72e4874d","bdp_rd","Mon Mar 27 2023 15:36:11 GMT-0700 (Pacific Daylight Time)","249489","","null","","","","offerFB","","<div class='trialBorder'><div class='vertical-center'><img style='vertical-align:center; align:center' src=img/fixation3.jpg></div><div class='cl'><div class='vertical-center'>$44<br>with a<br>50% chance</div></div><div class='cr'><div class='vertical-center'><font style='color:orange'>$37<br>for<br>sure</font></div></div><div class='respDivL'><div class='vertical-center'>(E)</div></div><div class='respDivR'><div class='vertical-center'><font style='color:orange'>(I)</font></div></div></div>","null","$37","$44","1","37","44",""
"html-keyboard-response","61","85956","0.0-5.0-1.19","628419137c4c3ded72e4874d","bdp_rd","Mon Mar 27 2023 15:36:11 GMT-0700 (Pacific Daylight Time)","249489","","null","","","","FIX","","<div class='trialBorder'><div class='vertical-center'><img style='vertical-align:center; align:center' src=img/fixation3.jpg></div></div>","null","","","","","",""
"html-keyboard-response","62","88766","0.0-5.0-2.19","628419137c4c3ded72e4874d","bdp_rd","Mon Mar 27 2023 15:36:11 GMT-0700 (Pacific Daylight Time)","249489","","2809","","","","offer","","<div class='trialBorder'><div class='vertical-center'><img style='vertical-align:center; align:center' src=img/fixation3.jpg></div><div class='cl'><div class='vertical-center'>$32<br>with a<br>50% chance</div></div><div class='cr'><div class='vertical-center'>$9<br>for<br>sure</div></div><div class='respDivL'><div class='vertical-center'>(E)</div></div><div class='respDivR'><div class='vertical-center'>(I)</div></div></div>","E","$9","$32","1","9","32","RISKY"
"html-keyboard-response","63","89019","0.0-5.0-3.19","628419137c4c3ded72e4874d","bdp_rd","Mon Mar 27 2023 15:36:11 GMT-0700 (Pacific Daylight Time)","249489","","null","","","","offerFB","","<div class='trialBorder'><div class='vertical-center'><img style='vertical-align:center; align:center' src=img/fixation3.jpg></div><div class='cl'><div class='vertical-center'><font style='color:orange'>$32<br>with a<br>50% chance</font></div></div><div class='cr'><div class='vertical-center'>$9<br>for<br>sure</div></div><div class='respDivL'><div class='vertical-center'><font style='color:orange'>(E)</font></div></div><div class='respDivR'><div class='vertical-center'>(I)</div></div></div>","null","$9","$32","1","9","32",""
"html-keyboard-response","64","89521","0.0-5.0-1.20","628419137c4c3ded72e4874d","bdp_rd","Mon Mar 27 2023 15:36:11 GMT-0700 (Pacific Daylight Time)","249489","","null","","","","FIX","","<div class='trialBorder'><div class='vertical-center'><img style='vertical-align:center; align:center' src=img/fixation3.jpg></div></div>","null","","","","","",""
"html-keyboard-response","65","92185","0.0-5.0-2.20","628419137c4c3ded72e4874d","bdp_rd","Mon Mar 27 2023 15:36:11 GMT-0700 (Pacific Daylight Time)","249489","","2663","","","","offer","","<div class='trialBorder'><div class='vertical-center'><img style='vertical-align:center; align:center' src=img/fixation3.jpg></div><div class='cl'><div class='vertical-center'>$5<br>for<br>sure</div></div><div class='cr'><div class='vertical-center'>$50<br>with a<br>50% chance</div></div><div class='respDivL'><div class='vertical-center'>(E)</div></div><div class='respDivR'><div class='vertical-center'>(I)</div></div></div>","I","$5","$50","0","5","50","RISKY"
"html-keyboard-response","66","92437","0.0-5.0-3.20","628419137c4c3ded72e4874d","bdp_rd","Mon Mar 27 2023 15:36:11 GMT-0700 (Pacific Daylight Time)","249489","","null","","","","offerFB","","<div class='trialBorder'><div class='vertical-center'><img style='vertical-align:center; align:center' src=img/fixation3.jpg></div><div class='cl'><div class='vertical-center'>$5<br>for<br>sure</div></div><div class='cr'><div class='vertical-center'><font style='color:orange'>$50<br>with a<br>50% chance</font></div></div><div class='respDivL'><div class='vertical-center'>(E)</div></div><div class='respDivR'><div class='vertical-center'><font style='color:orange'>(I)</font></div></div></div>","null","$5","$50","0","5","50",""
"html-keyboard-response","67","92939","0.0-5.0-1.21","628419137c4c3ded72e4874d","bdp_rd","Mon Mar 27 2023 15:36:11 GMT-0700 (Pacific Daylight Time)","249489","","null","","","","FIX","","<div class='trialBorder'><div class='vertical-center'><img style='vertical-align:center; align:center' src=img/fixation3.jpg></div></div>","null","","","","","",""
"html-keyboard-response","68","95976","0.0-5.0-2.21","628419137c4c3ded72e4874d","bdp_rd","Mon Mar 27 2023 15:36:11 GMT-0700 (Pacific Daylight Time)","249489","","3035","","","","offer","","<div class='trialBorder'><div class='vertical-center'><img style='vertical-align:center; align:center' src=img/fixation3.jpg></div><div class='cl'><div class='vertical-center'>$46<br>for<br>sure</div></div><div class='cr'><div class='vertical-center'>$65<br>with a<br>50% chance</div></div><div class='respDivL'><div class='vertical-center'>(E)</div></div><div class='respDivR'><div class='vertical-center'>(I)</div></div></div>","E","$46","$65","0","46","65","SURE"
"html-keyboard-response","69","96228","0.0-5.0-3.21","628419137c4c3ded72e4874d","bdp_rd","Mon Mar 27 2023 15:36:11 GMT-0700 (Pacific Daylight Time)","249489","","null","","","","offerFB","","<div class='trialBorder'><div class='vertical-center'><img style='vertical-align:center; align:center' src=img/fixation3.jpg></div><div class='cl'><div class='vertical-center'><font style='color:orange'>$46<br>for<br>sure</font></div></div><div class='cr'><div class='vertical-center'>$65<br>with a<br>50% chance</div></div><div class='respDivL'><div class='vertical-center'><font style='color:orange'>(E)</font></div></div><div class='respDivR'><div class='vertical-center'>(I)</div></div></div>","null","$46","$65","0","46","65",""
"html-keyboard-response","70","96730","0.0-5.0-1.22","628419137c4c3ded72e4874d","bdp_rd","Mon Mar 27 2023 15:36:11 GMT-0700 (Pacific Daylight Time)","249489","","null","","","","FIX","","<div class='trialBorder'><div class='vertical-center'><img style='vertical-align:center; align:center' src=img/fixation3.jpg></div></div>","null","","","","","",""
"html-keyboard-response","71","99732","0.0-5.0-2.22","628419137c4c3ded72e4874d","bdp_rd","Mon Mar 27 2023 15:36:11 GMT-0700 (Pacific Daylight Time)","249489","","3002","","","","offer","","<div class='trialBorder'><div class='vertical-center'><img style='vertical-align:center; align:center' src=img/fixation3.jpg></div><div class='cl'><div class='vertical-center'>$8<br>for<br>sure</div></div><div class='cr'><div class='vertical-center'>$23<br>with a<br>50% chance</div></div><div class='respDivL'><div class='vertical-center'>(E)</div></div><div class='respDivR'><div class='vertical-center'>(I)</div></div></div>","I","$8","$23","0","8","23","RISKY"
"html-keyboard-response","72","99984","0.0-5.0-3.22","628419137c4c3ded72e4874d","bdp_rd","Mon Mar 27 2023 15:36:11 GMT-0700 (Pacific Daylight Time)","249489","","null","","","","offerFB","","<div class='trialBorder'><div class='vertical-center'><img style='vertical-align:center; align:center' src=img/fixation3.jpg></div><div class='cl'><div class='vertical-center'>$8<br>for<br>sure</div></div><div class='cr'><div class='vertical-center'><font style='color:orange'>$23<br>with a<br>50% chance</font></div></div><div class='respDivL'><div class='vertical-center'>(E)</div></div><div class='respDivR'><div class='vertical-center'><font style='color:orange'>(I)</font></div></div></div>","null","$8","$23","0","8","23",""
"html-keyboard-response","73","100486","0.0-5.0-1.23","628419137c4c3ded72e4874d","bdp_rd","Mon Mar 27 2023 15:36:11 GMT-0700 (Pacific Daylight Time)","249489","","null","","","","FIX","","<div class='trialBorder'><div class='vertical-center'><img style='vertical-align:center; align:center' src=img/fixation3.jpg></div></div>","null","","","","","",""
"html-keyboard-response","74","102551","0.0-5.0-2.23","628419137c4c3ded72e4874d","bdp_rd","Mon Mar 27 2023 15:36:11 GMT-0700 (Pacific Daylight Time)","249489","","2064","","","","offer","","<div class='trialBorder'><div class='vertical-center'><img style='vertical-align:center; align:center' src=img/fixation3.jpg></div><div class='cl'><div class='vertical-center'>$4<br>for<br>sure</div></div><div class='cr'><div class='vertical-center'>$14<br>with a<br>50% chance</div></div><div class='respDivL'><div class='vertical-center'>(E)</div></div><div class='respDivR'><div class='vertical-center'>(I)</div></div></div>","E","$4","$14","0","4","14","SURE"
"html-keyboard-response","75","102804","0.0-5.0-3.23","628419137c4c3ded72e4874d","bdp_rd","Mon Mar 27 2023 15:36:11 GMT-0700 (Pacific Daylight Time)","249489","","null","","","","offerFB","","<div class='trialBorder'><div class='vertical-center'><img style='vertical-align:center; align:center' src=img/fixation3.jpg></div><div class='cl'><div class='vertical-center'><font style='color:orange'>$4<br>for<br>sure</font></div></div><div class='cr'><div class='vertical-center'>$14<br>with a<br>50% chance</div></div><div class='respDivL'><div class='vertical-center'><font style='color:orange'>(E)</font></div></div><div class='respDivR'><div class='vertical-center'>(I)</div></div></div>","null","$4","$14","0","4","14",""
"html-keyboard-response","76","103305","0.0-5.0-1.24","628419137c4c3ded72e4874d","bdp_rd","Mon Mar 27 2023 15:36:11 GMT-0700 (Pacific Daylight Time)","249489","","null","","","","FIX","","<div class='trialBorder'><div class='vertical-center'><img style='vertical-align:center; align:center' src=img/fixation3.jpg></div></div>","null","","","","","",""
"html-keyboard-response","77","107463","0.0-5.0-2.24","628419137c4c3ded72e4874d","bdp_rd","Mon Mar 27 2023 15:36:11 GMT-0700 (Pacific Daylight Time)","249489","","4157","","","","offer","","<div class='trialBorder'><div class='vertical-center'><img style='vertical-align:center; align:center' src=img/fixation3.jpg></div><div class='cl'><div class='vertical-center'>$21<br>for<br>sure</div></div><div class='cr'><div class='vertical-center'>$25<br>with a<br>50% chance</div></div><div class='respDivL'><div class='vertical-center'>(E)</div></div><div class='respDivR'><div class='vertical-center'>(I)</div></div></div>","E","$21","$25","0","21","25","SURE"
"html-keyboard-response","78","107714","0.0-5.0-3.24","628419137c4c3ded72e4874d","bdp_rd","Mon Mar 27 2023 15:36:11 GMT-0700 (Pacific Daylight Time)","249489","","null","","","","offerFB","","<div class='trialBorder'><div class='vertical-center'><img style='vertical-align:center; align:center' src=img/fixation3.jpg></div><div class='cl'><div class='vertical-center'><font style='color:orange'>$21<br>for<br>sure</font></div></div><div class='cr'><div class='vertical-center'>$25<br>with a<br>50% chance</div></div><div class='respDivL'><div class='vertical-center'><font style='color:orange'>(E)</font></div></div><div class='respDivR'><div class='vertical-center'>(I)</div></div></div>","null","$21","$25","0","21","25",""
"html-keyboard-response","79","108217","0.0-5.0-1.25","628419137c4c3ded72e4874d","bdp_rd","Mon Mar 27 2023 15:36:11 GMT-0700 (Pacific Daylight Time)","249489","","null","","","","FIX","","<div class='trialBorder'><div class='vertical-center'><img style='vertical-align:center; align:center' src=img/fixation3.jpg></div></div>","null","","","","","",""
"html-keyboard-response","80","109472","0.0-5.0-2.25","628419137c4c3ded72e4874d","bdp_rd","Mon Mar 27 2023 15:36:11 GMT-0700 (Pacific Daylight Time)","249489","","1255","","","","offer","","<div class='trialBorder'><div class='vertical-center'><img style='vertical-align:center; align:center' src=img/fixation3.jpg></div><div class='cl'><div class='vertical-center'>$8<br>for<br>sure</div></div><div class='cr'><div class='vertical-center'>$45<br>with a<br>50% chance</div></div><div class='respDivL'><div class='vertical-center'>(E)</div></div><div class='respDivR'><div class='vertical-center'>(I)</div></div></div>","I","$8","$45","0","8","45","RISKY"
"html-keyboard-response","81","109724","0.0-5.0-3.25","628419137c4c3ded72e4874d","bdp_rd","Mon Mar 27 2023 15:36:11 GMT-0700 (Pacific Daylight Time)","249489","","null","","","","offerFB","","<div class='trialBorder'><div class='vertical-center'><img style='vertical-align:center; align:center' src=img/fixation3.jpg></div><div class='cl'><div class='vertical-center'>$8<br>for<br>sure</div></div><div class='cr'><div class='vertical-center'><font style='color:orange'>$45<br>with a<br>50% chance</font></div></div><div class='respDivL'><div class='vertical-center'>(E)</div></div><div class='respDivR'><div class='vertical-center'><font style='color:orange'>(I)</font></div></div></div>","null","$8","$45","0","8","45",""
"html-keyboard-response","82","110226","0.0-5.0-1.26","628419137c4c3ded72e4874d","bdp_rd","Mon Mar 27 2023 15:36:11 GMT-0700 (Pacific Daylight Time)","249489","","null","","","","FIX","","<div class='trialBorder'><div class='vertical-center'><img style='vertical-align:center; align:center' src=img/fixation3.jpg></div></div>","null","","","","","",""
"html-keyboard-response","83","111830","0.0-5.0-2.26","628419137c4c3ded72e4874d","bdp_rd","Mon Mar 27 2023 15:36:11 GMT-0700 (Pacific Daylight Time)","249489","","1603","","","","offer","","<div class='trialBorder'><div class='vertical-center'><img style='vertical-align:center; align:center' src=img/fixation3.jpg></div><div class='cl'><div class='vertical-center'>$16<br>for<br>sure</div></div><div class='cr'><div class='vertical-center'>$38<br>with a<br>50% chance</div></div><div class='respDivL'><div class='vertical-center'>(E)</div></div><div class='respDivR'><div class='vertical-center'>(I)</div></div></div>","I","$16","$38","0","16","38","RISKY"
"html-keyboard-response","84","112084","0.0-5.0-3.26","628419137c4c3ded72e4874d","bdp_rd","Mon Mar 27 2023 15:36:11 GMT-0700 (Pacific Daylight Time)","249489","","null","","","","offerFB","","<div class='trialBorder'><div class='vertical-center'><img style='vertical-align:center; align:center' src=img/fixation3.jpg></div><div class='cl'><div class='vertical-center'>$16<br>for<br>sure</div></div><div class='cr'><div class='vertical-center'><font style='color:orange'>$38<br>with a<br>50% chance</font></div></div><div class='respDivL'><div class='vertical-center'>(E)</div></div><div class='respDivR'><div class='vertical-center'><font style='color:orange'>(I)</font></div></div></div>","null","$16","$38","0","16","38",""
"html-keyboard-response","85","112586","0.0-5.0-1.27","628419137c4c3ded72e4874d","bdp_rd","Mon Mar 27 2023 15:36:11 GMT-0700 (Pacific Daylight Time)","249489","","null","","","","FIX","","<div class='trialBorder'><div class='vertical-center'><img style='vertical-align:center; align:center' src=img/fixation3.jpg></div></div>","null","","","","","",""
"html-keyboard-response","86","115041","0.0-5.0-2.27","628419137c4c3ded72e4874d","bdp_rd","Mon Mar 27 2023 15:36:11 GMT-0700 (Pacific Daylight Time)","249489","","2454","","","","offer","","<div class='trialBorder'><div class='vertical-center'><img style='vertical-align:center; align:center' src=img/fixation3.jpg></div><div class='cl'><div class='vertical-center'>$86<br>with a<br>50% chance</div></div><div class='cr'><div class='vertical-center'>$45<br>for<br>sure</div></div><div class='respDivL'><div class='vertical-center'>(E)</div></div><div class='respDivR'><div class='vertical-center'>(I)</div></div></div>","E","$45","$86","1","45","86","RISKY"
"html-keyboard-response","87","115294","0.0-5.0-3.27","628419137c4c3ded72e4874d","bdp_rd","Mon Mar 27 2023 15:36:11 GMT-0700 (Pacific Daylight Time)","249489","","null","","","","offerFB","","<div class='trialBorder'><div class='vertical-center'><img style='vertical-align:center; align:center' src=img/fixation3.jpg></div><div class='cl'><div class='vertical-center'><font style='color:orange'>$86<br>with a<br>50% chance</font></div></div><div class='cr'><div class='vertical-center'>$45<br>for<br>sure</div></div><div class='respDivL'><div class='vertical-center'><font style='color:orange'>(E)</font></div></div><div class='respDivR'><div class='vertical-center'>(I)</div></div></div>","null","$45","$86","1","45","86",""
"html-keyboard-response","88","115795","0.0-5.0-1.28","628419137c4c3ded72e4874d","bdp_rd","Mon Mar 27 2023 15:36:11 GMT-0700 (Pacific Daylight Time)","249489","","null","","","","FIX","","<div class='trialBorder'><div class='vertical-center'><img style='vertical-align:center; align:center' src=img/fixation3.jpg></div></div>","null","","","","","",""
"html-keyboard-response","89","117377","0.0-5.0-2.28","628419137c4c3ded72e4874d","bdp_rd","Mon Mar 27 2023 15:36:11 GMT-0700 (Pacific Daylight Time)","249489","","1580","","","","offer","","<div class='trialBorder'><div class='vertical-center'><img style='vertical-align:center; align:center' src=img/fixation3.jpg></div><div class='cl'><div class='vertical-center'>$37<br>with a<br>50% chance</div></div><div class='cr'><div class='vertical-center'>$20<br>for<br>sure</div></div><div class='respDivL'><div class='vertical-center'>(E)</div></div><div class='respDivR'><div class='vertical-center'>(I)</div></div></div>","I","$20","$37","1","20","37","SURE"
"html-keyboard-response","90","117629","0.0-5.0-3.28","628419137c4c3ded72e4874d","bdp_rd","Mon Mar 27 2023 15:36:11 GMT-0700 (Pacific Daylight Time)","249489","","null","","","","offerFB","","<div class='trialBorder'><div class='vertical-center'><img style='vertical-align:center; align:center' src=img/fixation3.jpg></div><div class='cl'><div class='vertical-center'>$37<br>with a<br>50% chance</div></div><div class='cr'><div class='vertical-center'><font style='color:orange'>$20<br>for<br>sure</font></div></div><div class='respDivL'><div class='vertical-center'>(E)</div></div><div class='respDivR'><div class='vertical-center'><font style='color:orange'>(I)</font></div></div></div>","null","$20","$37","1","20","37",""
"html-keyboard-response","91","118130","0.0-5.0-1.29","628419137c4c3ded72e4874d","bdp_rd","Mon Mar 27 2023 15:36:11 GMT-0700 (Pacific Daylight Time)","249489","","null","","","","FIX","","<div class='trialBorder'><div class='vertical-center'><img style='vertical-align:center; align:center' src=img/fixation3.jpg></div></div>","null","","","","","",""
"html-keyboard-response","92","120655","0.0-5.0-2.29","628419137c4c3ded72e4874d","bdp_rd","Mon Mar 27 2023 15:36:11 GMT-0700 (Pacific Daylight Time)","249489","","2524","","","","offer","","<div class='trialBorder'><div class='vertical-center'><img style='vertical-align:center; align:center' src=img/fixation3.jpg></div><div class='cl'><div class='vertical-center'>$5<br>for<br>sure</div></div><div class='cr'><div class='vertical-center'>$16<br>with a<br>50% chance</div></div><div class='respDivL'><div class='vertical-center'>(E)</div></div><div class='respDivR'><div class='vertical-center'>(I)</div></div></div>","I","$5","$16","0","5","16","RISKY"
"html-keyboard-response","93","120908","0.0-5.0-3.29","628419137c4c3ded72e4874d","bdp_rd","Mon Mar 27 2023 15:36:11 GMT-0700 (Pacific Daylight Time)","249489","","null","","","","offerFB","","<div class='trialBorder'><div class='vertical-center'><img style='vertical-align:center; align:center' src=img/fixation3.jpg></div><div class='cl'><div class='vertical-center'>$5<br>for<br>sure</div></div><div class='cr'><div class='vertical-center'><font style='color:orange'>$16<br>with a<br>50% chance</font></div></div><div class='respDivL'><div class='vertical-center'>(E)</div></div><div class='respDivR'><div class='vertical-center'><font style='color:orange'>(I)</font></div></div></div>","null","$5","$16","0","5","16",""
"html-keyboard-response","94","121410","0.0-5.0-1.30","628419137c4c3ded72e4874d","bdp_rd","Mon Mar 27 2023 15:36:11 GMT-0700 (Pacific Daylight Time)","249489","","null","","","","FIX","","<div class='trialBorder'><div class='vertical-center'><img style='vertical-align:center; align:center' src=img/fixation3.jpg></div></div>","null","","","","","",""
"html-keyboard-response","95","123329","0.0-5.0-2.30","628419137c4c3ded72e4874d","bdp_rd","Mon Mar 27 2023 15:36:11 GMT-0700 (Pacific Daylight Time)","249489","","1918","","","","offer","","<div class='trialBorder'><div class='vertical-center'><img style='vertical-align:center; align:center' src=img/fixation3.jpg></div><div class='cl'><div class='vertical-center'>$28<br>for<br>sure</div></div><div class='cr'><div class='vertical-center'>$89<br>with a<br>50% chance</div></div><div class='respDivL'><div class='vertical-center'>(E)</div></div><div class='respDivR'><div class='vertical-center'>(I)</div></div></div>","I","$28","$89","0","28","89","RISKY"
"html-keyboard-response","96","123582","0.0-5.0-3.30","628419137c4c3ded72e4874d","bdp_rd","Mon Mar 27 2023 15:36:11 GMT-0700 (Pacific Daylight Time)","249489","","null","","","","offerFB","","<div class='trialBorder'><div class='vertical-center'><img style='vertical-align:center; align:center' src=img/fixation3.jpg></div><div class='cl'><div class='vertical-center'>$28<br>for<br>sure</div></div><div class='cr'><div class='vertical-center'><font style='color:orange'>$89<br>with a<br>50% chance</font></div></div><div class='respDivL'><div class='vertical-center'>(E)</div></div><div class='respDivR'><div class='vertical-center'><font style='color:orange'>(I)</font></div></div></div>","null","$28","$89","0","28","89",""
"html-keyboard-response","97","124084","0.0-5.0-1.31","628419137c4c3ded72e4874d","bdp_rd","Mon Mar 27 2023 15:36:11 GMT-0700 (Pacific Daylight Time)","249489","","null","","","","FIX","","<div class='trialBorder'><div class='vertical-center'><img style='vertical-align:center; align:center' src=img/fixation3.jpg></div></div>","null","","","","","",""
"html-keyboard-response","98","125915","0.0-5.0-2.31","628419137c4c3ded72e4874d","bdp_rd","Mon Mar 27 2023 15:36:11 GMT-0700 (Pacific Daylight Time)","249489","","1830","","","","offer","","<div class='trialBorder'><div class='vertical-center'><img style='vertical-align:center; align:center' src=img/fixation3.jpg></div><div class='cl'><div class='vertical-center'>$92<br>with a<br>50% chance</div></div><div class='cr'><div class='vertical-center'>$26<br>for<br>sure</div></div><div class='respDivL'><div class='vertical-center'>(E)</div></div><div class='respDivR'><div class='vertical-center'>(I)</div></div></div>","E","$26","$92","1","26","92","RISKY"
"html-keyboard-response","99","126167","0.0-5.0-3.31","628419137c4c3ded72e4874d","bdp_rd","Mon Mar 27 2023 15:36:11 GMT-0700 (Pacific Daylight Time)","249489","","null","","","","offerFB","","<div class='trialBorder'><div class='vertical-center'><img style='vertical-align:center; align:center' src=img/fixation3.jpg></div><div class='cl'><div class='vertical-center'><font style='color:orange'>$92<br>with a<br>50% chance</font></div></div><div class='cr'><div class='vertical-center'>$26<br>for<br>sure</div></div><div class='respDivL'><div class='vertical-center'><font style='color:orange'>(E)</font></div></div><div class='respDivR'><div class='vertical-center'>(I)</div></div></div>","null","$26","$92","1","26","92",""
"html-keyboard-response","100","126668","0.0-5.0-1.32","628419137c4c3ded72e4874d","bdp_rd","Mon Mar 27 2023 15:36:11 GMT-0700 (Pacific Daylight Time)","249489","","null","","","","FIX","","<div class='trialBorder'><div class='vertical-center'><img style='vertical-align:center; align:center' src=img/fixation3.jpg></div></div>","null","","","","","",""
"html-keyboard-response","101","128785","0.0-5.0-2.32","628419137c4c3ded72e4874d","bdp_rd","Mon Mar 27 2023 15:36:11 GMT-0700 (Pacific Daylight Time)","249489","","2116","","","","offer","","<div class='trialBorder'><div class='vertical-center'><img style='vertical-align:center; align:center' src=img/fixation3.jpg></div><div class='cl'><div class='vertical-center'>$28<br>with a<br>50% chance</div></div><div class='cr'><div class='vertical-center'>$16<br>for<br>sure</div></div><div class='respDivL'><div class='vertical-center'>(E)</div></div><div class='respDivR'><div class='vertical-center'>(I)</div></div></div>","I","$16","$28","1","16","28","SURE"
"html-keyboard-response","102","129037","0.0-5.0-3.32","628419137c4c3ded72e4874d","bdp_rd","Mon Mar 27 2023 15:36:11 GMT-0700 (Pacific Daylight Time)","249489","","null","","","","offerFB","","<div class='trialBorder'><div class='vertical-center'><img style='vertical-align:center; align:center' src=img/fixation3.jpg></div><div class='cl'><div class='vertical-center'>$28<br>with a<br>50% chance</div></div><div class='cr'><div class='vertical-center'><font style='color:orange'>$16<br>for<br>sure</font></div></div><div class='respDivL'><div class='vertical-center'>(E)</div></div><div class='respDivR'><div class='vertical-center'><font style='color:orange'>(I)</font></div></div></div>","null","$16","$28","1","16","28",""
"html-keyboard-response","103","129539","0.0-5.0-1.33","628419137c4c3ded72e4874d","bdp_rd","Mon Mar 27 2023 15:36:11 GMT-0700 (Pacific Daylight Time)","249489","","null","","","","FIX","","<div class='trialBorder'><div class='vertical-center'><img style='vertical-align:center; align:center' src=img/fixation3.jpg></div></div>","null","","","","","",""
"html-keyboard-response","104","133079","0.0-5.0-2.33","628419137c4c3ded72e4874d","bdp_rd","Mon Mar 27 2023 15:36:11 GMT-0700 (Pacific Daylight Time)","249489","","3539","","","","offer","","<div class='trialBorder'><div class='vertical-center'><img style='vertical-align:center; align:center' src=img/fixation3.jpg></div><div class='cl'><div class='vertical-center'>$25<br>for<br>sure</div></div><div class='cr'><div class='vertical-center'>$54<br>with a<br>50% chance</div></div><div class='respDivL'><div class='vertical-center'>(E)</div></div><div class='respDivR'><div class='vertical-center'>(I)</div></div></div>","I","$25","$54","0","25","54","RISKY"
"html-keyboard-response","105","133331","0.0-5.0-3.33","628419137c4c3ded72e4874d","bdp_rd","Mon Mar 27 2023 15:36:11 GMT-0700 (Pacific Daylight Time)","249489","","null","","","","offerFB","","<div class='trialBorder'><div class='vertical-center'><img style='vertical-align:center; align:center' src=img/fixation3.jpg></div><div class='cl'><div class='vertical-center'>$25<br>for<br>sure</div></div><div class='cr'><div class='vertical-center'><font style='color:orange'>$54<br>with a<br>50% chance</font></div></div><div class='respDivL'><div class='vertical-center'>(E)</div></div><div class='respDivR'><div class='vertical-center'><font style='color:orange'>(I)</font></div></div></div>","null","$25","$54","0","25","54",""
"html-keyboard-response","106","133832","0.0-5.0-1.34","628419137c4c3ded72e4874d","bdp_rd","Mon Mar 27 2023 15:36:11 GMT-0700 (Pacific Daylight Time)","249489","","null","","","","FIX","","<div class='trialBorder'><div class='vertical-center'><img style='vertical-align:center; align:center' src=img/fixation3.jpg></div></div>","null","","","","","",""
"html-keyboard-response","107","136668","0.0-5.0-2.34","628419137c4c3ded72e4874d","bdp_rd","Mon Mar 27 2023 15:36:11 GMT-0700 (Pacific Daylight Time)","249489","","2834","","","","offer","","<div class='trialBorder'><div class='vertical-center'><img style='vertical-align:center; align:center' src=img/fixation3.jpg></div><div class='cl'><div class='vertical-center'>$6<br>for<br>sure</div></div><div class='cr'><div class='vertical-center'>$13<br>with a<br>50% chance</div></div><div class='respDivL'><div class='vertical-center'>(E)</div></div><div class='respDivR'><div class='vertical-center'>(I)</div></div></div>","E","$6","$13","0","6","13","SURE"
"html-keyboard-response","108","136920","0.0-5.0-3.34","628419137c4c3ded72e4874d","bdp_rd","Mon Mar 27 2023 15:36:11 GMT-0700 (Pacific Daylight Time)","249489","","null","","","","offerFB","","<div class='trialBorder'><div class='vertical-center'><img style='vertical-align:center; align:center' src=img/fixation3.jpg></div><div class='cl'><div class='vertical-center'><font style='color:orange'>$6<br>for<br>sure</font></div></div><div class='cr'><div class='vertical-center'>$13<br>with a<br>50% chance</div></div><div class='respDivL'><div class='vertical-center'><font style='color:orange'>(E)</font></div></div><div class='respDivR'><div class='vertical-center'>(I)</div></div></div>","null","$6","$13","0","6","13",""
"html-keyboard-response","109","137422","0.0-5.0-1.35","628419137c4c3ded72e4874d","bdp_rd","Mon Mar 27 2023 15:36:11 GMT-0700 (Pacific Daylight Time)","249489","","null","","","","FIX","","<div class='trialBorder'><div class='vertical-center'><img style='vertical-align:center; align:center' src=img/fixation3.jpg></div></div>","null","","","","","",""
"html-keyboard-response","110","140810","0.0-5.0-2.35","628419137c4c3ded72e4874d","bdp_rd","Mon Mar 27 2023 15:36:11 GMT-0700 (Pacific Daylight Time)","249489","","3388","","","","offer","","<div class='trialBorder'><div class='vertical-center'><img style='vertical-align:center; align:center' src=img/fixation3.jpg></div><div class='cl'><div class='vertical-center'>$43<br>with a<br>50% chance</div></div><div class='cr'><div class='vertical-center'>$17<br>for<br>sure</div></div><div class='respDivL'><div class='vertical-center'>(E)</div></div><div class='respDivR'><div class='vertical-center'>(I)</div></div></div>","E","$17","$43","1","17","43","RISKY"
"html-keyboard-response","111","141062","0.0-5.0-3.35","628419137c4c3ded72e4874d","bdp_rd","Mon Mar 27 2023 15:36:11 GMT-0700 (Pacific Daylight Time)","249489","","null","","","","offerFB","","<div class='trialBorder'><div class='vertical-center'><img style='vertical-align:center; align:center' src=img/fixation3.jpg></div><div class='cl'><div class='vertical-center'><font style='color:orange'>$43<br>with a<br>50% chance</font></div></div><div class='cr'><div class='vertical-center'>$17<br>for<br>sure</div></div><div class='respDivL'><div class='vertical-center'><font style='color:orange'>(E)</font></div></div><div class='respDivR'><div class='vertical-center'>(I)</div></div></div>","null","$17","$43","1","17","43",""
"html-keyboard-response","112","141564","0.0-5.0-1.36","628419137c4c3ded72e4874d","bdp_rd","Mon Mar 27 2023 15:36:11 GMT-0700 (Pacific Daylight Time)","249489","","null","","","","FIX","","<div class='trialBorder'><div class='vertical-center'><img style='vertical-align:center; align:center' src=img/fixation3.jpg></div></div>","null","","","","","",""
"html-keyboard-response","113","146179","0.0-5.0-2.36","628419137c4c3ded72e4874d","bdp_rd","Mon Mar 27 2023 15:36:11 GMT-0700 (Pacific Daylight Time)","249489","","4615","","","","offer","","<div class='trialBorder'><div class='vertical-center'><img style='vertical-align:center; align:center' src=img/fixation3.jpg></div><div class='cl'><div class='vertical-center'>$18<br>for<br>sure</div></div><div class='cr'><div class='vertical-center'>$36<br>with a<br>50% chance</div></div><div class='respDivL'><div class='vertical-center'>(E)</div></div><div class='respDivR'><div class='vertical-center'>(I)</div></div></div>","I","$18","$36","0","18","36","RISKY"
"html-keyboard-response","114","146431","0.0-5.0-3.36","628419137c4c3ded72e4874d","bdp_rd","Mon Mar 27 2023 15:36:11 GMT-0700 (Pacific Daylight Time)","249489","","null","","","","offerFB","","<div class='trialBorder'><div class='vertical-center'><img style='vertical-align:center; align:center' src=img/fixation3.jpg></div><div class='cl'><div class='vertical-center'>$18<br>for<br>sure</div></div><div class='cr'><div class='vertical-center'><font style='color:orange'>$36<br>with a<br>50% chance</font></div></div><div class='respDivL'><div class='vertical-center'>(E)</div></div><div class='respDivR'><div class='vertical-center'><font style='color:orange'>(I)</font></div></div></div>","null","$18","$36","0","18","36",""
"html-keyboard-response","115","146932","0.0-5.0-1.37","628419137c4c3ded72e4874d","bdp_rd","Mon Mar 27 2023 15:36:11 GMT-0700 (Pacific Daylight Time)","249489","","null","","","","FIX","","<div class='trialBorder'><div class='vertical-center'><img style='vertical-align:center; align:center' src=img/fixation3.jpg></div></div>","null","","","","","",""
"html-keyboard-response","116","150906","0.0-5.0-2.37","628419137c4c3ded72e4874d","bdp_rd","Mon Mar 27 2023 15:36:11 GMT-0700 (Pacific Daylight Time)","249489","","3973","","","","offer","","<div class='trialBorder'><div class='vertical-center'><img style='vertical-align:center; align:center' src=img/fixation3.jpg></div><div class='cl'><div class='vertical-center'>$11<br>with a<br>50% chance</div></div><div class='cr'><div class='vertical-center'>$4<br>for<br>sure</div></div><div class='respDivL'><div class='vertical-center'>(E)</div></div><div class='respDivR'><div class='vertical-center'>(I)</div></div></div>","I","$4","$11","1","4","11","SURE"
"html-keyboard-response","117","151158","0.0-5.0-3.37","628419137c4c3ded72e4874d","bdp_rd","Mon Mar 27 2023 15:36:11 GMT-0700 (Pacific Daylight Time)","249489","","null","","","","offerFB","","<div class='trialBorder'><div class='vertical-center'><img style='vertical-align:center; align:center' src=img/fixation3.jpg></div><div class='cl'><div class='vertical-center'>$11<br>with a<br>50% chance</div></div><div class='cr'><div class='vertical-center'><font style='color:orange'>$4<br>for<br>sure</font></div></div><div class='respDivL'><div class='vertical-center'>(E)</div></div><div class='respDivR'><div class='vertical-center'><font style='color:orange'>(I)</font></div></div></div>","null","$4","$11","1","4","11",""
"html-keyboard-response","118","151660","0.0-5.0-1.38","628419137c4c3ded72e4874d","bdp_rd","Mon Mar 27 2023 15:36:11 GMT-0700 (Pacific Daylight Time)","249489","","null","","","","FIX","","<div class='trialBorder'><div class='vertical-center'><img style='vertical-align:center; align:center' src=img/fixation3.jpg></div></div>","null","","","","","",""
"html-keyboard-response","119","155817","0.0-5.0-2.38","628419137c4c3ded72e4874d","bdp_rd","Mon Mar 27 2023 15:36:11 GMT-0700 (Pacific Daylight Time)","249489","","4157","","","","offer","","<div class='trialBorder'><div class='vertical-center'><img style='vertical-align:center; align:center' src=img/fixation3.jpg></div><div class='cl'><div class='vertical-center'>$98<br>with a<br>50% chance</div></div><div class='cr'><div class='vertical-center'>$53<br>for<br>sure</div></div><div class='respDivL'><div class='vertical-center'>(E)</div></div><div class='respDivR'><div class='vertical-center'>(I)</div></div></div>","E","$53","$98","1","53","98","RISKY"
"html-keyboard-response","120","156069","0.0-5.0-3.38","628419137c4c3ded72e4874d","bdp_rd","Mon Mar 27 2023 15:36:11 GMT-0700 (Pacific Daylight Time)","249489","","null","","","","offerFB","","<div class='trialBorder'><div class='vertical-center'><img style='vertical-align:center; align:center' src=img/fixation3.jpg></div><div class='cl'><div class='vertical-center'><font style='color:orange'>$98<br>with a<br>50% chance</font></div></div><div class='cr'><div class='vertical-center'>$53<br>for<br>sure</div></div><div class='respDivL'><div class='vertical-center'><font style='color:orange'>(E)</font></div></div><div class='respDivR'><div class='vertical-center'>(I)</div></div></div>","null","$53","$98","1","53","98",""
"html-keyboard-response","121","156570","0.0-5.0-1.39","628419137c4c3ded72e4874d","bdp_rd","Mon Mar 27 2023 15:36:11 GMT-0700 (Pacific Daylight Time)","249489","","null","","","","FIX","","<div class='trialBorder'><div class='vertical-center'><img style='vertical-align:center; align:center' src=img/fixation3.jpg></div></div>","null","","","","","",""
"html-keyboard-response","122","170206","0.0-5.0-2.39","628419137c4c3ded72e4874d","bdp_rd","Mon Mar 27 2023 15:36:11 GMT-0700 (Pacific Daylight Time)","249489","","13635","","","","offer","","<div class='trialBorder'><div class='vertical-center'><img style='vertical-align:center; align:center' src=img/fixation3.jpg></div><div class='cl'><div class='vertical-center'>$39<br>with a<br>50% chance</div></div><div class='cr'><div class='vertical-center'>$18<br>for<br>sure</div></div><div class='respDivL'><div class='vertical-center'>(E)</div></div><div class='respDivR'><div class='vertical-center'>(I)</div></div></div>","I","$18","$39","1","18","39","SURE"
"html-keyboard-response","123","170459","0.0-5.0-3.39","628419137c4c3ded72e4874d","bdp_rd","Mon Mar 27 2023 15:36:11 GMT-0700 (Pacific Daylight Time)","249489","","null","","","","offerFB","","<div class='trialBorder'><div class='vertical-center'><img style='vertical-align:center; align:center' src=img/fixation3.jpg></div><div class='cl'><div class='vertical-center'>$39<br>with a<br>50% chance</div></div><div class='cr'><div class='vertical-center'><font style='color:orange'>$18<br>for<br>sure</font></div></div><div class='respDivL'><div class='vertical-center'>(E)</div></div><div class='respDivR'><div class='vertical-center'><font style='color:orange'>(I)</font></div></div></div>","null","$18","$39","1","18","39",""
"html-keyboard-response","124","170961","0.0-5.0-1.40","628419137c4c3ded72e4874d","bdp_rd","Mon Mar 27 2023 15:36:11 GMT-0700 (Pacific Daylight Time)","249489","","null","","","","FIX","","<div class='trialBorder'><div class='vertical-center'><img style='vertical-align:center; align:center' src=img/fixation3.jpg></div></div>","null","","","","","",""
"html-keyboard-response","125","174482","0.0-5.0-2.40","628419137c4c3ded72e4874d","bdp_rd","Mon Mar 27 2023 15:36:11 GMT-0700 (Pacific Daylight Time)","249489","","3519","","","","offer","","<div class='trialBorder'><div class='vertical-center'><img style='vertical-align:center; align:center' src=img/fixation3.jpg></div><div class='cl'><div class='vertical-center'>$24<br>for<br>sure</div></div><div class='cr'><div class='vertical-center'>$70<br>with a<br>50% chance</div></div><div class='respDivL'><div class='vertical-center'>(E)</div></div><div class='respDivR'><div class='vertical-center'>(I)</div></div></div>","I","$24","$70","0","24","70","RISKY"
"html-keyboard-response","126","174734","0.0-5.0-3.40","628419137c4c3ded72e4874d","bdp_rd","Mon Mar 27 2023 15:36:11 GMT-0700 (Pacific Daylight Time)","249489","","null","","","","offerFB","","<div class='trialBorder'><div class='vertical-center'><img style='vertical-align:center; align:center' src=img/fixation3.jpg></div><div class='cl'><div class='vertical-center'>$24<br>for<br>sure</div></div><div class='cr'><div class='vertical-center'><font style='color:orange'>$70<br>with a<br>50% chance</font></div></div><div class='respDivL'><div class='vertical-center'>(E)</div></div><div class='respDivR'><div class='vertical-center'><font style='color:orange'>(I)</font></div></div></div>","null","$24","$70","0","24","70",""
"html-keyboard-response","127","175235","0.0-5.0-1.41","628419137c4c3ded72e4874d","bdp_rd","Mon Mar 27 2023 15:36:11 GMT-0700 (Pacific Daylight Time)","249489","","null","","","","FIX","","<div class='trialBorder'><div class='vertical-center'><img style='vertical-align:center; align:center' src=img/fixation3.jpg></div></div>","null","","","","","",""
"html-keyboard-response","128","180500","0.0-5.0-2.41","628419137c4c3ded72e4874d","bdp_rd","Mon Mar 27 2023 15:36:11 GMT-0700 (Pacific Daylight Time)","249489","","5264","","","","offer","","<div class='trialBorder'><div class='vertical-center'><img style='vertical-align:center; align:center' src=img/fixation3.jpg></div><div class='cl'><div class='vertical-center'>$13<br>for<br>sure</div></div><div class='cr'><div class='vertical-center'>$41<br>with a<br>50% chance</div></div><div class='respDivL'><div class='vertical-center'>(E)</div></div><div class='respDivR'><div class='vertical-center'>(I)</div></div></div>","E","$13","$41","0","13","41","SURE"
"html-keyboard-response","129","180752","0.0-5.0-3.41","628419137c4c3ded72e4874d","bdp_rd","Mon Mar 27 2023 15:36:11 GMT-0700 (Pacific Daylight Time)","249489","","null","","","","offerFB","","<div class='trialBorder'><div class='vertical-center'><img style='vertical-align:center; align:center' src=img/fixation3.jpg></div><div class='cl'><div class='vertical-center'><font style='color:orange'>$13<br>for<br>sure</font></div></div><div class='cr'><div class='vertical-center'>$41<br>with a<br>50% chance</div></div><div class='respDivL'><div class='vertical-center'><font style='color:orange'>(E)</font></div></div><div class='respDivR'><div class='vertical-center'>(I)</div></div></div>","null","$13","$41","0","13","41",""
"html-keyboard-response","130","181253","0.0-5.0-1.42","628419137c4c3ded72e4874d","bdp_rd","Mon Mar 27 2023 15:36:11 GMT-0700 (Pacific Daylight Time)","249489","","null","","","","FIX","","<div class='trialBorder'><div class='vertical-center'><img style='vertical-align:center; align:center' src=img/fixation3.jpg></div></div>","null","","","","","",""
"html-keyboard-response","131","188400","0.0-5.0-2.42","628419137c4c3ded72e4874d","bdp_rd","Mon Mar 27 2023 15:36:11 GMT-0700 (Pacific Daylight Time)","249489","","7146","","","","offer","","<div class='trialBorder'><div class='vertical-center'><img style='vertical-align:center; align:center' src=img/fixation3.jpg></div><div class='cl'><div class='vertical-center'>$78<br>with a<br>50% chance</div></div><div class='cr'><div class='vertical-center'>$31<br>for<br>sure</div></div><div class='respDivL'><div class='vertical-center'>(E)</div></div><div class='respDivR'><div class='vertical-center'>(I)</div></div></div>","E","$31","$78","1","31","78","RISKY"
"html-keyboard-response","132","188652","0.0-5.0-3.42","628419137c4c3ded72e4874d","bdp_rd","Mon Mar 27 2023 15:36:11 GMT-0700 (Pacific Daylight Time)","249489","","null","","","","offerFB","","<div class='trialBorder'><div class='vertical-center'><img style='vertical-align:center; align:center' src=img/fixation3.jpg></div><div class='cl'><div class='vertical-center'><font style='color:orange'>$78<br>with a<br>50% chance</font></div></div><div class='cr'><div class='vertical-center'>$31<br>for<br>sure</div></div><div class='respDivL'><div class='vertical-center'><font style='color:orange'>(E)</font></div></div><div class='respDivR'><div class='vertical-center'>(I)</div></div></div>","null","$31","$78","1","31","78",""
"html-keyboard-response","133","189154","0.0-5.0-1.43","628419137c4c3ded72e4874d","bdp_rd","Mon Mar 27 2023 15:36:11 GMT-0700 (Pacific Daylight Time)","249489","","null","","","","FIX","","<div class='trialBorder'><div class='vertical-center'><img style='vertical-align:center; align:center' src=img/fixation3.jpg></div></div>","null","","","","","",""
"html-keyboard-response","134","192554","0.0-5.0-2.43","628419137c4c3ded72e4874d","bdp_rd","Mon Mar 27 2023 15:36:11 GMT-0700 (Pacific Daylight Time)","249489","","3399","","","","offer","","<div class='trialBorder'><div class='vertical-center'><img style='vertical-align:center; align:center' src=img/fixation3.jpg></div><div class='cl'><div class='vertical-center'>$68<br>with a<br>50% chance</div></div><div class='cr'><div class='vertical-center'>$30<br>for<br>sure</div></div><div class='respDivL'><div class='vertical-center'>(E)</div></div><div class='respDivR'><div class='vertical-center'>(I)</div></div></div>","E","$30","$68","1","30","68","RISKY"
"html-keyboard-response","135","192806","0.0-5.0-3.43","628419137c4c3ded72e4874d","bdp_rd","Mon Mar 27 2023 15:36:11 GMT-0700 (Pacific Daylight Time)","249489","","null","","","","offerFB","","<div class='trialBorder'><div class='vertical-center'><img style='vertical-align:center; align:center' src=img/fixation3.jpg></div><div class='cl'><div class='vertical-center'><font style='color:orange'>$68<br>with a<br>50% chance</font></div></div><div class='cr'><div class='vertical-center'>$30<br>for<br>sure</div></div><div class='respDivL'><div class='vertical-center'><font style='color:orange'>(E)</font></div></div><div class='respDivR'><div class='vertical-center'>(I)</div></div></div>","null","$30","$68","1","30","68",""
"html-keyboard-response","136","193307","0.0-5.0-1.44","628419137c4c3ded72e4874d","bdp_rd","Mon Mar 27 2023 15:36:11 GMT-0700 (Pacific Daylight Time)","249489","","null","","","","FIX","","<div class='trialBorder'><div class='vertical-center'><img style='vertical-align:center; align:center' src=img/fixation3.jpg></div></div>","null","","","","","",""
"html-keyboard-response","137","201927","0.0-5.0-2.44","628419137c4c3ded72e4874d","bdp_rd","Mon Mar 27 2023 15:36:11 GMT-0700 (Pacific Daylight Time)","249489","","8619","","","","offer","","<div class='trialBorder'><div class='vertical-center'><img style='vertical-align:center; align:center' src=img/fixation3.jpg></div><div class='cl'><div class='vertical-center'>$30<br>with a<br>50% chance</div></div><div class='cr'><div class='vertical-center'>$1<br>for<br>sure</div></div><div class='respDivL'><div class='vertical-center'>(E)</div></div><div class='respDivR'><div class='vertical-center'>(I)</div></div></div>","E","$1","$30","1","1","30","RISKY"
"html-keyboard-response","138","202180","0.0-5.0-3.44","628419137c4c3ded72e4874d","bdp_rd","Mon Mar 27 2023 15:36:11 GMT-0700 (Pacific Daylight Time)","249489","","null","","","","offerFB","","<div class='trialBorder'><div class='vertical-center'><img style='vertical-align:center; align:center' src=img/fixation3.jpg></div><div class='cl'><div class='vertical-center'><font style='color:orange'>$30<br>with a<br>50% chance</font></div></div><div class='cr'><div class='vertical-center'>$1<br>for<br>sure</div></div><div class='respDivL'><div class='vertical-center'><font style='color:orange'>(E)</font></div></div><div class='respDivR'><div class='vertical-center'>(I)</div></div></div>","null","$1","$30","1","1","30",""
"html-keyboard-response","139","202682","0.0-5.0-1.45","628419137c4c3ded72e4874d","bdp_rd","Mon Mar 27 2023 15:36:11 GMT-0700 (Pacific Daylight Time)","249489","","null","","","","FIX","","<div class='trialBorder'><div class='vertical-center'><img style='vertical-align:center; align:center' src=img/fixation3.jpg></div></div>","null","","","","","",""
"html-keyboard-response","140","203877","0.0-5.0-2.45","628419137c4c3ded72e4874d","bdp_rd","Mon Mar 27 2023 15:36:11 GMT-0700 (Pacific Daylight Time)","249489","","1194","","","","offer","","<div class='trialBorder'><div class='vertical-center'><img style='vertical-align:center; align:center' src=img/fixation3.jpg></div><div class='cl'><div class='vertical-center'>$18<br>with a<br>50% chance</div></div><div class='cr'><div class='vertical-center'>$9<br>for<br>sure</div></div><div class='respDivL'><div class='vertical-center'>(E)</div></div><div class='respDivR'><div class='vertical-center'>(I)</div></div></div>","I","$9","$18","1","9","18","SURE"
"html-keyboard-response","141","204129","0.0-5.0-3.45","628419137c4c3ded72e4874d","bdp_rd","Mon Mar 27 2023 15:36:11 GMT-0700 (Pacific Daylight Time)","249489","","null","","","","offerFB","","<div class='trialBorder'><div class='vertical-center'><img style='vertical-align:center; align:center' src=img/fixation3.jpg></div><div class='cl'><div class='vertical-center'>$18<br>with a<br>50% chance</div></div><div class='cr'><div class='vertical-center'><font style='color:orange'>$9<br>for<br>sure</font></div></div><div class='respDivL'><div class='vertical-center'>(E)</div></div><div class='respDivR'><div class='vertical-center'><font style='color:orange'>(I)</font></div></div></div>","null","$9","$18","1","9","18",""
"html-keyboard-response","142","204631","0.0-5.0-1.46","628419137c4c3ded72e4874d","bdp_rd","Mon Mar 27 2023 15:36:11 GMT-0700 (Pacific Daylight Time)","249489","","null","","","","FIX","","<div class='trialBorder'><div class='vertical-center'><img style='vertical-align:center; align:center' src=img/fixation3.jpg></div></div>","null","","","","","",""
"html-keyboard-response","143","206186","0.0-5.0-2.46","628419137c4c3ded72e4874d","bdp_rd","Mon Mar 27 2023 15:36:11 GMT-0700 (Pacific Daylight Time)","249489","","1555","","","","offer","","<div class='trialBorder'><div class='vertical-center'><img style='vertical-align:center; align:center' src=img/fixation3.jpg></div><div class='cl'><div class='vertical-center'>$31<br>with a<br>50% chance</div></div><div class='cr'><div class='vertical-center'>$15<br>for<br>sure</div></div><div class='respDivL'><div class='vertical-center'>(E)</div></div><div class='respDivR'><div class='vertical-center'>(I)</div></div></div>","I","$15","$31","1","15","31","SURE"
"html-keyboard-response","144","206438","0.0-5.0-3.46","628419137c4c3ded72e4874d","bdp_rd","Mon Mar 27 2023 15:36:11 GMT-0700 (Pacific Daylight Time)","249489","","null","","","","offerFB","","<div class='trialBorder'><div class='vertical-center'><img style='vertical-align:center; align:center' src=img/fixation3.jpg></div><div class='cl'><div class='vertical-center'>$31<br>with a<br>50% chance</div></div><div class='cr'><div class='vertical-center'><font style='color:orange'>$15<br>for<br>sure</font></div></div><div class='respDivL'><div class='vertical-center'>(E)</div></div><div class='respDivR'><div class='vertical-center'><font style='color:orange'>(I)</font></div></div></div>","null","$15","$31","1","15","31",""
"html-keyboard-response","145","206940","0.0-5.0-1.47","628419137c4c3ded72e4874d","bdp_rd","Mon Mar 27 2023 15:36:11 GMT-0700 (Pacific Daylight Time)","249489","","null","","","","FIX","","<div class='trialBorder'><div class='vertical-center'><img style='vertical-align:center; align:center' src=img/fixation3.jpg></div></div>","null","","","","","",""
"html-keyboard-response","146","208927","0.0-5.0-2.47","628419137c4c3ded72e4874d","bdp_rd","Mon Mar 27 2023 15:36:11 GMT-0700 (Pacific Daylight Time)","249489","","1985","","","","offer","","<div class='trialBorder'><div class='vertical-center'><img style='vertical-align:center; align:center' src=img/fixation3.jpg></div><div class='cl'><div class='vertical-center'>$21<br>with a<br>50% chance</div></div><div class='cr'><div class='vertical-center'>$2<br>for<br>sure</div></div><div class='respDivL'><div class='vertical-center'>(E)</div></div><div class='respDivR'><div class='vertical-center'>(I)</div></div></div>","E","$2","$21","1","2","21","RISKY"
"html-keyboard-response","147","209178","0.0-5.0-3.47","628419137c4c3ded72e4874d","bdp_rd","Mon Mar 27 2023 15:36:11 GMT-0700 (Pacific Daylight Time)","249489","","null","","","","offerFB","","<div class='trialBorder'><div class='vertical-center'><img style='vertical-align:center; align:center' src=img/fixation3.jpg></div><div class='cl'><div class='vertical-center'><font style='color:orange'>$21<br>with a<br>50% chance</font></div></div><div class='cr'><div class='vertical-center'>$2<br>for<br>sure</div></div><div class='respDivL'><div class='vertical-center'><font style='color:orange'>(E)</font></div></div><div class='respDivR'><div class='vertical-center'>(I)</div></div></div>","null","$2","$21","1","2","21",""
"html-keyboard-response","148","209680","0.0-5.0-1.48","628419137c4c3ded72e4874d","bdp_rd","Mon Mar 27 2023 15:36:11 GMT-0700 (Pacific Daylight Time)","249489","","null","","","","FIX","","<div class='trialBorder'><div class='vertical-center'><img style='vertical-align:center; align:center' src=img/fixation3.jpg></div></div>","null","","","","","",""
"html-keyboard-response","149","212470","0.0-5.0-2.48","628419137c4c3ded72e4874d","bdp_rd","Mon Mar 27 2023 15:36:11 GMT-0700 (Pacific Daylight Time)","249489","","2788","","","","offer","","<div class='trialBorder'><div class='vertical-center'><img style='vertical-align:center; align:center' src=img/fixation3.jpg></div><div class='cl'><div class='vertical-center'>$81<br>with a<br>50% chance</div></div><div class='cr'><div class='vertical-center'>$39<br>for<br>sure</div></div><div class='respDivL'><div class='vertical-center'>(E)</div></div><div class='respDivR'><div class='vertical-center'>(I)</div></div></div>","E","$39","$81","1","39","81","RISKY"
"html-keyboard-response","150","212722","0.0-5.0-3.48","628419137c4c3ded72e4874d","bdp_rd","Mon Mar 27 2023 15:36:11 GMT-0700 (Pacific Daylight Time)","249489","","null","","","","offerFB","","<div class='trialBorder'><div class='vertical-center'><img style='vertical-align:center; align:center' src=img/fixation3.jpg></div><div class='cl'><div class='vertical-center'><font style='color:orange'>$81<br>with a<br>50% chance</font></div></div><div class='cr'><div class='vertical-center'>$39<br>for<br>sure</div></div><div class='respDivL'><div class='vertical-center'><font style='color:orange'>(E)</font></div></div><div class='respDivR'><div class='vertical-center'>(I)</div></div></div>","null","$39","$81","1","39","81",""
"html-keyboard-response","151","213223","0.0-5.0-1.49","628419137c4c3ded72e4874d","bdp_rd","Mon Mar 27 2023 15:36:11 GMT-0700 (Pacific Daylight Time)","249489","","null","","","","FIX","","<div class='trialBorder'><div class='vertical-center'><img style='vertical-align:center; align:center' src=img/fixation3.jpg></div></div>","null","","","","","",""
"html-keyboard-response","152","216203","0.0-5.0-2.49","628419137c4c3ded72e4874d","bdp_rd","Mon Mar 27 2023 15:36:11 GMT-0700 (Pacific Daylight Time)","249489","","2979","","","","offer","","<div class='trialBorder'><div class='vertical-center'><img style='vertical-align:center; align:center' src=img/fixation3.jpg></div><div class='cl'><div class='vertical-center'>$27<br>with a<br>50% chance</div></div><div class='cr'><div class='vertical-center'>$12<br>for<br>sure</div></div><div class='respDivL'><div class='vertical-center'>(E)</div></div><div class='respDivR'><div class='vertical-center'>(I)</div></div></div>","E","$12","$27","1","12","27","RISKY"
"html-keyboard-response","153","216455","0.0-5.0-3.49","628419137c4c3ded72e4874d","bdp_rd","Mon Mar 27 2023 15:36:11 GMT-0700 (Pacific Daylight Time)","249489","","null","","","","offerFB","","<div class='trialBorder'><div class='vertical-center'><img style='vertical-align:center; align:center' src=img/fixation3.jpg></div><div class='cl'><div class='vertical-center'><font style='color:orange'>$27<br>with a<br>50% chance</font></div></div><div class='cr'><div class='vertical-center'>$12<br>for<br>sure</div></div><div class='respDivL'><div class='vertical-center'><font style='color:orange'>(E)</font></div></div><div class='respDivR'><div class='vertical-center'>(I)</div></div></div>","null","$12","$27","1","12","27",""
"html-keyboard-response","154","216965","0.0-5.0-1.50","628419137c4c3ded72e4874d","bdp_rd","Mon Mar 27 2023 15:36:11 GMT-0700 (Pacific Daylight Time)","249489","","null","","","","FIX","","<div class='trialBorder'><div class='vertical-center'><img style='vertical-align:center; align:center' src=img/fixation3.jpg></div></div>","null","","","","","",""
"html-keyboard-response","155","218593","0.0-5.0-2.50","628419137c4c3ded72e4874d","bdp_rd","Mon Mar 27 2023 15:36:11 GMT-0700 (Pacific Daylight Time)","249489","","1627","","","","offer","","<div class='trialBorder'><div class='vertical-center'><img style='vertical-align:center; align:center' src=img/fixation3.jpg></div><div class='cl'><div class='vertical-center'>$3<br>for<br>sure</div></div><div class='cr'><div class='vertical-center'>$12<br>with a<br>50% chance</div></div><div class='respDivL'><div class='vertical-center'>(E)</div></div><div class='respDivR'><div class='vertical-center'>(I)</div></div></div>","I","$3","$12","0","3","12","RISKY"
"html-keyboard-response","156","218845","0.0-5.0-3.50","628419137c4c3ded72e4874d","bdp_rd","Mon Mar 27 2023 15:36:11 GMT-0700 (Pacific Daylight Time)","249489","","null","","","","offerFB","","<div class='trialBorder'><div class='vertical-center'><img style='vertical-align:center; align:center' src=img/fixation3.jpg></div><div class='cl'><div class='vertical-center'>$3<br>for<br>sure</div></div><div class='cr'><div class='vertical-center'><font style='color:orange'>$12<br>with a<br>50% chance</font></div></div><div class='respDivL'><div class='vertical-center'>(E)</div></div><div class='respDivR'><div class='vertical-center'><font style='color:orange'>(I)</font></div></div></div>","null","$3","$12","0","3","12",""
"html-keyboard-response","157","219347","0.0-5.0-1.51","628419137c4c3ded72e4874d","bdp_rd","Mon Mar 27 2023 15:36:11 GMT-0700 (Pacific Daylight Time)","249489","","null","","","","FIX","","<div class='trialBorder'><div class='vertical-center'><img style='vertical-align:center; align:center' src=img/fixation3.jpg></div></div>","null","","","","","",""
"html-keyboard-response","158","220848","0.0-5.0-2.51","628419137c4c3ded72e4874d","bdp_rd","Mon Mar 27 2023 15:36:11 GMT-0700 (Pacific Daylight Time)","249489","","1500","","","","offer","","<div class='trialBorder'><div class='vertical-center'><img style='vertical-align:center; align:center' src=img/fixation3.jpg></div><div class='cl'><div class='vertical-center'>$64<br>with a<br>50% chance</div></div><div class='cr'><div class='vertical-center'>$2<br>for<br>sure</div></div><div class='respDivL'><div class='vertical-center'>(E)</div></div><div class='respDivR'><div class='vertical-center'>(I)</div></div></div>","I","$2","$64","1","2","64","SURE"
"html-keyboard-response","159","221100","0.0-5.0-3.51","628419137c4c3ded72e4874d","bdp_rd","Mon Mar 27 2023 15:36:11 GMT-0700 (Pacific Daylight Time)","249489","","null","","","","offerFB","","<div class='trialBorder'><div class='vertical-center'><img style='vertical-align:center; align:center' src=img/fixation3.jpg></div><div class='cl'><div class='vertical-center'>$64<br>with a<br>50% chance</div></div><div class='cr'><div class='vertical-center'><font style='color:orange'>$2<br>for<br>sure</font></div></div><div class='respDivL'><div class='vertical-center'>(E)</div></div><div class='respDivR'><div class='vertical-center'><font style='color:orange'>(I)</font></div></div></div>","null","$2","$64","1","2","64",""
"html-keyboard-response","160","221603","0.0-5.0-1.52","628419137c4c3ded72e4874d","bdp_rd","Mon Mar 27 2023 15:36:11 GMT-0700 (Pacific Daylight Time)","249489","","null","","","","FIX","","<div class='trialBorder'><div class='vertical-center'><img style='vertical-align:center; align:center' src=img/fixation3.jpg></div></div>","null","","","","","",""
"html-keyboard-response","161","224087","0.0-5.0-2.52","628419137c4c3ded72e4874d","bdp_rd","Mon Mar 27 2023 15:36:11 GMT-0700 (Pacific Daylight Time)","249489","","2484","","","","offer","","<div class='trialBorder'><div class='vertical-center'><img style='vertical-align:center; align:center' src=img/fixation3.jpg></div><div class='cl'><div class='vertical-center'>$69<br>with a<br>50% chance</div></div><div class='cr'><div class='vertical-center'>$58<br>for<br>sure</div></div><div class='respDivL'><div class='vertical-center'>(E)</div></div><div class='respDivR'><div class='vertical-center'>(I)</div></div></div>","I","$58","$69","1","58","69","SURE"
"html-keyboard-response","162","224340","0.0-5.0-3.52","628419137c4c3ded72e4874d","bdp_rd","Mon Mar 27 2023 15:36:11 GMT-0700 (Pacific Daylight Time)","249489","","null","","","","offerFB","","<div class='trialBorder'><div class='vertical-center'><img style='vertical-align:center; align:center' src=img/fixation3.jpg></div><div class='cl'><div class='vertical-center'>$69<br>with a<br>50% chance</div></div><div class='cr'><div class='vertical-center'><font style='color:orange'>$58<br>for<br>sure</font></div></div><div class='respDivL'><div class='vertical-center'>(E)</div></div><div class='respDivR'><div class='vertical-center'><font style='color:orange'>(I)</font></div></div></div>","null","$58","$69","1","58","69",""
"html-keyboard-response","163","224842","0.0-5.0-1.53","628419137c4c3ded72e4874d","bdp_rd","Mon Mar 27 2023 15:36:11 GMT-0700 (Pacific Daylight Time)","249489","","null","","","","FIX","","<div class='trialBorder'><div class='vertical-center'><img style='vertical-align:center; align:center' src=img/fixation3.jpg></div></div>","null","","","","","",""
"html-keyboard-response","164","226658","0.0-5.0-2.53","628419137c4c3ded72e4874d","bdp_rd","Mon Mar 27 2023 15:36:11 GMT-0700 (Pacific Daylight Time)","249489","","1815","","","","offer","","<div class='trialBorder'><div class='vertical-center'><img style='vertical-align:center; align:center' src=img/fixation3.jpg></div><div class='cl'><div class='vertical-center'>$6<br>for<br>sure</div></div><div class='cr'><div class='vertical-center'>$15<br>with a<br>50% chance</div></div><div class='respDivL'><div class='vertical-center'>(E)</div></div><div class='respDivR'><div class='vertical-center'>(I)</div></div></div>","E","$6","$15","0","6","15","SURE"
"html-keyboard-response","165","226911","0.0-5.0-3.53","628419137c4c3ded72e4874d","bdp_rd","Mon Mar 27 2023 15:36:11 GMT-0700 (Pacific Daylight Time)","249489","","null","","","","offerFB","","<div class='trialBorder'><div class='vertical-center'><img style='vertical-align:center; align:center' src=img/fixation3.jpg></div><div class='cl'><div class='vertical-center'><font style='color:orange'>$6<br>for<br>sure</font></div></div><div class='cr'><div class='vertical-center'>$15<br>with a<br>50% chance</div></div><div class='respDivL'><div class='vertical-center'><font style='color:orange'>(E)</font></div></div><div class='respDivR'><div class='vertical-center'>(I)</div></div></div>","null","$6","$15","0","6","15",""
"html-keyboard-response","166","227413","0.0-5.0-1.54","628419137c4c3ded72e4874d","bdp_rd","Mon Mar 27 2023 15:36:11 GMT-0700 (Pacific Daylight Time)","249489","","null","","","","FIX","","<div class='trialBorder'><div class='vertical-center'><img style='vertical-align:center; align:center' src=img/fixation3.jpg></div></div>","null","","","","","",""
"html-keyboard-response","167","229264","0.0-5.0-2.54","628419137c4c3ded72e4874d","bdp_rd","Mon Mar 27 2023 15:36:11 GMT-0700 (Pacific Daylight Time)","249489","","1850","","","","offer","","<div class='trialBorder'><div class='vertical-center'><img style='vertical-align:center; align:center' src=img/fixation3.jpg></div><div class='cl'><div class='vertical-center'>$35<br>with a<br>50% chance</div></div><div class='cr'><div class='vertical-center'>$12<br>for<br>sure</div></div><div class='respDivL'><div class='vertical-center'>(E)</div></div><div class='respDivR'><div class='vertical-center'>(I)</div></div></div>","E","$12","$35","1","12","35","RISKY"
"html-keyboard-response","168","229516","0.0-5.0-3.54","628419137c4c3ded72e4874d","bdp_rd","Mon Mar 27 2023 15:36:11 GMT-0700 (Pacific Daylight Time)","249489","","null","","","","offerFB","","<div class='trialBorder'><div class='vertical-center'><img style='vertical-align:center; align:center' src=img/fixation3.jpg></div><div class='cl'><div class='vertical-center'><font style='color:orange'>$35<br>with a<br>50% chance</font></div></div><div class='cr'><div class='vertical-center'>$12<br>for<br>sure</div></div><div class='respDivL'><div class='vertical-center'><font style='color:orange'>(E)</font></div></div><div class='respDivR'><div class='vertical-center'>(I)</div></div></div>","null","$12","$35","1","12","35",""
"html-keyboard-response","169","230017","0.0-5.0-1.55","628419137c4c3ded72e4874d","bdp_rd","Mon Mar 27 2023 15:36:11 GMT-0700 (Pacific Daylight Time)","249489","","null","","","","FIX","","<div class='trialBorder'><div class='vertical-center'><img style='vertical-align:center; align:center' src=img/fixation3.jpg></div></div>","null","","","","","",""
"html-keyboard-response","170","232439","0.0-5.0-2.55","628419137c4c3ded72e4874d","bdp_rd","Mon Mar 27 2023 15:36:11 GMT-0700 (Pacific Daylight Time)","249489","","2421","","","","offer","","<div class='trialBorder'><div class='vertical-center'><img style='vertical-align:center; align:center' src=img/fixation3.jpg></div><div class='cl'><div class='vertical-center'>$34<br>with a<br>50% chance</div></div><div class='cr'><div class='vertical-center'>$15<br>for<br>sure</div></div><div class='respDivL'><div class='vertical-center'>(E)</div></div><div class='respDivR'><div class='vertical-center'>(I)</div></div></div>","I","$15","$34","1","15","34","SURE"
"html-keyboard-response","171","232691","0.0-5.0-3.55","628419137c4c3ded72e4874d","bdp_rd","Mon Mar 27 2023 15:36:11 GMT-0700 (Pacific Daylight Time)","249489","","null","","","","offerFB","","<div class='trialBorder'><div class='vertical-center'><img style='vertical-align:center; align:center' src=img/fixation3.jpg></div><div class='cl'><div class='vertical-center'>$34<br>with a<br>50% chance</div></div><div class='cr'><div class='vertical-center'><font style='color:orange'>$15<br>for<br>sure</font></div></div><div class='respDivL'><div class='vertical-center'>(E)</div></div><div class='respDivR'><div class='vertical-center'><font style='color:orange'>(I)</font></div></div></div>","null","$15","$34","1","15","34",""
"html-keyboard-response","172","233192","0.0-5.0-1.56","628419137c4c3ded72e4874d","bdp_rd","Mon Mar 27 2023 15:36:11 GMT-0700 (Pacific Daylight Time)","249489","","null","","","","FIX","","<div class='trialBorder'><div class='vertical-center'><img style='vertical-align:center; align:center' src=img/fixation3.jpg></div></div>","null","","","","","",""
"html-keyboard-response","173","234939","0.0-5.0-2.56","628419137c4c3ded72e4874d","bdp_rd","Mon Mar 27 2023 15:36:11 GMT-0700 (Pacific Daylight Time)","249489","","1746","","","","offer","","<div class='trialBorder'><div class='vertical-center'><img style='vertical-align:center; align:center' src=img/fixation3.jpg></div><div class='cl'><div class='vertical-center'>$14<br>for<br>sure</div></div><div class='cr'><div class='vertical-center'>$22<br>with a<br>50% chance</div></div><div class='respDivL'><div class='vertical-center'>(E)</div></div><div class='respDivR'><div class='vertical-center'>(I)</div></div></div>","E","$14","$22","0","14","22","SURE"
