"trial_type","trial_index","time_elapsed","internal_node_id","subject_id","task","startTime","totalTime","view_history","rt","event","trial","time","trialtype","success","stimulus","key_press","sureOffer","riskyOffer","riskyLeft","sureAmt","riskyAmt","chosen"
"pavlovia","0","2","0.0-0.0","631ce86c7a3ce20f628bae05","bdp_rd","Wed Apr 12 2023 19:16:12 GMT-0400 (Eastern Daylight Time)","164906","","","","","","","","","","","","","","",""
"instructions","1","1190","0.0-1.0","631ce86c7a3ce20f628bae05","bdp_rd","Wed Apr 12 2023 19:16:12 GMT-0400 (Eastern Daylight Time)","164906","[{""page_index"":0,""viewing_time"":1188}]","1188","","","","","","","","","","","","",""
"","","","","631ce86c7a3ce20f628bae05","bdp_rd","Wed Apr 12 2023 19:16:12 GMT-0400 (Eastern Daylight Time)","164906","","","fullscreenenter","2","3587","fullscreenenter","","","","","","","","",""
"fullscreen","2","4541","0.0-2.0","631ce86c7a3ce20f628bae05","bdp_rd","Wed Apr 12 2023 19:16:12 GMT-0400 (Eastern Daylight Time)","164906","","","","","","","true","","","","","","","",""
"instructions","3","15093","0.0-4.0","631ce86c7a3ce20f628bae05","bdp_rd","Wed Apr 12 2023 19:16:12 GMT-0400 (Eastern Daylight Time)","164906","[{""page_index"":0,""viewing_time"":4615},{""page_index"":1,""viewing_time"":2368},{""page_index"":2,""viewing_time"":3568}]","10551","","","","","","","","","","","","",""
"html-keyboard-response","4","15595","0.0-5.0-1.0","631ce86c7a3ce20f628bae05","bdp_rd","Wed Apr 12 2023 19:16:12 GMT-0400 (Eastern Daylight Time)","164906","","null","","","","FIX","","<div class='trialBorder'><div class='vertical-center'><img style='vertical-align:center; align:center' src=img/fixation3.jpg></div></div>","null","","","","","",""
"html-keyboard-response","5","18933","0.0-5.0-2.0","631ce86c7a3ce20f628bae05","bdp_rd","Wed Apr 12 2023 19:16:12 GMT-0400 (Eastern Daylight Time)","164906","","3337","","","","offer","","<div class='trialBorder'><div class='vertical-center'><img style='vertical-align:center; align:center' src=img/fixation3.jpg></div><div class='cl'><div class='vertical-center'>$45<br>for<br>sure</div></div><div class='cr'><div class='vertical-center'>$86<br>with a<br>50% chance</div></div><div class='respDivL'><div class='vertical-center'>(E)</div></div><div class='respDivR'><div class='vertical-center'>(I)</div></div></div>","E","$45","$86","0","45","86","SURE"
"html-keyboard-response","6","19185","0.0-5.0-3.0","631ce86c7a3ce20f628bae05","bdp_rd","Wed Apr 12 2023 19:16:12 GMT-0400 (Eastern Daylight Time)","164906","","null","","","","offerFB","","<div class='trialBorder'><div class='vertical-center'><img style='vertical-align:center; align:center' src=img/fixation3.jpg></div><div class='cl'><div class='vertical-center'><font style='color:orange'>$45<br>for<br>sure</font></div></div><div class='cr'><div class='vertical-center'>$86<br>with a<br>50% chance</div></div><div class='respDivL'><div class='vertical-center'><font style='color:orange'>(E)</font></div></div><div class='respDivR'><div class='vertical-center'>(I)</div></div></div>","null","$45","$86","0","45","86",""
"html-keyboard-response","7","19687","0.0-5.0-1.1","631ce86c7a3ce20f628bae05","bdp_rd","Wed Apr 12 2023 19:16:12 GMT-0400 (Eastern Daylight Time)","164906","","null","","","","FIX","","<div class='trialBorder'><div class='vertical-center'><img style='vertical-align:center; align:center' src=img/fixation3.jpg></div></div>","null","","","","","",""
"html-keyboard-response","8","22806","0.0-5.0-2.1","631ce86c7a3ce20f628bae05","bdp_rd","Wed Apr 12 2023 19:16:12 GMT-0400 (Eastern Daylight Time)","164906","","3118","","","","offer","","<div class='trialBorder'><div class='vertical-center'><img style='vertical-align:center; align:center' src=img/fixation3.jpg></div><div class='cl'><div class='vertical-center'>$39<br>with a<br>50% chance</div></div><div class='cr'><div class='vertical-center'>$18<br>for<br>sure</div></div><div class='respDivL'><div class='vertical-center'>(E)</div></div><div class='respDivR'><div class='vertical-center'>(I)</div></div></div>","I","$18","$39","1","18","39","SURE"
"html-keyboard-response","9","23057","0.0-5.0-3.1","631ce86c7a3ce20f628bae05","bdp_rd","Wed Apr 12 2023 19:16:12 GMT-0400 (Eastern Daylight Time)","164906","","null","","","","offerFB","","<div class='trialBorder'><div class='vertical-center'><img style='vertical-align:center; align:center' src=img/fixation3.jpg></div><div class='cl'><div class='vertical-center'>$39<br>with a<br>50% chance</div></div><div class='cr'><div class='vertical-center'><font style='color:orange'>$18<br>for<br>sure</font></div></div><div class='respDivL'><div class='vertical-center'>(E)</div></div><div class='respDivR'><div class='vertical-center'><font style='color:orange'>(I)</font></div></div></div>","null","$18","$39","1","18","39",""
"html-keyboard-response","10","23559","0.0-5.0-1.2","631ce86c7a3ce20f628bae05","bdp_rd","Wed Apr 12 2023 19:16:12 GMT-0400 (Eastern Daylight Time)","164906","","null","","","","FIX","","<div class='trialBorder'><div class='vertical-center'><img style='vertical-align:center; align:center' src=img/fixation3.jpg></div></div>","null","","","","","",""
"html-keyboard-response","11","26965","0.0-5.0-2.2","631ce86c7a3ce20f628bae05","bdp_rd","Wed Apr 12 2023 19:16:12 GMT-0400 (Eastern Daylight Time)","164906","","3405","","","","offer","","<div class='trialBorder'><div class='vertical-center'><img style='vertical-align:center; align:center' src=img/fixation3.jpg></div><div class='cl'><div class='vertical-center'>$16<br>for<br>sure</div></div><div class='cr'><div class='vertical-center'>$38<br>with a<br>50% chance</div></div><div class='respDivL'><div class='vertical-center'>(E)</div></div><div class='respDivR'><div class='vertical-center'>(I)</div></div></div>","I","$16","$38","0","16","38","RISKY"
"html-keyboard-response","12","27217","0.0-5.0-3.2","631ce86c7a3ce20f628bae05","bdp_rd","Wed Apr 12 2023 19:16:12 GMT-0400 (Eastern Daylight Time)","164906","","null","","","","offerFB","","<div class='trialBorder'><div class='vertical-center'><img style='vertical-align:center; align:center' src=img/fixation3.jpg></div><div class='cl'><div class='vertical-center'>$16<br>for<br>sure</div></div><div class='cr'><div class='vertical-center'><font style='color:orange'>$38<br>with a<br>50% chance</font></div></div><div class='respDivL'><div class='vertical-center'>(E)</div></div><div class='respDivR'><div class='vertical-center'><font style='color:orange'>(I)</font></div></div></div>","null","$16","$38","0","16","38",""
"html-keyboard-response","13","27719","0.0-5.0-1.3","631ce86c7a3ce20f628bae05","bdp_rd","Wed Apr 12 2023 19:16:12 GMT-0400 (Eastern Daylight Time)","164906","","null","","","","FIX","","<div class='trialBorder'><div class='vertical-center'><img style='vertical-align:center; align:center' src=img/fixation3.jpg></div></div>","null","","","","","",""
"html-keyboard-response","14","29925","0.0-5.0-2.3","631ce86c7a3ce20f628bae05","bdp_rd","Wed Apr 12 2023 19:16:12 GMT-0400 (Eastern Daylight Time)","164906","","2205","","","","offer","","<div class='trialBorder'><div class='vertical-center'><img style='vertical-align:center; align:center' src=img/fixation3.jpg></div><div class='cl'><div class='vertical-center'>$16<br>with a<br>50% chance</div></div><div class='cr'><div class='vertical-center'>$5<br>for<br>sure</div></div><div class='respDivL'><div class='vertical-center'>(E)</div></div><div class='respDivR'><div class='vertical-center'>(I)</div></div></div>","E","$5","$16","1","5","16","RISKY"
"html-keyboard-response","15","30177","0.0-5.0-3.3","631ce86c7a3ce20f628bae05","bdp_rd","Wed Apr 12 2023 19:16:12 GMT-0400 (Eastern Daylight Time)","164906","","null","","","","offerFB","","<div class='trialBorder'><div class='vertical-center'><img style='vertical-align:center; align:center' src=img/fixation3.jpg></div><div class='cl'><div class='vertical-center'><font style='color:orange'>$16<br>with a<br>50% chance</font></div></div><div class='cr'><div class='vertical-center'>$5<br>for<br>sure</div></div><div class='respDivL'><div class='vertical-center'><font style='color:orange'>(E)</font></div></div><div class='respDivR'><div class='vertical-center'>(I)</div></div></div>","null","$5","$16","1","5","16",""
"html-keyboard-response","16","30678","0.0-5.0-1.4","631ce86c7a3ce20f628bae05","bdp_rd","Wed Apr 12 2023 19:16:12 GMT-0400 (Eastern Daylight Time)","164906","","null","","","","FIX","","<div class='trialBorder'><div class='vertical-center'><img style='vertical-align:center; align:center' src=img/fixation3.jpg></div></div>","null","","","","","",""
"html-keyboard-response","17","33206","0.0-5.0-2.4","631ce86c7a3ce20f628bae05","bdp_rd","Wed Apr 12 2023 19:16:12 GMT-0400 (Eastern Daylight Time)","164906","","2527","","","","offer","","<div class='trialBorder'><div class='vertical-center'><img style='vertical-align:center; align:center' src=img/fixation3.jpg></div><div class='cl'><div class='vertical-center'>$34<br>with a<br>50% chance</div></div><div class='cr'><div class='vertical-center'>$15<br>for<br>sure</div></div><div class='respDivL'><div class='vertical-center'>(E)</div></div><div class='respDivR'><div class='vertical-center'>(I)</div></div></div>","E","$15","$34","1","15","34","RISKY"
"html-keyboard-response","18","33457","0.0-5.0-3.4","631ce86c7a3ce20f628bae05","bdp_rd","Wed Apr 12 2023 19:16:12 GMT-0400 (Eastern Daylight Time)","164906","","null","","","","offerFB","","<div class='trialBorder'><div class='vertical-center'><img style='vertical-align:center; align:center' src=img/fixation3.jpg></div><div class='cl'><div class='vertical-center'><font style='color:orange'>$34<br>with a<br>50% chance</font></div></div><div class='cr'><div class='vertical-center'>$15<br>for<br>sure</div></div><div class='respDivL'><div class='vertical-center'><font style='color:orange'>(E)</font></div></div><div class='respDivR'><div class='vertical-center'>(I)</div></div></div>","null","$15","$34","1","15","34",""
"html-keyboard-response","19","33958","0.0-5.0-1.5","631ce86c7a3ce20f628bae05","bdp_rd","Wed Apr 12 2023 19:16:12 GMT-0400 (Eastern Daylight Time)","164906","","null","","","","FIX","","<div class='trialBorder'><div class='vertical-center'><img style='vertical-align:center; align:center' src=img/fixation3.jpg></div></div>","null","","","","","",""
"html-keyboard-response","20","35797","0.0-5.0-2.5","631ce86c7a3ce20f628bae05","bdp_rd","Wed Apr 12 2023 19:16:12 GMT-0400 (Eastern Daylight Time)","164906","","1838","","","","offer","","<div class='trialBorder'><div class='vertical-center'><img style='vertical-align:center; align:center' src=img/fixation3.jpg></div><div class='cl'><div class='vertical-center'>$78<br>with a<br>50% chance</div></div><div class='cr'><div class='vertical-center'>$31<br>for<br>sure</div></div><div class='respDivL'><div class='vertical-center'>(E)</div></div><div class='respDivR'><div class='vertical-center'>(I)</div></div></div>","E","$31","$78","1","31","78","RISKY"
"html-keyboard-response","21","36049","0.0-5.0-3.5","631ce86c7a3ce20f628bae05","bdp_rd","Wed Apr 12 2023 19:16:12 GMT-0400 (Eastern Daylight Time)","164906","","null","","","","offerFB","","<div class='trialBorder'><div class='vertical-center'><img style='vertical-align:center; align:center' src=img/fixation3.jpg></div><div class='cl'><div class='vertical-center'><font style='color:orange'>$78<br>with a<br>50% chance</font></div></div><div class='cr'><div class='vertical-center'>$31<br>for<br>sure</div></div><div class='respDivL'><div class='vertical-center'><font style='color:orange'>(E)</font></div></div><div class='respDivR'><div class='vertical-center'>(I)</div></div></div>","null","$31","$78","1","31","78",""
"html-keyboard-response","22","36550","0.0-5.0-1.6","631ce86c7a3ce20f628bae05","bdp_rd","Wed Apr 12 2023 19:16:12 GMT-0400 (Eastern Daylight Time)","164906","","null","","","","FIX","","<div class='trialBorder'><div class='vertical-center'><img style='vertical-align:center; align:center' src=img/fixation3.jpg></div></div>","null","","","","","",""
"html-keyboard-response","23","39285","0.0-5.0-2.6","631ce86c7a3ce20f628bae05","bdp_rd","Wed Apr 12 2023 19:16:12 GMT-0400 (Eastern Daylight Time)","164906","","2734","","","","offer","","<div class='trialBorder'><div class='vertical-center'><img style='vertical-align:center; align:center' src=img/fixation3.jpg></div><div class='cl'><div class='vertical-center'>$11<br>for<br>sure</div></div><div class='cr'><div class='vertical-center'>$26<br>with a<br>50% chance</div></div><div class='respDivL'><div class='vertical-center'>(E)</div></div><div class='respDivR'><div class='vertical-center'>(I)</div></div></div>","I","$11","$26","0","11","26","RISKY"
"html-keyboard-response","24","39537","0.0-5.0-3.6","631ce86c7a3ce20f628bae05","bdp_rd","Wed Apr 12 2023 19:16:12 GMT-0400 (Eastern Daylight Time)","164906","","null","","","","offerFB","","<div class='trialBorder'><div class='vertical-center'><img style='vertical-align:center; align:center' src=img/fixation3.jpg></div><div class='cl'><div class='vertical-center'>$11<br>for<br>sure</div></div><div class='cr'><div class='vertical-center'><font style='color:orange'>$26<br>with a<br>50% chance</font></div></div><div class='respDivL'><div class='vertical-center'>(E)</div></div><div class='respDivR'><div class='vertical-center'><font style='color:orange'>(I)</font></div></div></div>","null","$11","$26","0","11","26",""
"html-keyboard-response","25","40039","0.0-5.0-1.7","631ce86c7a3ce20f628bae05","bdp_rd","Wed Apr 12 2023 19:16:12 GMT-0400 (Eastern Daylight Time)","164906","","null","","","","FIX","","<div class='trialBorder'><div class='vertical-center'><img style='vertical-align:center; align:center' src=img/fixation3.jpg></div></div>","null","","","","","",""
"html-keyboard-response","26","41813","0.0-5.0-2.7","631ce86c7a3ce20f628bae05","bdp_rd","Wed Apr 12 2023 19:16:12 GMT-0400 (Eastern Daylight Time)","164906","","1773","","","","offer","","<div class='trialBorder'><div class='vertical-center'><img style='vertical-align:center; align:center' src=img/fixation3.jpg></div><div class='cl'><div class='vertical-center'>$28<br>for<br>sure</div></div><div class='cr'><div class='vertical-center'>$89<br>with a<br>50% chance</div></div><div class='respDivL'><div class='vertical-center'>(E)</div></div><div class='respDivR'><div class='vertical-center'>(I)</div></div></div>","I","$28","$89","0","28","89","RISKY"
"html-keyboard-response","27","42064","0.0-5.0-3.7","631ce86c7a3ce20f628bae05","bdp_rd","Wed Apr 12 2023 19:16:12 GMT-0400 (Eastern Daylight Time)","164906","","null","","","","offerFB","","<div class='trialBorder'><div class='vertical-center'><img style='vertical-align:center; align:center' src=img/fixation3.jpg></div><div class='cl'><div class='vertical-center'>$28<br>for<br>sure</div></div><div class='cr'><div class='vertical-center'><font style='color:orange'>$89<br>with a<br>50% chance</font></div></div><div class='respDivL'><div class='vertical-center'>(E)</div></div><div class='respDivR'><div class='vertical-center'><font style='color:orange'>(I)</font></div></div></div>","null","$28","$89","0","28","89",""
"html-keyboard-response","28","42566","0.0-5.0-1.8","631ce86c7a3ce20f628bae05","bdp_rd","Wed Apr 12 2023 19:16:12 GMT-0400 (Eastern Daylight Time)","164906","","null","","","","FIX","","<div class='trialBorder'><div class='vertical-center'><img style='vertical-align:center; align:center' src=img/fixation3.jpg></div></div>","null","","","","","",""
"html-keyboard-response","29","46261","0.0-5.0-2.8","631ce86c7a3ce20f628bae05","bdp_rd","Wed Apr 12 2023 19:16:12 GMT-0400 (Eastern Daylight Time)","164906","","3694","","","","offer","","<div class='trialBorder'><div class='vertical-center'><img style='vertical-align:center; align:center' src=img/fixation3.jpg></div><div class='cl'><div class='vertical-center'>$25<br>with a<br>50% chance</div></div><div class='cr'><div class='vertical-center'>$21<br>for<br>sure</div></div><div class='respDivL'><div class='vertical-center'>(E)</div></div><div class='respDivR'><div class='vertical-center'>(I)</div></div></div>","I","$21","$25","1","21","25","SURE"
"html-keyboard-response","30","46513","0.0-5.0-3.8","631ce86c7a3ce20f628bae05","bdp_rd","Wed Apr 12 2023 19:16:12 GMT-0400 (Eastern Daylight Time)","164906","","null","","","","offerFB","","<div class='trialBorder'><div class='vertical-center'><img style='vertical-align:center; align:center' src=img/fixation3.jpg></div><div class='cl'><div class='vertical-center'>$25<br>with a<br>50% chance</div></div><div class='cr'><div class='vertical-center'><font style='color:orange'>$21<br>for<br>sure</font></div></div><div class='respDivL'><div class='vertical-center'>(E)</div></div><div class='respDivR'><div class='vertical-center'><font style='color:orange'>(I)</font></div></div></div>","null","$21","$25","1","21","25",""
"html-keyboard-response","31","47015","0.0-5.0-1.9","631ce86c7a3ce20f628bae05","bdp_rd","Wed Apr 12 2023 19:16:12 GMT-0400 (Eastern Daylight Time)","164906","","null","","","","FIX","","<div class='trialBorder'><div class='vertical-center'><img style='vertical-align:center; align:center' src=img/fixation3.jpg></div></div>","null","","","","","",""
"html-keyboard-response","32","48597","0.0-5.0-2.9","631ce86c7a3ce20f628bae05","bdp_rd","Wed Apr 12 2023 19:16:12 GMT-0400 (Eastern Daylight Time)","164906","","1582","","","","offer","","<div class='trialBorder'><div class='vertical-center'><img style='vertical-align:center; align:center' src=img/fixation3.jpg></div><div class='cl'><div class='vertical-center'>$7<br>for<br>sure</div></div><div class='cr'><div class='vertical-center'>$71<br>with a<br>50% chance</div></div><div class='respDivL'><div class='vertical-center'>(E)</div></div><div class='respDivR'><div class='vertical-center'>(I)</div></div></div>","I","$7","$71","0","7","71","RISKY"
"html-keyboard-response","33","48849","0.0-5.0-3.9","631ce86c7a3ce20f628bae05","bdp_rd","Wed Apr 12 2023 19:16:12 GMT-0400 (Eastern Daylight Time)","164906","","null","","","","offerFB","","<div class='trialBorder'><div class='vertical-center'><img style='vertical-align:center; align:center' src=img/fixation3.jpg></div><div class='cl'><div class='vertical-center'>$7<br>for<br>sure</div></div><div class='cr'><div class='vertical-center'><font style='color:orange'>$71<br>with a<br>50% chance</font></div></div><div class='respDivL'><div class='vertical-center'>(E)</div></div><div class='respDivR'><div class='vertical-center'><font style='color:orange'>(I)</font></div></div></div>","null","$7","$71","0","7","71",""
"html-keyboard-response","34","49351","0.0-5.0-1.10","631ce86c7a3ce20f628bae05","bdp_rd","Wed Apr 12 2023 19:16:12 GMT-0400 (Eastern Daylight Time)","164906","","null","","","","FIX","","<div class='trialBorder'><div class='vertical-center'><img style='vertical-align:center; align:center' src=img/fixation3.jpg></div></div>","null","","","","","",""
"html-keyboard-response","35","51381","0.0-5.0-2.10","631ce86c7a3ce20f628bae05","bdp_rd","Wed Apr 12 2023 19:16:12 GMT-0400 (Eastern Daylight Time)","164906","","2030","","","","offer","","<div class='trialBorder'><div class='vertical-center'><img style='vertical-align:center; align:center' src=img/fixation3.jpg></div><div class='cl'><div class='vertical-center'>$44<br>with a<br>50% chance</div></div><div class='cr'><div class='vertical-center'>$37<br>for<br>sure</div></div><div class='respDivL'><div class='vertical-center'>(E)</div></div><div class='respDivR'><div class='vertical-center'>(I)</div></div></div>","I","$37","$44","1","37","44","SURE"
"html-keyboard-response","36","51633","0.0-5.0-3.10","631ce86c7a3ce20f628bae05","bdp_rd","Wed Apr 12 2023 19:16:12 GMT-0400 (Eastern Daylight Time)","164906","","null","","","","offerFB","","<div class='trialBorder'><div class='vertical-center'><img style='vertical-align:center; align:center' src=img/fixation3.jpg></div><div class='cl'><div class='vertical-center'>$44<br>with a<br>50% chance</div></div><div class='cr'><div class='vertical-center'><font style='color:orange'>$37<br>for<br>sure</font></div></div><div class='respDivL'><div class='vertical-center'>(E)</div></div><div class='respDivR'><div class='vertical-center'><font style='color:orange'>(I)</font></div></div></div>","null","$37","$44","1","37","44",""
"html-keyboard-response","37","52135","0.0-5.0-1.11","631ce86c7a3ce20f628bae05","bdp_rd","Wed Apr 12 2023 19:16:12 GMT-0400 (Eastern Daylight Time)","164906","","null","","","","FIX","","<div class='trialBorder'><div class='vertical-center'><img style='vertical-align:center; align:center' src=img/fixation3.jpg></div></div>","null","","","","","",""
"html-keyboard-response","38","53557","0.0-5.0-2.11","631ce86c7a3ce20f628bae05","bdp_rd","Wed Apr 12 2023 19:16:12 GMT-0400 (Eastern Daylight Time)","164906","","1422","","","","offer","","<div class='trialBorder'><div class='vertical-center'><img style='vertical-align:center; align:center' src=img/fixation3.jpg></div><div class='cl'><div class='vertical-center'>$32<br>with a<br>50% chance</div></div><div class='cr'><div class='vertical-center'>$9<br>for<br>sure</div></div><div class='respDivL'><div class='vertical-center'>(E)</div></div><div class='respDivR'><div class='vertical-center'>(I)</div></div></div>","E","$9","$32","1","9","32","RISKY"
"html-keyboard-response","39","53809","0.0-5.0-3.11","631ce86c7a3ce20f628bae05","bdp_rd","Wed Apr 12 2023 19:16:12 GMT-0400 (Eastern Daylight Time)","164906","","null","","","","offerFB","","<div class='trialBorder'><div class='vertical-center'><img style='vertical-align:center; align:center' src=img/fixation3.jpg></div><div class='cl'><div class='vertical-center'><font style='color:orange'>$32<br>with a<br>50% chance</font></div></div><div class='cr'><div class='vertical-center'>$9<br>for<br>sure</div></div><div class='respDivL'><div class='vertical-center'><font style='color:orange'>(E)</font></div></div><div class='respDivR'><div class='vertical-center'>(I)</div></div></div>","null","$9","$32","1","9","32",""
"html-keyboard-response","40","54311","0.0-5.0-1.12","631ce86c7a3ce20f628bae05","bdp_rd","Wed Apr 12 2023 19:16:12 GMT-0400 (Eastern Daylight Time)","164906","","null","","","","FIX","","<div class='trialBorder'><div class='vertical-center'><img style='vertical-align:center; align:center' src=img/fixation3.jpg></div></div>","null","","","","","",""
"html-keyboard-response","41","56197","0.0-5.0-2.12","631ce86c7a3ce20f628bae05","bdp_rd","Wed Apr 12 2023 19:16:12 GMT-0400 (Eastern Daylight Time)","164906","","1885","","","","offer","","<div class='trialBorder'><div class='vertical-center'><img style='vertical-align:center; align:center' src=img/fixation3.jpg></div><div class='cl'><div class='vertical-center'>$22<br>for<br>sure</div></div><div class='cr'><div class='vertical-center'>$42<br>with a<br>50% chance</div></div><div class='respDivL'><div class='vertical-center'>(E)</div></div><div class='respDivR'><div class='vertical-center'>(I)</div></div></div>","I","$22","$42","0","22","42","RISKY"
"html-keyboard-response","42","56449","0.0-5.0-3.12","631ce86c7a3ce20f628bae05","bdp_rd","Wed Apr 12 2023 19:16:12 GMT-0400 (Eastern Daylight Time)","164906","","null","","","","offerFB","","<div class='trialBorder'><div class='vertical-center'><img style='vertical-align:center; align:center' src=img/fixation3.jpg></div><div class='cl'><div class='vertical-center'>$22<br>for<br>sure</div></div><div class='cr'><div class='vertical-center'><font style='color:orange'>$42<br>with a<br>50% chance</font></div></div><div class='respDivL'><div class='vertical-center'>(E)</div></div><div class='respDivR'><div class='vertical-center'><font style='color:orange'>(I)</font></div></div></div>","null","$22","$42","0","22","42",""
"html-keyboard-response","43","56951","0.0-5.0-1.13","631ce86c7a3ce20f628bae05","bdp_rd","Wed Apr 12 2023 19:16:12 GMT-0400 (Eastern Daylight Time)","164906","","null","","","","FIX","","<div class='trialBorder'><div class='vertical-center'><img style='vertical-align:center; align:center' src=img/fixation3.jpg></div></div>","null","","","","","",""
"html-keyboard-response","44","58150","0.0-5.0-2.13","631ce86c7a3ce20f628bae05","bdp_rd","Wed Apr 12 2023 19:16:12 GMT-0400 (Eastern Daylight Time)","164906","","1199","","","","offer","","<div class='trialBorder'><div class='vertical-center'><img style='vertical-align:center; align:center' src=img/fixation3.jpg></div><div class='cl'><div class='vertical-center'>$17<br>for<br>sure</div></div><div class='cr'><div class='vertical-center'>$43<br>with a<br>50% chance</div></div><div class='respDivL'><div class='vertical-center'>(E)</div></div><div class='respDivR'><div class='vertical-center'>(I)</div></div></div>","I","$17","$43","0","17","43","RISKY"
"html-keyboard-response","45","58403","0.0-5.0-3.13","631ce86c7a3ce20f628bae05","bdp_rd","Wed Apr 12 2023 19:16:12 GMT-0400 (Eastern Daylight Time)","164906","","null","","","","offerFB","","<div class='trialBorder'><div class='vertical-center'><img style='vertical-align:center; align:center' src=img/fixation3.jpg></div><div class='cl'><div class='vertical-center'>$17<br>for<br>sure</div></div><div class='cr'><div class='vertical-center'><font style='color:orange'>$43<br>with a<br>50% chance</font></div></div><div class='respDivL'><div class='vertical-center'>(E)</div></div><div class='respDivR'><div class='vertical-center'><font style='color:orange'>(I)</font></div></div></div>","null","$17","$43","0","17","43",""
"html-keyboard-response","46","58904","0.0-5.0-1.14","631ce86c7a3ce20f628bae05","bdp_rd","Wed Apr 12 2023 19:16:12 GMT-0400 (Eastern Daylight Time)","164906","","null","","","","FIX","","<div class='trialBorder'><div class='vertical-center'><img style='vertical-align:center; align:center' src=img/fixation3.jpg></div></div>","null","","","","","",""
"html-keyboard-response","47","60645","0.0-5.0-2.14","631ce86c7a3ce20f628bae05","bdp_rd","Wed Apr 12 2023 19:16:12 GMT-0400 (Eastern Daylight Time)","164906","","1740","","","","offer","","<div class='trialBorder'><div class='vertical-center'><img style='vertical-align:center; align:center' src=img/fixation3.jpg></div><div class='cl'><div class='vertical-center'>$12<br>for<br>sure</div></div><div class='cr'><div class='vertical-center'>$27<br>with a<br>50% chance</div></div><div class='respDivL'><div class='vertical-center'>(E)</div></div><div class='respDivR'><div class='vertical-center'>(I)</div></div></div>","I","$12","$27","0","12","27","RISKY"
"html-keyboard-response","48","60897","0.0-5.0-3.14","631ce86c7a3ce20f628bae05","bdp_rd","Wed Apr 12 2023 19:16:12 GMT-0400 (Eastern Daylight Time)","164906","","null","","","","offerFB","","<div class='trialBorder'><div class='vertical-center'><img style='vertical-align:center; align:center' src=img/fixation3.jpg></div><div class='cl'><div class='vertical-center'>$12<br>for<br>sure</div></div><div class='cr'><div class='vertical-center'><font style='color:orange'>$27<br>with a<br>50% chance</font></div></div><div class='respDivL'><div class='vertical-center'>(E)</div></div><div class='respDivR'><div class='vertical-center'><font style='color:orange'>(I)</font></div></div></div>","null","$12","$27","0","12","27",""
"html-keyboard-response","49","61398","0.0-5.0-1.15","631ce86c7a3ce20f628bae05","bdp_rd","Wed Apr 12 2023 19:16:12 GMT-0400 (Eastern Daylight Time)","164906","","null","","","","FIX","","<div class='trialBorder'><div class='vertical-center'><img style='vertical-align:center; align:center' src=img/fixation3.jpg></div></div>","null","","","","","",""
"html-keyboard-response","50","62757","0.0-5.0-2.15","631ce86c7a3ce20f628bae05","bdp_rd","Wed Apr 12 2023 19:16:12 GMT-0400 (Eastern Daylight Time)","164906","","1358","","","","offer","","<div class='trialBorder'><div class='vertical-center'><img style='vertical-align:center; align:center' src=img/fixation3.jpg></div><div class='cl'><div class='vertical-center'>$59<br>with a<br>50% chance</div></div><div class='cr'><div class='vertical-center'>$22<br>for<br>sure</div></div><div class='respDivL'><div class='vertical-center'>(E)</div></div><div class='respDivR'><div class='vertical-center'>(I)</div></div></div>","E","$22","$59","1","22","59","RISKY"
"html-keyboard-response","51","63008","0.0-5.0-3.15","631ce86c7a3ce20f628bae05","bdp_rd","Wed Apr 12 2023 19:16:12 GMT-0400 (Eastern Daylight Time)","164906","","null","","","","offerFB","","<div class='trialBorder'><div class='vertical-center'><img style='vertical-align:center; align:center' src=img/fixation3.jpg></div><div class='cl'><div class='vertical-center'><font style='color:orange'>$59<br>with a<br>50% chance</font></div></div><div class='cr'><div class='vertical-center'>$22<br>for<br>sure</div></div><div class='respDivL'><div class='vertical-center'><font style='color:orange'>(E)</font></div></div><div class='respDivR'><div class='vertical-center'>(I)</div></div></div>","null","$22","$59","1","22","59",""
"html-keyboard-response","52","63509","0.0-5.0-1.16","631ce86c7a3ce20f628bae05","bdp_rd","Wed Apr 12 2023 19:16:12 GMT-0400 (Eastern Daylight Time)","164906","","null","","","","FIX","","<div class='trialBorder'><div class='vertical-center'><img style='vertical-align:center; align:center' src=img/fixation3.jpg></div></div>","null","","","","","",""
"html-keyboard-response","53","64325","0.0-5.0-2.16","631ce86c7a3ce20f628bae05","bdp_rd","Wed Apr 12 2023 19:16:12 GMT-0400 (Eastern Daylight Time)","164906","","815","","","","offer","","<div class='trialBorder'><div class='vertical-center'><img style='vertical-align:center; align:center' src=img/fixation3.jpg></div><div class='cl'><div class='vertical-center'>$19<br>for<br>sure</div></div><div class='cr'><div class='vertical-center'>$51<br>with a<br>50% chance</div></div><div class='respDivL'><div class='vertical-center'>(E)</div></div><div class='respDivR'><div class='vertical-center'>(I)</div></div></div>","I","$19","$51","0","19","51","RISKY"
"html-keyboard-response","54","64577","0.0-5.0-3.16","631ce86c7a3ce20f628bae05","bdp_rd","Wed Apr 12 2023 19:16:12 GMT-0400 (Eastern Daylight Time)","164906","","null","","","","offerFB","","<div class='trialBorder'><div class='vertical-center'><img style='vertical-align:center; align:center' src=img/fixation3.jpg></div><div class='cl'><div class='vertical-center'>$19<br>for<br>sure</div></div><div class='cr'><div class='vertical-center'><font style='color:orange'>$51<br>with a<br>50% chance</font></div></div><div class='respDivL'><div class='vertical-center'>(E)</div></div><div class='respDivR'><div class='vertical-center'><font style='color:orange'>(I)</font></div></div></div>","null","$19","$51","0","19","51",""
"html-keyboard-response","55","65078","0.0-5.0-1.17","631ce86c7a3ce20f628bae05","bdp_rd","Wed Apr 12 2023 19:16:12 GMT-0400 (Eastern Daylight Time)","164906","","null","","","","FIX","","<div class='trialBorder'><div class='vertical-center'><img style='vertical-align:center; align:center' src=img/fixation3.jpg></div></div>","null","","","","","",""
"html-keyboard-response","56","66997","0.0-5.0-2.17","631ce86c7a3ce20f628bae05","bdp_rd","Wed Apr 12 2023 19:16:12 GMT-0400 (Eastern Daylight Time)","164906","","1918","","","","offer","","<div class='trialBorder'><div class='vertical-center'><img style='vertical-align:center; align:center' src=img/fixation3.jpg></div><div class='cl'><div class='vertical-center'>$12<br>for<br>sure</div></div><div class='cr'><div class='vertical-center'>$35<br>with a<br>50% chance</div></div><div class='respDivL'><div class='vertical-center'>(E)</div></div><div class='respDivR'><div class='vertical-center'>(I)</div></div></div>","I","$12","$35","0","12","35","RISKY"
"html-keyboard-response","57","67249","0.0-5.0-3.17","631ce86c7a3ce20f628bae05","bdp_rd","Wed Apr 12 2023 19:16:12 GMT-0400 (Eastern Daylight Time)","164906","","null","","","","offerFB","","<div class='trialBorder'><div class='vertical-center'><img style='vertical-align:center; align:center' src=img/fixation3.jpg></div><div class='cl'><div class='vertical-center'>$12<br>for<br>sure</div></div><div class='cr'><div class='vertical-center'><font style='color:orange'>$35<br>with a<br>50% chance</font></div></div><div class='respDivL'><div class='vertical-center'>(E)</div></div><div class='respDivR'><div class='vertical-center'><font style='color:orange'>(I)</font></div></div></div>","null","$12","$35","0","12","35",""
"html-keyboard-response","58","67751","0.0-5.0-1.18","631ce86c7a3ce20f628bae05","bdp_rd","Wed Apr 12 2023 19:16:12 GMT-0400 (Eastern Daylight Time)","164906","","null","","","","FIX","","<div class='trialBorder'><div class='vertical-center'><img style='vertical-align:center; align:center' src=img/fixation3.jpg></div></div>","null","","","","","",""
"html-keyboard-response","59","68661","0.0-5.0-2.18","631ce86c7a3ce20f628bae05","bdp_rd","Wed Apr 12 2023 19:16:12 GMT-0400 (Eastern Daylight Time)","164906","","910","","","","offer","","<div class='trialBorder'><div class='vertical-center'><img style='vertical-align:center; align:center' src=img/fixation3.jpg></div><div class='cl'><div class='vertical-center'>$5<br>for<br>sure</div></div><div class='cr'><div class='vertical-center'>$50<br>with a<br>50% chance</div></div><div class='respDivL'><div class='vertical-center'>(E)</div></div><div class='respDivR'><div class='vertical-center'>(I)</div></div></div>","I","$5","$50","0","5","50","RISKY"
"html-keyboard-response","60","68913","0.0-5.0-3.18","631ce86c7a3ce20f628bae05","bdp_rd","Wed Apr 12 2023 19:16:12 GMT-0400 (Eastern Daylight Time)","164906","","null","","","","offerFB","","<div class='trialBorder'><div class='vertical-center'><img style='vertical-align:center; align:center' src=img/fixation3.jpg></div><div class='cl'><div class='vertical-center'>$5<br>for<br>sure</div></div><div class='cr'><div class='vertical-center'><font style='color:orange'>$50<br>with a<br>50% chance</font></div></div><div class='respDivL'><div class='vertical-center'>(E)</div></div><div class='respDivR'><div class='vertical-center'><font style='color:orange'>(I)</font></div></div></div>","null","$5","$50","0","5","50",""
"html-keyboard-response","61","69415","0.0-5.0-1.19","631ce86c7a3ce20f628bae05","bdp_rd","Wed Apr 12 2023 19:16:12 GMT-0400 (Eastern Daylight Time)","164906","","null","","","","FIX","","<div class='trialBorder'><div class='vertical-center'><img style='vertical-align:center; align:center' src=img/fixation3.jpg></div></div>","null","","","","","",""
"html-keyboard-response","62","71701","0.0-5.0-2.19","631ce86c7a3ce20f628bae05","bdp_rd","Wed Apr 12 2023 19:16:12 GMT-0400 (Eastern Daylight Time)","164906","","2286","","","","offer","","<div class='trialBorder'><div class='vertical-center'><img style='vertical-align:center; align:center' src=img/fixation3.jpg></div><div class='cl'><div class='vertical-center'>$48<br>with a<br>50% chance</div></div><div class='cr'><div class='vertical-center'>$34<br>for<br>sure</div></div><div class='respDivL'><div class='vertical-center'>(E)</div></div><div class='respDivR'><div class='vertical-center'>(I)</div></div></div>","I","$34","$48","1","34","48","SURE"
"html-keyboard-response","63","71953","0.0-5.0-3.19","631ce86c7a3ce20f628bae05","bdp_rd","Wed Apr 12 2023 19:16:12 GMT-0400 (Eastern Daylight Time)","164906","","null","","","","offerFB","","<div class='trialBorder'><div class='vertical-center'><img style='vertical-align:center; align:center' src=img/fixation3.jpg></div><div class='cl'><div class='vertical-center'>$48<br>with a<br>50% chance</div></div><div class='cr'><div class='vertical-center'><font style='color:orange'>$34<br>for<br>sure</font></div></div><div class='respDivL'><div class='vertical-center'>(E)</div></div><div class='respDivR'><div class='vertical-center'><font style='color:orange'>(I)</font></div></div></div>","null","$34","$48","1","34","48",""
"html-keyboard-response","64","72455","0.0-5.0-1.20","631ce86c7a3ce20f628bae05","bdp_rd","Wed Apr 12 2023 19:16:12 GMT-0400 (Eastern Daylight Time)","164906","","null","","","","FIX","","<div class='trialBorder'><div class='vertical-center'><img style='vertical-align:center; align:center' src=img/fixation3.jpg></div></div>","null","","","","","",""
"html-keyboard-response","65","74230","0.0-5.0-2.20","631ce86c7a3ce20f628bae05","bdp_rd","Wed Apr 12 2023 19:16:12 GMT-0400 (Eastern Daylight Time)","164906","","1773","","","","offer","","<div class='trialBorder'><div class='vertical-center'><img style='vertical-align:center; align:center' src=img/fixation3.jpg></div><div class='cl'><div class='vertical-center'>$19<br>with a<br>50% chance</div></div><div class='cr'><div class='vertical-center'>$10<br>for<br>sure</div></div><div class='respDivL'><div class='vertical-center'>(E)</div></div><div class='respDivR'><div class='vertical-center'>(I)</div></div></div>","E","$10","$19","1","10","19","RISKY"
"html-keyboard-response","66","74482","0.0-5.0-3.20","631ce86c7a3ce20f628bae05","bdp_rd","Wed Apr 12 2023 19:16:12 GMT-0400 (Eastern Daylight Time)","164906","","null","","","","offerFB","","<div class='trialBorder'><div class='vertical-center'><img style='vertical-align:center; align:center' src=img/fixation3.jpg></div><div class='cl'><div class='vertical-center'><font style='color:orange'>$19<br>with a<br>50% chance</font></div></div><div class='cr'><div class='vertical-center'>$10<br>for<br>sure</div></div><div class='respDivL'><div class='vertical-center'><font style='color:orange'>(E)</font></div></div><div class='respDivR'><div class='vertical-center'>(I)</div></div></div>","null","$10","$19","1","10","19",""
"html-keyboard-response","67","74983","0.0-5.0-1.21","631ce86c7a3ce20f628bae05","bdp_rd","Wed Apr 12 2023 19:16:12 GMT-0400 (Eastern Daylight Time)","164906","","null","","","","FIX","","<div class='trialBorder'><div class='vertical-center'><img style='vertical-align:center; align:center' src=img/fixation3.jpg></div></div>","null","","","","","",""
"html-keyboard-response","68","76390","0.0-5.0-2.21","631ce86c7a3ce20f628bae05","bdp_rd","Wed Apr 12 2023 19:16:12 GMT-0400 (Eastern Daylight Time)","164906","","1405","","","","offer","","<div class='trialBorder'><div class='vertical-center'><img style='vertical-align:center; align:center' src=img/fixation3.jpg></div><div class='cl'><div class='vertical-center'>$68<br>with a<br>50% chance</div></div><div class='cr'><div class='vertical-center'>$30<br>for<br>sure</div></div><div class='respDivL'><div class='vertical-center'>(E)</div></div><div class='respDivR'><div class='vertical-center'>(I)</div></div></div>","E","$30","$68","1","30","68","RISKY"
"html-keyboard-response","69","76641","0.0-5.0-3.21","631ce86c7a3ce20f628bae05","bdp_rd","Wed Apr 12 2023 19:16:12 GMT-0400 (Eastern Daylight Time)","164906","","null","","","","offerFB","","<div class='trialBorder'><div class='vertical-center'><img style='vertical-align:center; align:center' src=img/fixation3.jpg></div><div class='cl'><div class='vertical-center'><font style='color:orange'>$68<br>with a<br>50% chance</font></div></div><div class='cr'><div class='vertical-center'>$30<br>for<br>sure</div></div><div class='respDivL'><div class='vertical-center'><font style='color:orange'>(E)</font></div></div><div class='respDivR'><div class='vertical-center'>(I)</div></div></div>","null","$30","$68","1","30","68",""
"html-keyboard-response","70","77143","0.0-5.0-1.22","631ce86c7a3ce20f628bae05","bdp_rd","Wed Apr 12 2023 19:16:12 GMT-0400 (Eastern Daylight Time)","164906","","null","","","","FIX","","<div class='trialBorder'><div class='vertical-center'><img style='vertical-align:center; align:center' src=img/fixation3.jpg></div></div>","null","","","","","",""
"html-keyboard-response","71","79605","0.0-5.0-2.22","631ce86c7a3ce20f628bae05","bdp_rd","Wed Apr 12 2023 19:16:12 GMT-0400 (Eastern Daylight Time)","164906","","2461","","","","offer","","<div class='trialBorder'><div class='vertical-center'><img style='vertical-align:center; align:center' src=img/fixation3.jpg></div><div class='cl'><div class='vertical-center'>$46<br>for<br>sure</div></div><div class='cr'><div class='vertical-center'>$65<br>with a<br>50% chance</div></div><div class='respDivL'><div class='vertical-center'>(E)</div></div><div class='respDivR'><div class='vertical-center'>(I)</div></div></div>","E","$46","$65","0","46","65","SURE"
"html-keyboard-response","72","79856","0.0-5.0-3.22","631ce86c7a3ce20f628bae05","bdp_rd","Wed Apr 12 2023 19:16:12 GMT-0400 (Eastern Daylight Time)","164906","","null","","","","offerFB","","<div class='trialBorder'><div class='vertical-center'><img style='vertical-align:center; align:center' src=img/fixation3.jpg></div><div class='cl'><div class='vertical-center'><font style='color:orange'>$46<br>for<br>sure</font></div></div><div class='cr'><div class='vertical-center'>$65<br>with a<br>50% chance</div></div><div class='respDivL'><div class='vertical-center'><font style='color:orange'>(E)</font></div></div><div class='respDivR'><div class='vertical-center'>(I)</div></div></div>","null","$46","$65","0","46","65",""
"html-keyboard-response","73","80358","0.0-5.0-1.23","631ce86c7a3ce20f628bae05","bdp_rd","Wed Apr 12 2023 19:16:12 GMT-0400 (Eastern Daylight Time)","164906","","null","","","","FIX","","<div class='trialBorder'><div class='vertical-center'><img style='vertical-align:center; align:center' src=img/fixation3.jpg></div></div>","null","","","","","",""
"html-keyboard-response","74","82357","0.0-5.0-2.23","631ce86c7a3ce20f628bae05","bdp_rd","Wed Apr 12 2023 19:16:12 GMT-0400 (Eastern Daylight Time)","164906","","1999","","","","offer","","<div class='trialBorder'><div class='vertical-center'><img style='vertical-align:center; align:center' src=img/fixation3.jpg></div><div class='cl'><div class='vertical-center'>$31<br>with a<br>50% chance</div></div><div class='cr'><div class='vertical-center'>$15<br>for<br>sure</div></div><div class='respDivL'><div class='vertical-center'>(E)</div></div><div class='respDivR'><div class='vertical-center'>(I)</div></div></div>","E","$15","$31","1","15","31","RISKY"
"html-keyboard-response","75","82609","0.0-5.0-3.23","631ce86c7a3ce20f628bae05","bdp_rd","Wed Apr 12 2023 19:16:12 GMT-0400 (Eastern Daylight Time)","164906","","null","","","","offerFB","","<div class='trialBorder'><div class='vertical-center'><img style='vertical-align:center; align:center' src=img/fixation3.jpg></div><div class='cl'><div class='vertical-center'><font style='color:orange'>$31<br>with a<br>50% chance</font></div></div><div class='cr'><div class='vertical-center'>$15<br>for<br>sure</div></div><div class='respDivL'><div class='vertical-center'><font style='color:orange'>(E)</font></div></div><div class='respDivR'><div class='vertical-center'>(I)</div></div></div>","null","$15","$31","1","15","31",""
"html-keyboard-response","76","83110","0.0-5.0-1.24","631ce86c7a3ce20f628bae05","bdp_rd","Wed Apr 12 2023 19:16:12 GMT-0400 (Eastern Daylight Time)","164906","","null","","","","FIX","","<div class='trialBorder'><div class='vertical-center'><img style='vertical-align:center; align:center' src=img/fixation3.jpg></div></div>","null","","","","","",""
"html-keyboard-response","77","84902","0.0-5.0-2.24","631ce86c7a3ce20f628bae05","bdp_rd","Wed Apr 12 2023 19:16:12 GMT-0400 (Eastern Daylight Time)","164906","","1790","","","","offer","","<div class='trialBorder'><div class='vertical-center'><img style='vertical-align:center; align:center' src=img/fixation3.jpg></div><div class='cl'><div class='vertical-center'>$22<br>with a<br>50% chance</div></div><div class='cr'><div class='vertical-center'>$14<br>for<br>sure</div></div><div class='respDivL'><div class='vertical-center'>(E)</div></div><div class='respDivR'><div class='vertical-center'>(I)</div></div></div>","I","$14","$22","1","14","22","SURE"
"html-keyboard-response","78","85153","0.0-5.0-3.24","631ce86c7a3ce20f628bae05","bdp_rd","Wed Apr 12 2023 19:16:12 GMT-0400 (Eastern Daylight Time)","164906","","null","","","","offerFB","","<div class='trialBorder'><div class='vertical-center'><img style='vertical-align:center; align:center' src=img/fixation3.jpg></div><div class='cl'><div class='vertical-center'>$22<br>with a<br>50% chance</div></div><div class='cr'><div class='vertical-center'><font style='color:orange'>$14<br>for<br>sure</font></div></div><div class='respDivL'><div class='vertical-center'>(E)</div></div><div class='respDivR'><div class='vertical-center'><font style='color:orange'>(I)</font></div></div></div>","null","$14","$22","1","14","22",""
"html-keyboard-response","79","85655","0.0-5.0-1.25","631ce86c7a3ce20f628bae05","bdp_rd","Wed Apr 12 2023 19:16:12 GMT-0400 (Eastern Daylight Time)","164906","","null","","","","FIX","","<div class='trialBorder'><div class='vertical-center'><img style='vertical-align:center; align:center' src=img/fixation3.jpg></div></div>","null","","","","","",""
"html-keyboard-response","80","87237","0.0-5.0-2.25","631ce86c7a3ce20f628bae05","bdp_rd","Wed Apr 12 2023 19:16:12 GMT-0400 (Eastern Daylight Time)","164906","","1582","","","","offer","","<div class='trialBorder'><div class='vertical-center'><img style='vertical-align:center; align:center' src=img/fixation3.jpg></div><div class='cl'><div class='vertical-center'>$9<br>for<br>sure</div></div><div class='cr'><div class='vertical-center'>$18<br>with a<br>50% chance</div></div><div class='respDivL'><div class='vertical-center'>(E)</div></div><div class='respDivR'><div class='vertical-center'>(I)</div></div></div>","I","$9","$18","0","9","18","RISKY"
"html-keyboard-response","81","87499","0.0-5.0-3.25","631ce86c7a3ce20f628bae05","bdp_rd","Wed Apr 12 2023 19:16:12 GMT-0400 (Eastern Daylight Time)","164906","","null","","","","offerFB","","<div class='trialBorder'><div class='vertical-center'><img style='vertical-align:center; align:center' src=img/fixation3.jpg></div><div class='cl'><div class='vertical-center'>$9<br>for<br>sure</div></div><div class='cr'><div class='vertical-center'><font style='color:orange'>$18<br>with a<br>50% chance</font></div></div><div class='respDivL'><div class='vertical-center'>(E)</div></div><div class='respDivR'><div class='vertical-center'><font style='color:orange'>(I)</font></div></div></div>","null","$9","$18","0","9","18",""
"html-keyboard-response","82","88001","0.0-5.0-1.26","631ce86c7a3ce20f628bae05","bdp_rd","Wed Apr 12 2023 19:16:12 GMT-0400 (Eastern Daylight Time)","164906","","null","","","","FIX","","<div class='trialBorder'><div class='vertical-center'><img style='vertical-align:center; align:center' src=img/fixation3.jpg></div></div>","null","","","","","",""
"html-keyboard-response","83","89541","0.0-5.0-2.26","631ce86c7a3ce20f628bae05","bdp_rd","Wed Apr 12 2023 19:16:12 GMT-0400 (Eastern Daylight Time)","164906","","1540","","","","offer","","<div class='trialBorder'><div class='vertical-center'><img style='vertical-align:center; align:center' src=img/fixation3.jpg></div><div class='cl'><div class='vertical-center'>$14<br>for<br>sure</div></div><div class='cr'><div class='vertical-center'>$29<br>with a<br>50% chance</div></div><div class='respDivL'><div class='vertical-center'>(E)</div></div><div class='respDivR'><div class='vertical-center'>(I)</div></div></div>","I","$14","$29","0","14","29","RISKY"
"html-keyboard-response","84","89793","0.0-5.0-3.26","631ce86c7a3ce20f628bae05","bdp_rd","Wed Apr 12 2023 19:16:12 GMT-0400 (Eastern Daylight Time)","164906","","null","","","","offerFB","","<div class='trialBorder'><div class='vertical-center'><img style='vertical-align:center; align:center' src=img/fixation3.jpg></div><div class='cl'><div class='vertical-center'>$14<br>for<br>sure</div></div><div class='cr'><div class='vertical-center'><font style='color:orange'>$29<br>with a<br>50% chance</font></div></div><div class='respDivL'><div class='vertical-center'>(E)</div></div><div class='respDivR'><div class='vertical-center'><font style='color:orange'>(I)</font></div></div></div>","null","$14","$29","0","14","29",""
"html-keyboard-response","85","90294","0.0-5.0-1.27","631ce86c7a3ce20f628bae05","bdp_rd","Wed Apr 12 2023 19:16:12 GMT-0400 (Eastern Daylight Time)","164906","","null","","","","FIX","","<div class='trialBorder'><div class='vertical-center'><img style='vertical-align:center; align:center' src=img/fixation3.jpg></div></div>","null","","","","","",""
"html-keyboard-response","86","91510","0.0-5.0-2.27","631ce86c7a3ce20f628bae05","bdp_rd","Wed Apr 12 2023 19:16:12 GMT-0400 (Eastern Daylight Time)","164906","","1215","","","","offer","","<div class='trialBorder'><div class='vertical-center'><img style='vertical-align:center; align:center' src=img/fixation3.jpg></div><div class='cl'><div class='vertical-center'>$30<br>with a<br>50% chance</div></div><div class='cr'><div class='vertical-center'>$1<br>for<br>sure</div></div><div class='respDivL'><div class='vertical-center'>(E)</div></div><div class='respDivR'><div class='vertical-center'>(I)</div></div></div>","E","$1","$30","1","1","30","RISKY"
"html-keyboard-response","87","91762","0.0-5.0-3.27","631ce86c7a3ce20f628bae05","bdp_rd","Wed Apr 12 2023 19:16:12 GMT-0400 (Eastern Daylight Time)","164906","","null","","","","offerFB","","<div class='trialBorder'><div class='vertical-center'><img style='vertical-align:center; align:center' src=img/fixation3.jpg></div><div class='cl'><div class='vertical-center'><font style='color:orange'>$30<br>with a<br>50% chance</font></div></div><div class='cr'><div class='vertical-center'>$1<br>for<br>sure</div></div><div class='respDivL'><div class='vertical-center'><font style='color:orange'>(E)</font></div></div><div class='respDivR'><div class='vertical-center'>(I)</div></div></div>","null","$1","$30","1","1","30",""
"html-keyboard-response","88","92263","0.0-5.0-1.28","631ce86c7a3ce20f628bae05","bdp_rd","Wed Apr 12 2023 19:16:12 GMT-0400 (Eastern Daylight Time)","164906","","null","","","","FIX","","<div class='trialBorder'><div class='vertical-center'><img style='vertical-align:center; align:center' src=img/fixation3.jpg></div></div>","null","","","","","",""
"html-keyboard-response","89","94853","0.0-5.0-2.28","631ce86c7a3ce20f628bae05","bdp_rd","Wed Apr 12 2023 19:16:12 GMT-0400 (Eastern Daylight Time)","164906","","2589","","","","offer","","<div class='trialBorder'><div class='vertical-center'><img style='vertical-align:center; align:center' src=img/fixation3.jpg></div><div class='cl'><div class='vertical-center'>$20<br>for<br>sure</div></div><div class='cr'><div class='vertical-center'>$37<br>with a<br>50% chance</div></div><div class='respDivL'><div class='vertical-center'>(E)</div></div><div class='respDivR'><div class='vertical-center'>(I)</div></div></div>","I","$20","$37","0","20","37","RISKY"
"html-keyboard-response","90","95105","0.0-5.0-3.28","631ce86c7a3ce20f628bae05","bdp_rd","Wed Apr 12 2023 19:16:12 GMT-0400 (Eastern Daylight Time)","164906","","null","","","","offerFB","","<div class='trialBorder'><div class='vertical-center'><img style='vertical-align:center; align:center' src=img/fixation3.jpg></div><div class='cl'><div class='vertical-center'>$20<br>for<br>sure</div></div><div class='cr'><div class='vertical-center'><font style='color:orange'>$37<br>with a<br>50% chance</font></div></div><div class='respDivL'><div class='vertical-center'>(E)</div></div><div class='respDivR'><div class='vertical-center'><font style='color:orange'>(I)</font></div></div></div>","null","$20","$37","0","20","37",""
"html-keyboard-response","91","95607","0.0-5.0-1.29","631ce86c7a3ce20f628bae05","bdp_rd","Wed Apr 12 2023 19:16:12 GMT-0400 (Eastern Daylight Time)","164906","","null","","","","FIX","","<div class='trialBorder'><div class='vertical-center'><img style='vertical-align:center; align:center' src=img/fixation3.jpg></div></div>","null","","","","","",""
"html-keyboard-response","92","96933","0.0-5.0-2.29","631ce86c7a3ce20f628bae05","bdp_rd","Wed Apr 12 2023 19:16:12 GMT-0400 (Eastern Daylight Time)","164906","","1325","","","","offer","","<div class='trialBorder'><div class='vertical-center'><img style='vertical-align:center; align:center' src=img/fixation3.jpg></div><div class='cl'><div class='vertical-center'>$80<br>with a<br>50% chance</div></div><div class='cr'><div class='vertical-center'>$20<br>for<br>sure</div></div><div class='respDivL'><div class='vertical-center'>(E)</div></div><div class='respDivR'><div class='vertical-center'>(I)</div></div></div>","E","$20","$80","1","20","80","RISKY"
"html-keyboard-response","93","97185","0.0-5.0-3.29","631ce86c7a3ce20f628bae05","bdp_rd","Wed Apr 12 2023 19:16:12 GMT-0400 (Eastern Daylight Time)","164906","","null","","","","offerFB","","<div class='trialBorder'><div class='vertical-center'><img style='vertical-align:center; align:center' src=img/fixation3.jpg></div><div class='cl'><div class='vertical-center'><font style='color:orange'>$80<br>with a<br>50% chance</font></div></div><div class='cr'><div class='vertical-center'>$20<br>for<br>sure</div></div><div class='respDivL'><div class='vertical-center'><font style='color:orange'>(E)</font></div></div><div class='respDivR'><div class='vertical-center'>(I)</div></div></div>","null","$20","$80","1","20","80",""
"html-keyboard-response","94","97687","0.0-5.0-1.30","631ce86c7a3ce20f628bae05","bdp_rd","Wed Apr 12 2023 19:16:12 GMT-0400 (Eastern Daylight Time)","164906","","null","","","","FIX","","<div class='trialBorder'><div class='vertical-center'><img style='vertical-align:center; align:center' src=img/fixation3.jpg></div></div>","null","","","","","",""
"html-keyboard-response","95","101061","0.0-5.0-2.30","631ce86c7a3ce20f628bae05","bdp_rd","Wed Apr 12 2023 19:16:12 GMT-0400 (Eastern Daylight Time)","164906","","3373","","","","offer","","<div class='trialBorder'><div class='vertical-center'><img style='vertical-align:center; align:center' src=img/fixation3.jpg></div><div class='cl'><div class='vertical-center'>$18<br>for<br>sure</div></div><div class='cr'><div class='vertical-center'>$36<br>with a<br>50% chance</div></div><div class='respDivL'><div class='vertical-center'>(E)</div></div><div class='respDivR'><div class='vertical-center'>(I)</div></div></div>","I","$18","$36","0","18","36","RISKY"
"html-keyboard-response","96","101313","0.0-5.0-3.30","631ce86c7a3ce20f628bae05","bdp_rd","Wed Apr 12 2023 19:16:12 GMT-0400 (Eastern Daylight Time)","164906","","null","","","","offerFB","","<div class='trialBorder'><div class='vertical-center'><img style='vertical-align:center; align:center' src=img/fixation3.jpg></div><div class='cl'><div class='vertical-center'>$18<br>for<br>sure</div></div><div class='cr'><div class='vertical-center'><font style='color:orange'>$36<br>with a<br>50% chance</font></div></div><div class='respDivL'><div class='vertical-center'>(E)</div></div><div class='respDivR'><div class='vertical-center'><font style='color:orange'>(I)</font></div></div></div>","null","$18","$36","0","18","36",""
"html-keyboard-response","97","101814","0.0-5.0-1.31","631ce86c7a3ce20f628bae05","bdp_rd","Wed Apr 12 2023 19:16:12 GMT-0400 (Eastern Daylight Time)","164906","","null","","","","FIX","","<div class='trialBorder'><div class='vertical-center'><img style='vertical-align:center; align:center' src=img/fixation3.jpg></div></div>","null","","","","","",""
"html-keyboard-response","98","103190","0.0-5.0-2.31","631ce86c7a3ce20f628bae05","bdp_rd","Wed Apr 12 2023 19:16:12 GMT-0400 (Eastern Daylight Time)","164906","","1375","","","","offer","","<div class='trialBorder'><div class='vertical-center'><img style='vertical-align:center; align:center' src=img/fixation3.jpg></div><div class='cl'><div class='vertical-center'>$40<br>for<br>sure</div></div><div class='cr'><div class='vertical-center'>$95<br>with a<br>50% chance</div></div><div class='respDivL'><div class='vertical-center'>(E)</div></div><div class='respDivR'><div class='vertical-center'>(I)</div></div></div>","I","$40","$95","0","40","95","RISKY"
"html-keyboard-response","99","103442","0.0-5.0-3.31","631ce86c7a3ce20f628bae05","bdp_rd","Wed Apr 12 2023 19:16:12 GMT-0400 (Eastern Daylight Time)","164906","","null","","","","offerFB","","<div class='trialBorder'><div class='vertical-center'><img style='vertical-align:center; align:center' src=img/fixation3.jpg></div><div class='cl'><div class='vertical-center'>$40<br>for<br>sure</div></div><div class='cr'><div class='vertical-center'><font style='color:orange'>$95<br>with a<br>50% chance</font></div></div><div class='respDivL'><div class='vertical-center'>(E)</div></div><div class='respDivR'><div class='vertical-center'><font style='color:orange'>(I)</font></div></div></div>","null","$40","$95","0","40","95",""
"html-keyboard-response","100","103943","0.0-5.0-1.32","631ce86c7a3ce20f628bae05","bdp_rd","Wed Apr 12 2023 19:16:12 GMT-0400 (Eastern Daylight Time)","164906","","null","","","","FIX","","<div class='trialBorder'><div class='vertical-center'><img style='vertical-align:center; align:center' src=img/fixation3.jpg></div></div>","null","","","","","",""
"html-keyboard-response","101","104710","0.0-5.0-2.32","631ce86c7a3ce20f628bae05","bdp_rd","Wed Apr 12 2023 19:16:12 GMT-0400 (Eastern Daylight Time)","164906","","765","","","","offer","","<div class='trialBorder'><div class='vertical-center'><img style='vertical-align:center; align:center' src=img/fixation3.jpg></div><div class='cl'><div class='vertical-center'>$2<br>for<br>sure</div></div><div class='cr'><div class='vertical-center'>$64<br>with a<br>50% chance</div></div><div class='respDivL'><div class='vertical-center'>(E)</div></div><div class='respDivR'><div class='vertical-center'>(I)</div></div></div>","I","$2","$64","0","2","64","RISKY"
"html-keyboard-response","102","104960","0.0-5.0-3.32","631ce86c7a3ce20f628bae05","bdp_rd","Wed Apr 12 2023 19:16:12 GMT-0400 (Eastern Daylight Time)","164906","","null","","","","offerFB","","<div class='trialBorder'><div class='vertical-center'><img style='vertical-align:center; align:center' src=img/fixation3.jpg></div><div class='cl'><div class='vertical-center'>$2<br>for<br>sure</div></div><div class='cr'><div class='vertical-center'><font style='color:orange'>$64<br>with a<br>50% chance</font></div></div><div class='respDivL'><div class='vertical-center'>(E)</div></div><div class='respDivR'><div class='vertical-center'><font style='color:orange'>(I)</font></div></div></div>","null","$2","$64","0","2","64",""
"html-keyboard-response","103","105461","0.0-5.0-1.33","631ce86c7a3ce20f628bae05","bdp_rd","Wed Apr 12 2023 19:16:12 GMT-0400 (Eastern Daylight Time)","164906","","null","","","","FIX","","<div class='trialBorder'><div class='vertical-center'><img style='vertical-align:center; align:center' src=img/fixation3.jpg></div></div>","null","","","","","",""
"html-keyboard-response","104","106758","0.0-5.0-2.33","631ce86c7a3ce20f628bae05","bdp_rd","Wed Apr 12 2023 19:16:12 GMT-0400 (Eastern Daylight Time)","164906","","1295","","","","offer","","<div class='trialBorder'><div class='vertical-center'><img style='vertical-align:center; align:center' src=img/fixation3.jpg></div><div class='cl'><div class='vertical-center'>$26<br>for<br>sure</div></div><div class='cr'><div class='vertical-center'>$92<br>with a<br>50% chance</div></div><div class='respDivL'><div class='vertical-center'>(E)</div></div><div class='respDivR'><div class='vertical-center'>(I)</div></div></div>","I","$26","$92","0","26","92","RISKY"
"html-keyboard-response","105","107010","0.0-5.0-3.33","631ce86c7a3ce20f628bae05","bdp_rd","Wed Apr 12 2023 19:16:12 GMT-0400 (Eastern Daylight Time)","164906","","null","","","","offerFB","","<div class='trialBorder'><div class='vertical-center'><img style='vertical-align:center; align:center' src=img/fixation3.jpg></div><div class='cl'><div class='vertical-center'>$26<br>for<br>sure</div></div><div class='cr'><div class='vertical-center'><font style='color:orange'>$92<br>with a<br>50% chance</font></div></div><div class='respDivL'><div class='vertical-center'>(E)</div></div><div class='respDivR'><div class='vertical-center'><font style='color:orange'>(I)</font></div></div></div>","null","$26","$92","0","26","92",""
"html-keyboard-response","106","107511","0.0-5.0-1.34","631ce86c7a3ce20f628bae05","bdp_rd","Wed Apr 12 2023 19:16:12 GMT-0400 (Eastern Daylight Time)","164906","","null","","","","FIX","","<div class='trialBorder'><div class='vertical-center'><img style='vertical-align:center; align:center' src=img/fixation3.jpg></div></div>","null","","","","","",""
"html-keyboard-response","107","109109","0.0-5.0-2.34","631ce86c7a3ce20f628bae05","bdp_rd","Wed Apr 12 2023 19:16:12 GMT-0400 (Eastern Daylight Time)","164906","","1597","","","","offer","","<div class='trialBorder'><div class='vertical-center'><img style='vertical-align:center; align:center' src=img/fixation3.jpg></div><div class='cl'><div class='vertical-center'>$33<br>for<br>sure</div></div><div class='cr'><div class='vertical-center'>$66<br>with a<br>50% chance</div></div><div class='respDivL'><div class='vertical-center'>(E)</div></div><div class='respDivR'><div class='vertical-center'>(I)</div></div></div>","I","$33","$66","0","33","66","RISKY"
"html-keyboard-response","108","109361","0.0-5.0-3.34","631ce86c7a3ce20f628bae05","bdp_rd","Wed Apr 12 2023 19:16:12 GMT-0400 (Eastern Daylight Time)","164906","","null","","","","offerFB","","<div class='trialBorder'><div class='vertical-center'><img style='vertical-align:center; align:center' src=img/fixation3.jpg></div><div class='cl'><div class='vertical-center'>$33<br>for<br>sure</div></div><div class='cr'><div class='vertical-center'><font style='color:orange'>$66<br>with a<br>50% chance</font></div></div><div class='respDivL'><div class='vertical-center'>(E)</div></div><div class='respDivR'><div class='vertical-center'><font style='color:orange'>(I)</font></div></div></div>","null","$33","$66","0","33","66",""
"html-keyboard-response","109","109863","0.0-5.0-1.35","631ce86c7a3ce20f628bae05","bdp_rd","Wed Apr 12 2023 19:16:12 GMT-0400 (Eastern Daylight Time)","164906","","null","","","","FIX","","<div class='trialBorder'><div class='vertical-center'><img style='vertical-align:center; align:center' src=img/fixation3.jpg></div></div>","null","","","","","",""
"html-keyboard-response","110","111253","0.0-5.0-2.35","631ce86c7a3ce20f628bae05","bdp_rd","Wed Apr 12 2023 19:16:12 GMT-0400 (Eastern Daylight Time)","164906","","1390","","","","offer","","<div class='trialBorder'><div class='vertical-center'><img style='vertical-align:center; align:center' src=img/fixation3.jpg></div><div class='cl'><div class='vertical-center'>$21<br>with a<br>50% chance</div></div><div class='cr'><div class='vertical-center'>$2<br>for<br>sure</div></div><div class='respDivL'><div class='vertical-center'>(E)</div></div><div class='respDivR'><div class='vertical-center'>(I)</div></div></div>","E","$2","$21","1","2","21","RISKY"
"html-keyboard-response","111","111505","0.0-5.0-3.35","631ce86c7a3ce20f628bae05","bdp_rd","Wed Apr 12 2023 19:16:12 GMT-0400 (Eastern Daylight Time)","164906","","null","","","","offerFB","","<div class='trialBorder'><div class='vertical-center'><img style='vertical-align:center; align:center' src=img/fixation3.jpg></div><div class='cl'><div class='vertical-center'><font style='color:orange'>$21<br>with a<br>50% chance</font></div></div><div class='cr'><div class='vertical-center'>$2<br>for<br>sure</div></div><div class='respDivL'><div class='vertical-center'><font style='color:orange'>(E)</font></div></div><div class='respDivR'><div class='vertical-center'>(I)</div></div></div>","null","$2","$21","1","2","21",""
"html-keyboard-response","112","112006","0.0-5.0-1.36","631ce86c7a3ce20f628bae05","bdp_rd","Wed Apr 12 2023 19:16:12 GMT-0400 (Eastern Daylight Time)","164906","","null","","","","FIX","","<div class='trialBorder'><div class='vertical-center'><img style='vertical-align:center; align:center' src=img/fixation3.jpg></div></div>","null","","","","","",""
"html-keyboard-response","113","113478","0.0-5.0-2.36","631ce86c7a3ce20f628bae05","bdp_rd","Wed Apr 12 2023 19:16:12 GMT-0400 (Eastern Daylight Time)","164906","","1472","","","","offer","","<div class='trialBorder'><div class='vertical-center'><img style='vertical-align:center; align:center' src=img/fixation3.jpg></div><div class='cl'><div class='vertical-center'>$12<br>with a<br>50% chance</div></div><div class='cr'><div class='vertical-center'>$3<br>for<br>sure</div></div><div class='respDivL'><div class='vertical-center'>(E)</div></div><div class='respDivR'><div class='vertical-center'>(I)</div></div></div>","E","$3","$12","1","3","12","RISKY"
"html-keyboard-response","114","113729","0.0-5.0-3.36","631ce86c7a3ce20f628bae05","bdp_rd","Wed Apr 12 2023 19:16:12 GMT-0400 (Eastern Daylight Time)","164906","","null","","","","offerFB","","<div class='trialBorder'><div class='vertical-center'><img style='vertical-align:center; align:center' src=img/fixation3.jpg></div><div class='cl'><div class='vertical-center'><font style='color:orange'>$12<br>with a<br>50% chance</font></div></div><div class='cr'><div class='vertical-center'>$3<br>for<br>sure</div></div><div class='respDivL'><div class='vertical-center'><font style='color:orange'>(E)</font></div></div><div class='respDivR'><div class='vertical-center'>(I)</div></div></div>","null","$3","$12","1","3","12",""
"html-keyboard-response","115","114230","0.0-5.0-1.37","631ce86c7a3ce20f628bae05","bdp_rd","Wed Apr 12 2023 19:16:12 GMT-0400 (Eastern Daylight Time)","164906","","null","","","","FIX","","<div class='trialBorder'><div class='vertical-center'><img style='vertical-align:center; align:center' src=img/fixation3.jpg></div></div>","null","","","","","",""
"html-keyboard-response","116","115381","0.0-5.0-2.37","631ce86c7a3ce20f628bae05","bdp_rd","Wed Apr 12 2023 19:16:12 GMT-0400 (Eastern Daylight Time)","164906","","1151","","","","offer","","<div class='trialBorder'><div class='vertical-center'><img style='vertical-align:center; align:center' src=img/fixation3.jpg></div><div class='cl'><div class='vertical-center'>$14<br>with a<br>50% chance</div></div><div class='cr'><div class='vertical-center'>$4<br>for<br>sure</div></div><div class='respDivL'><div class='vertical-center'>(E)</div></div><div class='respDivR'><div class='vertical-center'>(I)</div></div></div>","E","$4","$14","1","4","14","RISKY"
"html-keyboard-response","117","115633","0.0-5.0-3.37","631ce86c7a3ce20f628bae05","bdp_rd","Wed Apr 12 2023 19:16:12 GMT-0400 (Eastern Daylight Time)","164906","","null","","","","offerFB","","<div class='trialBorder'><div class='vertical-center'><img style='vertical-align:center; align:center' src=img/fixation3.jpg></div><div class='cl'><div class='vertical-center'><font style='color:orange'>$14<br>with a<br>50% chance</font></div></div><div class='cr'><div class='vertical-center'>$4<br>for<br>sure</div></div><div class='respDivL'><div class='vertical-center'><font style='color:orange'>(E)</font></div></div><div class='respDivR'><div class='vertical-center'>(I)</div></div></div>","null","$4","$14","1","4","14",""
"html-keyboard-response","118","116134","0.0-5.0-1.38","631ce86c7a3ce20f628bae05","bdp_rd","Wed Apr 12 2023 19:16:12 GMT-0400 (Eastern Daylight Time)","164906","","null","","","","FIX","","<div class='trialBorder'><div class='vertical-center'><img style='vertical-align:center; align:center' src=img/fixation3.jpg></div></div>","null","","","","","",""
"html-keyboard-response","119","117301","0.0-5.0-2.38","631ce86c7a3ce20f628bae05","bdp_rd","Wed Apr 12 2023 19:16:12 GMT-0400 (Eastern Daylight Time)","164906","","1166","","","","offer","","<div class='trialBorder'><div class='vertical-center'><img style='vertical-align:center; align:center' src=img/fixation3.jpg></div><div class='cl'><div class='vertical-center'>$39<br>for<br>sure</div></div><div class='cr'><div class='vertical-center'>$81<br>with a<br>50% chance</div></div><div class='respDivL'><div class='vertical-center'>(E)</div></div><div class='respDivR'><div class='vertical-center'>(I)</div></div></div>","I","$39","$81","0","39","81","RISKY"
"html-keyboard-response","120","117553","0.0-5.0-3.38","631ce86c7a3ce20f628bae05","bdp_rd","Wed Apr 12 2023 19:16:12 GMT-0400 (Eastern Daylight Time)","164906","","null","","","","offerFB","","<div class='trialBorder'><div class='vertical-center'><img style='vertical-align:center; align:center' src=img/fixation3.jpg></div><div class='cl'><div class='vertical-center'>$39<br>for<br>sure</div></div><div class='cr'><div class='vertical-center'><font style='color:orange'>$81<br>with a<br>50% chance</font></div></div><div class='respDivL'><div class='vertical-center'>(E)</div></div><div class='respDivR'><div class='vertical-center'><font style='color:orange'>(I)</font></div></div></div>","null","$39","$81","0","39","81",""
"html-keyboard-response","121","118054","0.0-5.0-1.39","631ce86c7a3ce20f628bae05","bdp_rd","Wed Apr 12 2023 19:16:12 GMT-0400 (Eastern Daylight Time)","164906","","null","","","","FIX","","<div class='trialBorder'><div class='vertical-center'><img style='vertical-align:center; align:center' src=img/fixation3.jpg></div></div>","null","","","","","",""
"html-keyboard-response","122","119206","0.0-5.0-2.39","631ce86c7a3ce20f628bae05","bdp_rd","Wed Apr 12 2023 19:16:12 GMT-0400 (Eastern Daylight Time)","164906","","1150","","","","offer","","<div class='trialBorder'><div class='vertical-center'><img style='vertical-align:center; align:center' src=img/fixation3.jpg></div><div class='cl'><div class='vertical-center'>$54<br>with a<br>50% chance</div></div><div class='cr'><div class='vertical-center'>$25<br>for<br>sure</div></div><div class='respDivL'><div class='vertical-center'>(E)</div></div><div class='respDivR'><div class='vertical-center'>(I)</div></div></div>","E","$25","$54","1","25","54","RISKY"
"html-keyboard-response","123","119457","0.0-5.0-3.39","631ce86c7a3ce20f628bae05","bdp_rd","Wed Apr 12 2023 19:16:12 GMT-0400 (Eastern Daylight Time)","164906","","null","","","","offerFB","","<div class='trialBorder'><div class='vertical-center'><img style='vertical-align:center; align:center' src=img/fixation3.jpg></div><div class='cl'><div class='vertical-center'><font style='color:orange'>$54<br>with a<br>50% chance</font></div></div><div class='cr'><div class='vertical-center'>$25<br>for<br>sure</div></div><div class='respDivL'><div class='vertical-center'><font style='color:orange'>(E)</font></div></div><div class='respDivR'><div class='vertical-center'>(I)</div></div></div>","null","$25","$54","1","25","54",""
"html-keyboard-response","124","119958","0.0-5.0-1.40","631ce86c7a3ce20f628bae05","bdp_rd","Wed Apr 12 2023 19:16:12 GMT-0400 (Eastern Daylight Time)","164906","","null","","","","FIX","","<div class='trialBorder'><div class='vertical-center'><img style='vertical-align:center; align:center' src=img/fixation3.jpg></div></div>","null","","","","","",""
"html-keyboard-response","125","121461","0.0-5.0-2.40","631ce86c7a3ce20f628bae05","bdp_rd","Wed Apr 12 2023 19:16:12 GMT-0400 (Eastern Daylight Time)","164906","","1502","","","","offer","","<div class='trialBorder'><div class='vertical-center'><img style='vertical-align:center; align:center' src=img/fixation3.jpg></div><div class='cl'><div class='vertical-center'>$58<br>for<br>sure</div></div><div class='cr'><div class='vertical-center'>$69<br>with a<br>50% chance</div></div><div class='respDivL'><div class='vertical-center'>(E)</div></div><div class='respDivR'><div class='vertical-center'>(I)</div></div></div>","E","$58","$69","0","58","69","SURE"
"html-keyboard-response","126","121713","0.0-5.0-3.40","631ce86c7a3ce20f628bae05","bdp_rd","Wed Apr 12 2023 19:16:12 GMT-0400 (Eastern Daylight Time)","164906","","null","","","","offerFB","","<div class='trialBorder'><div class='vertical-center'><img style='vertical-align:center; align:center' src=img/fixation3.jpg></div><div class='cl'><div class='vertical-center'><font style='color:orange'>$58<br>for<br>sure</font></div></div><div class='cr'><div class='vertical-center'>$69<br>with a<br>50% chance</div></div><div class='respDivL'><div class='vertical-center'><font style='color:orange'>(E)</font></div></div><div class='respDivR'><div class='vertical-center'>(I)</div></div></div>","null","$58","$69","0","58","69",""
"html-keyboard-response","127","122215","0.0-5.0-1.41","631ce86c7a3ce20f628bae05","bdp_rd","Wed Apr 12 2023 19:16:12 GMT-0400 (Eastern Daylight Time)","164906","","null","","","","FIX","","<div class='trialBorder'><div class='vertical-center'><img style='vertical-align:center; align:center' src=img/fixation3.jpg></div></div>","null","","","","","",""
"html-keyboard-response","128","123382","0.0-5.0-2.41","631ce86c7a3ce20f628bae05","bdp_rd","Wed Apr 12 2023 19:16:12 GMT-0400 (Eastern Daylight Time)","164906","","1166","","","","offer","","<div class='trialBorder'><div class='vertical-center'><img style='vertical-align:center; align:center' src=img/fixation3.jpg></div><div class='cl'><div class='vertical-center'>$40<br>with a<br>50% chance</div></div><div class='cr'><div class='vertical-center'>$10<br>for<br>sure</div></div><div class='respDivL'><div class='vertical-center'>(E)</div></div><div class='respDivR'><div class='vertical-center'>(I)</div></div></div>","E","$10","$40","1","10","40","RISKY"
"html-keyboard-response","129","123633","0.0-5.0-3.41","631ce86c7a3ce20f628bae05","bdp_rd","Wed Apr 12 2023 19:16:12 GMT-0400 (Eastern Daylight Time)","164906","","null","","","","offerFB","","<div class='trialBorder'><div class='vertical-center'><img style='vertical-align:center; align:center' src=img/fixation3.jpg></div><div class='cl'><div class='vertical-center'><font style='color:orange'>$40<br>with a<br>50% chance</font></div></div><div class='cr'><div class='vertical-center'>$10<br>for<br>sure</div></div><div class='respDivL'><div class='vertical-center'><font style='color:orange'>(E)</font></div></div><div class='respDivR'><div class='vertical-center'>(I)</div></div></div>","null","$10","$40","1","10","40",""
"html-keyboard-response","130","124135","0.0-5.0-1.42","631ce86c7a3ce20f628bae05","bdp_rd","Wed Apr 12 2023 19:16:12 GMT-0400 (Eastern Daylight Time)","164906","","null","","","","FIX","","<div class='trialBorder'><div class='vertical-center'><img style='vertical-align:center; align:center' src=img/fixation3.jpg></div></div>","null","","","","","",""
"html-keyboard-response","131","126086","0.0-5.0-2.42","631ce86c7a3ce20f628bae05","bdp_rd","Wed Apr 12 2023 19:16:12 GMT-0400 (Eastern Daylight Time)","164906","","1950","","","","offer","","<div class='trialBorder'><div class='vertical-center'><img style='vertical-align:center; align:center' src=img/fixation3.jpg></div><div class='cl'><div class='vertical-center'>$11<br>with a<br>50% chance</div></div><div class='cr'><div class='vertical-center'>$4<br>for<br>sure</div></div><div class='respDivL'><div class='vertical-center'>(E)</div></div><div class='respDivR'><div class='vertical-center'>(I)</div></div></div>","E","$4","$11","1","4","11","RISKY"
"html-keyboard-response","132","126337","0.0-5.0-3.42","631ce86c7a3ce20f628bae05","bdp_rd","Wed Apr 12 2023 19:16:12 GMT-0400 (Eastern Daylight Time)","164906","","null","","","","offerFB","","<div class='trialBorder'><div class='vertical-center'><img style='vertical-align:center; align:center' src=img/fixation3.jpg></div><div class='cl'><div class='vertical-center'><font style='color:orange'>$11<br>with a<br>50% chance</font></div></div><div class='cr'><div class='vertical-center'>$4<br>for<br>sure</div></div><div class='respDivL'><div class='vertical-center'><font style='color:orange'>(E)</font></div></div><div class='respDivR'><div class='vertical-center'>(I)</div></div></div>","null","$4","$11","1","4","11",""
"html-keyboard-response","133","126838","0.0-5.0-1.43","631ce86c7a3ce20f628bae05","bdp_rd","Wed Apr 12 2023 19:16:12 GMT-0400 (Eastern Daylight Time)","164906","","null","","","","FIX","","<div class='trialBorder'><div class='vertical-center'><img style='vertical-align:center; align:center' src=img/fixation3.jpg></div></div>","null","","","","","",""
"html-keyboard-response","134","127606","0.0-5.0-2.43","631ce86c7a3ce20f628bae05","bdp_rd","Wed Apr 12 2023 19:16:12 GMT-0400 (Eastern Daylight Time)","164906","","766","","","","offer","","<div class='trialBorder'><div class='vertical-center'><img style='vertical-align:center; align:center' src=img/fixation3.jpg></div><div class='cl'><div class='vertical-center'>$62<br>with a<br>50% chance</div></div><div class='cr'><div class='vertical-center'>$11<br>for<br>sure</div></div><div class='respDivL'><div class='vertical-center'>(E)</div></div><div class='respDivR'><div class='vertical-center'>(I)</div></div></div>","E","$11","$62","1","11","62","RISKY"
"html-keyboard-response","135","127858","0.0-5.0-3.43","631ce86c7a3ce20f628bae05","bdp_rd","Wed Apr 12 2023 19:16:12 GMT-0400 (Eastern Daylight Time)","164906","","null","","","","offerFB","","<div class='trialBorder'><div class='vertical-center'><img style='vertical-align:center; align:center' src=img/fixation3.jpg></div><div class='cl'><div class='vertical-center'><font style='color:orange'>$62<br>with a<br>50% chance</font></div></div><div class='cr'><div class='vertical-center'>$11<br>for<br>sure</div></div><div class='respDivL'><div class='vertical-center'><font style='color:orange'>(E)</font></div></div><div class='respDivR'><div class='vertical-center'>(I)</div></div></div>","null","$11","$62","1","11","62",""
"html-keyboard-response","136","128360","0.0-5.0-1.44","631ce86c7a3ce20f628bae05","bdp_rd","Wed Apr 12 2023 19:16:12 GMT-0400 (Eastern Daylight Time)","164906","","null","","","","FIX","","<div class='trialBorder'><div class='vertical-center'><img style='vertical-align:center; align:center' src=img/fixation3.jpg></div></div>","null","","","","","",""
"html-keyboard-response","137","129941","0.0-5.0-2.44","631ce86c7a3ce20f628bae05","bdp_rd","Wed Apr 12 2023 19:16:12 GMT-0400 (Eastern Daylight Time)","164906","","1581","","","","offer","","<div class='trialBorder'><div class='vertical-center'><img style='vertical-align:center; align:center' src=img/fixation3.jpg></div><div class='cl'><div class='vertical-center'>$6<br>for<br>sure</div></div><div class='cr'><div class='vertical-center'>$13<br>with a<br>50% chance</div></div><div class='respDivL'><div class='vertical-center'>(E)</div></div><div class='respDivR'><div class='vertical-center'>(I)</div></div></div>","E","$6","$13","0","6","13","SURE"
"html-keyboard-response","138","130193","0.0-5.0-3.44","631ce86c7a3ce20f628bae05","bdp_rd","Wed Apr 12 2023 19:16:12 GMT-0400 (Eastern Daylight Time)","164906","","null","","","","offerFB","","<div class='trialBorder'><div class='vertical-center'><img style='vertical-align:center; align:center' src=img/fixation3.jpg></div><div class='cl'><div class='vertical-center'><font style='color:orange'>$6<br>for<br>sure</font></div></div><div class='cr'><div class='vertical-center'>$13<br>with a<br>50% chance</div></div><div class='respDivL'><div class='vertical-center'><font style='color:orange'>(E)</font></div></div><div class='respDivR'><div class='vertical-center'>(I)</div></div></div>","null","$6","$13","0","6","13",""
"html-keyboard-response","139","130694","0.0-5.0-1.45","631ce86c7a3ce20f628bae05","bdp_rd","Wed Apr 12 2023 19:16:12 GMT-0400 (Eastern Daylight Time)","164906","","null","","","","FIX","","<div class='trialBorder'><div class='vertical-center'><img style='vertical-align:center; align:center' src=img/fixation3.jpg></div></div>","null","","","","","",""
"html-keyboard-response","140","133093","0.0-5.0-2.45","631ce86c7a3ce20f628bae05","bdp_rd","Wed Apr 12 2023 19:16:12 GMT-0400 (Eastern Daylight Time)","164906","","2399","","","","offer","","<div class='trialBorder'><div class='vertical-center'><img style='vertical-align:center; align:center' src=img/fixation3.jpg></div><div class='cl'><div class='vertical-center'>$24<br>with a<br>50% chance</div></div><div class='cr'><div class='vertical-center'>$13<br>for<br>sure</div></div><div class='respDivL'><div class='vertical-center'>(E)</div></div><div class='respDivR'><div class='vertical-center'>(I)</div></div></div>","I","$13","$24","1","13","24","SURE"
"html-keyboard-response","141","133344","0.0-5.0-3.45","631ce86c7a3ce20f628bae05","bdp_rd","Wed Apr 12 2023 19:16:12 GMT-0400 (Eastern Daylight Time)","164906","","null","","","","offerFB","","<div class='trialBorder'><div class='vertical-center'><img style='vertical-align:center; align:center' src=img/fixation3.jpg></div><div class='cl'><div class='vertical-center'>$24<br>with a<br>50% chance</div></div><div class='cr'><div class='vertical-center'><font style='color:orange'>$13<br>for<br>sure</font></div></div><div class='respDivL'><div class='vertical-center'>(E)</div></div><div class='respDivR'><div class='vertical-center'><font style='color:orange'>(I)</font></div></div></div>","null","$13","$24","1","13","24",""
"html-keyboard-response","142","133845","0.0-5.0-1.46","631ce86c7a3ce20f628bae05","bdp_rd","Wed Apr 12 2023 19:16:12 GMT-0400 (Eastern Daylight Time)","164906","","null","","","","FIX","","<div class='trialBorder'><div class='vertical-center'><img style='vertical-align:center; align:center' src=img/fixation3.jpg></div></div>","null","","","","","",""
"html-keyboard-response","143","135653","0.0-5.0-2.46","631ce86c7a3ce20f628bae05","bdp_rd","Wed Apr 12 2023 19:16:12 GMT-0400 (Eastern Daylight Time)","164906","","1808","","","","offer","","<div class='trialBorder'><div class='vertical-center'><img style='vertical-align:center; align:center' src=img/fixation3.jpg></div><div class='cl'><div class='vertical-center'>$28<br>with a<br>50% chance</div></div><div class='cr'><div class='vertical-center'>$16<br>for<br>sure</div></div><div class='respDivL'><div class='vertical-center'>(E)</div></div><div class='respDivR'><div class='vertical-center'>(I)</div></div></div>","I","$16","$28","1","16","28","SURE"
"html-keyboard-response","144","135905","0.0-5.0-3.46","631ce86c7a3ce20f628bae05","bdp_rd","Wed Apr 12 2023 19:16:12 GMT-0400 (Eastern Daylight Time)","164906","","null","","","","offerFB","","<div class='trialBorder'><div class='vertical-center'><img style='vertical-align:center; align:center' src=img/fixation3.jpg></div><div class='cl'><div class='vertical-center'>$28<br>with a<br>50% chance</div></div><div class='cr'><div class='vertical-center'><font style='color:orange'>$16<br>for<br>sure</font></div></div><div class='respDivL'><div class='vertical-center'>(E)</div></div><div class='respDivR'><div class='vertical-center'><font style='color:orange'>(I)</font></div></div></div>","null","$16","$28","1","16","28",""
"html-keyboard-response","145","136406","0.0-5.0-1.47","631ce86c7a3ce20f628bae05","bdp_rd","Wed Apr 12 2023 19:16:12 GMT-0400 (Eastern Daylight Time)","164906","","null","","","","FIX","","<div class='trialBorder'><div class='vertical-center'><img style='vertical-align:center; align:center' src=img/fixation3.jpg></div></div>","null","","","","","",""
"html-keyboard-response","146","137685","0.0-5.0-2.47","631ce86c7a3ce20f628bae05","bdp_rd","Wed Apr 12 2023 19:16:12 GMT-0400 (Eastern Daylight Time)","164906","","1278","","","","offer","","<div class='trialBorder'><div class='vertical-center'><img style='vertical-align:center; align:center' src=img/fixation3.jpg></div><div class='cl'><div class='vertical-center'>$53<br>for<br>sure</div></div><div class='cr'><div class='vertical-center'>$98<br>with a<br>50% chance</div></div><div class='respDivL'><div class='vertical-center'>(E)</div></div><div class='respDivR'><div class='vertical-center'>(I)</div></div></div>","I","$53","$98","0","53","98","RISKY"
"html-keyboard-response","147","137936","0.0-5.0-3.47","631ce86c7a3ce20f628bae05","bdp_rd","Wed Apr 12 2023 19:16:12 GMT-0400 (Eastern Daylight Time)","164906","","null","","","","offerFB","","<div class='trialBorder'><div class='vertical-center'><img style='vertical-align:center; align:center' src=img/fixation3.jpg></div><div class='cl'><div class='vertical-center'>$53<br>for<br>sure</div></div><div class='cr'><div class='vertical-center'><font style='color:orange'>$98<br>with a<br>50% chance</font></div></div><div class='respDivL'><div class='vertical-center'>(E)</div></div><div class='respDivR'><div class='vertical-center'><font style='color:orange'>(I)</font></div></div></div>","null","$53","$98","0","53","98",""
"html-keyboard-response","148","138438","0.0-5.0-1.48","631ce86c7a3ce20f628bae05","bdp_rd","Wed Apr 12 2023 19:16:12 GMT-0400 (Eastern Daylight Time)","164906","","null","","","","FIX","","<div class='trialBorder'><div class='vertical-center'><img style='vertical-align:center; align:center' src=img/fixation3.jpg></div></div>","null","","","","","",""
"html-keyboard-response","149","139589","0.0-5.0-2.48","631ce86c7a3ce20f628bae05","bdp_rd","Wed Apr 12 2023 19:16:12 GMT-0400 (Eastern Daylight Time)","164906","","1151","","","","offer","","<div class='trialBorder'><div class='vertical-center'><img style='vertical-align:center; align:center' src=img/fixation3.jpg></div><div class='cl'><div class='vertical-center'>$13<br>for<br>sure</div></div><div class='cr'><div class='vertical-center'>$41<br>with a<br>50% chance</div></div><div class='respDivL'><div class='vertical-center'>(E)</div></div><div class='respDivR'><div class='vertical-center'>(I)</div></div></div>","I","$13","$41","0","13","41","RISKY"
"html-keyboard-response","150","139847","0.0-5.0-3.48","631ce86c7a3ce20f628bae05","bdp_rd","Wed Apr 12 2023 19:16:12 GMT-0400 (Eastern Daylight Time)","164906","","null","","","","offerFB","","<div class='trialBorder'><div class='vertical-center'><img style='vertical-align:center; align:center' src=img/fixation3.jpg></div><div class='cl'><div class='vertical-center'>$13<br>for<br>sure</div></div><div class='cr'><div class='vertical-center'><font style='color:orange'>$41<br>with a<br>50% chance</font></div></div><div class='respDivL'><div class='vertical-center'>(E)</div></div><div class='respDivR'><div class='vertical-center'><font style='color:orange'>(I)</font></div></div></div>","null","$13","$41","0","13","41",""
"html-keyboard-response","151","140349","0.0-5.0-1.49","631ce86c7a3ce20f628bae05","bdp_rd","Wed Apr 12 2023 19:16:12 GMT-0400 (Eastern Daylight Time)","164906","","null","","","","FIX","","<div class='trialBorder'><div class='vertical-center'><img style='vertical-align:center; align:center' src=img/fixation3.jpg></div></div>","null","","","","","",""
"html-keyboard-response","152","141349","0.0-5.0-2.49","631ce86c7a3ce20f628bae05","bdp_rd","Wed Apr 12 2023 19:16:12 GMT-0400 (Eastern Daylight Time)","164906","","1000","","","","offer","","<div class='trialBorder'><div class='vertical-center'><img style='vertical-align:center; align:center' src=img/fixation3.jpg></div><div class='cl'><div class='vertical-center'>$17<br>with a<br>50% chance</div></div><div class='cr'><div class='vertical-center'>$3<br>for<br>sure</div></div><div class='respDivL'><div class='vertical-center'>(E)</div></div><div class='respDivR'><div class='vertical-center'>(I)</div></div></div>","E","$3","$17","1","3","17","RISKY"
"html-keyboard-response","153","141601","0.0-5.0-3.49","631ce86c7a3ce20f628bae05","bdp_rd","Wed Apr 12 2023 19:16:12 GMT-0400 (Eastern Daylight Time)","164906","","null","","","","offerFB","","<div class='trialBorder'><div class='vertical-center'><img style='vertical-align:center; align:center' src=img/fixation3.jpg></div><div class='cl'><div class='vertical-center'><font style='color:orange'>$17<br>with a<br>50% chance</font></div></div><div class='cr'><div class='vertical-center'>$3<br>for<br>sure</div></div><div class='respDivL'><div class='vertical-center'><font style='color:orange'>(E)</font></div></div><div class='respDivR'><div class='vertical-center'>(I)</div></div></div>","null","$3","$17","1","3","17",""
"html-keyboard-response","154","142103","0.0-5.0-1.50","631ce86c7a3ce20f628bae05","bdp_rd","Wed Apr 12 2023 19:16:12 GMT-0400 (Eastern Daylight Time)","164906","","null","","","","FIX","","<div class='trialBorder'><div class='vertical-center'><img style='vertical-align:center; align:center' src=img/fixation3.jpg></div></div>","null","","","","","",""
"html-keyboard-response","155","143845","0.0-5.0-2.50","631ce86c7a3ce20f628bae05","bdp_rd","Wed Apr 12 2023 19:16:12 GMT-0400 (Eastern Daylight Time)","164906","","1742","","","","offer","","<div class='trialBorder'><div class='vertical-center'><img style='vertical-align:center; align:center' src=img/fixation3.jpg></div><div class='cl'><div class='vertical-center'>$29<br>for<br>sure</div></div><div class='cr'><div class='vertical-center'>$46<br>with a<br>50% chance</div></div><div class='respDivL'><div class='vertical-center'>(E)</div></div><div class='respDivR'><div class='vertical-center'>(I)</div></div></div>","E","$29","$46","0","29","46","SURE"
"html-keyboard-response","156","144096","0.0-5.0-3.50","631ce86c7a3ce20f628bae05","bdp_rd","Wed Apr 12 2023 19:16:12 GMT-0400 (Eastern Daylight Time)","164906","","null","","","","offerFB","","<div class='trialBorder'><div class='vertical-center'><img style='vertical-align:center; align:center' src=img/fixation3.jpg></div><div class='cl'><div class='vertical-center'><font style='color:orange'>$29<br>for<br>sure</font></div></div><div class='cr'><div class='vertical-center'>$46<br>with a<br>50% chance</div></div><div class='respDivL'><div class='vertical-center'><font style='color:orange'>(E)</font></div></div><div class='respDivR'><div class='vertical-center'>(I)</div></div></div>","null","$29","$46","0","29","46",""
"html-keyboard-response","157","144598","0.0-5.0-1.51","631ce86c7a3ce20f628bae05","bdp_rd","Wed Apr 12 2023 19:16:12 GMT-0400 (Eastern Daylight Time)","164906","","null","","","","FIX","","<div class='trialBorder'><div class='vertical-center'><img style='vertical-align:center; align:center' src=img/fixation3.jpg></div></div>","null","","","","","",""
"html-keyboard-response","158","146261","0.0-5.0-2.51","631ce86c7a3ce20f628bae05","bdp_rd","Wed Apr 12 2023 19:16:12 GMT-0400 (Eastern Daylight Time)","164906","","1662","","","","offer","","<div class='trialBorder'><div class='vertical-center'><img style='vertical-align:center; align:center' src=img/fixation3.jpg></div><div class='cl'><div class='vertical-center'>$8<br>for<br>sure</div></div><div class='cr'><div class='vertical-center'>$23<br>with a<br>50% chance</div></div><div class='respDivL'><div class='vertical-center'>(E)</div></div><div class='respDivR'><div class='vertical-center'>(I)</div></div></div>","I","$8","$23","0","8","23","RISKY"
"html-keyboard-response","159","146512","0.0-5.0-3.51","631ce86c7a3ce20f628bae05","bdp_rd","Wed Apr 12 2023 19:16:12 GMT-0400 (Eastern Daylight Time)","164906","","null","","","","offerFB","","<div class='trialBorder'><div class='vertical-center'><img style='vertical-align:center; align:center' src=img/fixation3.jpg></div><div class='cl'><div class='vertical-center'>$8<br>for<br>sure</div></div><div class='cr'><div class='vertical-center'><font style='color:orange'>$23<br>with a<br>50% chance</font></div></div><div class='respDivL'><div class='vertical-center'>(E)</div></div><div class='respDivR'><div class='vertical-center'><font style='color:orange'>(I)</font></div></div></div>","null","$8","$23","0","8","23",""
"html-keyboard-response","160","147014","0.0-5.0-1.52","631ce86c7a3ce20f628bae05","bdp_rd","Wed Apr 12 2023 19:16:12 GMT-0400 (Eastern Daylight Time)","164906","","null","","","","FIX","","<div class='trialBorder'><div class='vertical-center'><img style='vertical-align:center; align:center' src=img/fixation3.jpg></div></div>","null","","","","","",""
"html-keyboard-response","161","147797","0.0-5.0-2.52","631ce86c7a3ce20f628bae05","bdp_rd","Wed Apr 12 2023 19:16:12 GMT-0400 (Eastern Daylight Time)","164906","","782","","","","offer","","<div class='trialBorder'><div class='vertical-center'><img style='vertical-align:center; align:center' src=img/fixation3.jpg></div><div class='cl'><div class='vertical-center'>$45<br>with a<br>50% chance</div></div><div class='cr'><div class='vertical-center'>$8<br>for<br>sure</div></div><div class='respDivL'><div class='vertical-center'>(E)</div></div><div class='respDivR'><div class='vertical-center'>(I)</div></div></div>","E","$8","$45","1","8","45","RISKY"
"html-keyboard-response","162","148049","0.0-5.0-3.52","631ce86c7a3ce20f628bae05","bdp_rd","Wed Apr 12 2023 19:16:12 GMT-0400 (Eastern Daylight Time)","164906","","null","","","","offerFB","","<div class='trialBorder'><div class='vertical-center'><img style='vertical-align:center; align:center' src=img/fixation3.jpg></div><div class='cl'><div class='vertical-center'><font style='color:orange'>$45<br>with a<br>50% chance</font></div></div><div class='cr'><div class='vertical-center'>$8<br>for<br>sure</div></div><div class='respDivL'><div class='vertical-center'><font style='color:orange'>(E)</font></div></div><div class='respDivR'><div class='vertical-center'>(I)</div></div></div>","null","$8","$45","1","8","45",""
"html-keyboard-response","163","148550","0.0-5.0-1.53","631ce86c7a3ce20f628bae05","bdp_rd","Wed Apr 12 2023 19:16:12 GMT-0400 (Eastern Daylight Time)","164906","","null","","","","FIX","","<div class='trialBorder'><div class='vertical-center'><img style='vertical-align:center; align:center' src=img/fixation3.jpg></div></div>","null","","","","","",""
"html-keyboard-response","164","149989","0.0-5.0-2.53","631ce86c7a3ce20f628bae05","bdp_rd","Wed Apr 12 2023 19:16:12 GMT-0400 (Eastern Daylight Time)","164906","","1438","","","","offer","","<div class='trialBorder'><div class='vertical-center'><img style='vertical-align:center; align:center' src=img/fixation3.jpg></div><div class='cl'><div class='vertical-center'>$73<br>with a<br>50% chance</div></div><div class='cr'><div class='vertical-center'>$42<br>for<br>sure</div></div><div class='respDivL'><div class='vertical-center'>(E)</div></div><div class='respDivR'><div class='vertical-center'>(I)</div></div></div>","I","$42","$73","1","42","73","SURE"
"html-keyboard-response","165","150240","0.0-5.0-3.53","631ce86c7a3ce20f628bae05","bdp_rd","Wed Apr 12 2023 19:16:12 GMT-0400 (Eastern Daylight Time)","164906","","null","","","","offerFB","","<div class='trialBorder'><div class='vertical-center'><img style='vertical-align:center; align:center' src=img/fixation3.jpg></div><div class='cl'><div class='vertical-center'>$73<br>with a<br>50% chance</div></div><div class='cr'><div class='vertical-center'><font style='color:orange'>$42<br>for<br>sure</font></div></div><div class='respDivL'><div class='vertical-center'>(E)</div></div><div class='respDivR'><div class='vertical-center'><font style='color:orange'>(I)</font></div></div></div>","null","$42","$73","1","42","73",""
"html-keyboard-response","166","150741","0.0-5.0-1.54","631ce86c7a3ce20f628bae05","bdp_rd","Wed Apr 12 2023 19:16:12 GMT-0400 (Eastern Daylight Time)","164906","","null","","","","FIX","","<div class='trialBorder'><div class='vertical-center'><img style='vertical-align:center; align:center' src=img/fixation3.jpg></div></div>","null","","","","","",""
"html-keyboard-response","167","151605","0.0-5.0-2.54","631ce86c7a3ce20f628bae05","bdp_rd","Wed Apr 12 2023 19:16:12 GMT-0400 (Eastern Daylight Time)","164906","","863","","","","offer","","<div class='trialBorder'><div class='vertical-center'><img style='vertical-align:center; align:center' src=img/fixation3.jpg></div><div class='cl'><div class='vertical-center'>$1<br>for<br>sure</div></div><div class='cr'><div class='vertical-center'>$33<br>with a<br>50% chance</div></div><div class='respDivL'><div class='vertical-center'>(E)</div></div><div class='respDivR'><div class='vertical-center'>(I)</div></div></div>","I","$1","$33","0","1","33","RISKY"
"html-keyboard-response","168","151857","0.0-5.0-3.54","631ce86c7a3ce20f628bae05","bdp_rd","Wed Apr 12 2023 19:16:12 GMT-0400 (Eastern Daylight Time)","164906","","null","","","","offerFB","","<div class='trialBorder'><div class='vertical-center'><img style='vertical-align:center; align:center' src=img/fixation3.jpg></div><div class='cl'><div class='vertical-center'>$1<br>for<br>sure</div></div><div class='cr'><div class='vertical-center'><font style='color:orange'>$33<br>with a<br>50% chance</font></div></div><div class='respDivL'><div class='vertical-center'>(E)</div></div><div class='respDivR'><div class='vertical-center'><font style='color:orange'>(I)</font></div></div></div>","null","$1","$33","0","1","33",""
"html-keyboard-response","169","152358","0.0-5.0-1.55","631ce86c7a3ce20f628bae05","bdp_rd","Wed Apr 12 2023 19:16:12 GMT-0400 (Eastern Daylight Time)","164906","","null","","","","FIX","","<div class='trialBorder'><div class='vertical-center'><img style='vertical-align:center; align:center' src=img/fixation3.jpg></div></div>","null","","","","","",""
"html-keyboard-response","170","153573","0.0-5.0-2.55","631ce86c7a3ce20f628bae05","bdp_rd","Wed Apr 12 2023 19:16:12 GMT-0400 (Eastern Daylight Time)","164906","","1214","","","","offer","","<div class='trialBorder'><div class='vertical-center'><img style='vertical-align:center; align:center' src=img/fixation3.jpg></div><div class='cl'><div class='vertical-center'>$47<br>with a<br>50% chance</div></div><div class='cr'><div class='vertical-center'>$27<br>for<br>sure</div></div><div class='respDivL'><div class='vertical-center'>(E)</div></div><div class='respDivR'><div class='vertical-center'>(I)</div></div></div>","E","$27","$47","1","27","47","RISKY"
"html-keyboard-response","171","153825","0.0-5.0-3.55","631ce86c7a3ce20f628bae05","bdp_rd","Wed Apr 12 2023 19:16:12 GMT-0400 (Eastern Daylight Time)","164906","","null","","","","offerFB","","<div class='trialBorder'><div class='vertical-center'><img style='vertical-align:center; align:center' src=img/fixation3.jpg></div><div class='cl'><div class='vertical-center'><font style='color:orange'>$47<br>with a<br>50% chance</font></div></div><div class='cr'><div class='vertical-center'>$27<br>for<br>sure</div></div><div class='respDivL'><div class='vertical-center'><font style='color:orange'>(E)</font></div></div><div class='respDivR'><div class='vertical-center'>(I)</div></div></div>","null","$27","$47","1","27","47",""
"html-keyboard-response","172","154326","0.0-5.0-1.56","631ce86c7a3ce20f628bae05","bdp_rd","Wed Apr 12 2023 19:16:12 GMT-0400 (Eastern Daylight Time)","164906","","null","","","","FIX","","<div class='trialBorder'><div class='vertical-center'><img style='vertical-align:center; align:center' src=img/fixation3.jpg></div></div>","null","","","","","",""
"html-keyboard-response","173","157685","0.0-5.0-2.56","631ce86c7a3ce20f628bae05","bdp_rd","Wed Apr 12 2023 19:16:12 GMT-0400 (Eastern Daylight Time)","164906","","3358","","","","offer","","<div class='trialBorder'><div class='vertical-center'><img style='vertical-align:center; align:center' src=img/fixation3.jpg></div><div class='cl'><div class='vertical-center'>$100<br>with a<br>50% chance</div></div><div class='cr'><div class='vertical-center'>$63<br>for<br>sure</div></div><div class='respDivL'><div class='vertical-center'>(E)</div></div><div class='respDivR'><div class='vertical-center'>(I)</div></div></div>","I","$63","$100","1","63","10","SURE"
