"event","trial","time","trialtype","subject_id","task","startTime","totalTime","trial_type","trial_index","time_elapsed","internal_node_id","view_history","rt","success","stimulus","key_press","sureOffer","riskyOffer","riskyLeft","sureAmt","riskyAmt","chosen"
"focus","0","0","focusevent","63e55887d67a5c7e32a678fa","bdp_rd","Sun Mar 26 2023 17:17:33 GMT-0500 (Central Daylight Time)","147577","","","","","","","","","","","","","","",""
"","","","","63e55887d67a5c7e32a678fa","bdp_rd","Sun Mar 26 2023 17:17:33 GMT-0500 (Central Daylight Time)","147577","pavlovia","0","11","0.0-0.0","","","","","","","","","","",""
"","","","","63e55887d67a5c7e32a678fa","bdp_rd","Sun Mar 26 2023 17:17:33 GMT-0500 (Central Daylight Time)","147577","instructions","1","2101","0.0-1.0","[{""page_index"":0,""viewing_time"":2089}]","2089","","","","","","","","",""
"fullscreenexit","2","5228","fullscreenexit","63e55887d67a5c7e32a678fa","bdp_rd","Sun Mar 26 2023 17:17:33 GMT-0500 (Central Daylight Time)","147577","","","","","","","","","","","","","","",""
"","","","","63e55887d67a5c7e32a678fa","bdp_rd","Sun Mar 26 2023 17:17:33 GMT-0500 (Central Daylight Time)","147577","fullscreen","2","6009","0.0-2.0","","","true","","","","","","","",""
"","","","fullscreenfail","63e55887d67a5c7e32a678fa","bdp_rd","Sun Mar 26 2023 17:17:33 GMT-0500 (Central Daylight Time)","147577","image-keyboard-response","3","24919","0.0-3.0-0.0","","18905","","","32","","","","","",""
"","","","","63e55887d67a5c7e32a678fa","bdp_rd","Sun Mar 26 2023 17:17:33 GMT-0500 (Central Daylight Time)","147577","instructions","4","36942","0.0-4.0","[{""page_index"":0,""viewing_time"":7997},{""page_index"":1,""viewing_time"":2700},{""page_index"":2,""viewing_time"":1075}]","11772","","","","","","","","",""
"","","","FIX","63e55887d67a5c7e32a678fa","bdp_rd","Sun Mar 26 2023 17:17:33 GMT-0500 (Central Daylight Time)","147577","html-keyboard-response","5","37445","0.0-5.0-1.0","","null","","<div class='trialBorder'><div class='vertical-center'><img style='vertical-align:center; align:center' src=img/fixation3.jpg></div></div>","null","","","","","",""
"","","","offer","63e55887d67a5c7e32a678fa","bdp_rd","Sun Mar 26 2023 17:17:33 GMT-0500 (Central Daylight Time)","147577","html-keyboard-response","6","39588","0.0-5.0-2.0","","2139","","<div class='trialBorder'><div class='vertical-center'><img style='vertical-align:center; align:center' src=img/fixation3.jpg></div><div class='cl'><div class='vertical-center'>$64<br>with a<br>50% chance</div></div><div class='cr'><div class='vertical-center'>$2<br>for<br>sure</div></div><div class='respDivL'><div class='vertical-center'>(E)</div></div><div class='respDivR'><div class='vertical-center'>(I)</div></div></div>","E","$2","$64","1","2","64","RISKY"
"","","","offerFB","63e55887d67a5c7e32a678fa","bdp_rd","Sun Mar 26 2023 17:17:33 GMT-0500 (Central Daylight Time)","147577","html-keyboard-response","7","39841","0.0-5.0-3.0","","null","","<div class='trialBorder'><div class='vertical-center'><img style='vertical-align:center; align:center' src=img/fixation3.jpg></div><div class='cl'><div class='vertical-center'><font style='color:orange'>$64<br>with a<br>50% chance</font></div></div><div class='cr'><div class='vertical-center'>$2<br>for<br>sure</div></div><div class='respDivL'><div class='vertical-center'><font style='color:orange'>(E)</font></div></div><div class='respDivR'><div class='vertical-center'>(I)</div></div></div>","null","$2","$64","1","2","64",""
"","","","FIX","63e55887d67a5c7e32a678fa","bdp_rd","Sun Mar 26 2023 17:17:33 GMT-0500 (Central Daylight Time)","147577","html-keyboard-response","8","40344","0.0-5.0-1.1","","null","","<div class='trialBorder'><div class='vertical-center'><img style='vertical-align:center; align:center' src=img/fixation3.jpg></div></div>","null","","","","","",""
"","","","offer","63e55887d67a5c7e32a678fa","bdp_rd","Sun Mar 26 2023 17:17:33 GMT-0500 (Central Daylight Time)","147577","html-keyboard-response","9","42419","0.0-5.0-2.1","","2072","","<div class='trialBorder'><div class='vertical-center'><img style='vertical-align:center; align:center' src=img/fixation3.jpg></div><div class='cl'><div class='vertical-center'>$33<br>for<br>sure</div></div><div class='cr'><div class='vertical-center'>$66<br>with a<br>50% chance</div></div><div class='respDivL'><div class='vertical-center'>(E)</div></div><div class='respDivR'><div class='vertical-center'>(I)</div></div></div>","I","$33","$66","0","33","66","RISKY"
"","","","offerFB","63e55887d67a5c7e32a678fa","bdp_rd","Sun Mar 26 2023 17:17:33 GMT-0500 (Central Daylight Time)","147577","html-keyboard-response","10","42672","0.0-5.0-3.1","","null","","<div class='trialBorder'><div class='vertical-center'><img style='vertical-align:center; align:center' src=img/fixation3.jpg></div><div class='cl'><div class='vertical-center'>$33<br>for<br>sure</div></div><div class='cr'><div class='vertical-center'><font style='color:orange'>$66<br>with a<br>50% chance</font></div></div><div class='respDivL'><div class='vertical-center'>(E)</div></div><div class='respDivR'><div class='vertical-center'><font style='color:orange'>(I)</font></div></div></div>","null","$33","$66","0","33","66",""
"","","","FIX","63e55887d67a5c7e32a678fa","bdp_rd","Sun Mar 26 2023 17:17:33 GMT-0500 (Central Daylight Time)","147577","html-keyboard-response","11","43174","0.0-5.0-1.2","","null","","<div class='trialBorder'><div class='vertical-center'><img style='vertical-align:center; align:center' src=img/fixation3.jpg></div></div>","null","","","","","",""
"","","","offer","63e55887d67a5c7e32a678fa","bdp_rd","Sun Mar 26 2023 17:17:33 GMT-0500 (Central Daylight Time)","147577","html-keyboard-response","12","44344","0.0-5.0-2.2","","1168","","<div class='trialBorder'><div class='vertical-center'><img style='vertical-align:center; align:center' src=img/fixation3.jpg></div><div class='cl'><div class='vertical-center'>$27<br>with a<br>50% chance</div></div><div class='cr'><div class='vertical-center'>$12<br>for<br>sure</div></div><div class='respDivL'><div class='vertical-center'>(E)</div></div><div class='respDivR'><div class='vertical-center'>(I)</div></div></div>","E","$12","$27","1","12","27","RISKY"
"","","","offerFB","63e55887d67a5c7e32a678fa","bdp_rd","Sun Mar 26 2023 17:17:33 GMT-0500 (Central Daylight Time)","147577","html-keyboard-response","13","44595","0.0-5.0-3.2","","null","","<div class='trialBorder'><div class='vertical-center'><img style='vertical-align:center; align:center' src=img/fixation3.jpg></div><div class='cl'><div class='vertical-center'><font style='color:orange'>$27<br>with a<br>50% chance</font></div></div><div class='cr'><div class='vertical-center'>$12<br>for<br>sure</div></div><div class='respDivL'><div class='vertical-center'><font style='color:orange'>(E)</font></div></div><div class='respDivR'><div class='vertical-center'>(I)</div></div></div>","null","$12","$27","1","12","27",""
"","","","FIX","63e55887d67a5c7e32a678fa","bdp_rd","Sun Mar 26 2023 17:17:33 GMT-0500 (Central Daylight Time)","147577","html-keyboard-response","14","45096","0.0-5.0-1.3","","null","","<div class='trialBorder'><div class='vertical-center'><img style='vertical-align:center; align:center' src=img/fixation3.jpg></div></div>","null","","","","","",""
"","","","offer","63e55887d67a5c7e32a678fa","bdp_rd","Sun Mar 26 2023 17:17:33 GMT-0500 (Central Daylight Time)","147577","html-keyboard-response","15","46650","0.0-5.0-2.3","","1551","","<div class='trialBorder'><div class='vertical-center'><img style='vertical-align:center; align:center' src=img/fixation3.jpg></div><div class='cl'><div class='vertical-center'>$6<br>for<br>sure</div></div><div class='cr'><div class='vertical-center'>$13<br>with a<br>50% chance</div></div><div class='respDivL'><div class='vertical-center'>(E)</div></div><div class='respDivR'><div class='vertical-center'>(I)</div></div></div>","I","$6","$13","0","6","13","RISKY"
"","","","offerFB","63e55887d67a5c7e32a678fa","bdp_rd","Sun Mar 26 2023 17:17:33 GMT-0500 (Central Daylight Time)","147577","html-keyboard-response","16","46903","0.0-5.0-3.3","","null","","<div class='trialBorder'><div class='vertical-center'><img style='vertical-align:center; align:center' src=img/fixation3.jpg></div><div class='cl'><div class='vertical-center'>$6<br>for<br>sure</div></div><div class='cr'><div class='vertical-center'><font style='color:orange'>$13<br>with a<br>50% chance</font></div></div><div class='respDivL'><div class='vertical-center'>(E)</div></div><div class='respDivR'><div class='vertical-center'><font style='color:orange'>(I)</font></div></div></div>","null","$6","$13","0","6","13",""
"","","","FIX","63e55887d67a5c7e32a678fa","bdp_rd","Sun Mar 26 2023 17:17:33 GMT-0500 (Central Daylight Time)","147577","html-keyboard-response","17","47404","0.0-5.0-1.4","","null","","<div class='trialBorder'><div class='vertical-center'><img style='vertical-align:center; align:center' src=img/fixation3.jpg></div></div>","null","","","","","",""
"","","","offer","63e55887d67a5c7e32a678fa","bdp_rd","Sun Mar 26 2023 17:17:33 GMT-0500 (Central Daylight Time)","147577","html-keyboard-response","18","48457","0.0-5.0-2.4","","1050","","<div class='trialBorder'><div class='vertical-center'><img style='vertical-align:center; align:center' src=img/fixation3.jpg></div><div class='cl'><div class='vertical-center'>$71<br>with a<br>50% chance</div></div><div class='cr'><div class='vertical-center'>$7<br>for<br>sure</div></div><div class='respDivL'><div class='vertical-center'>(E)</div></div><div class='respDivR'><div class='vertical-center'>(I)</div></div></div>","E","$7","$71","1","7","71","RISKY"
"","","","offerFB","63e55887d67a5c7e32a678fa","bdp_rd","Sun Mar 26 2023 17:17:33 GMT-0500 (Central Daylight Time)","147577","html-keyboard-response","19","48710","0.0-5.0-3.4","","null","","<div class='trialBorder'><div class='vertical-center'><img style='vertical-align:center; align:center' src=img/fixation3.jpg></div><div class='cl'><div class='vertical-center'><font style='color:orange'>$71<br>with a<br>50% chance</font></div></div><div class='cr'><div class='vertical-center'>$7<br>for<br>sure</div></div><div class='respDivL'><div class='vertical-center'><font style='color:orange'>(E)</font></div></div><div class='respDivR'><div class='vertical-center'>(I)</div></div></div>","null","$7","$71","1","7","71",""
"","","","FIX","63e55887d67a5c7e32a678fa","bdp_rd","Sun Mar 26 2023 17:17:33 GMT-0500 (Central Daylight Time)","147577","html-keyboard-response","20","49212","0.0-5.0-1.5","","null","","<div class='trialBorder'><div class='vertical-center'><img style='vertical-align:center; align:center' src=img/fixation3.jpg></div></div>","null","","","","","",""
"","","","offer","63e55887d67a5c7e32a678fa","bdp_rd","Sun Mar 26 2023 17:17:33 GMT-0500 (Central Daylight Time)","147577","html-keyboard-response","21","50686","0.0-5.0-2.5","","1474","","<div class='trialBorder'><div class='vertical-center'><img style='vertical-align:center; align:center' src=img/fixation3.jpg></div><div class='cl'><div class='vertical-center'>$63<br>for<br>sure</div></div><div class='cr'><div class='vertical-center'>$100<br>with a<br>50% chance</div></div><div class='respDivL'><div class='vertical-center'>(E)</div></div><div class='respDivR'><div class='vertical-center'>(I)</div></div></div>","I","$63","$100","0","63","10","RISKY"
"","","","offerFB","63e55887d67a5c7e32a678fa","bdp_rd","Sun Mar 26 2023 17:17:33 GMT-0500 (Central Daylight Time)","147577","html-keyboard-response","22","50938","0.0-5.0-3.5","","null","","<div class='trialBorder'><div class='vertical-center'><img style='vertical-align:center; align:center' src=img/fixation3.jpg></div><div class='cl'><div class='vertical-center'>$63<br>for<br>sure</div></div><div class='cr'><div class='vertical-center'><font style='color:orange'>$100<br>with a<br>50% chance</font></div></div><div class='respDivL'><div class='vertical-center'>(E)</div></div><div class='respDivR'><div class='vertical-center'><font style='color:orange'>(I)</font></div></div></div>","null","$63","$100","0","63","10",""
"","","","FIX","63e55887d67a5c7e32a678fa","bdp_rd","Sun Mar 26 2023 17:17:33 GMT-0500 (Central Daylight Time)","147577","html-keyboard-response","23","51439","0.0-5.0-1.6","","null","","<div class='trialBorder'><div class='vertical-center'><img style='vertical-align:center; align:center' src=img/fixation3.jpg></div></div>","null","","","","","",""
"","","","offer","63e55887d67a5c7e32a678fa","bdp_rd","Sun Mar 26 2023 17:17:33 GMT-0500 (Central Daylight Time)","147577","html-keyboard-response","24","52259","0.0-5.0-2.6","","819","","<div class='trialBorder'><div class='vertical-center'><img style='vertical-align:center; align:center' src=img/fixation3.jpg></div><div class='cl'><div class='vertical-center'>$14<br>with a<br>50% chance</div></div><div class='cr'><div class='vertical-center'>$4<br>for<br>sure</div></div><div class='respDivL'><div class='vertical-center'>(E)</div></div><div class='respDivR'><div class='vertical-center'>(I)</div></div></div>","E","$4","$14","1","4","14","RISKY"
"","","","offerFB","63e55887d67a5c7e32a678fa","bdp_rd","Sun Mar 26 2023 17:17:33 GMT-0500 (Central Daylight Time)","147577","html-keyboard-response","25","52513","0.0-5.0-3.6","","null","","<div class='trialBorder'><div class='vertical-center'><img style='vertical-align:center; align:center' src=img/fixation3.jpg></div><div class='cl'><div class='vertical-center'><font style='color:orange'>$14<br>with a<br>50% chance</font></div></div><div class='cr'><div class='vertical-center'>$4<br>for<br>sure</div></div><div class='respDivL'><div class='vertical-center'><font style='color:orange'>(E)</font></div></div><div class='respDivR'><div class='vertical-center'>(I)</div></div></div>","null","$4","$14","1","4","14",""
"","","","FIX","63e55887d67a5c7e32a678fa","bdp_rd","Sun Mar 26 2023 17:17:33 GMT-0500 (Central Daylight Time)","147577","html-keyboard-response","26","53014","0.0-5.0-1.7","","null","","<div class='trialBorder'><div class='vertical-center'><img style='vertical-align:center; align:center' src=img/fixation3.jpg></div></div>","null","","","","","",""
"","","","offer","63e55887d67a5c7e32a678fa","bdp_rd","Sun Mar 26 2023 17:17:33 GMT-0500 (Central Daylight Time)","147577","html-keyboard-response","27","54270","0.0-5.0-2.7","","1255","","<div class='trialBorder'><div class='vertical-center'><img style='vertical-align:center; align:center' src=img/fixation3.jpg></div><div class='cl'><div class='vertical-center'>$29<br>with a<br>50% chance</div></div><div class='cr'><div class='vertical-center'>$14<br>for<br>sure</div></div><div class='respDivL'><div class='vertical-center'>(E)</div></div><div class='respDivR'><div class='vertical-center'>(I)</div></div></div>","E","$14","$29","1","14","29","RISKY"
"","","","offerFB","63e55887d67a5c7e32a678fa","bdp_rd","Sun Mar 26 2023 17:17:33 GMT-0500 (Central Daylight Time)","147577","html-keyboard-response","28","54523","0.0-5.0-3.7","","null","","<div class='trialBorder'><div class='vertical-center'><img style='vertical-align:center; align:center' src=img/fixation3.jpg></div><div class='cl'><div class='vertical-center'><font style='color:orange'>$29<br>with a<br>50% chance</font></div></div><div class='cr'><div class='vertical-center'>$14<br>for<br>sure</div></div><div class='respDivL'><div class='vertical-center'><font style='color:orange'>(E)</font></div></div><div class='respDivR'><div class='vertical-center'>(I)</div></div></div>","null","$14","$29","1","14","29",""
"","","","FIX","63e55887d67a5c7e32a678fa","bdp_rd","Sun Mar 26 2023 17:17:33 GMT-0500 (Central Daylight Time)","147577","html-keyboard-response","29","55024","0.0-5.0-1.8","","null","","<div class='trialBorder'><div class='vertical-center'><img style='vertical-align:center; align:center' src=img/fixation3.jpg></div></div>","null","","","","","",""
"","","","offer","63e55887d67a5c7e32a678fa","bdp_rd","Sun Mar 26 2023 17:17:33 GMT-0500 (Central Daylight Time)","147577","html-keyboard-response","30","57166","0.0-5.0-2.8","","2137","","<div class='trialBorder'><div class='vertical-center'><img style='vertical-align:center; align:center' src=img/fixation3.jpg></div><div class='cl'><div class='vertical-center'>$15<br>with a<br>50% chance</div></div><div class='cr'><div class='vertical-center'>$6<br>for<br>sure</div></div><div class='respDivL'><div class='vertical-center'>(E)</div></div><div class='respDivR'><div class='vertical-center'>(I)</div></div></div>","E","$6","$15","1","6","15","RISKY"
"","","","offerFB","63e55887d67a5c7e32a678fa","bdp_rd","Sun Mar 26 2023 17:17:33 GMT-0500 (Central Daylight Time)","147577","html-keyboard-response","31","57419","0.0-5.0-3.8","","null","","<div class='trialBorder'><div class='vertical-center'><img style='vertical-align:center; align:center' src=img/fixation3.jpg></div><div class='cl'><div class='vertical-center'><font style='color:orange'>$15<br>with a<br>50% chance</font></div></div><div class='cr'><div class='vertical-center'>$6<br>for<br>sure</div></div><div class='respDivL'><div class='vertical-center'><font style='color:orange'>(E)</font></div></div><div class='respDivR'><div class='vertical-center'>(I)</div></div></div>","null","$6","$15","1","6","15",""
"","","","FIX","63e55887d67a5c7e32a678fa","bdp_rd","Sun Mar 26 2023 17:17:33 GMT-0500 (Central Daylight Time)","147577","html-keyboard-response","32","57922","0.0-5.0-1.9","","null","","<div class='trialBorder'><div class='vertical-center'><img style='vertical-align:center; align:center' src=img/fixation3.jpg></div></div>","null","","","","","",""
"","","","offer","63e55887d67a5c7e32a678fa","bdp_rd","Sun Mar 26 2023 17:17:33 GMT-0500 (Central Daylight Time)","147577","html-keyboard-response","33","58665","0.0-5.0-2.9","","740","","<div class='trialBorder'><div class='vertical-center'><img style='vertical-align:center; align:center' src=img/fixation3.jpg></div><div class='cl'><div class='vertical-center'>$59<br>with a<br>50% chance</div></div><div class='cr'><div class='vertical-center'>$22<br>for<br>sure</div></div><div class='respDivL'><div class='vertical-center'>(E)</div></div><div class='respDivR'><div class='vertical-center'>(I)</div></div></div>","E","$22","$59","1","22","59","RISKY"
"","","","offerFB","63e55887d67a5c7e32a678fa","bdp_rd","Sun Mar 26 2023 17:17:33 GMT-0500 (Central Daylight Time)","147577","html-keyboard-response","34","58918","0.0-5.0-3.9","","null","","<div class='trialBorder'><div class='vertical-center'><img style='vertical-align:center; align:center' src=img/fixation3.jpg></div><div class='cl'><div class='vertical-center'><font style='color:orange'>$59<br>with a<br>50% chance</font></div></div><div class='cr'><div class='vertical-center'>$22<br>for<br>sure</div></div><div class='respDivL'><div class='vertical-center'><font style='color:orange'>(E)</font></div></div><div class='respDivR'><div class='vertical-center'>(I)</div></div></div>","null","$22","$59","1","22","59",""
"","","","FIX","63e55887d67a5c7e32a678fa","bdp_rd","Sun Mar 26 2023 17:17:33 GMT-0500 (Central Daylight Time)","147577","html-keyboard-response","35","59420","0.0-5.0-1.10","","null","","<div class='trialBorder'><div class='vertical-center'><img style='vertical-align:center; align:center' src=img/fixation3.jpg></div></div>","null","","","","","",""
"","","","offer","63e55887d67a5c7e32a678fa","bdp_rd","Sun Mar 26 2023 17:17:33 GMT-0500 (Central Daylight Time)","147577","html-keyboard-response","36","60541","0.0-5.0-2.10","","1119","","<div class='trialBorder'><div class='vertical-center'><img style='vertical-align:center; align:center' src=img/fixation3.jpg></div><div class='cl'><div class='vertical-center'>$25<br>with a<br>50% chance</div></div><div class='cr'><div class='vertical-center'>$21<br>for<br>sure</div></div><div class='respDivL'><div class='vertical-center'>(E)</div></div><div class='respDivR'><div class='vertical-center'>(I)</div></div></div>","E","$21","$25","1","21","25","RISKY"
"","","","offerFB","63e55887d67a5c7e32a678fa","bdp_rd","Sun Mar 26 2023 17:17:33 GMT-0500 (Central Daylight Time)","147577","html-keyboard-response","37","60793","0.0-5.0-3.10","","null","","<div class='trialBorder'><div class='vertical-center'><img style='vertical-align:center; align:center' src=img/fixation3.jpg></div><div class='cl'><div class='vertical-center'><font style='color:orange'>$25<br>with a<br>50% chance</font></div></div><div class='cr'><div class='vertical-center'>$21<br>for<br>sure</div></div><div class='respDivL'><div class='vertical-center'><font style='color:orange'>(E)</font></div></div><div class='respDivR'><div class='vertical-center'>(I)</div></div></div>","null","$21","$25","1","21","25",""
"","","","FIX","63e55887d67a5c7e32a678fa","bdp_rd","Sun Mar 26 2023 17:17:33 GMT-0500 (Central Daylight Time)","147577","html-keyboard-response","38","61296","0.0-5.0-1.11","","null","","<div class='trialBorder'><div class='vertical-center'><img style='vertical-align:center; align:center' src=img/fixation3.jpg></div></div>","null","","","","","",""
"","","","offer","63e55887d67a5c7e32a678fa","bdp_rd","Sun Mar 26 2023 17:17:33 GMT-0500 (Central Daylight Time)","147577","html-keyboard-response","39","63725","0.0-5.0-2.11","","2427","","<div class='trialBorder'><div class='vertical-center'><img style='vertical-align:center; align:center' src=img/fixation3.jpg></div><div class='cl'><div class='vertical-center'>$40<br>for<br>sure</div></div><div class='cr'><div class='vertical-center'>$95<br>with a<br>50% chance</div></div><div class='respDivL'><div class='vertical-center'>(E)</div></div><div class='respDivR'><div class='vertical-center'>(I)</div></div></div>","I","$40","$95","0","40","95","RISKY"
"","","","offerFB","63e55887d67a5c7e32a678fa","bdp_rd","Sun Mar 26 2023 17:17:33 GMT-0500 (Central Daylight Time)","147577","html-keyboard-response","40","63979","0.0-5.0-3.11","","null","","<div class='trialBorder'><div class='vertical-center'><img style='vertical-align:center; align:center' src=img/fixation3.jpg></div><div class='cl'><div class='vertical-center'>$40<br>for<br>sure</div></div><div class='cr'><div class='vertical-center'><font style='color:orange'>$95<br>with a<br>50% chance</font></div></div><div class='respDivL'><div class='vertical-center'>(E)</div></div><div class='respDivR'><div class='vertical-center'><font style='color:orange'>(I)</font></div></div></div>","null","$40","$95","0","40","95",""
"","","","FIX","63e55887d67a5c7e32a678fa","bdp_rd","Sun Mar 26 2023 17:17:33 GMT-0500 (Central Daylight Time)","147577","html-keyboard-response","41","64479","0.0-5.0-1.12","","null","","<div class='trialBorder'><div class='vertical-center'><img style='vertical-align:center; align:center' src=img/fixation3.jpg></div></div>","null","","","","","",""
"","","","offer","63e55887d67a5c7e32a678fa","bdp_rd","Sun Mar 26 2023 17:17:33 GMT-0500 (Central Daylight Time)","147577","html-keyboard-response","42","65815","0.0-5.0-2.12","","1334","","<div class='trialBorder'><div class='vertical-center'><img style='vertical-align:center; align:center' src=img/fixation3.jpg></div><div class='cl'><div class='vertical-center'>$16<br>for<br>sure</div></div><div class='cr'><div class='vertical-center'>$28<br>with a<br>50% chance</div></div><div class='respDivL'><div class='vertical-center'>(E)</div></div><div class='respDivR'><div class='vertical-center'>(I)</div></div></div>","I","$16","$28","0","16","28","RISKY"
"","","","offerFB","63e55887d67a5c7e32a678fa","bdp_rd","Sun Mar 26 2023 17:17:33 GMT-0500 (Central Daylight Time)","147577","html-keyboard-response","43","66068","0.0-5.0-3.12","","null","","<div class='trialBorder'><div class='vertical-center'><img style='vertical-align:center; align:center' src=img/fixation3.jpg></div><div class='cl'><div class='vertical-center'>$16<br>for<br>sure</div></div><div class='cr'><div class='vertical-center'><font style='color:orange'>$28<br>with a<br>50% chance</font></div></div><div class='respDivL'><div class='vertical-center'>(E)</div></div><div class='respDivR'><div class='vertical-center'><font style='color:orange'>(I)</font></div></div></div>","null","$16","$28","0","16","28",""
"","","","FIX","63e55887d67a5c7e32a678fa","bdp_rd","Sun Mar 26 2023 17:17:33 GMT-0500 (Central Daylight Time)","147577","html-keyboard-response","44","66569","0.0-5.0-1.13","","null","","<div class='trialBorder'><div class='vertical-center'><img style='vertical-align:center; align:center' src=img/fixation3.jpg></div></div>","null","","","","","",""
"","","","offer","63e55887d67a5c7e32a678fa","bdp_rd","Sun Mar 26 2023 17:17:33 GMT-0500 (Central Daylight Time)","147577","html-keyboard-response","45","67510","0.0-5.0-2.13","","940","","<div class='trialBorder'><div class='vertical-center'><img style='vertical-align:center; align:center' src=img/fixation3.jpg></div><div class='cl'><div class='vertical-center'>$18<br>for<br>sure</div></div><div class='cr'><div class='vertical-center'>$39<br>with a<br>50% chance</div></div><div class='respDivL'><div class='vertical-center'>(E)</div></div><div class='respDivR'><div class='vertical-center'>(I)</div></div></div>","I","$18","$39","0","18","39","RISKY"
"","","","offerFB","63e55887d67a5c7e32a678fa","bdp_rd","Sun Mar 26 2023 17:17:33 GMT-0500 (Central Daylight Time)","147577","html-keyboard-response","46","67762","0.0-5.0-3.13","","null","","<div class='trialBorder'><div class='vertical-center'><img style='vertical-align:center; align:center' src=img/fixation3.jpg></div><div class='cl'><div class='vertical-center'>$18<br>for<br>sure</div></div><div class='cr'><div class='vertical-center'><font style='color:orange'>$39<br>with a<br>50% chance</font></div></div><div class='respDivL'><div class='vertical-center'>(E)</div></div><div class='respDivR'><div class='vertical-center'><font style='color:orange'>(I)</font></div></div></div>","null","$18","$39","0","18","39",""
"","","","FIX","63e55887d67a5c7e32a678fa","bdp_rd","Sun Mar 26 2023 17:17:33 GMT-0500 (Central Daylight Time)","147577","html-keyboard-response","47","68264","0.0-5.0-1.14","","null","","<div class='trialBorder'><div class='vertical-center'><img style='vertical-align:center; align:center' src=img/fixation3.jpg></div></div>","null","","","","","",""
"","","","offer","63e55887d67a5c7e32a678fa","bdp_rd","Sun Mar 26 2023 17:17:33 GMT-0500 (Central Daylight Time)","147577","html-keyboard-response","48","69224","0.0-5.0-2.14","","959","","<div class='trialBorder'><div class='vertical-center'><img style='vertical-align:center; align:center' src=img/fixation3.jpg></div><div class='cl'><div class='vertical-center'>$98<br>with a<br>50% chance</div></div><div class='cr'><div class='vertical-center'>$53<br>for<br>sure</div></div><div class='respDivL'><div class='vertical-center'>(E)</div></div><div class='respDivR'><div class='vertical-center'>(I)</div></div></div>","E","$53","$98","1","53","98","RISKY"
"","","","offerFB","63e55887d67a5c7e32a678fa","bdp_rd","Sun Mar 26 2023 17:17:33 GMT-0500 (Central Daylight Time)","147577","html-keyboard-response","49","69476","0.0-5.0-3.14","","null","","<div class='trialBorder'><div class='vertical-center'><img style='vertical-align:center; align:center' src=img/fixation3.jpg></div><div class='cl'><div class='vertical-center'><font style='color:orange'>$98<br>with a<br>50% chance</font></div></div><div class='cr'><div class='vertical-center'>$53<br>for<br>sure</div></div><div class='respDivL'><div class='vertical-center'><font style='color:orange'>(E)</font></div></div><div class='respDivR'><div class='vertical-center'>(I)</div></div></div>","null","$53","$98","1","53","98",""
"","","","FIX","63e55887d67a5c7e32a678fa","bdp_rd","Sun Mar 26 2023 17:17:33 GMT-0500 (Central Daylight Time)","147577","html-keyboard-response","50","69977","0.0-5.0-1.15","","null","","<div class='trialBorder'><div class='vertical-center'><img style='vertical-align:center; align:center' src=img/fixation3.jpg></div></div>","null","","","","","",""
"","","","offer","63e55887d67a5c7e32a678fa","bdp_rd","Sun Mar 26 2023 17:17:33 GMT-0500 (Central Daylight Time)","147577","html-keyboard-response","51","72036","0.0-5.0-2.15","","2058","","<div class='trialBorder'><div class='vertical-center'><img style='vertical-align:center; align:center' src=img/fixation3.jpg></div><div class='cl'><div class='vertical-center'>$18<br>for<br>sure</div></div><div class='cr'><div class='vertical-center'>$36<br>with a<br>50% chance</div></div><div class='respDivL'><div class='vertical-center'>(E)</div></div><div class='respDivR'><div class='vertical-center'>(I)</div></div></div>","I","$18","$36","0","18","36","RISKY"
"","","","offerFB","63e55887d67a5c7e32a678fa","bdp_rd","Sun Mar 26 2023 17:17:33 GMT-0500 (Central Daylight Time)","147577","html-keyboard-response","52","72288","0.0-5.0-3.15","","null","","<div class='trialBorder'><div class='vertical-center'><img style='vertical-align:center; align:center' src=img/fixation3.jpg></div><div class='cl'><div class='vertical-center'>$18<br>for<br>sure</div></div><div class='cr'><div class='vertical-center'><font style='color:orange'>$36<br>with a<br>50% chance</font></div></div><div class='respDivL'><div class='vertical-center'>(E)</div></div><div class='respDivR'><div class='vertical-center'><font style='color:orange'>(I)</font></div></div></div>","null","$18","$36","0","18","36",""
"","","","FIX","63e55887d67a5c7e32a678fa","bdp_rd","Sun Mar 26 2023 17:17:33 GMT-0500 (Central Daylight Time)","147577","html-keyboard-response","53","72790","0.0-5.0-1.16","","null","","<div class='trialBorder'><div class='vertical-center'><img style='vertical-align:center; align:center' src=img/fixation3.jpg></div></div>","null","","","","","",""
"","","","offer","63e55887d67a5c7e32a678fa","bdp_rd","Sun Mar 26 2023 17:17:33 GMT-0500 (Central Daylight Time)","147577","html-keyboard-response","54","76190","0.0-5.0-2.16","","3399","","<div class='trialBorder'><div class='vertical-center'><img style='vertical-align:center; align:center' src=img/fixation3.jpg></div><div class='cl'><div class='vertical-center'>$65<br>with a<br>50% chance</div></div><div class='cr'><div class='vertical-center'>$46<br>for<br>sure</div></div><div class='respDivL'><div class='vertical-center'>(E)</div></div><div class='respDivR'><div class='vertical-center'>(I)</div></div></div>","I","$46","$65","1","46","65","SURE"
"","","","offerFB","63e55887d67a5c7e32a678fa","bdp_rd","Sun Mar 26 2023 17:17:33 GMT-0500 (Central Daylight Time)","147577","html-keyboard-response","55","76443","0.0-5.0-3.16","","null","","<div class='trialBorder'><div class='vertical-center'><img style='vertical-align:center; align:center' src=img/fixation3.jpg></div><div class='cl'><div class='vertical-center'>$65<br>with a<br>50% chance</div></div><div class='cr'><div class='vertical-center'><font style='color:orange'>$46<br>for<br>sure</font></div></div><div class='respDivL'><div class='vertical-center'>(E)</div></div><div class='respDivR'><div class='vertical-center'><font style='color:orange'>(I)</font></div></div></div>","null","$46","$65","1","46","65",""
"","","","FIX","63e55887d67a5c7e32a678fa","bdp_rd","Sun Mar 26 2023 17:17:33 GMT-0500 (Central Daylight Time)","147577","html-keyboard-response","56","76944","0.0-5.0-1.17","","null","","<div class='trialBorder'><div class='vertical-center'><img style='vertical-align:center; align:center' src=img/fixation3.jpg></div></div>","null","","","","","",""
"","","","offer","63e55887d67a5c7e32a678fa","bdp_rd","Sun Mar 26 2023 17:17:33 GMT-0500 (Central Daylight Time)","147577","html-keyboard-response","57","78722","0.0-5.0-2.17","","1778","","<div class='trialBorder'><div class='vertical-center'><img style='vertical-align:center; align:center' src=img/fixation3.jpg></div><div class='cl'><div class='vertical-center'>$86<br>with a<br>50% chance</div></div><div class='cr'><div class='vertical-center'>$45<br>for<br>sure</div></div><div class='respDivL'><div class='vertical-center'>(E)</div></div><div class='respDivR'><div class='vertical-center'>(I)</div></div></div>","I","$45","$86","1","45","86","SURE"
"","","","offerFB","63e55887d67a5c7e32a678fa","bdp_rd","Sun Mar 26 2023 17:17:33 GMT-0500 (Central Daylight Time)","147577","html-keyboard-response","58","78974","0.0-5.0-3.17","","null","","<div class='trialBorder'><div class='vertical-center'><img style='vertical-align:center; align:center' src=img/fixation3.jpg></div><div class='cl'><div class='vertical-center'>$86<br>with a<br>50% chance</div></div><div class='cr'><div class='vertical-center'><font style='color:orange'>$45<br>for<br>sure</font></div></div><div class='respDivL'><div class='vertical-center'>(E)</div></div><div class='respDivR'><div class='vertical-center'><font style='color:orange'>(I)</font></div></div></div>","null","$45","$86","1","45","86",""
"","","","FIX","63e55887d67a5c7e32a678fa","bdp_rd","Sun Mar 26 2023 17:17:33 GMT-0500 (Central Daylight Time)","147577","html-keyboard-response","59","79476","0.0-5.0-1.18","","null","","<div class='trialBorder'><div class='vertical-center'><img style='vertical-align:center; align:center' src=img/fixation3.jpg></div></div>","null","","","","","",""
"","","","offer","63e55887d67a5c7e32a678fa","bdp_rd","Sun Mar 26 2023 17:17:33 GMT-0500 (Central Daylight Time)","147577","html-keyboard-response","60","81027","0.0-5.0-2.18","","1550","","<div class='trialBorder'><div class='vertical-center'><img style='vertical-align:center; align:center' src=img/fixation3.jpg></div><div class='cl'><div class='vertical-center'>$26<br>with a<br>50% chance</div></div><div class='cr'><div class='vertical-center'>$11<br>for<br>sure</div></div><div class='respDivL'><div class='vertical-center'>(E)</div></div><div class='respDivR'><div class='vertical-center'>(I)</div></div></div>","E","$11","$26","1","11","26","RISKY"
"","","","offerFB","63e55887d67a5c7e32a678fa","bdp_rd","Sun Mar 26 2023 17:17:33 GMT-0500 (Central Daylight Time)","147577","html-keyboard-response","61","81281","0.0-5.0-3.18","","null","","<div class='trialBorder'><div class='vertical-center'><img style='vertical-align:center; align:center' src=img/fixation3.jpg></div><div class='cl'><div class='vertical-center'><font style='color:orange'>$26<br>with a<br>50% chance</font></div></div><div class='cr'><div class='vertical-center'>$11<br>for<br>sure</div></div><div class='respDivL'><div class='vertical-center'><font style='color:orange'>(E)</font></div></div><div class='respDivR'><div class='vertical-center'>(I)</div></div></div>","null","$11","$26","1","11","26",""
"","","","FIX","63e55887d67a5c7e32a678fa","bdp_rd","Sun Mar 26 2023 17:17:33 GMT-0500 (Central Daylight Time)","147577","html-keyboard-response","62","81783","0.0-5.0-1.19","","null","","<div class='trialBorder'><div class='vertical-center'><img style='vertical-align:center; align:center' src=img/fixation3.jpg></div></div>","null","","","","","",""
"","","","offer","63e55887d67a5c7e32a678fa","bdp_rd","Sun Mar 26 2023 17:17:33 GMT-0500 (Central Daylight Time)","147577","html-keyboard-response","63","82965","0.0-5.0-2.19","","1180","","<div class='trialBorder'><div class='vertical-center'><img style='vertical-align:center; align:center' src=img/fixation3.jpg></div><div class='cl'><div class='vertical-center'>$17<br>with a<br>50% chance</div></div><div class='cr'><div class='vertical-center'>$3<br>for<br>sure</div></div><div class='respDivL'><div class='vertical-center'>(E)</div></div><div class='respDivR'><div class='vertical-center'>(I)</div></div></div>","E","$3","$17","1","3","17","RISKY"
"","","","offerFB","63e55887d67a5c7e32a678fa","bdp_rd","Sun Mar 26 2023 17:17:33 GMT-0500 (Central Daylight Time)","147577","html-keyboard-response","64","83217","0.0-5.0-3.19","","null","","<div class='trialBorder'><div class='vertical-center'><img style='vertical-align:center; align:center' src=img/fixation3.jpg></div><div class='cl'><div class='vertical-center'><font style='color:orange'>$17<br>with a<br>50% chance</font></div></div><div class='cr'><div class='vertical-center'>$3<br>for<br>sure</div></div><div class='respDivL'><div class='vertical-center'><font style='color:orange'>(E)</font></div></div><div class='respDivR'><div class='vertical-center'>(I)</div></div></div>","null","$3","$17","1","3","17",""
"","","","FIX","63e55887d67a5c7e32a678fa","bdp_rd","Sun Mar 26 2023 17:17:33 GMT-0500 (Central Daylight Time)","147577","html-keyboard-response","65","83718","0.0-5.0-1.20","","null","","<div class='trialBorder'><div class='vertical-center'><img style='vertical-align:center; align:center' src=img/fixation3.jpg></div></div>","null","","","","","",""
"","","","offer","63e55887d67a5c7e32a678fa","bdp_rd","Sun Mar 26 2023 17:17:33 GMT-0500 (Central Daylight Time)","147577","html-keyboard-response","66","85452","0.0-5.0-2.20","","1733","","<div class='trialBorder'><div class='vertical-center'><img style='vertical-align:center; align:center' src=img/fixation3.jpg></div><div class='cl'><div class='vertical-center'>$15<br>for<br>sure</div></div><div class='cr'><div class='vertical-center'>$31<br>with a<br>50% chance</div></div><div class='respDivL'><div class='vertical-center'>(E)</div></div><div class='respDivR'><div class='vertical-center'>(I)</div></div></div>","I","$15","$31","0","15","31","RISKY"
"","","","offerFB","63e55887d67a5c7e32a678fa","bdp_rd","Sun Mar 26 2023 17:17:33 GMT-0500 (Central Daylight Time)","147577","html-keyboard-response","67","85705","0.0-5.0-3.20","","null","","<div class='trialBorder'><div class='vertical-center'><img style='vertical-align:center; align:center' src=img/fixation3.jpg></div><div class='cl'><div class='vertical-center'>$15<br>for<br>sure</div></div><div class='cr'><div class='vertical-center'><font style='color:orange'>$31<br>with a<br>50% chance</font></div></div><div class='respDivL'><div class='vertical-center'>(E)</div></div><div class='respDivR'><div class='vertical-center'><font style='color:orange'>(I)</font></div></div></div>","null","$15","$31","0","15","31",""
"","","","FIX","63e55887d67a5c7e32a678fa","bdp_rd","Sun Mar 26 2023 17:17:33 GMT-0500 (Central Daylight Time)","147577","html-keyboard-response","68","86206","0.0-5.0-1.21","","null","","<div class='trialBorder'><div class='vertical-center'><img style='vertical-align:center; align:center' src=img/fixation3.jpg></div></div>","null","","","","","",""
"","","","offer","63e55887d67a5c7e32a678fa","bdp_rd","Sun Mar 26 2023 17:17:33 GMT-0500 (Central Daylight Time)","147577","html-keyboard-response","69","87222","0.0-5.0-2.21","","1015","","<div class='trialBorder'><div class='vertical-center'><img style='vertical-align:center; align:center' src=img/fixation3.jpg></div><div class='cl'><div class='vertical-center'>$26<br>for<br>sure</div></div><div class='cr'><div class='vertical-center'>$92<br>with a<br>50% chance</div></div><div class='respDivL'><div class='vertical-center'>(E)</div></div><div class='respDivR'><div class='vertical-center'>(I)</div></div></div>","I","$26","$92","0","26","92","RISKY"
"","","","offerFB","63e55887d67a5c7e32a678fa","bdp_rd","Sun Mar 26 2023 17:17:33 GMT-0500 (Central Daylight Time)","147577","html-keyboard-response","70","87473","0.0-5.0-3.21","","null","","<div class='trialBorder'><div class='vertical-center'><img style='vertical-align:center; align:center' src=img/fixation3.jpg></div><div class='cl'><div class='vertical-center'>$26<br>for<br>sure</div></div><div class='cr'><div class='vertical-center'><font style='color:orange'>$92<br>with a<br>50% chance</font></div></div><div class='respDivL'><div class='vertical-center'>(E)</div></div><div class='respDivR'><div class='vertical-center'><font style='color:orange'>(I)</font></div></div></div>","null","$26","$92","0","26","92",""
"","","","FIX","63e55887d67a5c7e32a678fa","bdp_rd","Sun Mar 26 2023 17:17:33 GMT-0500 (Central Daylight Time)","147577","html-keyboard-response","71","87974","0.0-5.0-1.22","","null","","<div class='trialBorder'><div class='vertical-center'><img style='vertical-align:center; align:center' src=img/fixation3.jpg></div></div>","null","","","","","",""
"","","","offer","63e55887d67a5c7e32a678fa","bdp_rd","Sun Mar 26 2023 17:17:33 GMT-0500 (Central Daylight Time)","147577","html-keyboard-response","72","89036","0.0-5.0-2.22","","1061","","<div class='trialBorder'><div class='vertical-center'><img style='vertical-align:center; align:center' src=img/fixation3.jpg></div><div class='cl'><div class='vertical-center'>$20<br>for<br>sure</div></div><div class='cr'><div class='vertical-center'>$80<br>with a<br>50% chance</div></div><div class='respDivL'><div class='vertical-center'>(E)</div></div><div class='respDivR'><div class='vertical-center'>(I)</div></div></div>","I","$20","$80","0","20","80","RISKY"
"","","","offerFB","63e55887d67a5c7e32a678fa","bdp_rd","Sun Mar 26 2023 17:17:33 GMT-0500 (Central Daylight Time)","147577","html-keyboard-response","73","89288","0.0-5.0-3.22","","null","","<div class='trialBorder'><div class='vertical-center'><img style='vertical-align:center; align:center' src=img/fixation3.jpg></div><div class='cl'><div class='vertical-center'>$20<br>for<br>sure</div></div><div class='cr'><div class='vertical-center'><font style='color:orange'>$80<br>with a<br>50% chance</font></div></div><div class='respDivL'><div class='vertical-center'>(E)</div></div><div class='respDivR'><div class='vertical-center'><font style='color:orange'>(I)</font></div></div></div>","null","$20","$80","0","20","80",""
"","","","FIX","63e55887d67a5c7e32a678fa","bdp_rd","Sun Mar 26 2023 17:17:33 GMT-0500 (Central Daylight Time)","147577","html-keyboard-response","74","89791","0.0-5.0-1.23","","null","","<div class='trialBorder'><div class='vertical-center'><img style='vertical-align:center; align:center' src=img/fixation3.jpg></div></div>","null","","","","","",""
"","","","offer","63e55887d67a5c7e32a678fa","bdp_rd","Sun Mar 26 2023 17:17:33 GMT-0500 (Central Daylight Time)","147577","html-keyboard-response","75","90791","0.0-5.0-2.23","","998","","<div class='trialBorder'><div class='vertical-center'><img style='vertical-align:center; align:center' src=img/fixation3.jpg></div><div class='cl'><div class='vertical-center'>$11<br>for<br>sure</div></div><div class='cr'><div class='vertical-center'>$62<br>with a<br>50% chance</div></div><div class='respDivL'><div class='vertical-center'>(E)</div></div><div class='respDivR'><div class='vertical-center'>(I)</div></div></div>","I","$11","$62","0","11","62","RISKY"
"","","","offerFB","63e55887d67a5c7e32a678fa","bdp_rd","Sun Mar 26 2023 17:17:33 GMT-0500 (Central Daylight Time)","147577","html-keyboard-response","76","91044","0.0-5.0-3.23","","null","","<div class='trialBorder'><div class='vertical-center'><img style='vertical-align:center; align:center' src=img/fixation3.jpg></div><div class='cl'><div class='vertical-center'>$11<br>for<br>sure</div></div><div class='cr'><div class='vertical-center'><font style='color:orange'>$62<br>with a<br>50% chance</font></div></div><div class='respDivL'><div class='vertical-center'>(E)</div></div><div class='respDivR'><div class='vertical-center'><font style='color:orange'>(I)</font></div></div></div>","null","$11","$62","0","11","62",""
"","","","FIX","63e55887d67a5c7e32a678fa","bdp_rd","Sun Mar 26 2023 17:17:33 GMT-0500 (Central Daylight Time)","147577","html-keyboard-response","77","91545","0.0-5.0-1.24","","null","","<div class='trialBorder'><div class='vertical-center'><img style='vertical-align:center; align:center' src=img/fixation3.jpg></div></div>","null","","","","","",""
"","","","offer","63e55887d67a5c7e32a678fa","bdp_rd","Sun Mar 26 2023 17:17:33 GMT-0500 (Central Daylight Time)","147577","html-keyboard-response","78","92773","0.0-5.0-2.24","","1227","","<div class='trialBorder'><div class='vertical-center'><img style='vertical-align:center; align:center' src=img/fixation3.jpg></div><div class='cl'><div class='vertical-center'>$89<br>with a<br>50% chance</div></div><div class='cr'><div class='vertical-center'>$28<br>for<br>sure</div></div><div class='respDivL'><div class='vertical-center'>(E)</div></div><div class='respDivR'><div class='vertical-center'>(I)</div></div></div>","E","$28","$89","1","28","89","RISKY"
"","","","offerFB","63e55887d67a5c7e32a678fa","bdp_rd","Sun Mar 26 2023 17:17:33 GMT-0500 (Central Daylight Time)","147577","html-keyboard-response","79","93026","0.0-5.0-3.24","","null","","<div class='trialBorder'><div class='vertical-center'><img style='vertical-align:center; align:center' src=img/fixation3.jpg></div><div class='cl'><div class='vertical-center'><font style='color:orange'>$89<br>with a<br>50% chance</font></div></div><div class='cr'><div class='vertical-center'>$28<br>for<br>sure</div></div><div class='respDivL'><div class='vertical-center'><font style='color:orange'>(E)</font></div></div><div class='respDivR'><div class='vertical-center'>(I)</div></div></div>","null","$28","$89","1","28","89",""
"","","","FIX","63e55887d67a5c7e32a678fa","bdp_rd","Sun Mar 26 2023 17:17:33 GMT-0500 (Central Daylight Time)","147577","html-keyboard-response","80","93527","0.0-5.0-1.25","","null","","<div class='trialBorder'><div class='vertical-center'><img style='vertical-align:center; align:center' src=img/fixation3.jpg></div></div>","null","","","","","",""
"","","","offer","63e55887d67a5c7e32a678fa","bdp_rd","Sun Mar 26 2023 17:17:33 GMT-0500 (Central Daylight Time)","147577","html-keyboard-response","81","94502","0.0-5.0-2.25","","974","","<div class='trialBorder'><div class='vertical-center'><img style='vertical-align:center; align:center' src=img/fixation3.jpg></div><div class='cl'><div class='vertical-center'>$20<br>for<br>sure</div></div><div class='cr'><div class='vertical-center'>$37<br>with a<br>50% chance</div></div><div class='respDivL'><div class='vertical-center'>(E)</div></div><div class='respDivR'><div class='vertical-center'>(I)</div></div></div>","I","$20","$37","0","20","37","RISKY"
"","","","offerFB","63e55887d67a5c7e32a678fa","bdp_rd","Sun Mar 26 2023 17:17:33 GMT-0500 (Central Daylight Time)","147577","html-keyboard-response","82","94755","0.0-5.0-3.25","","null","","<div class='trialBorder'><div class='vertical-center'><img style='vertical-align:center; align:center' src=img/fixation3.jpg></div><div class='cl'><div class='vertical-center'>$20<br>for<br>sure</div></div><div class='cr'><div class='vertical-center'><font style='color:orange'>$37<br>with a<br>50% chance</font></div></div><div class='respDivL'><div class='vertical-center'>(E)</div></div><div class='respDivR'><div class='vertical-center'><font style='color:orange'>(I)</font></div></div></div>","null","$20","$37","0","20","37",""
"","","","FIX","63e55887d67a5c7e32a678fa","bdp_rd","Sun Mar 26 2023 17:17:33 GMT-0500 (Central Daylight Time)","147577","html-keyboard-response","83","95257","0.0-5.0-1.26","","null","","<div class='trialBorder'><div class='vertical-center'><img style='vertical-align:center; align:center' src=img/fixation3.jpg></div></div>","null","","","","","",""
"","","","offer","63e55887d67a5c7e32a678fa","bdp_rd","Sun Mar 26 2023 17:17:33 GMT-0500 (Central Daylight Time)","147577","html-keyboard-response","84","96202","0.0-5.0-2.26","","944","","<div class='trialBorder'><div class='vertical-center'><img style='vertical-align:center; align:center' src=img/fixation3.jpg></div><div class='cl'><div class='vertical-center'>$17<br>for<br>sure</div></div><div class='cr'><div class='vertical-center'>$43<br>with a<br>50% chance</div></div><div class='respDivL'><div class='vertical-center'>(E)</div></div><div class='respDivR'><div class='vertical-center'>(I)</div></div></div>","I","$17","$43","0","17","43","RISKY"
"","","","offerFB","63e55887d67a5c7e32a678fa","bdp_rd","Sun Mar 26 2023 17:17:33 GMT-0500 (Central Daylight Time)","147577","html-keyboard-response","85","96454","0.0-5.0-3.26","","null","","<div class='trialBorder'><div class='vertical-center'><img style='vertical-align:center; align:center' src=img/fixation3.jpg></div><div class='cl'><div class='vertical-center'>$17<br>for<br>sure</div></div><div class='cr'><div class='vertical-center'><font style='color:orange'>$43<br>with a<br>50% chance</font></div></div><div class='respDivL'><div class='vertical-center'>(E)</div></div><div class='respDivR'><div class='vertical-center'><font style='color:orange'>(I)</font></div></div></div>","null","$17","$43","0","17","43",""
"","","","FIX","63e55887d67a5c7e32a678fa","bdp_rd","Sun Mar 26 2023 17:17:33 GMT-0500 (Central Daylight Time)","147577","html-keyboard-response","86","96955","0.0-5.0-1.27","","null","","<div class='trialBorder'><div class='vertical-center'><img style='vertical-align:center; align:center' src=img/fixation3.jpg></div></div>","null","","","","","",""
"","","","offer","63e55887d67a5c7e32a678fa","bdp_rd","Sun Mar 26 2023 17:17:33 GMT-0500 (Central Daylight Time)","147577","html-keyboard-response","87","97725","0.0-5.0-2.27","","768","","<div class='trialBorder'><div class='vertical-center'><img style='vertical-align:center; align:center' src=img/fixation3.jpg></div><div class='cl'><div class='vertical-center'>$22<br>for<br>sure</div></div><div class='cr'><div class='vertical-center'>$42<br>with a<br>50% chance</div></div><div class='respDivL'><div class='vertical-center'>(E)</div></div><div class='respDivR'><div class='vertical-center'>(I)</div></div></div>","I","$22","$42","0","22","42","RISKY"
"","","","offerFB","63e55887d67a5c7e32a678fa","bdp_rd","Sun Mar 26 2023 17:17:33 GMT-0500 (Central Daylight Time)","147577","html-keyboard-response","88","97977","0.0-5.0-3.27","","null","","<div class='trialBorder'><div class='vertical-center'><img style='vertical-align:center; align:center' src=img/fixation3.jpg></div><div class='cl'><div class='vertical-center'>$22<br>for<br>sure</div></div><div class='cr'><div class='vertical-center'><font style='color:orange'>$42<br>with a<br>50% chance</font></div></div><div class='respDivL'><div class='vertical-center'>(E)</div></div><div class='respDivR'><div class='vertical-center'><font style='color:orange'>(I)</font></div></div></div>","null","$22","$42","0","22","42",""
"","","","FIX","63e55887d67a5c7e32a678fa","bdp_rd","Sun Mar 26 2023 17:17:33 GMT-0500 (Central Daylight Time)","147577","html-keyboard-response","89","98478","0.0-5.0-1.28","","null","","<div class='trialBorder'><div class='vertical-center'><img style='vertical-align:center; align:center' src=img/fixation3.jpg></div></div>","null","","","","","",""
"","","","offer","63e55887d67a5c7e32a678fa","bdp_rd","Sun Mar 26 2023 17:17:33 GMT-0500 (Central Daylight Time)","147577","html-keyboard-response","90","99657","0.0-5.0-2.28","","1178","","<div class='trialBorder'><div class='vertical-center'><img style='vertical-align:center; align:center' src=img/fixation3.jpg></div><div class='cl'><div class='vertical-center'>$81<br>with a<br>50% chance</div></div><div class='cr'><div class='vertical-center'>$39<br>for<br>sure</div></div><div class='respDivL'><div class='vertical-center'>(E)</div></div><div class='respDivR'><div class='vertical-center'>(I)</div></div></div>","E","$39","$81","1","39","81","RISKY"
"","","","offerFB","63e55887d67a5c7e32a678fa","bdp_rd","Sun Mar 26 2023 17:17:33 GMT-0500 (Central Daylight Time)","147577","html-keyboard-response","91","99909","0.0-5.0-3.28","","null","","<div class='trialBorder'><div class='vertical-center'><img style='vertical-align:center; align:center' src=img/fixation3.jpg></div><div class='cl'><div class='vertical-center'><font style='color:orange'>$81<br>with a<br>50% chance</font></div></div><div class='cr'><div class='vertical-center'>$39<br>for<br>sure</div></div><div class='respDivL'><div class='vertical-center'><font style='color:orange'>(E)</font></div></div><div class='respDivR'><div class='vertical-center'>(I)</div></div></div>","null","$39","$81","1","39","81",""
"","","","FIX","63e55887d67a5c7e32a678fa","bdp_rd","Sun Mar 26 2023 17:17:33 GMT-0500 (Central Daylight Time)","147577","html-keyboard-response","92","100410","0.0-5.0-1.29","","null","","<div class='trialBorder'><div class='vertical-center'><img style='vertical-align:center; align:center' src=img/fixation3.jpg></div></div>","null","","","","","",""
"","","","offer","63e55887d67a5c7e32a678fa","bdp_rd","Sun Mar 26 2023 17:17:33 GMT-0500 (Central Daylight Time)","147577","html-keyboard-response","93","101266","0.0-5.0-2.29","","854","","<div class='trialBorder'><div class='vertical-center'><img style='vertical-align:center; align:center' src=img/fixation3.jpg></div><div class='cl'><div class='vertical-center'>$78<br>with a<br>50% chance</div></div><div class='cr'><div class='vertical-center'>$31<br>for<br>sure</div></div><div class='respDivL'><div class='vertical-center'>(E)</div></div><div class='respDivR'><div class='vertical-center'>(I)</div></div></div>","E","$31","$78","1","31","78","RISKY"
"","","","offerFB","63e55887d67a5c7e32a678fa","bdp_rd","Sun Mar 26 2023 17:17:33 GMT-0500 (Central Daylight Time)","147577","html-keyboard-response","94","101517","0.0-5.0-3.29","","null","","<div class='trialBorder'><div class='vertical-center'><img style='vertical-align:center; align:center' src=img/fixation3.jpg></div><div class='cl'><div class='vertical-center'><font style='color:orange'>$78<br>with a<br>50% chance</font></div></div><div class='cr'><div class='vertical-center'>$31<br>for<br>sure</div></div><div class='respDivL'><div class='vertical-center'><font style='color:orange'>(E)</font></div></div><div class='respDivR'><div class='vertical-center'>(I)</div></div></div>","null","$31","$78","1","31","78",""
"","","","FIX","63e55887d67a5c7e32a678fa","bdp_rd","Sun Mar 26 2023 17:17:33 GMT-0500 (Central Daylight Time)","147577","html-keyboard-response","95","102018","0.0-5.0-1.30","","null","","<div class='trialBorder'><div class='vertical-center'><img style='vertical-align:center; align:center' src=img/fixation3.jpg></div></div>","null","","","","","",""
"","","","offer","63e55887d67a5c7e32a678fa","bdp_rd","Sun Mar 26 2023 17:17:33 GMT-0500 (Central Daylight Time)","147577","html-keyboard-response","96","102886","0.0-5.0-2.30","","867","","<div class='trialBorder'><div class='vertical-center'><img style='vertical-align:center; align:center' src=img/fixation3.jpg></div><div class='cl'><div class='vertical-center'>$1<br>for<br>sure</div></div><div class='cr'><div class='vertical-center'>$30<br>with a<br>50% chance</div></div><div class='respDivL'><div class='vertical-center'>(E)</div></div><div class='respDivR'><div class='vertical-center'>(I)</div></div></div>","I","$1","$30","0","1","30","RISKY"
"","","","offerFB","63e55887d67a5c7e32a678fa","bdp_rd","Sun Mar 26 2023 17:17:33 GMT-0500 (Central Daylight Time)","147577","html-keyboard-response","97","103138","0.0-5.0-3.30","","null","","<div class='trialBorder'><div class='vertical-center'><img style='vertical-align:center; align:center' src=img/fixation3.jpg></div><div class='cl'><div class='vertical-center'>$1<br>for<br>sure</div></div><div class='cr'><div class='vertical-center'><font style='color:orange'>$30<br>with a<br>50% chance</font></div></div><div class='respDivL'><div class='vertical-center'>(E)</div></div><div class='respDivR'><div class='vertical-center'><font style='color:orange'>(I)</font></div></div></div>","null","$1","$30","0","1","30",""
"","","","FIX","63e55887d67a5c7e32a678fa","bdp_rd","Sun Mar 26 2023 17:17:33 GMT-0500 (Central Daylight Time)","147577","html-keyboard-response","98","103639","0.0-5.0-1.31","","null","","<div class='trialBorder'><div class='vertical-center'><img style='vertical-align:center; align:center' src=img/fixation3.jpg></div></div>","null","","","","","",""
"","","","offer","63e55887d67a5c7e32a678fa","bdp_rd","Sun Mar 26 2023 17:17:33 GMT-0500 (Central Daylight Time)","147577","html-keyboard-response","99","104515","0.0-5.0-2.31","","873","","<div class='trialBorder'><div class='vertical-center'><img style='vertical-align:center; align:center' src=img/fixation3.jpg></div><div class='cl'><div class='vertical-center'>$19<br>with a<br>50% chance</div></div><div class='cr'><div class='vertical-center'>$10<br>for<br>sure</div></div><div class='respDivL'><div class='vertical-center'>(E)</div></div><div class='respDivR'><div class='vertical-center'>(I)</div></div></div>","E","$10","$19","1","10","19","RISKY"
"","","","offerFB","63e55887d67a5c7e32a678fa","bdp_rd","Sun Mar 26 2023 17:17:33 GMT-0500 (Central Daylight Time)","147577","html-keyboard-response","100","104766","0.0-5.0-3.31","","null","","<div class='trialBorder'><div class='vertical-center'><img style='vertical-align:center; align:center' src=img/fixation3.jpg></div><div class='cl'><div class='vertical-center'><font style='color:orange'>$19<br>with a<br>50% chance</font></div></div><div class='cr'><div class='vertical-center'>$10<br>for<br>sure</div></div><div class='respDivL'><div class='vertical-center'><font style='color:orange'>(E)</font></div></div><div class='respDivR'><div class='vertical-center'>(I)</div></div></div>","null","$10","$19","1","10","19",""
"","","","FIX","63e55887d67a5c7e32a678fa","bdp_rd","Sun Mar 26 2023 17:17:33 GMT-0500 (Central Daylight Time)","147577","html-keyboard-response","101","105268","0.0-5.0-1.32","","null","","<div class='trialBorder'><div class='vertical-center'><img style='vertical-align:center; align:center' src=img/fixation3.jpg></div></div>","null","","","","","",""
"","","","offer","63e55887d67a5c7e32a678fa","bdp_rd","Sun Mar 26 2023 17:17:33 GMT-0500 (Central Daylight Time)","147577","html-keyboard-response","102","106242","0.0-5.0-2.32","","974","","<div class='trialBorder'><div class='vertical-center'><img style='vertical-align:center; align:center' src=img/fixation3.jpg></div><div class='cl'><div class='vertical-center'>$19<br>for<br>sure</div></div><div class='cr'><div class='vertical-center'>$51<br>with a<br>50% chance</div></div><div class='respDivL'><div class='vertical-center'>(E)</div></div><div class='respDivR'><div class='vertical-center'>(I)</div></div></div>","I","$19","$51","0","19","51","RISKY"
"","","","offerFB","63e55887d67a5c7e32a678fa","bdp_rd","Sun Mar 26 2023 17:17:33 GMT-0500 (Central Daylight Time)","147577","html-keyboard-response","103","106495","0.0-5.0-3.32","","null","","<div class='trialBorder'><div class='vertical-center'><img style='vertical-align:center; align:center' src=img/fixation3.jpg></div><div class='cl'><div class='vertical-center'>$19<br>for<br>sure</div></div><div class='cr'><div class='vertical-center'><font style='color:orange'>$51<br>with a<br>50% chance</font></div></div><div class='respDivL'><div class='vertical-center'>(E)</div></div><div class='respDivR'><div class='vertical-center'><font style='color:orange'>(I)</font></div></div></div>","null","$19","$51","0","19","51",""
"","","","FIX","63e55887d67a5c7e32a678fa","bdp_rd","Sun Mar 26 2023 17:17:33 GMT-0500 (Central Daylight Time)","147577","html-keyboard-response","104","106996","0.0-5.0-1.33","","null","","<div class='trialBorder'><div class='vertical-center'><img style='vertical-align:center; align:center' src=img/fixation3.jpg></div></div>","null","","","","","",""
"","","","offer","63e55887d67a5c7e32a678fa","bdp_rd","Sun Mar 26 2023 17:17:33 GMT-0500 (Central Daylight Time)","147577","html-keyboard-response","105","108072","0.0-5.0-2.33","","1075","","<div class='trialBorder'><div class='vertical-center'><img style='vertical-align:center; align:center' src=img/fixation3.jpg></div><div class='cl'><div class='vertical-center'>$34<br>for<br>sure</div></div><div class='cr'><div class='vertical-center'>$48<br>with a<br>50% chance</div></div><div class='respDivL'><div class='vertical-center'>(E)</div></div><div class='respDivR'><div class='vertical-center'>(I)</div></div></div>","I","$34","$48","0","34","48","RISKY"
"","","","offerFB","63e55887d67a5c7e32a678fa","bdp_rd","Sun Mar 26 2023 17:17:33 GMT-0500 (Central Daylight Time)","147577","html-keyboard-response","106","108324","0.0-5.0-3.33","","null","","<div class='trialBorder'><div class='vertical-center'><img style='vertical-align:center; align:center' src=img/fixation3.jpg></div><div class='cl'><div class='vertical-center'>$34<br>for<br>sure</div></div><div class='cr'><div class='vertical-center'><font style='color:orange'>$48<br>with a<br>50% chance</font></div></div><div class='respDivL'><div class='vertical-center'>(E)</div></div><div class='respDivR'><div class='vertical-center'><font style='color:orange'>(I)</font></div></div></div>","null","$34","$48","0","34","48",""
"","","","FIX","63e55887d67a5c7e32a678fa","bdp_rd","Sun Mar 26 2023 17:17:33 GMT-0500 (Central Daylight Time)","147577","html-keyboard-response","107","108825","0.0-5.0-1.34","","null","","<div class='trialBorder'><div class='vertical-center'><img style='vertical-align:center; align:center' src=img/fixation3.jpg></div></div>","null","","","","","",""
"","","","offer","63e55887d67a5c7e32a678fa","bdp_rd","Sun Mar 26 2023 17:17:33 GMT-0500 (Central Daylight Time)","147577","html-keyboard-response","108","109406","0.0-5.0-2.34","","580","","<div class='trialBorder'><div class='vertical-center'><img style='vertical-align:center; align:center' src=img/fixation3.jpg></div><div class='cl'><div class='vertical-center'>$16<br>for<br>sure</div></div><div class='cr'><div class='vertical-center'>$38<br>with a<br>50% chance</div></div><div class='respDivL'><div class='vertical-center'>(E)</div></div><div class='respDivR'><div class='vertical-center'>(I)</div></div></div>","I","$16","$38","0","16","38","RISKY"
"","","","offerFB","63e55887d67a5c7e32a678fa","bdp_rd","Sun Mar 26 2023 17:17:33 GMT-0500 (Central Daylight Time)","147577","html-keyboard-response","109","109658","0.0-5.0-3.34","","null","","<div class='trialBorder'><div class='vertical-center'><img style='vertical-align:center; align:center' src=img/fixation3.jpg></div><div class='cl'><div class='vertical-center'>$16<br>for<br>sure</div></div><div class='cr'><div class='vertical-center'><font style='color:orange'>$38<br>with a<br>50% chance</font></div></div><div class='respDivL'><div class='vertical-center'>(E)</div></div><div class='respDivR'><div class='vertical-center'><font style='color:orange'>(I)</font></div></div></div>","null","$16","$38","0","16","38",""
"","","","FIX","63e55887d67a5c7e32a678fa","bdp_rd","Sun Mar 26 2023 17:17:33 GMT-0500 (Central Daylight Time)","147577","html-keyboard-response","110","110159","0.0-5.0-1.35","","null","","<div class='trialBorder'><div class='vertical-center'><img style='vertical-align:center; align:center' src=img/fixation3.jpg></div></div>","null","","","","","",""
"","","","offer","63e55887d67a5c7e32a678fa","bdp_rd","Sun Mar 26 2023 17:17:33 GMT-0500 (Central Daylight Time)","147577","html-keyboard-response","111","110995","0.0-5.0-2.35","","835","","<div class='trialBorder'><div class='vertical-center'><img style='vertical-align:center; align:center' src=img/fixation3.jpg></div><div class='cl'><div class='vertical-center'>$69<br>with a<br>50% chance</div></div><div class='cr'><div class='vertical-center'>$58<br>for<br>sure</div></div><div class='respDivL'><div class='vertical-center'>(E)</div></div><div class='respDivR'><div class='vertical-center'>(I)</div></div></div>","E","$58","$69","1","58","69","RISKY"
"","","","offerFB","63e55887d67a5c7e32a678fa","bdp_rd","Sun Mar 26 2023 17:17:33 GMT-0500 (Central Daylight Time)","147577","html-keyboard-response","112","111246","0.0-5.0-3.35","","null","","<div class='trialBorder'><div class='vertical-center'><img style='vertical-align:center; align:center' src=img/fixation3.jpg></div><div class='cl'><div class='vertical-center'><font style='color:orange'>$69<br>with a<br>50% chance</font></div></div><div class='cr'><div class='vertical-center'>$58<br>for<br>sure</div></div><div class='respDivL'><div class='vertical-center'><font style='color:orange'>(E)</font></div></div><div class='respDivR'><div class='vertical-center'>(I)</div></div></div>","null","$58","$69","1","58","69",""
"","","","FIX","63e55887d67a5c7e32a678fa","bdp_rd","Sun Mar 26 2023 17:17:33 GMT-0500 (Central Daylight Time)","147577","html-keyboard-response","113","111748","0.0-5.0-1.36","","null","","<div class='trialBorder'><div class='vertical-center'><img style='vertical-align:center; align:center' src=img/fixation3.jpg></div></div>","null","","","","","",""
"","","","offer","63e55887d67a5c7e32a678fa","bdp_rd","Sun Mar 26 2023 17:17:33 GMT-0500 (Central Daylight Time)","147577","html-keyboard-response","114","112515","0.0-5.0-2.36","","766","","<div class='trialBorder'><div class='vertical-center'><img style='vertical-align:center; align:center' src=img/fixation3.jpg></div><div class='cl'><div class='vertical-center'>$25<br>for<br>sure</div></div><div class='cr'><div class='vertical-center'>$54<br>with a<br>50% chance</div></div><div class='respDivL'><div class='vertical-center'>(E)</div></div><div class='respDivR'><div class='vertical-center'>(I)</div></div></div>","I","$25","$54","0","25","54","RISKY"
"","","","offerFB","63e55887d67a5c7e32a678fa","bdp_rd","Sun Mar 26 2023 17:17:33 GMT-0500 (Central Daylight Time)","147577","html-keyboard-response","115","112768","0.0-5.0-3.36","","null","","<div class='trialBorder'><div class='vertical-center'><img style='vertical-align:center; align:center' src=img/fixation3.jpg></div><div class='cl'><div class='vertical-center'>$25<br>for<br>sure</div></div><div class='cr'><div class='vertical-center'><font style='color:orange'>$54<br>with a<br>50% chance</font></div></div><div class='respDivL'><div class='vertical-center'>(E)</div></div><div class='respDivR'><div class='vertical-center'><font style='color:orange'>(I)</font></div></div></div>","null","$25","$54","0","25","54",""
"","","","FIX","63e55887d67a5c7e32a678fa","bdp_rd","Sun Mar 26 2023 17:17:33 GMT-0500 (Central Daylight Time)","147577","html-keyboard-response","116","113269","0.0-5.0-1.37","","null","","<div class='trialBorder'><div class='vertical-center'><img style='vertical-align:center; align:center' src=img/fixation3.jpg></div></div>","null","","","","","",""
"","","","offer","63e55887d67a5c7e32a678fa","bdp_rd","Sun Mar 26 2023 17:17:33 GMT-0500 (Central Daylight Time)","147577","html-keyboard-response","117","113910","0.0-5.0-2.37","","640","","<div class='trialBorder'><div class='vertical-center'><img style='vertical-align:center; align:center' src=img/fixation3.jpg></div><div class='cl'><div class='vertical-center'>$3<br>for<br>sure</div></div><div class='cr'><div class='vertical-center'>$12<br>with a<br>50% chance</div></div><div class='respDivL'><div class='vertical-center'>(E)</div></div><div class='respDivR'><div class='vertical-center'>(I)</div></div></div>","I","$3","$12","0","3","12","RISKY"
"","","","offerFB","63e55887d67a5c7e32a678fa","bdp_rd","Sun Mar 26 2023 17:17:33 GMT-0500 (Central Daylight Time)","147577","html-keyboard-response","118","114161","0.0-5.0-3.37","","null","","<div class='trialBorder'><div class='vertical-center'><img style='vertical-align:center; align:center' src=img/fixation3.jpg></div><div class='cl'><div class='vertical-center'>$3<br>for<br>sure</div></div><div class='cr'><div class='vertical-center'><font style='color:orange'>$12<br>with a<br>50% chance</font></div></div><div class='respDivL'><div class='vertical-center'>(E)</div></div><div class='respDivR'><div class='vertical-center'><font style='color:orange'>(I)</font></div></div></div>","null","$3","$12","0","3","12",""
"","","","FIX","63e55887d67a5c7e32a678fa","bdp_rd","Sun Mar 26 2023 17:17:33 GMT-0500 (Central Daylight Time)","147577","html-keyboard-response","119","114662","0.0-5.0-1.38","","null","","<div class='trialBorder'><div class='vertical-center'><img style='vertical-align:center; align:center' src=img/fixation3.jpg></div></div>","null","","","","","",""
"","","","offer","63e55887d67a5c7e32a678fa","bdp_rd","Sun Mar 26 2023 17:17:33 GMT-0500 (Central Daylight Time)","147577","html-keyboard-response","120","115216","0.0-5.0-2.38","","553","","<div class='trialBorder'><div class='vertical-center'><img style='vertical-align:center; align:center' src=img/fixation3.jpg></div><div class='cl'><div class='vertical-center'>$5<br>for<br>sure</div></div><div class='cr'><div class='vertical-center'>$50<br>with a<br>50% chance</div></div><div class='respDivL'><div class='vertical-center'>(E)</div></div><div class='respDivR'><div class='vertical-center'>(I)</div></div></div>","I","$5","$50","0","5","50","RISKY"
"","","","offerFB","63e55887d67a5c7e32a678fa","bdp_rd","Sun Mar 26 2023 17:17:33 GMT-0500 (Central Daylight Time)","147577","html-keyboard-response","121","115468","0.0-5.0-3.38","","null","","<div class='trialBorder'><div class='vertical-center'><img style='vertical-align:center; align:center' src=img/fixation3.jpg></div><div class='cl'><div class='vertical-center'>$5<br>for<br>sure</div></div><div class='cr'><div class='vertical-center'><font style='color:orange'>$50<br>with a<br>50% chance</font></div></div><div class='respDivL'><div class='vertical-center'>(E)</div></div><div class='respDivR'><div class='vertical-center'><font style='color:orange'>(I)</font></div></div></div>","null","$5","$50","0","5","50",""
"","","","FIX","63e55887d67a5c7e32a678fa","bdp_rd","Sun Mar 26 2023 17:17:33 GMT-0500 (Central Daylight Time)","147577","html-keyboard-response","122","115971","0.0-5.0-1.39","","null","","<div class='trialBorder'><div class='vertical-center'><img style='vertical-align:center; align:center' src=img/fixation3.jpg></div></div>","null","","","","","",""
"","","","offer","63e55887d67a5c7e32a678fa","bdp_rd","Sun Mar 26 2023 17:17:33 GMT-0500 (Central Daylight Time)","147577","html-keyboard-response","123","116697","0.0-5.0-2.39","","725","","<div class='trialBorder'><div class='vertical-center'><img style='vertical-align:center; align:center' src=img/fixation3.jpg></div><div class='cl'><div class='vertical-center'>$8<br>for<br>sure</div></div><div class='cr'><div class='vertical-center'>$45<br>with a<br>50% chance</div></div><div class='respDivL'><div class='vertical-center'>(E)</div></div><div class='respDivR'><div class='vertical-center'>(I)</div></div></div>","I","$8","$45","0","8","45","RISKY"
"","","","offerFB","63e55887d67a5c7e32a678fa","bdp_rd","Sun Mar 26 2023 17:17:33 GMT-0500 (Central Daylight Time)","147577","html-keyboard-response","124","116950","0.0-5.0-3.39","","null","","<div class='trialBorder'><div class='vertical-center'><img style='vertical-align:center; align:center' src=img/fixation3.jpg></div><div class='cl'><div class='vertical-center'>$8<br>for<br>sure</div></div><div class='cr'><div class='vertical-center'><font style='color:orange'>$45<br>with a<br>50% chance</font></div></div><div class='respDivL'><div class='vertical-center'>(E)</div></div><div class='respDivR'><div class='vertical-center'><font style='color:orange'>(I)</font></div></div></div>","null","$8","$45","0","8","45",""
"","","","FIX","63e55887d67a5c7e32a678fa","bdp_rd","Sun Mar 26 2023 17:17:33 GMT-0500 (Central Daylight Time)","147577","html-keyboard-response","125","117451","0.0-5.0-1.40","","null","","<div class='trialBorder'><div class='vertical-center'><img style='vertical-align:center; align:center' src=img/fixation3.jpg></div></div>","null","","","","","",""
"","","","offer","63e55887d67a5c7e32a678fa","bdp_rd","Sun Mar 26 2023 17:17:33 GMT-0500 (Central Daylight Time)","147577","html-keyboard-response","126","118004","0.0-5.0-2.40","","553","","<div class='trialBorder'><div class='vertical-center'><img style='vertical-align:center; align:center' src=img/fixation3.jpg></div><div class='cl'><div class='vertical-center'>$73<br>with a<br>50% chance</div></div><div class='cr'><div class='vertical-center'>$42<br>for<br>sure</div></div><div class='respDivL'><div class='vertical-center'>(E)</div></div><div class='respDivR'><div class='vertical-center'>(I)</div></div></div>","E","$42","$73","1","42","73","RISKY"
"","","","offerFB","63e55887d67a5c7e32a678fa","bdp_rd","Sun Mar 26 2023 17:17:33 GMT-0500 (Central Daylight Time)","147577","html-keyboard-response","127","118256","0.0-5.0-3.40","","null","","<div class='trialBorder'><div class='vertical-center'><img style='vertical-align:center; align:center' src=img/fixation3.jpg></div><div class='cl'><div class='vertical-center'><font style='color:orange'>$73<br>with a<br>50% chance</font></div></div><div class='cr'><div class='vertical-center'>$42<br>for<br>sure</div></div><div class='respDivL'><div class='vertical-center'><font style='color:orange'>(E)</font></div></div><div class='respDivR'><div class='vertical-center'>(I)</div></div></div>","null","$42","$73","1","42","73",""
"","","","FIX","63e55887d67a5c7e32a678fa","bdp_rd","Sun Mar 26 2023 17:17:33 GMT-0500 (Central Daylight Time)","147577","html-keyboard-response","128","118759","0.0-5.0-1.41","","null","","<div class='trialBorder'><div class='vertical-center'><img style='vertical-align:center; align:center' src=img/fixation3.jpg></div></div>","null","","","","","",""
"","","","offer","63e55887d67a5c7e32a678fa","bdp_rd","Sun Mar 26 2023 17:17:33 GMT-0500 (Central Daylight Time)","147577","html-keyboard-response","129","119340","0.0-5.0-2.41","","581","","<div class='trialBorder'><div class='vertical-center'><img style='vertical-align:center; align:center' src=img/fixation3.jpg></div><div class='cl'><div class='vertical-center'>$32<br>with a<br>50% chance</div></div><div class='cr'><div class='vertical-center'>$9<br>for<br>sure</div></div><div class='respDivL'><div class='vertical-center'>(E)</div></div><div class='respDivR'><div class='vertical-center'>(I)</div></div></div>","E","$9","$32","1","9","32","RISKY"
"","","","offerFB","63e55887d67a5c7e32a678fa","bdp_rd","Sun Mar 26 2023 17:17:33 GMT-0500 (Central Daylight Time)","147577","html-keyboard-response","130","119594","0.0-5.0-3.41","","null","","<div class='trialBorder'><div class='vertical-center'><img style='vertical-align:center; align:center' src=img/fixation3.jpg></div><div class='cl'><div class='vertical-center'><font style='color:orange'>$32<br>with a<br>50% chance</font></div></div><div class='cr'><div class='vertical-center'>$9<br>for<br>sure</div></div><div class='respDivL'><div class='vertical-center'><font style='color:orange'>(E)</font></div></div><div class='respDivR'><div class='vertical-center'>(I)</div></div></div>","null","$9","$32","1","9","32",""
"","","","FIX","63e55887d67a5c7e32a678fa","bdp_rd","Sun Mar 26 2023 17:17:33 GMT-0500 (Central Daylight Time)","147577","html-keyboard-response","131","120095","0.0-5.0-1.42","","null","","<div class='trialBorder'><div class='vertical-center'><img style='vertical-align:center; align:center' src=img/fixation3.jpg></div></div>","null","","","","","",""
"","","","offer","63e55887d67a5c7e32a678fa","bdp_rd","Sun Mar 26 2023 17:17:33 GMT-0500 (Central Daylight Time)","147577","html-keyboard-response","132","120788","0.0-5.0-2.42","","692","","<div class='trialBorder'><div class='vertical-center'><img style='vertical-align:center; align:center' src=img/fixation3.jpg></div><div class='cl'><div class='vertical-center'>$40<br>with a<br>50% chance</div></div><div class='cr'><div class='vertical-center'>$10<br>for<br>sure</div></div><div class='respDivL'><div class='vertical-center'>(E)</div></div><div class='respDivR'><div class='vertical-center'>(I)</div></div></div>","E","$10","$40","1","10","40","RISKY"
"","","","offerFB","63e55887d67a5c7e32a678fa","bdp_rd","Sun Mar 26 2023 17:17:33 GMT-0500 (Central Daylight Time)","147577","html-keyboard-response","133","121039","0.0-5.0-3.42","","null","","<div class='trialBorder'><div class='vertical-center'><img style='vertical-align:center; align:center' src=img/fixation3.jpg></div><div class='cl'><div class='vertical-center'><font style='color:orange'>$40<br>with a<br>50% chance</font></div></div><div class='cr'><div class='vertical-center'>$10<br>for<br>sure</div></div><div class='respDivL'><div class='vertical-center'><font style='color:orange'>(E)</font></div></div><div class='respDivR'><div class='vertical-center'>(I)</div></div></div>","null","$10","$40","1","10","40",""
"","","","FIX","63e55887d67a5c7e32a678fa","bdp_rd","Sun Mar 26 2023 17:17:33 GMT-0500 (Central Daylight Time)","147577","html-keyboard-response","134","121540","0.0-5.0-1.43","","null","","<div class='trialBorder'><div class='vertical-center'><img style='vertical-align:center; align:center' src=img/fixation3.jpg></div></div>","null","","","","","",""
"","","","offer","63e55887d67a5c7e32a678fa","bdp_rd","Sun Mar 26 2023 17:17:33 GMT-0500 (Central Daylight Time)","147577","html-keyboard-response","135","122177","0.0-5.0-2.43","","635","","<div class='trialBorder'><div class='vertical-center'><img style='vertical-align:center; align:center' src=img/fixation3.jpg></div><div class='cl'><div class='vertical-center'>$23<br>with a<br>50% chance</div></div><div class='cr'><div class='vertical-center'>$8<br>for<br>sure</div></div><div class='respDivL'><div class='vertical-center'>(E)</div></div><div class='respDivR'><div class='vertical-center'>(I)</div></div></div>","E","$8","$23","1","8","23","RISKY"
"","","","offerFB","63e55887d67a5c7e32a678fa","bdp_rd","Sun Mar 26 2023 17:17:33 GMT-0500 (Central Daylight Time)","147577","html-keyboard-response","136","122429","0.0-5.0-3.43","","null","","<div class='trialBorder'><div class='vertical-center'><img style='vertical-align:center; align:center' src=img/fixation3.jpg></div><div class='cl'><div class='vertical-center'><font style='color:orange'>$23<br>with a<br>50% chance</font></div></div><div class='cr'><div class='vertical-center'>$8<br>for<br>sure</div></div><div class='respDivL'><div class='vertical-center'><font style='color:orange'>(E)</font></div></div><div class='respDivR'><div class='vertical-center'>(I)</div></div></div>","null","$8","$23","1","8","23",""
"","","","FIX","63e55887d67a5c7e32a678fa","bdp_rd","Sun Mar 26 2023 17:17:33 GMT-0500 (Central Daylight Time)","147577","html-keyboard-response","137","122930","0.0-5.0-1.44","","null","","<div class='trialBorder'><div class='vertical-center'><img style='vertical-align:center; align:center' src=img/fixation3.jpg></div></div>","null","","","","","",""
"","","","offer","63e55887d67a5c7e32a678fa","bdp_rd","Sun Mar 26 2023 17:17:33 GMT-0500 (Central Daylight Time)","147577","html-keyboard-response","138","123477","0.0-5.0-2.44","","546","","<div class='trialBorder'><div class='vertical-center'><img style='vertical-align:center; align:center' src=img/fixation3.jpg></div><div class='cl'><div class='vertical-center'>$11<br>with a<br>50% chance</div></div><div class='cr'><div class='vertical-center'>$4<br>for<br>sure</div></div><div class='respDivL'><div class='vertical-center'>(E)</div></div><div class='respDivR'><div class='vertical-center'>(I)</div></div></div>","E","$4","$11","1","4","11","RISKY"
"","","","offerFB","63e55887d67a5c7e32a678fa","bdp_rd","Sun Mar 26 2023 17:17:33 GMT-0500 (Central Daylight Time)","147577","html-keyboard-response","139","123729","0.0-5.0-3.44","","null","","<div class='trialBorder'><div class='vertical-center'><img style='vertical-align:center; align:center' src=img/fixation3.jpg></div><div class='cl'><div class='vertical-center'><font style='color:orange'>$11<br>with a<br>50% chance</font></div></div><div class='cr'><div class='vertical-center'>$4<br>for<br>sure</div></div><div class='respDivL'><div class='vertical-center'><font style='color:orange'>(E)</font></div></div><div class='respDivR'><div class='vertical-center'>(I)</div></div></div>","null","$4","$11","1","4","11",""
"","","","FIX","63e55887d67a5c7e32a678fa","bdp_rd","Sun Mar 26 2023 17:17:33 GMT-0500 (Central Daylight Time)","147577","html-keyboard-response","140","124231","0.0-5.0-1.45","","null","","<div class='trialBorder'><div class='vertical-center'><img style='vertical-align:center; align:center' src=img/fixation3.jpg></div></div>","null","","","","","",""
"","","","offer","63e55887d67a5c7e32a678fa","bdp_rd","Sun Mar 26 2023 17:17:33 GMT-0500 (Central Daylight Time)","147577","html-keyboard-response","141","125348","0.0-5.0-2.45","","1116","","<div class='trialBorder'><div class='vertical-center'><img style='vertical-align:center; align:center' src=img/fixation3.jpg></div><div class='cl'><div class='vertical-center'>$47<br>with a<br>50% chance</div></div><div class='cr'><div class='vertical-center'>$27<br>for<br>sure</div></div><div class='respDivL'><div class='vertical-center'>(E)</div></div><div class='respDivR'><div class='vertical-center'>(I)</div></div></div>","E","$27","$47","1","27","47","RISKY"
"","","","offerFB","63e55887d67a5c7e32a678fa","bdp_rd","Sun Mar 26 2023 17:17:33 GMT-0500 (Central Daylight Time)","147577","html-keyboard-response","142","125602","0.0-5.0-3.45","","null","","<div class='trialBorder'><div class='vertical-center'><img style='vertical-align:center; align:center' src=img/fixation3.jpg></div><div class='cl'><div class='vertical-center'><font style='color:orange'>$47<br>with a<br>50% chance</font></div></div><div class='cr'><div class='vertical-center'>$27<br>for<br>sure</div></div><div class='respDivL'><div class='vertical-center'><font style='color:orange'>(E)</font></div></div><div class='respDivR'><div class='vertical-center'>(I)</div></div></div>","null","$27","$47","1","27","47",""
"","","","FIX","63e55887d67a5c7e32a678fa","bdp_rd","Sun Mar 26 2023 17:17:33 GMT-0500 (Central Daylight Time)","147577","html-keyboard-response","143","126103","0.0-5.0-1.46","","null","","<div class='trialBorder'><div class='vertical-center'><img style='vertical-align:center; align:center' src=img/fixation3.jpg></div></div>","null","","","","","",""
"","","","offer","63e55887d67a5c7e32a678fa","bdp_rd","Sun Mar 26 2023 17:17:33 GMT-0500 (Central Daylight Time)","147577","html-keyboard-response","144","126750","0.0-5.0-2.46","","645","","<div class='trialBorder'><div class='vertical-center'><img style='vertical-align:center; align:center' src=img/fixation3.jpg></div><div class='cl'><div class='vertical-center'>$10<br>with a<br>50% chance</div></div><div class='cr'><div class='vertical-center'>$7<br>for<br>sure</div></div><div class='respDivL'><div class='vertical-center'>(E)</div></div><div class='respDivR'><div class='vertical-center'>(I)</div></div></div>","E","$7","$10","1","7","10","RISKY"
"","","","offerFB","63e55887d67a5c7e32a678fa","bdp_rd","Sun Mar 26 2023 17:17:33 GMT-0500 (Central Daylight Time)","147577","html-keyboard-response","145","127001","0.0-5.0-3.46","","null","","<div class='trialBorder'><div class='vertical-center'><img style='vertical-align:center; align:center' src=img/fixation3.jpg></div><div class='cl'><div class='vertical-center'><font style='color:orange'>$10<br>with a<br>50% chance</font></div></div><div class='cr'><div class='vertical-center'>$7<br>for<br>sure</div></div><div class='respDivL'><div class='vertical-center'><font style='color:orange'>(E)</font></div></div><div class='respDivR'><div class='vertical-center'>(I)</div></div></div>","null","$7","$10","1","7","10",""
"","","","FIX","63e55887d67a5c7e32a678fa","bdp_rd","Sun Mar 26 2023 17:17:33 GMT-0500 (Central Daylight Time)","147577","html-keyboard-response","146","127503","0.0-5.0-1.47","","null","","<div class='trialBorder'><div class='vertical-center'><img style='vertical-align:center; align:center' src=img/fixation3.jpg></div></div>","null","","","","","",""
"","","","offer","63e55887d67a5c7e32a678fa","bdp_rd","Sun Mar 26 2023 17:17:33 GMT-0500 (Central Daylight Time)","147577","html-keyboard-response","147","128231","0.0-5.0-2.47","","726","","<div class='trialBorder'><div class='vertical-center'><img style='vertical-align:center; align:center' src=img/fixation3.jpg></div><div class='cl'><div class='vertical-center'>$14<br>for<br>sure</div></div><div class='cr'><div class='vertical-center'>$22<br>with a<br>50% chance</div></div><div class='respDivL'><div class='vertical-center'>(E)</div></div><div class='respDivR'><div class='vertical-center'>(I)</div></div></div>","I","$14","$22","0","14","22","RISKY"
"","","","offerFB","63e55887d67a5c7e32a678fa","bdp_rd","Sun Mar 26 2023 17:17:33 GMT-0500 (Central Daylight Time)","147577","html-keyboard-response","148","128483","0.0-5.0-3.47","","null","","<div class='trialBorder'><div class='vertical-center'><img style='vertical-align:center; align:center' src=img/fixation3.jpg></div><div class='cl'><div class='vertical-center'>$14<br>for<br>sure</div></div><div class='cr'><div class='vertical-center'><font style='color:orange'>$22<br>with a<br>50% chance</font></div></div><div class='respDivL'><div class='vertical-center'>(E)</div></div><div class='respDivR'><div class='vertical-center'><font style='color:orange'>(I)</font></div></div></div>","null","$14","$22","0","14","22",""
"","","","FIX","63e55887d67a5c7e32a678fa","bdp_rd","Sun Mar 26 2023 17:17:33 GMT-0500 (Central Daylight Time)","147577","html-keyboard-response","149","128984","0.0-5.0-1.48","","null","","<div class='trialBorder'><div class='vertical-center'><img style='vertical-align:center; align:center' src=img/fixation3.jpg></div></div>","null","","","","","",""
"","","","offer","63e55887d67a5c7e32a678fa","bdp_rd","Sun Mar 26 2023 17:17:33 GMT-0500 (Central Daylight Time)","147577","html-keyboard-response","150","129782","0.0-5.0-2.48","","797","","<div class='trialBorder'><div class='vertical-center'><img style='vertical-align:center; align:center' src=img/fixation3.jpg></div><div class='cl'><div class='vertical-center'>$9<br>for<br>sure</div></div><div class='cr'><div class='vertical-center'>$18<br>with a<br>50% chance</div></div><div class='respDivL'><div class='vertical-center'>(E)</div></div><div class='respDivR'><div class='vertical-center'>(I)</div></div></div>","I","$9","$18","0","9","18","RISKY"
"","","","offerFB","63e55887d67a5c7e32a678fa","bdp_rd","Sun Mar 26 2023 17:17:33 GMT-0500 (Central Daylight Time)","147577","html-keyboard-response","151","130034","0.0-5.0-3.48","","null","","<div class='trialBorder'><div class='vertical-center'><img style='vertical-align:center; align:center' src=img/fixation3.jpg></div><div class='cl'><div class='vertical-center'>$9<br>for<br>sure</div></div><div class='cr'><div class='vertical-center'><font style='color:orange'>$18<br>with a<br>50% chance</font></div></div><div class='respDivL'><div class='vertical-center'>(E)</div></div><div class='respDivR'><div class='vertical-center'><font style='color:orange'>(I)</font></div></div></div>","null","$9","$18","0","9","18",""
"","","","FIX","63e55887d67a5c7e32a678fa","bdp_rd","Sun Mar 26 2023 17:17:33 GMT-0500 (Central Daylight Time)","147577","html-keyboard-response","152","130535","0.0-5.0-1.49","","null","","<div class='trialBorder'><div class='vertical-center'><img style='vertical-align:center; align:center' src=img/fixation3.jpg></div></div>","null","","","","","",""
"","","","offer","63e55887d67a5c7e32a678fa","bdp_rd","Sun Mar 26 2023 17:17:33 GMT-0500 (Central Daylight Time)","147577","html-keyboard-response","153","131091","0.0-5.0-2.49","","554","","<div class='trialBorder'><div class='vertical-center'><img style='vertical-align:center; align:center' src=img/fixation3.jpg></div><div class='cl'><div class='vertical-center'>$13<br>for<br>sure</div></div><div class='cr'><div class='vertical-center'>$41<br>with a<br>50% chance</div></div><div class='respDivL'><div class='vertical-center'>(E)</div></div><div class='respDivR'><div class='vertical-center'>(I)</div></div></div>","I","$13","$41","0","13","41","RISKY"
"","","","offerFB","63e55887d67a5c7e32a678fa","bdp_rd","Sun Mar 26 2023 17:17:33 GMT-0500 (Central Daylight Time)","147577","html-keyboard-response","154","131343","0.0-5.0-3.49","","null","","<div class='trialBorder'><div class='vertical-center'><img style='vertical-align:center; align:center' src=img/fixation3.jpg></div><div class='cl'><div class='vertical-center'>$13<br>for<br>sure</div></div><div class='cr'><div class='vertical-center'><font style='color:orange'>$41<br>with a<br>50% chance</font></div></div><div class='respDivL'><div class='vertical-center'>(E)</div></div><div class='respDivR'><div class='vertical-center'><font style='color:orange'>(I)</font></div></div></div>","null","$13","$41","0","13","41",""
"","","","FIX","63e55887d67a5c7e32a678fa","bdp_rd","Sun Mar 26 2023 17:17:33 GMT-0500 (Central Daylight Time)","147577","html-keyboard-response","155","131845","0.0-5.0-1.50","","null","","<div class='trialBorder'><div class='vertical-center'><img style='vertical-align:center; align:center' src=img/fixation3.jpg></div></div>","null","","","","","",""
"","","","offer","63e55887d67a5c7e32a678fa","bdp_rd","Sun Mar 26 2023 17:17:33 GMT-0500 (Central Daylight Time)","147577","html-keyboard-response","156","132812","0.0-5.0-2.50","","966","","<div class='trialBorder'><div class='vertical-center'><img style='vertical-align:center; align:center' src=img/fixation3.jpg></div><div class='cl'><div class='vertical-center'>$44<br>with a<br>50% chance</div></div><div class='cr'><div class='vertical-center'>$37<br>for<br>sure</div></div><div class='respDivL'><div class='vertical-center'>(E)</div></div><div class='respDivR'><div class='vertical-center'>(I)</div></div></div>","E","$37","$44","1","37","44","RISKY"
"","","","offerFB","63e55887d67a5c7e32a678fa","bdp_rd","Sun Mar 26 2023 17:17:33 GMT-0500 (Central Daylight Time)","147577","html-keyboard-response","157","133063","0.0-5.0-3.50","","null","","<div class='trialBorder'><div class='vertical-center'><img style='vertical-align:center; align:center' src=img/fixation3.jpg></div><div class='cl'><div class='vertical-center'><font style='color:orange'>$44<br>with a<br>50% chance</font></div></div><div class='cr'><div class='vertical-center'>$37<br>for<br>sure</div></div><div class='respDivL'><div class='vertical-center'><font style='color:orange'>(E)</font></div></div><div class='respDivR'><div class='vertical-center'>(I)</div></div></div>","null","$37","$44","1","37","44",""
"","","","FIX","63e55887d67a5c7e32a678fa","bdp_rd","Sun Mar 26 2023 17:17:33 GMT-0500 (Central Daylight Time)","147577","html-keyboard-response","158","133565","0.0-5.0-1.51","","null","","<div class='trialBorder'><div class='vertical-center'><img style='vertical-align:center; align:center' src=img/fixation3.jpg></div></div>","null","","","","","",""
"","","","offer","63e55887d67a5c7e32a678fa","bdp_rd","Sun Mar 26 2023 17:17:33 GMT-0500 (Central Daylight Time)","147577","html-keyboard-response","159","134169","0.0-5.0-2.51","","603","","<div class='trialBorder'><div class='vertical-center'><img style='vertical-align:center; align:center' src=img/fixation3.jpg></div><div class='cl'><div class='vertical-center'>$13<br>for<br>sure</div></div><div class='cr'><div class='vertical-center'>$24<br>with a<br>50% chance</div></div><div class='respDivL'><div class='vertical-center'>(E)</div></div><div class='respDivR'><div class='vertical-center'>(I)</div></div></div>","I","$13","$24","0","13","24","RISKY"
"","","","offerFB","63e55887d67a5c7e32a678fa","bdp_rd","Sun Mar 26 2023 17:17:33 GMT-0500 (Central Daylight Time)","147577","html-keyboard-response","160","134422","0.0-5.0-3.51","","null","","<div class='trialBorder'><div class='vertical-center'><img style='vertical-align:center; align:center' src=img/fixation3.jpg></div><div class='cl'><div class='vertical-center'>$13<br>for<br>sure</div></div><div class='cr'><div class='vertical-center'><font style='color:orange'>$24<br>with a<br>50% chance</font></div></div><div class='respDivL'><div class='vertical-center'>(E)</div></div><div class='respDivR'><div class='vertical-center'><font style='color:orange'>(I)</font></div></div></div>","null","$13","$24","0","13","24",""
"","","","FIX","63e55887d67a5c7e32a678fa","bdp_rd","Sun Mar 26 2023 17:17:33 GMT-0500 (Central Daylight Time)","147577","html-keyboard-response","161","134922","0.0-5.0-1.52","","null","","<div class='trialBorder'><div class='vertical-center'><img style='vertical-align:center; align:center' src=img/fixation3.jpg></div></div>","null","","","","","",""
"","","","offer","63e55887d67a5c7e32a678fa","bdp_rd","Sun Mar 26 2023 17:17:33 GMT-0500 (Central Daylight Time)","147577","html-keyboard-response","162","135562","0.0-5.0-2.52","","638","","<div class='trialBorder'><div class='vertical-center'><img style='vertical-align:center; align:center' src=img/fixation3.jpg></div><div class='cl'><div class='vertical-center'>$29<br>for<br>sure</div></div><div class='cr'><div class='vertical-center'>$46<br>with a<br>50% chance</div></div><div class='respDivL'><div class='vertical-center'>(E)</div></div><div class='respDivR'><div class='vertical-center'>(I)</div></div></div>","I","$29","$46","0","29","46","RISKY"
"","","","offerFB","63e55887d67a5c7e32a678fa","bdp_rd","Sun Mar 26 2023 17:17:33 GMT-0500 (Central Daylight Time)","147577","html-keyboard-response","163","135814","0.0-5.0-3.52","","null","","<div class='trialBorder'><div class='vertical-center'><img style='vertical-align:center; align:center' src=img/fixation3.jpg></div><div class='cl'><div class='vertical-center'>$29<br>for<br>sure</div></div><div class='cr'><div class='vertical-center'><font style='color:orange'>$46<br>with a<br>50% chance</font></div></div><div class='respDivL'><div class='vertical-center'>(E)</div></div><div class='respDivR'><div class='vertical-center'><font style='color:orange'>(I)</font></div></div></div>","null","$29","$46","0","29","46",""
"","","","FIX","63e55887d67a5c7e32a678fa","bdp_rd","Sun Mar 26 2023 17:17:33 GMT-0500 (Central Daylight Time)","147577","html-keyboard-response","164","136315","0.0-5.0-1.53","","null","","<div class='trialBorder'><div class='vertical-center'><img style='vertical-align:center; align:center' src=img/fixation3.jpg></div></div>","null","","","","","",""
"","","","offer","63e55887d67a5c7e32a678fa","bdp_rd","Sun Mar 26 2023 17:17:33 GMT-0500 (Central Daylight Time)","147577","html-keyboard-response","165","137116","0.0-5.0-2.53","","799","","<div class='trialBorder'><div class='vertical-center'><img style='vertical-align:center; align:center' src=img/fixation3.jpg></div><div class='cl'><div class='vertical-center'>$70<br>with a<br>50% chance</div></div><div class='cr'><div class='vertical-center'>$24<br>for<br>sure</div></div><div class='respDivL'><div class='vertical-center'>(E)</div></div><div class='respDivR'><div class='vertical-center'>(I)</div></div></div>","E","$24","$70","1","24","70","RISKY"
"","","","offerFB","63e55887d67a5c7e32a678fa","bdp_rd","Sun Mar 26 2023 17:17:33 GMT-0500 (Central Daylight Time)","147577","html-keyboard-response","166","137369","0.0-5.0-3.53","","null","","<div class='trialBorder'><div class='vertical-center'><img style='vertical-align:center; align:center' src=img/fixation3.jpg></div><div class='cl'><div class='vertical-center'><font style='color:orange'>$70<br>with a<br>50% chance</font></div></div><div class='cr'><div class='vertical-center'>$24<br>for<br>sure</div></div><div class='respDivL'><div class='vertical-center'><font style='color:orange'>(E)</font></div></div><div class='respDivR'><div class='vertical-center'>(I)</div></div></div>","null","$24","$70","1","24","70",""
"","","","FIX","63e55887d67a5c7e32a678fa","bdp_rd","Sun Mar 26 2023 17:17:33 GMT-0500 (Central Daylight Time)","147577","html-keyboard-response","167","137870","0.0-5.0-1.54","","null","","<div class='trialBorder'><div class='vertical-center'><img style='vertical-align:center; align:center' src=img/fixation3.jpg></div></div>","null","","","","","",""
"","","","offer","63e55887d67a5c7e32a678fa","bdp_rd","Sun Mar 26 2023 17:17:33 GMT-0500 (Central Daylight Time)","147577","html-keyboard-response","168","138720","0.0-5.0-2.54","","849","","<div class='trialBorder'><div class='vertical-center'><img style='vertical-align:center; align:center' src=img/fixation3.jpg></div><div class='cl'><div class='vertical-center'>$21<br>with a<br>50% chance</div></div><div class='cr'><div class='vertical-center'>$2<br>for<br>sure</div></div><div class='respDivL'><div class='vertical-center'>(E)</div></div><div class='respDivR'><div class='vertical-center'>(I)</div></div></div>","E","$2","$21","1","2","21","RISKY"
"","","","offerFB","63e55887d67a5c7e32a678fa","bdp_rd","Sun Mar 26 2023 17:17:33 GMT-0500 (Central Daylight Time)","147577","html-keyboard-response","169","138973","0.0-5.0-3.54","","null","","<div class='trialBorder'><div class='vertical-center'><img style='vertical-align:center; align:center' src=img/fixation3.jpg></div><div class='cl'><div class='vertical-center'><font style='color:orange'>$21<br>with a<br>50% chance</font></div></div><div class='cr'><div class='vertical-center'>$2<br>for<br>sure</div></div><div class='respDivL'><div class='vertical-center'><font style='color:orange'>(E)</font></div></div><div class='respDivR'><div class='vertical-center'>(I)</div></div></div>","null","$2","$21","1","2","21",""
"","","","FIX","63e55887d67a5c7e32a678fa","bdp_rd","Sun Mar 26 2023 17:17:33 GMT-0500 (Central Daylight Time)","147577","html-keyboard-response","170","139473","0.0-5.0-1.55","","null","","<div class='trialBorder'><div class='vertical-center'><img style='vertical-align:center; align:center' src=img/fixation3.jpg></div></div>","null","","","","","",""
"","","","offer","63e55887d67a5c7e32a678fa","bdp_rd","Sun Mar 26 2023 17:17:33 GMT-0500 (Central Daylight Time)","147577","html-keyboard-response","171","140114","0.0-5.0-2.55","","640","","<div class='trialBorder'><div class='vertical-center'><img style='vertical-align:center; align:center' src=img/fixation3.jpg></div><div class='cl'><div class='vertical-center'>$35<br>with a<br>50% chance</div></div><div class='cr'><div class='vertical-center'>$12<br>for<br>sure</div></div><div class='respDivL'><div class='vertical-center'>(E)</div></div><div class='respDivR'><div class='vertical-center'>(I)</div></div></div>","E","$12","$35","1","12","35","RISKY"
"","","","offerFB","63e55887d67a5c7e32a678fa","bdp_rd","Sun Mar 26 2023 17:17:33 GMT-0500 (Central Daylight Time)","147577","html-keyboard-response","172","140366","0.0-5.0-3.55","","null","","<div class='trialBorder'><div class='vertical-center'><img style='vertical-align:center; align:center' src=img/fixation3.jpg></div><div class='cl'><div class='vertical-center'><font style='color:orange'>$35<br>with a<br>50% chance</font></div></div><div class='cr'><div class='vertical-center'>$12<br>for<br>sure</div></div><div class='respDivL'><div class='vertical-center'><font style='color:orange'>(E)</font></div></div><div class='respDivR'><div class='vertical-center'>(I)</div></div></div>","null","$12","$35","1","12","35",""
"","","","FIX","63e55887d67a5c7e32a678fa","bdp_rd","Sun Mar 26 2023 17:17:33 GMT-0500 (Central Daylight Time)","147577","html-keyboard-response","173","140868","0.0-5.0-1.56","","null","","<div class='trialBorder'><div class='vertical-center'><img style='vertical-align:center; align:center' src=img/fixation3.jpg></div></div>","null","","","","","",""
"","","","offer","63e55887d67a5c7e32a678fa","bdp_rd","Sun Mar 26 2023 17:17:33 GMT-0500 (Central Daylight Time)","147577","html-keyboard-response","174","141536","0.0-5.0-2.56","","666","","<div class='trialBorder'><div class='vertical-center'><img style='vertical-align:center; align:center' src=img/fixation3.jpg></div><div class='cl'><div class='vertical-center'>$1<br>for<br>sure</div></div><div class='cr'><div class='vertical-center'>$33<br>with a<br>50% chance</div></div><div class='respDivL'><div class='vertical-center'>(E)</div></div><div class='respDivR'><div class='vertical-center'>(I)</div></div></div>","I","$1","$33","0","1","33","RISKY"
