"trial_type","trial_index","time_elapsed","internal_node_id","subject_id","task","startTime","totalTime","view_history","rt","event","trial","time","trialtype","success","stimulus","key_press","sureOffer","riskyOffer","riskyLeft","sureAmt","riskyAmt","chosen"
"pavlovia","0","8","0.0-0.0","63d42c21dc6f4d60e34cc337","bdp_rd","Sat Mar 25 2023 10:36:53 GMT-0500 (Central Daylight Time)","173990","","","","","","","","","","","","","","",""
"instructions","1","2742","0.0-1.0","63d42c21dc6f4d60e34cc337","bdp_rd","Sat Mar 25 2023 10:36:53 GMT-0500 (Central Daylight Time)","173990","[{""page_index"":0,""viewing_time"":2730}]","2730","","","","","","","","","","","","",""
"","","","","63d42c21dc6f4d60e34cc337","bdp_rd","Sat Mar 25 2023 10:36:53 GMT-0500 (Central Daylight Time)","173990","","","fullscreenenter","2","5051","fullscreenenter","","","","","","","","",""
"fullscreen","2","6029","0.0-2.0","63d42c21dc6f4d60e34cc337","bdp_rd","Sat Mar 25 2023 10:36:53 GMT-0500 (Central Daylight Time)","173990","","","","","","","true","","","","","","","",""
"instructions","3","28720","0.0-4.0","63d42c21dc6f4d60e34cc337","bdp_rd","Sat Mar 25 2023 10:36:53 GMT-0500 (Central Daylight Time)","173990","[{""page_index"":0,""viewing_time"":17223},{""page_index"":1,""viewing_time"":4089},{""page_index"":2,""viewing_time"":1376}]","22689","","","","","","","","","","","","",""
"html-keyboard-response","4","29230","0.0-5.0-1.0","63d42c21dc6f4d60e34cc337","bdp_rd","Sat Mar 25 2023 10:36:53 GMT-0500 (Central Daylight Time)","173990","","null","","","","FIX","","<div class='trialBorder'><div class='vertical-center'><img style='vertical-align:center; align:center' src=img/fixation3.jpg></div></div>","null","","","","","",""
"html-keyboard-response","5","31188","0.0-5.0-2.0","63d42c21dc6f4d60e34cc337","bdp_rd","Sat Mar 25 2023 10:36:53 GMT-0500 (Central Daylight Time)","173990","","1955","","","","offer","","<div class='trialBorder'><div class='vertical-center'><img style='vertical-align:center; align:center' src=img/fixation3.jpg></div><div class='cl'><div class='vertical-center'>$15<br>with a<br>50% chance</div></div><div class='cr'><div class='vertical-center'>$6<br>for<br>sure</div></div><div class='respDivL'><div class='vertical-center'>(E)</div></div><div class='respDivR'><div class='vertical-center'>(I)</div></div></div>","I","$6","$15","1","6","15","SURE"
"html-keyboard-response","6","31445","0.0-5.0-3.0","63d42c21dc6f4d60e34cc337","bdp_rd","Sat Mar 25 2023 10:36:53 GMT-0500 (Central Daylight Time)","173990","","null","","","","offerFB","","<div class='trialBorder'><div class='vertical-center'><img style='vertical-align:center; align:center' src=img/fixation3.jpg></div><div class='cl'><div class='vertical-center'>$15<br>with a<br>50% chance</div></div><div class='cr'><div class='vertical-center'><font style='color:orange'>$6<br>for<br>sure</font></div></div><div class='respDivL'><div class='vertical-center'>(E)</div></div><div class='respDivR'><div class='vertical-center'><font style='color:orange'>(I)</font></div></div></div>","null","$6","$15","1","6","15",""
"html-keyboard-response","7","31949","0.0-5.0-1.1","63d42c21dc6f4d60e34cc337","bdp_rd","Sat Mar 25 2023 10:36:53 GMT-0500 (Central Daylight Time)","173990","","null","","","","FIX","","<div class='trialBorder'><div class='vertical-center'><img style='vertical-align:center; align:center' src=img/fixation3.jpg></div></div>","null","","","","","",""
"html-keyboard-response","8","33889","0.0-5.0-2.1","63d42c21dc6f4d60e34cc337","bdp_rd","Sat Mar 25 2023 10:36:53 GMT-0500 (Central Daylight Time)","173990","","1938","","","","offer","","<div class='trialBorder'><div class='vertical-center'><img style='vertical-align:center; align:center' src=img/fixation3.jpg></div><div class='cl'><div class='vertical-center'>$10<br>for<br>sure</div></div><div class='cr'><div class='vertical-center'>$19<br>with a<br>50% chance</div></div><div class='respDivL'><div class='vertical-center'>(E)</div></div><div class='respDivR'><div class='vertical-center'>(I)</div></div></div>","E","$10","$19","0","10","19","SURE"
"html-keyboard-response","9","34141","0.0-5.0-3.1","63d42c21dc6f4d60e34cc337","bdp_rd","Sat Mar 25 2023 10:36:53 GMT-0500 (Central Daylight Time)","173990","","null","","","","offerFB","","<div class='trialBorder'><div class='vertical-center'><img style='vertical-align:center; align:center' src=img/fixation3.jpg></div><div class='cl'><div class='vertical-center'><font style='color:orange'>$10<br>for<br>sure</font></div></div><div class='cr'><div class='vertical-center'>$19<br>with a<br>50% chance</div></div><div class='respDivL'><div class='vertical-center'><font style='color:orange'>(E)</font></div></div><div class='respDivR'><div class='vertical-center'>(I)</div></div></div>","null","$10","$19","0","10","19",""
"html-keyboard-response","10","34646","0.0-5.0-1.2","63d42c21dc6f4d60e34cc337","bdp_rd","Sat Mar 25 2023 10:36:53 GMT-0500 (Central Daylight Time)","173990","","null","","","","FIX","","<div class='trialBorder'><div class='vertical-center'><img style='vertical-align:center; align:center' src=img/fixation3.jpg></div></div>","null","","","","","",""
"html-keyboard-response","11","36649","0.0-5.0-2.2","63d42c21dc6f4d60e34cc337","bdp_rd","Sat Mar 25 2023 10:36:53 GMT-0500 (Central Daylight Time)","173990","","2001","","","","offer","","<div class='trialBorder'><div class='vertical-center'><img style='vertical-align:center; align:center' src=img/fixation3.jpg></div><div class='cl'><div class='vertical-center'>$9<br>for<br>sure</div></div><div class='cr'><div class='vertical-center'>$32<br>with a<br>50% chance</div></div><div class='respDivL'><div class='vertical-center'>(E)</div></div><div class='respDivR'><div class='vertical-center'>(I)</div></div></div>","E","$9","$32","0","9","32","SURE"
"html-keyboard-response","12","36901","0.0-5.0-3.2","63d42c21dc6f4d60e34cc337","bdp_rd","Sat Mar 25 2023 10:36:53 GMT-0500 (Central Daylight Time)","173990","","null","","","","offerFB","","<div class='trialBorder'><div class='vertical-center'><img style='vertical-align:center; align:center' src=img/fixation3.jpg></div><div class='cl'><div class='vertical-center'><font style='color:orange'>$9<br>for<br>sure</font></div></div><div class='cr'><div class='vertical-center'>$32<br>with a<br>50% chance</div></div><div class='respDivL'><div class='vertical-center'><font style='color:orange'>(E)</font></div></div><div class='respDivR'><div class='vertical-center'>(I)</div></div></div>","null","$9","$32","0","9","32",""
"html-keyboard-response","13","37405","0.0-5.0-1.3","63d42c21dc6f4d60e34cc337","bdp_rd","Sat Mar 25 2023 10:36:53 GMT-0500 (Central Daylight Time)","173990","","null","","","","FIX","","<div class='trialBorder'><div class='vertical-center'><img style='vertical-align:center; align:center' src=img/fixation3.jpg></div></div>","null","","","","","",""
"html-keyboard-response","14","40066","0.0-5.0-2.3","63d42c21dc6f4d60e34cc337","bdp_rd","Sat Mar 25 2023 10:36:53 GMT-0500 (Central Daylight Time)","173990","","2660","","","","offer","","<div class='trialBorder'><div class='vertical-center'><img style='vertical-align:center; align:center' src=img/fixation3.jpg></div><div class='cl'><div class='vertical-center'>$24<br>with a<br>50% chance</div></div><div class='cr'><div class='vertical-center'>$13<br>for<br>sure</div></div><div class='respDivL'><div class='vertical-center'>(E)</div></div><div class='respDivR'><div class='vertical-center'>(I)</div></div></div>","I","$13","$24","1","13","24","SURE"
"html-keyboard-response","15","40327","0.0-5.0-3.3","63d42c21dc6f4d60e34cc337","bdp_rd","Sat Mar 25 2023 10:36:53 GMT-0500 (Central Daylight Time)","173990","","null","","","","offerFB","","<div class='trialBorder'><div class='vertical-center'><img style='vertical-align:center; align:center' src=img/fixation3.jpg></div><div class='cl'><div class='vertical-center'>$24<br>with a<br>50% chance</div></div><div class='cr'><div class='vertical-center'><font style='color:orange'>$13<br>for<br>sure</font></div></div><div class='respDivL'><div class='vertical-center'>(E)</div></div><div class='respDivR'><div class='vertical-center'><font style='color:orange'>(I)</font></div></div></div>","null","$13","$24","1","13","24",""
"html-keyboard-response","16","40829","0.0-5.0-1.4","63d42c21dc6f4d60e34cc337","bdp_rd","Sat Mar 25 2023 10:36:53 GMT-0500 (Central Daylight Time)","173990","","null","","","","FIX","","<div class='trialBorder'><div class='vertical-center'><img style='vertical-align:center; align:center' src=img/fixation3.jpg></div></div>","null","","","","","",""
"html-keyboard-response","17","42175","0.0-5.0-2.4","63d42c21dc6f4d60e34cc337","bdp_rd","Sat Mar 25 2023 10:36:53 GMT-0500 (Central Daylight Time)","173990","","1344","","","","offer","","<div class='trialBorder'><div class='vertical-center'><img style='vertical-align:center; align:center' src=img/fixation3.jpg></div><div class='cl'><div class='vertical-center'>$46<br>with a<br>50% chance</div></div><div class='cr'><div class='vertical-center'>$29<br>for<br>sure</div></div><div class='respDivL'><div class='vertical-center'>(E)</div></div><div class='respDivR'><div class='vertical-center'>(I)</div></div></div>","I","$29","$46","1","29","46","SURE"
"html-keyboard-response","18","42430","0.0-5.0-3.4","63d42c21dc6f4d60e34cc337","bdp_rd","Sat Mar 25 2023 10:36:53 GMT-0500 (Central Daylight Time)","173990","","null","","","","offerFB","","<div class='trialBorder'><div class='vertical-center'><img style='vertical-align:center; align:center' src=img/fixation3.jpg></div><div class='cl'><div class='vertical-center'>$46<br>with a<br>50% chance</div></div><div class='cr'><div class='vertical-center'><font style='color:orange'>$29<br>for<br>sure</font></div></div><div class='respDivL'><div class='vertical-center'>(E)</div></div><div class='respDivR'><div class='vertical-center'><font style='color:orange'>(I)</font></div></div></div>","null","$29","$46","1","29","46",""
"html-keyboard-response","19","42933","0.0-5.0-1.5","63d42c21dc6f4d60e34cc337","bdp_rd","Sat Mar 25 2023 10:36:53 GMT-0500 (Central Daylight Time)","173990","","null","","","","FIX","","<div class='trialBorder'><div class='vertical-center'><img style='vertical-align:center; align:center' src=img/fixation3.jpg></div></div>","null","","","","","",""
"html-keyboard-response","20","45899","0.0-5.0-2.5","63d42c21dc6f4d60e34cc337","bdp_rd","Sat Mar 25 2023 10:36:53 GMT-0500 (Central Daylight Time)","173990","","2964","","","","offer","","<div class='trialBorder'><div class='vertical-center'><img style='vertical-align:center; align:center' src=img/fixation3.jpg></div><div class='cl'><div class='vertical-center'>$71<br>with a<br>50% chance</div></div><div class='cr'><div class='vertical-center'>$7<br>for<br>sure</div></div><div class='respDivL'><div class='vertical-center'>(E)</div></div><div class='respDivR'><div class='vertical-center'>(I)</div></div></div>","I","$7","$71","1","7","71","SURE"
"html-keyboard-response","21","46158","0.0-5.0-3.5","63d42c21dc6f4d60e34cc337","bdp_rd","Sat Mar 25 2023 10:36:53 GMT-0500 (Central Daylight Time)","173990","","null","","","","offerFB","","<div class='trialBorder'><div class='vertical-center'><img style='vertical-align:center; align:center' src=img/fixation3.jpg></div><div class='cl'><div class='vertical-center'>$71<br>with a<br>50% chance</div></div><div class='cr'><div class='vertical-center'><font style='color:orange'>$7<br>for<br>sure</font></div></div><div class='respDivL'><div class='vertical-center'>(E)</div></div><div class='respDivR'><div class='vertical-center'><font style='color:orange'>(I)</font></div></div></div>","null","$7","$71","1","7","71",""
"html-keyboard-response","22","46661","0.0-5.0-1.6","63d42c21dc6f4d60e34cc337","bdp_rd","Sat Mar 25 2023 10:36:53 GMT-0500 (Central Daylight Time)","173990","","null","","","","FIX","","<div class='trialBorder'><div class='vertical-center'><img style='vertical-align:center; align:center' src=img/fixation3.jpg></div></div>","null","","","","","",""
"html-keyboard-response","23","50154","0.0-5.0-2.6","63d42c21dc6f4d60e34cc337","bdp_rd","Sat Mar 25 2023 10:36:53 GMT-0500 (Central Daylight Time)","173990","","3490","","","","offer","","<div class='trialBorder'><div class='vertical-center'><img style='vertical-align:center; align:center' src=img/fixation3.jpg></div><div class='cl'><div class='vertical-center'>$10<br>with a<br>50% chance</div></div><div class='cr'><div class='vertical-center'>$7<br>for<br>sure</div></div><div class='respDivL'><div class='vertical-center'>(E)</div></div><div class='respDivR'><div class='vertical-center'>(I)</div></div></div>","I","$7","$10","1","7","10","SURE"
"html-keyboard-response","24","50414","0.0-5.0-3.6","63d42c21dc6f4d60e34cc337","bdp_rd","Sat Mar 25 2023 10:36:53 GMT-0500 (Central Daylight Time)","173990","","null","","","","offerFB","","<div class='trialBorder'><div class='vertical-center'><img style='vertical-align:center; align:center' src=img/fixation3.jpg></div><div class='cl'><div class='vertical-center'>$10<br>with a<br>50% chance</div></div><div class='cr'><div class='vertical-center'><font style='color:orange'>$7<br>for<br>sure</font></div></div><div class='respDivL'><div class='vertical-center'>(E)</div></div><div class='respDivR'><div class='vertical-center'><font style='color:orange'>(I)</font></div></div></div>","null","$7","$10","1","7","10",""
"html-keyboard-response","25","50917","0.0-5.0-1.7","63d42c21dc6f4d60e34cc337","bdp_rd","Sat Mar 25 2023 10:36:53 GMT-0500 (Central Daylight Time)","173990","","null","","","","FIX","","<div class='trialBorder'><div class='vertical-center'><img style='vertical-align:center; align:center' src=img/fixation3.jpg></div></div>","null","","","","","",""
"html-keyboard-response","26","52580","0.0-5.0-2.7","63d42c21dc6f4d60e34cc337","bdp_rd","Sat Mar 25 2023 10:36:53 GMT-0500 (Central Daylight Time)","173990","","1662","","","","offer","","<div class='trialBorder'><div class='vertical-center'><img style='vertical-align:center; align:center' src=img/fixation3.jpg></div><div class='cl'><div class='vertical-center'>$39<br>with a<br>50% chance</div></div><div class='cr'><div class='vertical-center'>$18<br>for<br>sure</div></div><div class='respDivL'><div class='vertical-center'>(E)</div></div><div class='respDivR'><div class='vertical-center'>(I)</div></div></div>","I","$18","$39","1","18","39","SURE"
"html-keyboard-response","27","52838","0.0-5.0-3.7","63d42c21dc6f4d60e34cc337","bdp_rd","Sat Mar 25 2023 10:36:53 GMT-0500 (Central Daylight Time)","173990","","null","","","","offerFB","","<div class='trialBorder'><div class='vertical-center'><img style='vertical-align:center; align:center' src=img/fixation3.jpg></div><div class='cl'><div class='vertical-center'>$39<br>with a<br>50% chance</div></div><div class='cr'><div class='vertical-center'><font style='color:orange'>$18<br>for<br>sure</font></div></div><div class='respDivL'><div class='vertical-center'>(E)</div></div><div class='respDivR'><div class='vertical-center'><font style='color:orange'>(I)</font></div></div></div>","null","$18","$39","1","18","39",""
"html-keyboard-response","28","53341","0.0-5.0-1.8","63d42c21dc6f4d60e34cc337","bdp_rd","Sat Mar 25 2023 10:36:53 GMT-0500 (Central Daylight Time)","173990","","null","","","","FIX","","<div class='trialBorder'><div class='vertical-center'><img style='vertical-align:center; align:center' src=img/fixation3.jpg></div></div>","null","","","","","",""
"html-keyboard-response","29","55140","0.0-5.0-2.8","63d42c21dc6f4d60e34cc337","bdp_rd","Sat Mar 25 2023 10:36:53 GMT-0500 (Central Daylight Time)","173990","","1797","","","","offer","","<div class='trialBorder'><div class='vertical-center'><img style='vertical-align:center; align:center' src=img/fixation3.jpg></div><div class='cl'><div class='vertical-center'>$3<br>for<br>sure</div></div><div class='cr'><div class='vertical-center'>$12<br>with a<br>50% chance</div></div><div class='respDivL'><div class='vertical-center'>(E)</div></div><div class='respDivR'><div class='vertical-center'>(I)</div></div></div>","E","$3","$12","0","3","12","SURE"
"html-keyboard-response","30","55398","0.0-5.0-3.8","63d42c21dc6f4d60e34cc337","bdp_rd","Sat Mar 25 2023 10:36:53 GMT-0500 (Central Daylight Time)","173990","","null","","","","offerFB","","<div class='trialBorder'><div class='vertical-center'><img style='vertical-align:center; align:center' src=img/fixation3.jpg></div><div class='cl'><div class='vertical-center'><font style='color:orange'>$3<br>for<br>sure</font></div></div><div class='cr'><div class='vertical-center'>$12<br>with a<br>50% chance</div></div><div class='respDivL'><div class='vertical-center'><font style='color:orange'>(E)</font></div></div><div class='respDivR'><div class='vertical-center'>(I)</div></div></div>","null","$3","$12","0","3","12",""
"html-keyboard-response","31","55901","0.0-5.0-1.9","63d42c21dc6f4d60e34cc337","bdp_rd","Sat Mar 25 2023 10:36:53 GMT-0500 (Central Daylight Time)","173990","","null","","","","FIX","","<div class='trialBorder'><div class='vertical-center'><img style='vertical-align:center; align:center' src=img/fixation3.jpg></div></div>","null","","","","","",""
"html-keyboard-response","32","57653","0.0-5.0-2.9","63d42c21dc6f4d60e34cc337","bdp_rd","Sat Mar 25 2023 10:36:53 GMT-0500 (Central Daylight Time)","173990","","1750","","","","offer","","<div class='trialBorder'><div class='vertical-center'><img style='vertical-align:center; align:center' src=img/fixation3.jpg></div><div class='cl'><div class='vertical-center'>$35<br>with a<br>50% chance</div></div><div class='cr'><div class='vertical-center'>$12<br>for<br>sure</div></div><div class='respDivL'><div class='vertical-center'>(E)</div></div><div class='respDivR'><div class='vertical-center'>(I)</div></div></div>","I","$12","$35","1","12","35","SURE"
"html-keyboard-response","33","57909","0.0-5.0-3.9","63d42c21dc6f4d60e34cc337","bdp_rd","Sat Mar 25 2023 10:36:53 GMT-0500 (Central Daylight Time)","173990","","null","","","","offerFB","","<div class='trialBorder'><div class='vertical-center'><img style='vertical-align:center; align:center' src=img/fixation3.jpg></div><div class='cl'><div class='vertical-center'>$35<br>with a<br>50% chance</div></div><div class='cr'><div class='vertical-center'><font style='color:orange'>$12<br>for<br>sure</font></div></div><div class='respDivL'><div class='vertical-center'>(E)</div></div><div class='respDivR'><div class='vertical-center'><font style='color:orange'>(I)</font></div></div></div>","null","$12","$35","1","12","35",""
"html-keyboard-response","34","58413","0.0-5.0-1.10","63d42c21dc6f4d60e34cc337","bdp_rd","Sat Mar 25 2023 10:36:53 GMT-0500 (Central Daylight Time)","173990","","null","","","","FIX","","<div class='trialBorder'><div class='vertical-center'><img style='vertical-align:center; align:center' src=img/fixation3.jpg></div></div>","null","","","","","",""
"html-keyboard-response","35","59373","0.0-5.0-2.10","63d42c21dc6f4d60e34cc337","bdp_rd","Sat Mar 25 2023 10:36:53 GMT-0500 (Central Daylight Time)","173990","","958","","","","offer","","<div class='trialBorder'><div class='vertical-center'><img style='vertical-align:center; align:center' src=img/fixation3.jpg></div><div class='cl'><div class='vertical-center'>$37<br>for<br>sure</div></div><div class='cr'><div class='vertical-center'>$44<br>with a<br>50% chance</div></div><div class='respDivL'><div class='vertical-center'>(E)</div></div><div class='respDivR'><div class='vertical-center'>(I)</div></div></div>","E","$37","$44","0","37","44","SURE"
"html-keyboard-response","36","59630","0.0-5.0-3.10","63d42c21dc6f4d60e34cc337","bdp_rd","Sat Mar 25 2023 10:36:53 GMT-0500 (Central Daylight Time)","173990","","null","","","","offerFB","","<div class='trialBorder'><div class='vertical-center'><img style='vertical-align:center; align:center' src=img/fixation3.jpg></div><div class='cl'><div class='vertical-center'><font style='color:orange'>$37<br>for<br>sure</font></div></div><div class='cr'><div class='vertical-center'>$44<br>with a<br>50% chance</div></div><div class='respDivL'><div class='vertical-center'><font style='color:orange'>(E)</font></div></div><div class='respDivR'><div class='vertical-center'>(I)</div></div></div>","null","$37","$44","0","37","44",""
"html-keyboard-response","37","60133","0.0-5.0-1.11","63d42c21dc6f4d60e34cc337","bdp_rd","Sat Mar 25 2023 10:36:53 GMT-0500 (Central Daylight Time)","173990","","null","","","","FIX","","<div class='trialBorder'><div class='vertical-center'><img style='vertical-align:center; align:center' src=img/fixation3.jpg></div></div>","null","","","","","",""
"html-keyboard-response","38","61471","0.0-5.0-2.11","63d42c21dc6f4d60e34cc337","bdp_rd","Sat Mar 25 2023 10:36:53 GMT-0500 (Central Daylight Time)","173990","","1337","","","","offer","","<div class='trialBorder'><div class='vertical-center'><img style='vertical-align:center; align:center' src=img/fixation3.jpg></div><div class='cl'><div class='vertical-center'>$50<br>with a<br>50% chance</div></div><div class='cr'><div class='vertical-center'>$5<br>for<br>sure</div></div><div class='respDivL'><div class='vertical-center'>(E)</div></div><div class='respDivR'><div class='vertical-center'>(I)</div></div></div>","I","$5","$50","1","5","50","SURE"
"html-keyboard-response","39","61725","0.0-5.0-3.11","63d42c21dc6f4d60e34cc337","bdp_rd","Sat Mar 25 2023 10:36:53 GMT-0500 (Central Daylight Time)","173990","","null","","","","offerFB","","<div class='trialBorder'><div class='vertical-center'><img style='vertical-align:center; align:center' src=img/fixation3.jpg></div><div class='cl'><div class='vertical-center'>$50<br>with a<br>50% chance</div></div><div class='cr'><div class='vertical-center'><font style='color:orange'>$5<br>for<br>sure</font></div></div><div class='respDivL'><div class='vertical-center'>(E)</div></div><div class='respDivR'><div class='vertical-center'><font style='color:orange'>(I)</font></div></div></div>","null","$5","$50","1","5","50",""
"html-keyboard-response","40","62229","0.0-5.0-1.12","63d42c21dc6f4d60e34cc337","bdp_rd","Sat Mar 25 2023 10:36:53 GMT-0500 (Central Daylight Time)","173990","","null","","","","FIX","","<div class='trialBorder'><div class='vertical-center'><img style='vertical-align:center; align:center' src=img/fixation3.jpg></div></div>","null","","","","","",""
"html-keyboard-response","41","64968","0.0-5.0-2.12","63d42c21dc6f4d60e34cc337","bdp_rd","Sat Mar 25 2023 10:36:53 GMT-0500 (Central Daylight Time)","173990","","2736","","","","offer","","<div class='trialBorder'><div class='vertical-center'><img style='vertical-align:center; align:center' src=img/fixation3.jpg></div><div class='cl'><div class='vertical-center'>$11<br>for<br>sure</div></div><div class='cr'><div class='vertical-center'>$26<br>with a<br>50% chance</div></div><div class='respDivL'><div class='vertical-center'>(E)</div></div><div class='respDivR'><div class='vertical-center'>(I)</div></div></div>","E","$11","$26","0","11","26","SURE"
"html-keyboard-response","42","65221","0.0-5.0-3.12","63d42c21dc6f4d60e34cc337","bdp_rd","Sat Mar 25 2023 10:36:53 GMT-0500 (Central Daylight Time)","173990","","null","","","","offerFB","","<div class='trialBorder'><div class='vertical-center'><img style='vertical-align:center; align:center' src=img/fixation3.jpg></div><div class='cl'><div class='vertical-center'><font style='color:orange'>$11<br>for<br>sure</font></div></div><div class='cr'><div class='vertical-center'>$26<br>with a<br>50% chance</div></div><div class='respDivL'><div class='vertical-center'><font style='color:orange'>(E)</font></div></div><div class='respDivR'><div class='vertical-center'>(I)</div></div></div>","null","$11","$26","0","11","26",""
"html-keyboard-response","43","65725","0.0-5.0-1.13","63d42c21dc6f4d60e34cc337","bdp_rd","Sat Mar 25 2023 10:36:53 GMT-0500 (Central Daylight Time)","173990","","null","","","","FIX","","<div class='trialBorder'><div class='vertical-center'><img style='vertical-align:center; align:center' src=img/fixation3.jpg></div></div>","null","","","","","",""
"html-keyboard-response","44","66584","0.0-5.0-2.13","63d42c21dc6f4d60e34cc337","bdp_rd","Sat Mar 25 2023 10:36:53 GMT-0500 (Central Daylight Time)","173990","","858","","","","offer","","<div class='trialBorder'><div class='vertical-center'><img style='vertical-align:center; align:center' src=img/fixation3.jpg></div><div class='cl'><div class='vertical-center'>$78<br>with a<br>50% chance</div></div><div class='cr'><div class='vertical-center'>$31<br>for<br>sure</div></div><div class='respDivL'><div class='vertical-center'>(E)</div></div><div class='respDivR'><div class='vertical-center'>(I)</div></div></div>","I","$31","$78","1","31","78","SURE"
"html-keyboard-response","45","66837","0.0-5.0-3.13","63d42c21dc6f4d60e34cc337","bdp_rd","Sat Mar 25 2023 10:36:53 GMT-0500 (Central Daylight Time)","173990","","null","","","","offerFB","","<div class='trialBorder'><div class='vertical-center'><img style='vertical-align:center; align:center' src=img/fixation3.jpg></div><div class='cl'><div class='vertical-center'>$78<br>with a<br>50% chance</div></div><div class='cr'><div class='vertical-center'><font style='color:orange'>$31<br>for<br>sure</font></div></div><div class='respDivL'><div class='vertical-center'>(E)</div></div><div class='respDivR'><div class='vertical-center'><font style='color:orange'>(I)</font></div></div></div>","null","$31","$78","1","31","78",""
"html-keyboard-response","46","67341","0.0-5.0-1.14","63d42c21dc6f4d60e34cc337","bdp_rd","Sat Mar 25 2023 10:36:53 GMT-0500 (Central Daylight Time)","173990","","null","","","","FIX","","<div class='trialBorder'><div class='vertical-center'><img style='vertical-align:center; align:center' src=img/fixation3.jpg></div></div>","null","","","","","",""
"html-keyboard-response","47","68423","0.0-5.0-2.14","63d42c21dc6f4d60e34cc337","bdp_rd","Sat Mar 25 2023 10:36:53 GMT-0500 (Central Daylight Time)","173990","","1080","","","","offer","","<div class='trialBorder'><div class='vertical-center'><img style='vertical-align:center; align:center' src=img/fixation3.jpg></div><div class='cl'><div class='vertical-center'>$30<br>with a<br>50% chance</div></div><div class='cr'><div class='vertical-center'>$1<br>for<br>sure</div></div><div class='respDivL'><div class='vertical-center'>(E)</div></div><div class='respDivR'><div class='vertical-center'>(I)</div></div></div>","I","$1","$30","1","1","30","SURE"
"html-keyboard-response","48","68677","0.0-5.0-3.14","63d42c21dc6f4d60e34cc337","bdp_rd","Sat Mar 25 2023 10:36:53 GMT-0500 (Central Daylight Time)","173990","","null","","","","offerFB","","<div class='trialBorder'><div class='vertical-center'><img style='vertical-align:center; align:center' src=img/fixation3.jpg></div><div class='cl'><div class='vertical-center'>$30<br>with a<br>50% chance</div></div><div class='cr'><div class='vertical-center'><font style='color:orange'>$1<br>for<br>sure</font></div></div><div class='respDivL'><div class='vertical-center'>(E)</div></div><div class='respDivR'><div class='vertical-center'><font style='color:orange'>(I)</font></div></div></div>","null","$1","$30","1","1","30",""
"html-keyboard-response","49","69181","0.0-5.0-1.15","63d42c21dc6f4d60e34cc337","bdp_rd","Sat Mar 25 2023 10:36:53 GMT-0500 (Central Daylight Time)","173990","","null","","","","FIX","","<div class='trialBorder'><div class='vertical-center'><img style='vertical-align:center; align:center' src=img/fixation3.jpg></div></div>","null","","","","","",""
"html-keyboard-response","50","70341","0.0-5.0-2.15","63d42c21dc6f4d60e34cc337","bdp_rd","Sat Mar 25 2023 10:36:53 GMT-0500 (Central Daylight Time)","173990","","1158","","","","offer","","<div class='trialBorder'><div class='vertical-center'><img style='vertical-align:center; align:center' src=img/fixation3.jpg></div><div class='cl'><div class='vertical-center'>$68<br>with a<br>50% chance</div></div><div class='cr'><div class='vertical-center'>$30<br>for<br>sure</div></div><div class='respDivL'><div class='vertical-center'>(E)</div></div><div class='respDivR'><div class='vertical-center'>(I)</div></div></div>","I","$30","$68","1","30","68","SURE"
"html-keyboard-response","51","70597","0.0-5.0-3.15","63d42c21dc6f4d60e34cc337","bdp_rd","Sat Mar 25 2023 10:36:53 GMT-0500 (Central Daylight Time)","173990","","null","","","","offerFB","","<div class='trialBorder'><div class='vertical-center'><img style='vertical-align:center; align:center' src=img/fixation3.jpg></div><div class='cl'><div class='vertical-center'>$68<br>with a<br>50% chance</div></div><div class='cr'><div class='vertical-center'><font style='color:orange'>$30<br>for<br>sure</font></div></div><div class='respDivL'><div class='vertical-center'>(E)</div></div><div class='respDivR'><div class='vertical-center'><font style='color:orange'>(I)</font></div></div></div>","null","$30","$68","1","30","68",""
"html-keyboard-response","52","71101","0.0-5.0-1.16","63d42c21dc6f4d60e34cc337","bdp_rd","Sat Mar 25 2023 10:36:53 GMT-0500 (Central Daylight Time)","173990","","null","","","","FIX","","<div class='trialBorder'><div class='vertical-center'><img style='vertical-align:center; align:center' src=img/fixation3.jpg></div></div>","null","","","","","",""
"html-keyboard-response","53","72779","0.0-5.0-2.16","63d42c21dc6f4d60e34cc337","bdp_rd","Sat Mar 25 2023 10:36:53 GMT-0500 (Central Daylight Time)","173990","","1677","","","","offer","","<div class='trialBorder'><div class='vertical-center'><img style='vertical-align:center; align:center' src=img/fixation3.jpg></div><div class='cl'><div class='vertical-center'>$6<br>for<br>sure</div></div><div class='cr'><div class='vertical-center'>$13<br>with a<br>50% chance</div></div><div class='respDivL'><div class='vertical-center'>(E)</div></div><div class='respDivR'><div class='vertical-center'>(I)</div></div></div>","E","$6","$13","0","6","13","SURE"
"html-keyboard-response","54","73037","0.0-5.0-3.16","63d42c21dc6f4d60e34cc337","bdp_rd","Sat Mar 25 2023 10:36:53 GMT-0500 (Central Daylight Time)","173990","","null","","","","offerFB","","<div class='trialBorder'><div class='vertical-center'><img style='vertical-align:center; align:center' src=img/fixation3.jpg></div><div class='cl'><div class='vertical-center'><font style='color:orange'>$6<br>for<br>sure</font></div></div><div class='cr'><div class='vertical-center'>$13<br>with a<br>50% chance</div></div><div class='respDivL'><div class='vertical-center'><font style='color:orange'>(E)</font></div></div><div class='respDivR'><div class='vertical-center'>(I)</div></div></div>","null","$6","$13","0","6","13",""
"html-keyboard-response","55","73541","0.0-5.0-1.17","63d42c21dc6f4d60e34cc337","bdp_rd","Sat Mar 25 2023 10:36:53 GMT-0500 (Central Daylight Time)","173990","","null","","","","FIX","","<div class='trialBorder'><div class='vertical-center'><img style='vertical-align:center; align:center' src=img/fixation3.jpg></div></div>","null","","","","","",""
"html-keyboard-response","56","74309","0.0-5.0-2.17","63d42c21dc6f4d60e34cc337","bdp_rd","Sat Mar 25 2023 10:36:53 GMT-0500 (Central Daylight Time)","173990","","766","","","","offer","","<div class='trialBorder'><div class='vertical-center'><img style='vertical-align:center; align:center' src=img/fixation3.jpg></div><div class='cl'><div class='vertical-center'>$34<br>with a<br>50% chance</div></div><div class='cr'><div class='vertical-center'>$15<br>for<br>sure</div></div><div class='respDivL'><div class='vertical-center'>(E)</div></div><div class='respDivR'><div class='vertical-center'>(I)</div></div></div>","I","$15","$34","1","15","34","SURE"
"html-keyboard-response","57","74565","0.0-5.0-3.17","63d42c21dc6f4d60e34cc337","bdp_rd","Sat Mar 25 2023 10:36:53 GMT-0500 (Central Daylight Time)","173990","","null","","","","offerFB","","<div class='trialBorder'><div class='vertical-center'><img style='vertical-align:center; align:center' src=img/fixation3.jpg></div><div class='cl'><div class='vertical-center'>$34<br>with a<br>50% chance</div></div><div class='cr'><div class='vertical-center'><font style='color:orange'>$15<br>for<br>sure</font></div></div><div class='respDivL'><div class='vertical-center'>(E)</div></div><div class='respDivR'><div class='vertical-center'><font style='color:orange'>(I)</font></div></div></div>","null","$15","$34","1","15","34",""
"html-keyboard-response","58","75069","0.0-5.0-1.18","63d42c21dc6f4d60e34cc337","bdp_rd","Sat Mar 25 2023 10:36:53 GMT-0500 (Central Daylight Time)","173990","","null","","","","FIX","","<div class='trialBorder'><div class='vertical-center'><img style='vertical-align:center; align:center' src=img/fixation3.jpg></div></div>","null","","","","","",""
"html-keyboard-response","59","75769","0.0-5.0-2.18","63d42c21dc6f4d60e34cc337","bdp_rd","Sat Mar 25 2023 10:36:53 GMT-0500 (Central Daylight Time)","173990","","699","","","","offer","","<div class='trialBorder'><div class='vertical-center'><img style='vertical-align:center; align:center' src=img/fixation3.jpg></div><div class='cl'><div class='vertical-center'>$4<br>for<br>sure</div></div><div class='cr'><div class='vertical-center'>$14<br>with a<br>50% chance</div></div><div class='respDivL'><div class='vertical-center'>(E)</div></div><div class='respDivR'><div class='vertical-center'>(I)</div></div></div>","E","$4","$14","0","4","14","SURE"
"html-keyboard-response","60","76029","0.0-5.0-3.18","63d42c21dc6f4d60e34cc337","bdp_rd","Sat Mar 25 2023 10:36:53 GMT-0500 (Central Daylight Time)","173990","","null","","","","offerFB","","<div class='trialBorder'><div class='vertical-center'><img style='vertical-align:center; align:center' src=img/fixation3.jpg></div><div class='cl'><div class='vertical-center'><font style='color:orange'>$4<br>for<br>sure</font></div></div><div class='cr'><div class='vertical-center'>$14<br>with a<br>50% chance</div></div><div class='respDivL'><div class='vertical-center'><font style='color:orange'>(E)</font></div></div><div class='respDivR'><div class='vertical-center'>(I)</div></div></div>","null","$4","$14","0","4","14",""
"html-keyboard-response","61","76534","0.0-5.0-1.19","63d42c21dc6f4d60e34cc337","bdp_rd","Sat Mar 25 2023 10:36:53 GMT-0500 (Central Daylight Time)","173990","","null","","","","FIX","","<div class='trialBorder'><div class='vertical-center'><img style='vertical-align:center; align:center' src=img/fixation3.jpg></div></div>","null","","","","","",""
"html-keyboard-response","62","79733","0.0-5.0-2.19","63d42c21dc6f4d60e34cc337","bdp_rd","Sat Mar 25 2023 10:36:53 GMT-0500 (Central Daylight Time)","173990","","3197","","","","offer","","<div class='trialBorder'><div class='vertical-center'><img style='vertical-align:center; align:center' src=img/fixation3.jpg></div><div class='cl'><div class='vertical-center'>$33<br>for<br>sure</div></div><div class='cr'><div class='vertical-center'>$66<br>with a<br>50% chance</div></div><div class='respDivL'><div class='vertical-center'>(E)</div></div><div class='respDivR'><div class='vertical-center'>(I)</div></div></div>","E","$33","$66","0","33","66","SURE"
"html-keyboard-response","63","79989","0.0-5.0-3.19","63d42c21dc6f4d60e34cc337","bdp_rd","Sat Mar 25 2023 10:36:53 GMT-0500 (Central Daylight Time)","173990","","null","","","","offerFB","","<div class='trialBorder'><div class='vertical-center'><img style='vertical-align:center; align:center' src=img/fixation3.jpg></div><div class='cl'><div class='vertical-center'><font style='color:orange'>$33<br>for<br>sure</font></div></div><div class='cr'><div class='vertical-center'>$66<br>with a<br>50% chance</div></div><div class='respDivL'><div class='vertical-center'><font style='color:orange'>(E)</font></div></div><div class='respDivR'><div class='vertical-center'>(I)</div></div></div>","null","$33","$66","0","33","66",""
"html-keyboard-response","64","80494","0.0-5.0-1.20","63d42c21dc6f4d60e34cc337","bdp_rd","Sat Mar 25 2023 10:36:53 GMT-0500 (Central Daylight Time)","173990","","null","","","","FIX","","<div class='trialBorder'><div class='vertical-center'><img style='vertical-align:center; align:center' src=img/fixation3.jpg></div></div>","null","","","","","",""
"html-keyboard-response","65","82799","0.0-5.0-2.20","63d42c21dc6f4d60e34cc337","bdp_rd","Sat Mar 25 2023 10:36:53 GMT-0500 (Central Daylight Time)","173990","","2304","","","","offer","","<div class='trialBorder'><div class='vertical-center'><img style='vertical-align:center; align:center' src=img/fixation3.jpg></div><div class='cl'><div class='vertical-center'>$40<br>with a<br>50% chance</div></div><div class='cr'><div class='vertical-center'>$10<br>for<br>sure</div></div><div class='respDivL'><div class='vertical-center'>(E)</div></div><div class='respDivR'><div class='vertical-center'>(I)</div></div></div>","I","$10","$40","1","10","40","SURE"
"html-keyboard-response","66","83054","0.0-5.0-3.20","63d42c21dc6f4d60e34cc337","bdp_rd","Sat Mar 25 2023 10:36:53 GMT-0500 (Central Daylight Time)","173990","","null","","","","offerFB","","<div class='trialBorder'><div class='vertical-center'><img style='vertical-align:center; align:center' src=img/fixation3.jpg></div><div class='cl'><div class='vertical-center'>$40<br>with a<br>50% chance</div></div><div class='cr'><div class='vertical-center'><font style='color:orange'>$10<br>for<br>sure</font></div></div><div class='respDivL'><div class='vertical-center'>(E)</div></div><div class='respDivR'><div class='vertical-center'><font style='color:orange'>(I)</font></div></div></div>","null","$10","$40","1","10","40",""
"html-keyboard-response","67","83558","0.0-5.0-1.21","63d42c21dc6f4d60e34cc337","bdp_rd","Sat Mar 25 2023 10:36:53 GMT-0500 (Central Daylight Time)","173990","","null","","","","FIX","","<div class='trialBorder'><div class='vertical-center'><img style='vertical-align:center; align:center' src=img/fixation3.jpg></div></div>","null","","","","","",""
"html-keyboard-response","68","84875","0.0-5.0-2.21","63d42c21dc6f4d60e34cc337","bdp_rd","Sat Mar 25 2023 10:36:53 GMT-0500 (Central Daylight Time)","173990","","1315","","","","offer","","<div class='trialBorder'><div class='vertical-center'><img style='vertical-align:center; align:center' src=img/fixation3.jpg></div><div class='cl'><div class='vertical-center'>$29<br>with a<br>50% chance</div></div><div class='cr'><div class='vertical-center'>$14<br>for<br>sure</div></div><div class='respDivL'><div class='vertical-center'>(E)</div></div><div class='respDivR'><div class='vertical-center'>(I)</div></div></div>","I","$14","$29","1","14","29","SURE"
"html-keyboard-response","69","85133","0.0-5.0-3.21","63d42c21dc6f4d60e34cc337","bdp_rd","Sat Mar 25 2023 10:36:53 GMT-0500 (Central Daylight Time)","173990","","null","","","","offerFB","","<div class='trialBorder'><div class='vertical-center'><img style='vertical-align:center; align:center' src=img/fixation3.jpg></div><div class='cl'><div class='vertical-center'>$29<br>with a<br>50% chance</div></div><div class='cr'><div class='vertical-center'><font style='color:orange'>$14<br>for<br>sure</font></div></div><div class='respDivL'><div class='vertical-center'>(E)</div></div><div class='respDivR'><div class='vertical-center'><font style='color:orange'>(I)</font></div></div></div>","null","$14","$29","1","14","29",""
"html-keyboard-response","70","85637","0.0-5.0-1.22","63d42c21dc6f4d60e34cc337","bdp_rd","Sat Mar 25 2023 10:36:53 GMT-0500 (Central Daylight Time)","173990","","null","","","","FIX","","<div class='trialBorder'><div class='vertical-center'><img style='vertical-align:center; align:center' src=img/fixation3.jpg></div></div>","null","","","","","",""
"html-keyboard-response","71","86947","0.0-5.0-2.22","63d42c21dc6f4d60e34cc337","bdp_rd","Sat Mar 25 2023 10:36:53 GMT-0500 (Central Daylight Time)","173990","","1309","","","","offer","","<div class='trialBorder'><div class='vertical-center'><img style='vertical-align:center; align:center' src=img/fixation3.jpg></div><div class='cl'><div class='vertical-center'>$86<br>with a<br>50% chance</div></div><div class='cr'><div class='vertical-center'>$45<br>for<br>sure</div></div><div class='respDivL'><div class='vertical-center'>(E)</div></div><div class='respDivR'><div class='vertical-center'>(I)</div></div></div>","I","$45","$86","1","45","86","SURE"
"html-keyboard-response","72","87206","0.0-5.0-3.22","63d42c21dc6f4d60e34cc337","bdp_rd","Sat Mar 25 2023 10:36:53 GMT-0500 (Central Daylight Time)","173990","","null","","","","offerFB","","<div class='trialBorder'><div class='vertical-center'><img style='vertical-align:center; align:center' src=img/fixation3.jpg></div><div class='cl'><div class='vertical-center'>$86<br>with a<br>50% chance</div></div><div class='cr'><div class='vertical-center'><font style='color:orange'>$45<br>for<br>sure</font></div></div><div class='respDivL'><div class='vertical-center'>(E)</div></div><div class='respDivR'><div class='vertical-center'><font style='color:orange'>(I)</font></div></div></div>","null","$45","$86","1","45","86",""
"html-keyboard-response","73","87709","0.0-5.0-1.23","63d42c21dc6f4d60e34cc337","bdp_rd","Sat Mar 25 2023 10:36:53 GMT-0500 (Central Daylight Time)","173990","","null","","","","FIX","","<div class='trialBorder'><div class='vertical-center'><img style='vertical-align:center; align:center' src=img/fixation3.jpg></div></div>","null","","","","","",""
"html-keyboard-response","74","89026","0.0-5.0-2.23","63d42c21dc6f4d60e34cc337","bdp_rd","Sat Mar 25 2023 10:36:53 GMT-0500 (Central Daylight Time)","173990","","1315","","","","offer","","<div class='trialBorder'><div class='vertical-center'><img style='vertical-align:center; align:center' src=img/fixation3.jpg></div><div class='cl'><div class='vertical-center'>$16<br>for<br>sure</div></div><div class='cr'><div class='vertical-center'>$38<br>with a<br>50% chance</div></div><div class='respDivL'><div class='vertical-center'>(E)</div></div><div class='respDivR'><div class='vertical-center'>(I)</div></div></div>","E","$16","$38","0","16","38","SURE"
"html-keyboard-response","75","89286","0.0-5.0-3.23","63d42c21dc6f4d60e34cc337","bdp_rd","Sat Mar 25 2023 10:36:53 GMT-0500 (Central Daylight Time)","173990","","null","","","","offerFB","","<div class='trialBorder'><div class='vertical-center'><img style='vertical-align:center; align:center' src=img/fixation3.jpg></div><div class='cl'><div class='vertical-center'><font style='color:orange'>$16<br>for<br>sure</font></div></div><div class='cr'><div class='vertical-center'>$38<br>with a<br>50% chance</div></div><div class='respDivL'><div class='vertical-center'><font style='color:orange'>(E)</font></div></div><div class='respDivR'><div class='vertical-center'>(I)</div></div></div>","null","$16","$38","0","16","38",""
"html-keyboard-response","76","89789","0.0-5.0-1.24","63d42c21dc6f4d60e34cc337","bdp_rd","Sat Mar 25 2023 10:36:53 GMT-0500 (Central Daylight Time)","173990","","null","","","","FIX","","<div class='trialBorder'><div class='vertical-center'><img style='vertical-align:center; align:center' src=img/fixation3.jpg></div></div>","null","","","","","",""
"html-keyboard-response","77","90895","0.0-5.0-2.24","63d42c21dc6f4d60e34cc337","bdp_rd","Sat Mar 25 2023 10:36:53 GMT-0500 (Central Daylight Time)","173990","","1104","","","","offer","","<div class='trialBorder'><div class='vertical-center'><img style='vertical-align:center; align:center' src=img/fixation3.jpg></div><div class='cl'><div class='vertical-center'>$53<br>for<br>sure</div></div><div class='cr'><div class='vertical-center'>$98<br>with a<br>50% chance</div></div><div class='respDivL'><div class='vertical-center'>(E)</div></div><div class='respDivR'><div class='vertical-center'>(I)</div></div></div>","E","$53","$98","0","53","98","SURE"
"html-keyboard-response","78","91150","0.0-5.0-3.24","63d42c21dc6f4d60e34cc337","bdp_rd","Sat Mar 25 2023 10:36:53 GMT-0500 (Central Daylight Time)","173990","","null","","","","offerFB","","<div class='trialBorder'><div class='vertical-center'><img style='vertical-align:center; align:center' src=img/fixation3.jpg></div><div class='cl'><div class='vertical-center'><font style='color:orange'>$53<br>for<br>sure</font></div></div><div class='cr'><div class='vertical-center'>$98<br>with a<br>50% chance</div></div><div class='respDivL'><div class='vertical-center'><font style='color:orange'>(E)</font></div></div><div class='respDivR'><div class='vertical-center'>(I)</div></div></div>","null","$53","$98","0","53","98",""
"html-keyboard-response","79","91654","0.0-5.0-1.25","63d42c21dc6f4d60e34cc337","bdp_rd","Sat Mar 25 2023 10:36:53 GMT-0500 (Central Daylight Time)","173990","","null","","","","FIX","","<div class='trialBorder'><div class='vertical-center'><img style='vertical-align:center; align:center' src=img/fixation3.jpg></div></div>","null","","","","","",""
"html-keyboard-response","80","92512","0.0-5.0-2.25","63d42c21dc6f4d60e34cc337","bdp_rd","Sat Mar 25 2023 10:36:53 GMT-0500 (Central Daylight Time)","173990","","857","","","","offer","","<div class='trialBorder'><div class='vertical-center'><img style='vertical-align:center; align:center' src=img/fixation3.jpg></div><div class='cl'><div class='vertical-center'>$5<br>for<br>sure</div></div><div class='cr'><div class='vertical-center'>$16<br>with a<br>50% chance</div></div><div class='respDivL'><div class='vertical-center'>(E)</div></div><div class='respDivR'><div class='vertical-center'>(I)</div></div></div>","E","$5","$16","0","5","16","SURE"
"html-keyboard-response","81","92765","0.0-5.0-3.25","63d42c21dc6f4d60e34cc337","bdp_rd","Sat Mar 25 2023 10:36:53 GMT-0500 (Central Daylight Time)","173990","","null","","","","offerFB","","<div class='trialBorder'><div class='vertical-center'><img style='vertical-align:center; align:center' src=img/fixation3.jpg></div><div class='cl'><div class='vertical-center'><font style='color:orange'>$5<br>for<br>sure</font></div></div><div class='cr'><div class='vertical-center'>$16<br>with a<br>50% chance</div></div><div class='respDivL'><div class='vertical-center'><font style='color:orange'>(E)</font></div></div><div class='respDivR'><div class='vertical-center'>(I)</div></div></div>","null","$5","$16","0","5","16",""
"html-keyboard-response","82","93270","0.0-5.0-1.26","63d42c21dc6f4d60e34cc337","bdp_rd","Sat Mar 25 2023 10:36:53 GMT-0500 (Central Daylight Time)","173990","","null","","","","FIX","","<div class='trialBorder'><div class='vertical-center'><img style='vertical-align:center; align:center' src=img/fixation3.jpg></div></div>","null","","","","","",""
"html-keyboard-response","83","94517","0.0-5.0-2.26","63d42c21dc6f4d60e34cc337","bdp_rd","Sat Mar 25 2023 10:36:53 GMT-0500 (Central Daylight Time)","173990","","1245","","","","offer","","<div class='trialBorder'><div class='vertical-center'><img style='vertical-align:center; align:center' src=img/fixation3.jpg></div><div class='cl'><div class='vertical-center'>$28<br>for<br>sure</div></div><div class='cr'><div class='vertical-center'>$89<br>with a<br>50% chance</div></div><div class='respDivL'><div class='vertical-center'>(E)</div></div><div class='respDivR'><div class='vertical-center'>(I)</div></div></div>","E","$28","$89","0","28","89","SURE"
"html-keyboard-response","84","94774","0.0-5.0-3.26","63d42c21dc6f4d60e34cc337","bdp_rd","Sat Mar 25 2023 10:36:53 GMT-0500 (Central Daylight Time)","173990","","null","","","","offerFB","","<div class='trialBorder'><div class='vertical-center'><img style='vertical-align:center; align:center' src=img/fixation3.jpg></div><div class='cl'><div class='vertical-center'><font style='color:orange'>$28<br>for<br>sure</font></div></div><div class='cr'><div class='vertical-center'>$89<br>with a<br>50% chance</div></div><div class='respDivL'><div class='vertical-center'><font style='color:orange'>(E)</font></div></div><div class='respDivR'><div class='vertical-center'>(I)</div></div></div>","null","$28","$89","0","28","89",""
"html-keyboard-response","85","95278","0.0-5.0-1.27","63d42c21dc6f4d60e34cc337","bdp_rd","Sat Mar 25 2023 10:36:53 GMT-0500 (Central Daylight Time)","173990","","null","","","","FIX","","<div class='trialBorder'><div class='vertical-center'><img style='vertical-align:center; align:center' src=img/fixation3.jpg></div></div>","null","","","","","",""
"html-keyboard-response","86","96191","0.0-5.0-2.27","63d42c21dc6f4d60e34cc337","bdp_rd","Sat Mar 25 2023 10:36:53 GMT-0500 (Central Daylight Time)","173990","","912","","","","offer","","<div class='trialBorder'><div class='vertical-center'><img style='vertical-align:center; align:center' src=img/fixation3.jpg></div><div class='cl'><div class='vertical-center'>$13<br>for<br>sure</div></div><div class='cr'><div class='vertical-center'>$41<br>with a<br>50% chance</div></div><div class='respDivL'><div class='vertical-center'>(E)</div></div><div class='respDivR'><div class='vertical-center'>(I)</div></div></div>","E","$13","$41","0","13","41","SURE"
"html-keyboard-response","87","96446","0.0-5.0-3.27","63d42c21dc6f4d60e34cc337","bdp_rd","Sat Mar 25 2023 10:36:53 GMT-0500 (Central Daylight Time)","173990","","null","","","","offerFB","","<div class='trialBorder'><div class='vertical-center'><img style='vertical-align:center; align:center' src=img/fixation3.jpg></div><div class='cl'><div class='vertical-center'><font style='color:orange'>$13<br>for<br>sure</font></div></div><div class='cr'><div class='vertical-center'>$41<br>with a<br>50% chance</div></div><div class='respDivL'><div class='vertical-center'><font style='color:orange'>(E)</font></div></div><div class='respDivR'><div class='vertical-center'>(I)</div></div></div>","null","$13","$41","0","13","41",""
"html-keyboard-response","88","96949","0.0-5.0-1.28","63d42c21dc6f4d60e34cc337","bdp_rd","Sat Mar 25 2023 10:36:53 GMT-0500 (Central Daylight Time)","173990","","null","","","","FIX","","<div class='trialBorder'><div class='vertical-center'><img style='vertical-align:center; align:center' src=img/fixation3.jpg></div></div>","null","","","","","",""
"html-keyboard-response","89","99582","0.0-5.0-2.28","63d42c21dc6f4d60e34cc337","bdp_rd","Sat Mar 25 2023 10:36:53 GMT-0500 (Central Daylight Time)","173990","","2631","","","","offer","","<div class='trialBorder'><div class='vertical-center'><img style='vertical-align:center; align:center' src=img/fixation3.jpg></div><div class='cl'><div class='vertical-center'>$64<br>with a<br>50% chance</div></div><div class='cr'><div class='vertical-center'>$2<br>for<br>sure</div></div><div class='respDivL'><div class='vertical-center'>(E)</div></div><div class='respDivR'><div class='vertical-center'>(I)</div></div></div>","E","$2","$64","1","2","64","RISKY"
"html-keyboard-response","90","99837","0.0-5.0-3.28","63d42c21dc6f4d60e34cc337","bdp_rd","Sat Mar 25 2023 10:36:53 GMT-0500 (Central Daylight Time)","173990","","null","","","","offerFB","","<div class='trialBorder'><div class='vertical-center'><img style='vertical-align:center; align:center' src=img/fixation3.jpg></div><div class='cl'><div class='vertical-center'><font style='color:orange'>$64<br>with a<br>50% chance</font></div></div><div class='cr'><div class='vertical-center'>$2<br>for<br>sure</div></div><div class='respDivL'><div class='vertical-center'><font style='color:orange'>(E)</font></div></div><div class='respDivR'><div class='vertical-center'>(I)</div></div></div>","null","$2","$64","1","2","64",""
"html-keyboard-response","91","100341","0.0-5.0-1.29","63d42c21dc6f4d60e34cc337","bdp_rd","Sat Mar 25 2023 10:36:53 GMT-0500 (Central Daylight Time)","173990","","null","","","","FIX","","<div class='trialBorder'><div class='vertical-center'><img style='vertical-align:center; align:center' src=img/fixation3.jpg></div></div>","null","","","","","",""
"html-keyboard-response","92","102224","0.0-5.0-2.29","63d42c21dc6f4d60e34cc337","bdp_rd","Sat Mar 25 2023 10:36:53 GMT-0500 (Central Daylight Time)","173990","","1881","","","","offer","","<div class='trialBorder'><div class='vertical-center'><img style='vertical-align:center; align:center' src=img/fixation3.jpg></div><div class='cl'><div class='vertical-center'>$20<br>for<br>sure</div></div><div class='cr'><div class='vertical-center'>$37<br>with a<br>50% chance</div></div><div class='respDivL'><div class='vertical-center'>(E)</div></div><div class='respDivR'><div class='vertical-center'>(I)</div></div></div>","E","$20","$37","0","20","37","SURE"
"html-keyboard-response","93","102477","0.0-5.0-3.29","63d42c21dc6f4d60e34cc337","bdp_rd","Sat Mar 25 2023 10:36:53 GMT-0500 (Central Daylight Time)","173990","","null","","","","offerFB","","<div class='trialBorder'><div class='vertical-center'><img style='vertical-align:center; align:center' src=img/fixation3.jpg></div><div class='cl'><div class='vertical-center'><font style='color:orange'>$20<br>for<br>sure</font></div></div><div class='cr'><div class='vertical-center'>$37<br>with a<br>50% chance</div></div><div class='respDivL'><div class='vertical-center'><font style='color:orange'>(E)</font></div></div><div class='respDivR'><div class='vertical-center'>(I)</div></div></div>","null","$20","$37","0","20","37",""
"html-keyboard-response","94","102981","0.0-5.0-1.30","63d42c21dc6f4d60e34cc337","bdp_rd","Sat Mar 25 2023 10:36:53 GMT-0500 (Central Daylight Time)","173990","","null","","","","FIX","","<div class='trialBorder'><div class='vertical-center'><img style='vertical-align:center; align:center' src=img/fixation3.jpg></div></div>","null","","","","","",""
"html-keyboard-response","95","104971","0.0-5.0-2.30","63d42c21dc6f4d60e34cc337","bdp_rd","Sat Mar 25 2023 10:36:53 GMT-0500 (Central Daylight Time)","173990","","1989","","","","offer","","<div class='trialBorder'><div class='vertical-center'><img style='vertical-align:center; align:center' src=img/fixation3.jpg></div><div class='cl'><div class='vertical-center'>$17<br>for<br>sure</div></div><div class='cr'><div class='vertical-center'>$43<br>with a<br>50% chance</div></div><div class='respDivL'><div class='vertical-center'>(E)</div></div><div class='respDivR'><div class='vertical-center'>(I)</div></div></div>","E","$17","$43","0","17","43","SURE"
"html-keyboard-response","96","105230","0.0-5.0-3.30","63d42c21dc6f4d60e34cc337","bdp_rd","Sat Mar 25 2023 10:36:53 GMT-0500 (Central Daylight Time)","173990","","null","","","","offerFB","","<div class='trialBorder'><div class='vertical-center'><img style='vertical-align:center; align:center' src=img/fixation3.jpg></div><div class='cl'><div class='vertical-center'><font style='color:orange'>$17<br>for<br>sure</font></div></div><div class='cr'><div class='vertical-center'>$43<br>with a<br>50% chance</div></div><div class='respDivL'><div class='vertical-center'><font style='color:orange'>(E)</font></div></div><div class='respDivR'><div class='vertical-center'>(I)</div></div></div>","null","$17","$43","0","17","43",""
"html-keyboard-response","97","105733","0.0-5.0-1.31","63d42c21dc6f4d60e34cc337","bdp_rd","Sat Mar 25 2023 10:36:53 GMT-0500 (Central Daylight Time)","173990","","null","","","","FIX","","<div class='trialBorder'><div class='vertical-center'><img style='vertical-align:center; align:center' src=img/fixation3.jpg></div></div>","null","","","","","",""
"html-keyboard-response","98","107189","0.0-5.0-2.31","63d42c21dc6f4d60e34cc337","bdp_rd","Sat Mar 25 2023 10:36:53 GMT-0500 (Central Daylight Time)","173990","","1454","","","","offer","","<div class='trialBorder'><div class='vertical-center'><img style='vertical-align:center; align:center' src=img/fixation3.jpg></div><div class='cl'><div class='vertical-center'>$9<br>for<br>sure</div></div><div class='cr'><div class='vertical-center'>$18<br>with a<br>50% chance</div></div><div class='respDivL'><div class='vertical-center'>(E)</div></div><div class='respDivR'><div class='vertical-center'>(I)</div></div></div>","E","$9","$18","0","9","18","SURE"
"html-keyboard-response","99","107445","0.0-5.0-3.31","63d42c21dc6f4d60e34cc337","bdp_rd","Sat Mar 25 2023 10:36:53 GMT-0500 (Central Daylight Time)","173990","","null","","","","offerFB","","<div class='trialBorder'><div class='vertical-center'><img style='vertical-align:center; align:center' src=img/fixation3.jpg></div><div class='cl'><div class='vertical-center'><font style='color:orange'>$9<br>for<br>sure</font></div></div><div class='cr'><div class='vertical-center'>$18<br>with a<br>50% chance</div></div><div class='respDivL'><div class='vertical-center'><font style='color:orange'>(E)</font></div></div><div class='respDivR'><div class='vertical-center'>(I)</div></div></div>","null","$9","$18","0","9","18",""
"html-keyboard-response","100","107949","0.0-5.0-1.32","63d42c21dc6f4d60e34cc337","bdp_rd","Sat Mar 25 2023 10:36:53 GMT-0500 (Central Daylight Time)","173990","","null","","","","FIX","","<div class='trialBorder'><div class='vertical-center'><img style='vertical-align:center; align:center' src=img/fixation3.jpg></div></div>","null","","","","","",""
"html-keyboard-response","101","108614","0.0-5.0-2.32","63d42c21dc6f4d60e34cc337","bdp_rd","Sat Mar 25 2023 10:36:53 GMT-0500 (Central Daylight Time)","173990","","662","","","","offer","","<div class='trialBorder'><div class='vertical-center'><img style='vertical-align:center; align:center' src=img/fixation3.jpg></div><div class='cl'><div class='vertical-center'>$14<br>for<br>sure</div></div><div class='cr'><div class='vertical-center'>$22<br>with a<br>50% chance</div></div><div class='respDivL'><div class='vertical-center'>(E)</div></div><div class='respDivR'><div class='vertical-center'>(I)</div></div></div>","E","$14","$22","0","14","22","SURE"
"html-keyboard-response","102","108869","0.0-5.0-3.32","63d42c21dc6f4d60e34cc337","bdp_rd","Sat Mar 25 2023 10:36:53 GMT-0500 (Central Daylight Time)","173990","","null","","","","offerFB","","<div class='trialBorder'><div class='vertical-center'><img style='vertical-align:center; align:center' src=img/fixation3.jpg></div><div class='cl'><div class='vertical-center'><font style='color:orange'>$14<br>for<br>sure</font></div></div><div class='cr'><div class='vertical-center'>$22<br>with a<br>50% chance</div></div><div class='respDivL'><div class='vertical-center'><font style='color:orange'>(E)</font></div></div><div class='respDivR'><div class='vertical-center'>(I)</div></div></div>","null","$14","$22","0","14","22",""
"html-keyboard-response","103","109373","0.0-5.0-1.33","63d42c21dc6f4d60e34cc337","bdp_rd","Sat Mar 25 2023 10:36:53 GMT-0500 (Central Daylight Time)","173990","","null","","","","FIX","","<div class='trialBorder'><div class='vertical-center'><img style='vertical-align:center; align:center' src=img/fixation3.jpg></div></div>","null","","","","","",""
"html-keyboard-response","104","110453","0.0-5.0-2.33","63d42c21dc6f4d60e34cc337","bdp_rd","Sat Mar 25 2023 10:36:53 GMT-0500 (Central Daylight Time)","173990","","1078","","","","offer","","<div class='trialBorder'><div class='vertical-center'><img style='vertical-align:center; align:center' src=img/fixation3.jpg></div><div class='cl'><div class='vertical-center'>$40<br>for<br>sure</div></div><div class='cr'><div class='vertical-center'>$95<br>with a<br>50% chance</div></div><div class='respDivL'><div class='vertical-center'>(E)</div></div><div class='respDivR'><div class='vertical-center'>(I)</div></div></div>","E","$40","$95","0","40","95","SURE"
"html-keyboard-response","105","110709","0.0-5.0-3.33","63d42c21dc6f4d60e34cc337","bdp_rd","Sat Mar 25 2023 10:36:53 GMT-0500 (Central Daylight Time)","173990","","null","","","","offerFB","","<div class='trialBorder'><div class='vertical-center'><img style='vertical-align:center; align:center' src=img/fixation3.jpg></div><div class='cl'><div class='vertical-center'><font style='color:orange'>$40<br>for<br>sure</font></div></div><div class='cr'><div class='vertical-center'>$95<br>with a<br>50% chance</div></div><div class='respDivL'><div class='vertical-center'><font style='color:orange'>(E)</font></div></div><div class='respDivR'><div class='vertical-center'>(I)</div></div></div>","null","$40","$95","0","40","95",""
"html-keyboard-response","106","111214","0.0-5.0-1.34","63d42c21dc6f4d60e34cc337","bdp_rd","Sat Mar 25 2023 10:36:53 GMT-0500 (Central Daylight Time)","173990","","null","","","","FIX","","<div class='trialBorder'><div class='vertical-center'><img style='vertical-align:center; align:center' src=img/fixation3.jpg></div></div>","null","","","","","",""
"html-keyboard-response","107","113820","0.0-5.0-2.34","63d42c21dc6f4d60e34cc337","bdp_rd","Sat Mar 25 2023 10:36:53 GMT-0500 (Central Daylight Time)","173990","","2604","","","","offer","","<div class='trialBorder'><div class='vertical-center'><img style='vertical-align:center; align:center' src=img/fixation3.jpg></div><div class='cl'><div class='vertical-center'>$17<br>with a<br>50% chance</div></div><div class='cr'><div class='vertical-center'>$3<br>for<br>sure</div></div><div class='respDivL'><div class='vertical-center'>(E)</div></div><div class='respDivR'><div class='vertical-center'>(I)</div></div></div>","I","$3","$17","1","3","17","SURE"
"html-keyboard-response","108","114078","0.0-5.0-3.34","63d42c21dc6f4d60e34cc337","bdp_rd","Sat Mar 25 2023 10:36:53 GMT-0500 (Central Daylight Time)","173990","","null","","","","offerFB","","<div class='trialBorder'><div class='vertical-center'><img style='vertical-align:center; align:center' src=img/fixation3.jpg></div><div class='cl'><div class='vertical-center'>$17<br>with a<br>50% chance</div></div><div class='cr'><div class='vertical-center'><font style='color:orange'>$3<br>for<br>sure</font></div></div><div class='respDivL'><div class='vertical-center'>(E)</div></div><div class='respDivR'><div class='vertical-center'><font style='color:orange'>(I)</font></div></div></div>","null","$3","$17","1","3","17",""
"html-keyboard-response","109","114581","0.0-5.0-1.35","63d42c21dc6f4d60e34cc337","bdp_rd","Sat Mar 25 2023 10:36:53 GMT-0500 (Central Daylight Time)","173990","","null","","","","FIX","","<div class='trialBorder'><div class='vertical-center'><img style='vertical-align:center; align:center' src=img/fixation3.jpg></div></div>","null","","","","","",""
"html-keyboard-response","110","118224","0.0-5.0-2.35","63d42c21dc6f4d60e34cc337","bdp_rd","Sat Mar 25 2023 10:36:53 GMT-0500 (Central Daylight Time)","173990","","3641","","","","offer","","<div class='trialBorder'><div class='vertical-center'><img style='vertical-align:center; align:center' src=img/fixation3.jpg></div><div class='cl'><div class='vertical-center'>$48<br>with a<br>50% chance</div></div><div class='cr'><div class='vertical-center'>$34<br>for<br>sure</div></div><div class='respDivL'><div class='vertical-center'>(E)</div></div><div class='respDivR'><div class='vertical-center'>(I)</div></div></div>","I","$34","$48","1","34","48","SURE"
"html-keyboard-response","111","118478","0.0-5.0-3.35","63d42c21dc6f4d60e34cc337","bdp_rd","Sat Mar 25 2023 10:36:53 GMT-0500 (Central Daylight Time)","173990","","null","","","","offerFB","","<div class='trialBorder'><div class='vertical-center'><img style='vertical-align:center; align:center' src=img/fixation3.jpg></div><div class='cl'><div class='vertical-center'>$48<br>with a<br>50% chance</div></div><div class='cr'><div class='vertical-center'><font style='color:orange'>$34<br>for<br>sure</font></div></div><div class='respDivL'><div class='vertical-center'>(E)</div></div><div class='respDivR'><div class='vertical-center'><font style='color:orange'>(I)</font></div></div></div>","null","$34","$48","1","34","48",""
"html-keyboard-response","112","118981","0.0-5.0-1.36","63d42c21dc6f4d60e34cc337","bdp_rd","Sat Mar 25 2023 10:36:53 GMT-0500 (Central Daylight Time)","173990","","null","","","","FIX","","<div class='trialBorder'><div class='vertical-center'><img style='vertical-align:center; align:center' src=img/fixation3.jpg></div></div>","null","","","","","",""
"html-keyboard-response","113","120006","0.0-5.0-2.36","63d42c21dc6f4d60e34cc337","bdp_rd","Sat Mar 25 2023 10:36:53 GMT-0500 (Central Daylight Time)","173990","","1024","","","","offer","","<div class='trialBorder'><div class='vertical-center'><img style='vertical-align:center; align:center' src=img/fixation3.jpg></div><div class='cl'><div class='vertical-center'>$12<br>for<br>sure</div></div><div class='cr'><div class='vertical-center'>$27<br>with a<br>50% chance</div></div><div class='respDivL'><div class='vertical-center'>(E)</div></div><div class='respDivR'><div class='vertical-center'>(I)</div></div></div>","E","$12","$27","0","12","27","SURE"
"html-keyboard-response","114","120262","0.0-5.0-3.36","63d42c21dc6f4d60e34cc337","bdp_rd","Sat Mar 25 2023 10:36:53 GMT-0500 (Central Daylight Time)","173990","","null","","","","offerFB","","<div class='trialBorder'><div class='vertical-center'><img style='vertical-align:center; align:center' src=img/fixation3.jpg></div><div class='cl'><div class='vertical-center'><font style='color:orange'>$12<br>for<br>sure</font></div></div><div class='cr'><div class='vertical-center'>$27<br>with a<br>50% chance</div></div><div class='respDivL'><div class='vertical-center'><font style='color:orange'>(E)</font></div></div><div class='respDivR'><div class='vertical-center'>(I)</div></div></div>","null","$12","$27","0","12","27",""
"html-keyboard-response","115","120765","0.0-5.0-1.37","63d42c21dc6f4d60e34cc337","bdp_rd","Sat Mar 25 2023 10:36:53 GMT-0500 (Central Daylight Time)","173990","","null","","","","FIX","","<div class='trialBorder'><div class='vertical-center'><img style='vertical-align:center; align:center' src=img/fixation3.jpg></div></div>","null","","","","","",""
"html-keyboard-response","116","121671","0.0-5.0-2.37","63d42c21dc6f4d60e34cc337","bdp_rd","Sat Mar 25 2023 10:36:53 GMT-0500 (Central Daylight Time)","173990","","905","","","","offer","","<div class='trialBorder'><div class='vertical-center'><img style='vertical-align:center; align:center' src=img/fixation3.jpg></div><div class='cl'><div class='vertical-center'>$54<br>with a<br>50% chance</div></div><div class='cr'><div class='vertical-center'>$25<br>for<br>sure</div></div><div class='respDivL'><div class='vertical-center'>(E)</div></div><div class='respDivR'><div class='vertical-center'>(I)</div></div></div>","E","$25","$54","1","25","54","RISKY"
"html-keyboard-response","117","121926","0.0-5.0-3.37","63d42c21dc6f4d60e34cc337","bdp_rd","Sat Mar 25 2023 10:36:53 GMT-0500 (Central Daylight Time)","173990","","null","","","","offerFB","","<div class='trialBorder'><div class='vertical-center'><img style='vertical-align:center; align:center' src=img/fixation3.jpg></div><div class='cl'><div class='vertical-center'><font style='color:orange'>$54<br>with a<br>50% chance</font></div></div><div class='cr'><div class='vertical-center'>$25<br>for<br>sure</div></div><div class='respDivL'><div class='vertical-center'><font style='color:orange'>(E)</font></div></div><div class='respDivR'><div class='vertical-center'>(I)</div></div></div>","null","$25","$54","1","25","54",""
"html-keyboard-response","118","122429","0.0-5.0-1.38","63d42c21dc6f4d60e34cc337","bdp_rd","Sat Mar 25 2023 10:36:53 GMT-0500 (Central Daylight Time)","173990","","null","","","","FIX","","<div class='trialBorder'><div class='vertical-center'><img style='vertical-align:center; align:center' src=img/fixation3.jpg></div></div>","null","","","","","",""
"html-keyboard-response","119","124812","0.0-5.0-2.38","63d42c21dc6f4d60e34cc337","bdp_rd","Sat Mar 25 2023 10:36:53 GMT-0500 (Central Daylight Time)","173990","","2381","","","","offer","","<div class='trialBorder'><div class='vertical-center'><img style='vertical-align:center; align:center' src=img/fixation3.jpg></div><div class='cl'><div class='vertical-center'>$11<br>with a<br>50% chance</div></div><div class='cr'><div class='vertical-center'>$4<br>for<br>sure</div></div><div class='respDivL'><div class='vertical-center'>(E)</div></div><div class='respDivR'><div class='vertical-center'>(I)</div></div></div>","I","$4","$11","1","4","11","SURE"
"html-keyboard-response","120","125069","0.0-5.0-3.38","63d42c21dc6f4d60e34cc337","bdp_rd","Sat Mar 25 2023 10:36:53 GMT-0500 (Central Daylight Time)","173990","","null","","","","offerFB","","<div class='trialBorder'><div class='vertical-center'><img style='vertical-align:center; align:center' src=img/fixation3.jpg></div><div class='cl'><div class='vertical-center'>$11<br>with a<br>50% chance</div></div><div class='cr'><div class='vertical-center'><font style='color:orange'>$4<br>for<br>sure</font></div></div><div class='respDivL'><div class='vertical-center'>(E)</div></div><div class='respDivR'><div class='vertical-center'><font style='color:orange'>(I)</font></div></div></div>","null","$4","$11","1","4","11",""
"html-keyboard-response","121","125574","0.0-5.0-1.39","63d42c21dc6f4d60e34cc337","bdp_rd","Sat Mar 25 2023 10:36:53 GMT-0500 (Central Daylight Time)","173990","","null","","","","FIX","","<div class='trialBorder'><div class='vertical-center'><img style='vertical-align:center; align:center' src=img/fixation3.jpg></div></div>","null","","","","","",""
"html-keyboard-response","122","128298","0.0-5.0-2.39","63d42c21dc6f4d60e34cc337","bdp_rd","Sat Mar 25 2023 10:36:53 GMT-0500 (Central Daylight Time)","173990","","2722","","","","offer","","<div class='trialBorder'><div class='vertical-center'><img style='vertical-align:center; align:center' src=img/fixation3.jpg></div><div class='cl'><div class='vertical-center'>$63<br>for<br>sure</div></div><div class='cr'><div class='vertical-center'>$100<br>with a<br>50% chance</div></div><div class='respDivL'><div class='vertical-center'>(E)</div></div><div class='respDivR'><div class='vertical-center'>(I)</div></div></div>","E","$63","$100","0","63","10","SURE"
"html-keyboard-response","123","128558","0.0-5.0-3.39","63d42c21dc6f4d60e34cc337","bdp_rd","Sat Mar 25 2023 10:36:53 GMT-0500 (Central Daylight Time)","173990","","null","","","","offerFB","","<div class='trialBorder'><div class='vertical-center'><img style='vertical-align:center; align:center' src=img/fixation3.jpg></div><div class='cl'><div class='vertical-center'><font style='color:orange'>$63<br>for<br>sure</font></div></div><div class='cr'><div class='vertical-center'>$100<br>with a<br>50% chance</div></div><div class='respDivL'><div class='vertical-center'><font style='color:orange'>(E)</font></div></div><div class='respDivR'><div class='vertical-center'>(I)</div></div></div>","null","$63","$100","0","63","10",""
"html-keyboard-response","124","129062","0.0-5.0-1.40","63d42c21dc6f4d60e34cc337","bdp_rd","Sat Mar 25 2023 10:36:53 GMT-0500 (Central Daylight Time)","173990","","null","","","","FIX","","<div class='trialBorder'><div class='vertical-center'><img style='vertical-align:center; align:center' src=img/fixation3.jpg></div></div>","null","","","","","",""
"html-keyboard-response","125","130386","0.0-5.0-2.40","63d42c21dc6f4d60e34cc337","bdp_rd","Sat Mar 25 2023 10:36:53 GMT-0500 (Central Daylight Time)","173990","","1322","","","","offer","","<div class='trialBorder'><div class='vertical-center'><img style='vertical-align:center; align:center' src=img/fixation3.jpg></div><div class='cl'><div class='vertical-center'>$69<br>with a<br>50% chance</div></div><div class='cr'><div class='vertical-center'>$58<br>for<br>sure</div></div><div class='respDivL'><div class='vertical-center'>(E)</div></div><div class='respDivR'><div class='vertical-center'>(I)</div></div></div>","I","$58","$69","1","58","69","SURE"
"html-keyboard-response","126","130638","0.0-5.0-3.40","63d42c21dc6f4d60e34cc337","bdp_rd","Sat Mar 25 2023 10:36:53 GMT-0500 (Central Daylight Time)","173990","","null","","","","offerFB","","<div class='trialBorder'><div class='vertical-center'><img style='vertical-align:center; align:center' src=img/fixation3.jpg></div><div class='cl'><div class='vertical-center'>$69<br>with a<br>50% chance</div></div><div class='cr'><div class='vertical-center'><font style='color:orange'>$58<br>for<br>sure</font></div></div><div class='respDivL'><div class='vertical-center'>(E)</div></div><div class='respDivR'><div class='vertical-center'><font style='color:orange'>(I)</font></div></div></div>","null","$58","$69","1","58","69",""
"html-keyboard-response","127","131141","0.0-5.0-1.41","63d42c21dc6f4d60e34cc337","bdp_rd","Sat Mar 25 2023 10:36:53 GMT-0500 (Central Daylight Time)","173990","","null","","","","FIX","","<div class='trialBorder'><div class='vertical-center'><img style='vertical-align:center; align:center' src=img/fixation3.jpg></div></div>","null","","","","","",""
"html-keyboard-response","128","133615","0.0-5.0-2.41","63d42c21dc6f4d60e34cc337","bdp_rd","Sat Mar 25 2023 10:36:53 GMT-0500 (Central Daylight Time)","173990","","2473","","","","offer","","<div class='trialBorder'><div class='vertical-center'><img style='vertical-align:center; align:center' src=img/fixation3.jpg></div><div class='cl'><div class='vertical-center'>$39<br>for<br>sure</div></div><div class='cr'><div class='vertical-center'>$81<br>with a<br>50% chance</div></div><div class='respDivL'><div class='vertical-center'>(E)</div></div><div class='respDivR'><div class='vertical-center'>(I)</div></div></div>","E","$39","$81","0","39","81","SURE"
"html-keyboard-response","129","133870","0.0-5.0-3.41","63d42c21dc6f4d60e34cc337","bdp_rd","Sat Mar 25 2023 10:36:53 GMT-0500 (Central Daylight Time)","173990","","null","","","","offerFB","","<div class='trialBorder'><div class='vertical-center'><img style='vertical-align:center; align:center' src=img/fixation3.jpg></div><div class='cl'><div class='vertical-center'><font style='color:orange'>$39<br>for<br>sure</font></div></div><div class='cr'><div class='vertical-center'>$81<br>with a<br>50% chance</div></div><div class='respDivL'><div class='vertical-center'><font style='color:orange'>(E)</font></div></div><div class='respDivR'><div class='vertical-center'>(I)</div></div></div>","null","$39","$81","0","39","81",""
"html-keyboard-response","130","134373","0.0-5.0-1.42","63d42c21dc6f4d60e34cc337","bdp_rd","Sat Mar 25 2023 10:36:53 GMT-0500 (Central Daylight Time)","173990","","null","","","","FIX","","<div class='trialBorder'><div class='vertical-center'><img style='vertical-align:center; align:center' src=img/fixation3.jpg></div></div>","null","","","","","",""
"html-keyboard-response","131","137570","0.0-5.0-2.42","63d42c21dc6f4d60e34cc337","bdp_rd","Sat Mar 25 2023 10:36:53 GMT-0500 (Central Daylight Time)","173990","","3196","","","","offer","","<div class='trialBorder'><div class='vertical-center'><img style='vertical-align:center; align:center' src=img/fixation3.jpg></div><div class='cl'><div class='vertical-center'>$16<br>for<br>sure</div></div><div class='cr'><div class='vertical-center'>$28<br>with a<br>50% chance</div></div><div class='respDivL'><div class='vertical-center'>(E)</div></div><div class='respDivR'><div class='vertical-center'>(I)</div></div></div>","E","$16","$28","0","16","28","SURE"
"html-keyboard-response","132","137830","0.0-5.0-3.42","63d42c21dc6f4d60e34cc337","bdp_rd","Sat Mar 25 2023 10:36:53 GMT-0500 (Central Daylight Time)","173990","","null","","","","offerFB","","<div class='trialBorder'><div class='vertical-center'><img style='vertical-align:center; align:center' src=img/fixation3.jpg></div><div class='cl'><div class='vertical-center'><font style='color:orange'>$16<br>for<br>sure</font></div></div><div class='cr'><div class='vertical-center'>$28<br>with a<br>50% chance</div></div><div class='respDivL'><div class='vertical-center'><font style='color:orange'>(E)</font></div></div><div class='respDivR'><div class='vertical-center'>(I)</div></div></div>","null","$16","$28","0","16","28",""
"html-keyboard-response","133","138333","0.0-5.0-1.43","63d42c21dc6f4d60e34cc337","bdp_rd","Sat Mar 25 2023 10:36:53 GMT-0500 (Central Daylight Time)","173990","","null","","","","FIX","","<div class='trialBorder'><div class='vertical-center'><img style='vertical-align:center; align:center' src=img/fixation3.jpg></div></div>","null","","","","","",""
"html-keyboard-response","134","139176","0.0-5.0-2.43","63d42c21dc6f4d60e34cc337","bdp_rd","Sat Mar 25 2023 10:36:53 GMT-0500 (Central Daylight Time)","173990","","841","","","","offer","","<div class='trialBorder'><div class='vertical-center'><img style='vertical-align:center; align:center' src=img/fixation3.jpg></div><div class='cl'><div class='vertical-center'>$65<br>with a<br>50% chance</div></div><div class='cr'><div class='vertical-center'>$46<br>for<br>sure</div></div><div class='respDivL'><div class='vertical-center'>(E)</div></div><div class='respDivR'><div class='vertical-center'>(I)</div></div></div>","I","$46","$65","1","46","65","SURE"
"html-keyboard-response","135","139430","0.0-5.0-3.43","63d42c21dc6f4d60e34cc337","bdp_rd","Sat Mar 25 2023 10:36:53 GMT-0500 (Central Daylight Time)","173990","","null","","","","offerFB","","<div class='trialBorder'><div class='vertical-center'><img style='vertical-align:center; align:center' src=img/fixation3.jpg></div><div class='cl'><div class='vertical-center'>$65<br>with a<br>50% chance</div></div><div class='cr'><div class='vertical-center'><font style='color:orange'>$46<br>for<br>sure</font></div></div><div class='respDivL'><div class='vertical-center'>(E)</div></div><div class='respDivR'><div class='vertical-center'><font style='color:orange'>(I)</font></div></div></div>","null","$46","$65","1","46","65",""
"html-keyboard-response","136","139933","0.0-5.0-1.44","63d42c21dc6f4d60e34cc337","bdp_rd","Sat Mar 25 2023 10:36:53 GMT-0500 (Central Daylight Time)","173990","","null","","","","FIX","","<div class='trialBorder'><div class='vertical-center'><img style='vertical-align:center; align:center' src=img/fixation3.jpg></div></div>","null","","","","","",""
"html-keyboard-response","137","140734","0.0-5.0-2.44","63d42c21dc6f4d60e34cc337","bdp_rd","Sat Mar 25 2023 10:36:53 GMT-0500 (Central Daylight Time)","173990","","800","","","","offer","","<div class='trialBorder'><div class='vertical-center'><img style='vertical-align:center; align:center' src=img/fixation3.jpg></div><div class='cl'><div class='vertical-center'>$42<br>with a<br>50% chance</div></div><div class='cr'><div class='vertical-center'>$22<br>for<br>sure</div></div><div class='respDivL'><div class='vertical-center'>(E)</div></div><div class='respDivR'><div class='vertical-center'>(I)</div></div></div>","I","$22","$42","1","22","42","SURE"
"html-keyboard-response","138","140990","0.0-5.0-3.44","63d42c21dc6f4d60e34cc337","bdp_rd","Sat Mar 25 2023 10:36:53 GMT-0500 (Central Daylight Time)","173990","","null","","","","offerFB","","<div class='trialBorder'><div class='vertical-center'><img style='vertical-align:center; align:center' src=img/fixation3.jpg></div><div class='cl'><div class='vertical-center'>$42<br>with a<br>50% chance</div></div><div class='cr'><div class='vertical-center'><font style='color:orange'>$22<br>for<br>sure</font></div></div><div class='respDivL'><div class='vertical-center'>(E)</div></div><div class='respDivR'><div class='vertical-center'><font style='color:orange'>(I)</font></div></div></div>","null","$22","$42","1","22","42",""
"html-keyboard-response","139","141493","0.0-5.0-1.45","63d42c21dc6f4d60e34cc337","bdp_rd","Sat Mar 25 2023 10:36:53 GMT-0500 (Central Daylight Time)","173990","","null","","","","FIX","","<div class='trialBorder'><div class='vertical-center'><img style='vertical-align:center; align:center' src=img/fixation3.jpg></div></div>","null","","","","","",""
"html-keyboard-response","140","142373","0.0-5.0-2.45","63d42c21dc6f4d60e34cc337","bdp_rd","Sat Mar 25 2023 10:36:53 GMT-0500 (Central Daylight Time)","173990","","878","","","","offer","","<div class='trialBorder'><div class='vertical-center'><img style='vertical-align:center; align:center' src=img/fixation3.jpg></div><div class='cl'><div class='vertical-center'>$31<br>with a<br>50% chance</div></div><div class='cr'><div class='vertical-center'>$15<br>for<br>sure</div></div><div class='respDivL'><div class='vertical-center'>(E)</div></div><div class='respDivR'><div class='vertical-center'>(I)</div></div></div>","I","$15","$31","1","15","31","SURE"
"html-keyboard-response","141","142629","0.0-5.0-3.45","63d42c21dc6f4d60e34cc337","bdp_rd","Sat Mar 25 2023 10:36:53 GMT-0500 (Central Daylight Time)","173990","","null","","","","offerFB","","<div class='trialBorder'><div class='vertical-center'><img style='vertical-align:center; align:center' src=img/fixation3.jpg></div><div class='cl'><div class='vertical-center'>$31<br>with a<br>50% chance</div></div><div class='cr'><div class='vertical-center'><font style='color:orange'>$15<br>for<br>sure</font></div></div><div class='respDivL'><div class='vertical-center'>(E)</div></div><div class='respDivR'><div class='vertical-center'><font style='color:orange'>(I)</font></div></div></div>","null","$15","$31","1","15","31",""
"html-keyboard-response","142","143133","0.0-5.0-1.46","63d42c21dc6f4d60e34cc337","bdp_rd","Sat Mar 25 2023 10:36:53 GMT-0500 (Central Daylight Time)","173990","","null","","","","FIX","","<div class='trialBorder'><div class='vertical-center'><img style='vertical-align:center; align:center' src=img/fixation3.jpg></div></div>","null","","","","","",""
"html-keyboard-response","143","144058","0.0-5.0-2.46","63d42c21dc6f4d60e34cc337","bdp_rd","Sat Mar 25 2023 10:36:53 GMT-0500 (Central Daylight Time)","173990","","922","","","","offer","","<div class='trialBorder'><div class='vertical-center'><img style='vertical-align:center; align:center' src=img/fixation3.jpg></div><div class='cl'><div class='vertical-center'>$36<br>with a<br>50% chance</div></div><div class='cr'><div class='vertical-center'>$18<br>for<br>sure</div></div><div class='respDivL'><div class='vertical-center'>(E)</div></div><div class='respDivR'><div class='vertical-center'>(I)</div></div></div>","I","$18","$36","1","18","36","SURE"
"html-keyboard-response","144","144318","0.0-5.0-3.46","63d42c21dc6f4d60e34cc337","bdp_rd","Sat Mar 25 2023 10:36:53 GMT-0500 (Central Daylight Time)","173990","","null","","","","offerFB","","<div class='trialBorder'><div class='vertical-center'><img style='vertical-align:center; align:center' src=img/fixation3.jpg></div><div class='cl'><div class='vertical-center'>$36<br>with a<br>50% chance</div></div><div class='cr'><div class='vertical-center'><font style='color:orange'>$18<br>for<br>sure</font></div></div><div class='respDivL'><div class='vertical-center'>(E)</div></div><div class='respDivR'><div class='vertical-center'><font style='color:orange'>(I)</font></div></div></div>","null","$18","$36","1","18","36",""
"html-keyboard-response","145","144822","0.0-5.0-1.47","63d42c21dc6f4d60e34cc337","bdp_rd","Sat Mar 25 2023 10:36:53 GMT-0500 (Central Daylight Time)","173990","","null","","","","FIX","","<div class='trialBorder'><div class='vertical-center'><img style='vertical-align:center; align:center' src=img/fixation3.jpg></div></div>","null","","","","","",""
"html-keyboard-response","146","146203","0.0-5.0-2.47","63d42c21dc6f4d60e34cc337","bdp_rd","Sat Mar 25 2023 10:36:53 GMT-0500 (Central Daylight Time)","173990","","1379","","","","offer","","<div class='trialBorder'><div class='vertical-center'><img style='vertical-align:center; align:center' src=img/fixation3.jpg></div><div class='cl'><div class='vertical-center'>$21<br>for<br>sure</div></div><div class='cr'><div class='vertical-center'>$25<br>with a<br>50% chance</div></div><div class='respDivL'><div class='vertical-center'>(E)</div></div><div class='respDivR'><div class='vertical-center'>(I)</div></div></div>","E","$21","$25","0","21","25","SURE"
"html-keyboard-response","147","146461","0.0-5.0-3.47","63d42c21dc6f4d60e34cc337","bdp_rd","Sat Mar 25 2023 10:36:53 GMT-0500 (Central Daylight Time)","173990","","null","","","","offerFB","","<div class='trialBorder'><div class='vertical-center'><img style='vertical-align:center; align:center' src=img/fixation3.jpg></div><div class='cl'><div class='vertical-center'><font style='color:orange'>$21<br>for<br>sure</font></div></div><div class='cr'><div class='vertical-center'>$25<br>with a<br>50% chance</div></div><div class='respDivL'><div class='vertical-center'><font style='color:orange'>(E)</font></div></div><div class='respDivR'><div class='vertical-center'>(I)</div></div></div>","null","$21","$25","0","21","25",""
"html-keyboard-response","148","146965","0.0-5.0-1.48","63d42c21dc6f4d60e34cc337","bdp_rd","Sat Mar 25 2023 10:36:53 GMT-0500 (Central Daylight Time)","173990","","null","","","","FIX","","<div class='trialBorder'><div class='vertical-center'><img style='vertical-align:center; align:center' src=img/fixation3.jpg></div></div>","null","","","","","",""
"html-keyboard-response","149","149056","0.0-5.0-2.48","63d42c21dc6f4d60e34cc337","bdp_rd","Sat Mar 25 2023 10:36:53 GMT-0500 (Central Daylight Time)","173990","","2090","","","","offer","","<div class='trialBorder'><div class='vertical-center'><img style='vertical-align:center; align:center' src=img/fixation3.jpg></div><div class='cl'><div class='vertical-center'>$1<br>for<br>sure</div></div><div class='cr'><div class='vertical-center'>$33<br>with a<br>50% chance</div></div><div class='respDivL'><div class='vertical-center'>(E)</div></div><div class='respDivR'><div class='vertical-center'>(I)</div></div></div>","I","$1","$33","0","1","33","RISKY"
"html-keyboard-response","150","149310","0.0-5.0-3.48","63d42c21dc6f4d60e34cc337","bdp_rd","Sat Mar 25 2023 10:36:53 GMT-0500 (Central Daylight Time)","173990","","null","","","","offerFB","","<div class='trialBorder'><div class='vertical-center'><img style='vertical-align:center; align:center' src=img/fixation3.jpg></div><div class='cl'><div class='vertical-center'>$1<br>for<br>sure</div></div><div class='cr'><div class='vertical-center'><font style='color:orange'>$33<br>with a<br>50% chance</font></div></div><div class='respDivL'><div class='vertical-center'>(E)</div></div><div class='respDivR'><div class='vertical-center'><font style='color:orange'>(I)</font></div></div></div>","null","$1","$33","0","1","33",""
"html-keyboard-response","151","149813","0.0-5.0-1.49","63d42c21dc6f4d60e34cc337","bdp_rd","Sat Mar 25 2023 10:36:53 GMT-0500 (Central Daylight Time)","173990","","null","","","","FIX","","<div class='trialBorder'><div class='vertical-center'><img style='vertical-align:center; align:center' src=img/fixation3.jpg></div></div>","null","","","","","",""
"html-keyboard-response","152","151315","0.0-5.0-2.49","63d42c21dc6f4d60e34cc337","bdp_rd","Sat Mar 25 2023 10:36:53 GMT-0500 (Central Daylight Time)","173990","","1501","","","","offer","","<div class='trialBorder'><div class='vertical-center'><img style='vertical-align:center; align:center' src=img/fixation3.jpg></div><div class='cl'><div class='vertical-center'>$59<br>with a<br>50% chance</div></div><div class='cr'><div class='vertical-center'>$22<br>for<br>sure</div></div><div class='respDivL'><div class='vertical-center'>(E)</div></div><div class='respDivR'><div class='vertical-center'>(I)</div></div></div>","I","$22","$59","1","22","59","SURE"
"html-keyboard-response","153","151573","0.0-5.0-3.49","63d42c21dc6f4d60e34cc337","bdp_rd","Sat Mar 25 2023 10:36:53 GMT-0500 (Central Daylight Time)","173990","","null","","","","offerFB","","<div class='trialBorder'><div class='vertical-center'><img style='vertical-align:center; align:center' src=img/fixation3.jpg></div><div class='cl'><div class='vertical-center'>$59<br>with a<br>50% chance</div></div><div class='cr'><div class='vertical-center'><font style='color:orange'>$22<br>for<br>sure</font></div></div><div class='respDivL'><div class='vertical-center'>(E)</div></div><div class='respDivR'><div class='vertical-center'><font style='color:orange'>(I)</font></div></div></div>","null","$22","$59","1","22","59",""
"html-keyboard-response","154","152077","0.0-5.0-1.50","63d42c21dc6f4d60e34cc337","bdp_rd","Sat Mar 25 2023 10:36:53 GMT-0500 (Central Daylight Time)","173990","","null","","","","FIX","","<div class='trialBorder'><div class='vertical-center'><img style='vertical-align:center; align:center' src=img/fixation3.jpg></div></div>","null","","","","","",""
"html-keyboard-response","155","152943","0.0-5.0-2.50","63d42c21dc6f4d60e34cc337","bdp_rd","Sat Mar 25 2023 10:36:53 GMT-0500 (Central Daylight Time)","173990","","865","","","","offer","","<div class='trialBorder'><div class='vertical-center'><img style='vertical-align:center; align:center' src=img/fixation3.jpg></div><div class='cl'><div class='vertical-center'>$8<br>for<br>sure</div></div><div class='cr'><div class='vertical-center'>$23<br>with a<br>50% chance</div></div><div class='respDivL'><div class='vertical-center'>(E)</div></div><div class='respDivR'><div class='vertical-center'>(I)</div></div></div>","E","$8","$23","0","8","23","SURE"
"html-keyboard-response","156","153198","0.0-5.0-3.50","63d42c21dc6f4d60e34cc337","bdp_rd","Sat Mar 25 2023 10:36:53 GMT-0500 (Central Daylight Time)","173990","","null","","","","offerFB","","<div class='trialBorder'><div class='vertical-center'><img style='vertical-align:center; align:center' src=img/fixation3.jpg></div><div class='cl'><div class='vertical-center'><font style='color:orange'>$8<br>for<br>sure</font></div></div><div class='cr'><div class='vertical-center'>$23<br>with a<br>50% chance</div></div><div class='respDivL'><div class='vertical-center'><font style='color:orange'>(E)</font></div></div><div class='respDivR'><div class='vertical-center'>(I)</div></div></div>","null","$8","$23","0","8","23",""
"html-keyboard-response","157","153701","0.0-5.0-1.51","63d42c21dc6f4d60e34cc337","bdp_rd","Sat Mar 25 2023 10:36:53 GMT-0500 (Central Daylight Time)","173990","","null","","","","FIX","","<div class='trialBorder'><div class='vertical-center'><img style='vertical-align:center; align:center' src=img/fixation3.jpg></div></div>","null","","","","","",""
"html-keyboard-response","158","154914","0.0-5.0-2.51","63d42c21dc6f4d60e34cc337","bdp_rd","Sat Mar 25 2023 10:36:53 GMT-0500 (Central Daylight Time)","173990","","1211","","","","offer","","<div class='trialBorder'><div class='vertical-center'><img style='vertical-align:center; align:center' src=img/fixation3.jpg></div><div class='cl'><div class='vertical-center'>$47<br>with a<br>50% chance</div></div><div class='cr'><div class='vertical-center'>$27<br>for<br>sure</div></div><div class='respDivL'><div class='vertical-center'>(E)</div></div><div class='respDivR'><div class='vertical-center'>(I)</div></div></div>","I","$27","$47","1","27","47","SURE"
"html-keyboard-response","159","155173","0.0-5.0-3.51","63d42c21dc6f4d60e34cc337","bdp_rd","Sat Mar 25 2023 10:36:53 GMT-0500 (Central Daylight Time)","173990","","null","","","","offerFB","","<div class='trialBorder'><div class='vertical-center'><img style='vertical-align:center; align:center' src=img/fixation3.jpg></div><div class='cl'><div class='vertical-center'>$47<br>with a<br>50% chance</div></div><div class='cr'><div class='vertical-center'><font style='color:orange'>$27<br>for<br>sure</font></div></div><div class='respDivL'><div class='vertical-center'>(E)</div></div><div class='respDivR'><div class='vertical-center'><font style='color:orange'>(I)</font></div></div></div>","null","$27","$47","1","27","47",""
"html-keyboard-response","160","155677","0.0-5.0-1.52","63d42c21dc6f4d60e34cc337","bdp_rd","Sat Mar 25 2023 10:36:53 GMT-0500 (Central Daylight Time)","173990","","null","","","","FIX","","<div class='trialBorder'><div class='vertical-center'><img style='vertical-align:center; align:center' src=img/fixation3.jpg></div></div>","null","","","","","",""
"html-keyboard-response","161","156950","0.0-5.0-2.52","63d42c21dc6f4d60e34cc337","bdp_rd","Sat Mar 25 2023 10:36:53 GMT-0500 (Central Daylight Time)","173990","","1272","","","","offer","","<div class='trialBorder'><div class='vertical-center'><img style='vertical-align:center; align:center' src=img/fixation3.jpg></div><div class='cl'><div class='vertical-center'>$42<br>for<br>sure</div></div><div class='cr'><div class='vertical-center'>$73<br>with a<br>50% chance</div></div><div class='respDivL'><div class='vertical-center'>(E)</div></div><div class='respDivR'><div class='vertical-center'>(I)</div></div></div>","E","$42","$73","0","42","73","SURE"
"html-keyboard-response","162","157205","0.0-5.0-3.52","63d42c21dc6f4d60e34cc337","bdp_rd","Sat Mar 25 2023 10:36:53 GMT-0500 (Central Daylight Time)","173990","","null","","","","offerFB","","<div class='trialBorder'><div class='vertical-center'><img style='vertical-align:center; align:center' src=img/fixation3.jpg></div><div class='cl'><div class='vertical-center'><font style='color:orange'>$42<br>for<br>sure</font></div></div><div class='cr'><div class='vertical-center'>$73<br>with a<br>50% chance</div></div><div class='respDivL'><div class='vertical-center'><font style='color:orange'>(E)</font></div></div><div class='respDivR'><div class='vertical-center'>(I)</div></div></div>","null","$42","$73","0","42","73",""
"html-keyboard-response","163","157710","0.0-5.0-1.53","63d42c21dc6f4d60e34cc337","bdp_rd","Sat Mar 25 2023 10:36:53 GMT-0500 (Central Daylight Time)","173990","","null","","","","FIX","","<div class='trialBorder'><div class='vertical-center'><img style='vertical-align:center; align:center' src=img/fixation3.jpg></div></div>","null","","","","","",""
"html-keyboard-response","164","159265","0.0-5.0-2.53","63d42c21dc6f4d60e34cc337","bdp_rd","Sat Mar 25 2023 10:36:53 GMT-0500 (Central Daylight Time)","173990","","1554","","","","offer","","<div class='trialBorder'><div class='vertical-center'><img style='vertical-align:center; align:center' src=img/fixation3.jpg></div><div class='cl'><div class='vertical-center'>$80<br>with a<br>50% chance</div></div><div class='cr'><div class='vertical-center'>$20<br>for<br>sure</div></div><div class='respDivL'><div class='vertical-center'>(E)</div></div><div class='respDivR'><div class='vertical-center'>(I)</div></div></div>","I","$20","$80","1","20","80","SURE"
"html-keyboard-response","165","159526","0.0-5.0-3.53","63d42c21dc6f4d60e34cc337","bdp_rd","Sat Mar 25 2023 10:36:53 GMT-0500 (Central Daylight Time)","173990","","null","","","","offerFB","","<div class='trialBorder'><div class='vertical-center'><img style='vertical-align:center; align:center' src=img/fixation3.jpg></div><div class='cl'><div class='vertical-center'>$80<br>with a<br>50% chance</div></div><div class='cr'><div class='vertical-center'><font style='color:orange'>$20<br>for<br>sure</font></div></div><div class='respDivL'><div class='vertical-center'>(E)</div></div><div class='respDivR'><div class='vertical-center'><font style='color:orange'>(I)</font></div></div></div>","null","$20","$80","1","20","80",""
"html-keyboard-response","166","160030","0.0-5.0-1.54","63d42c21dc6f4d60e34cc337","bdp_rd","Sat Mar 25 2023 10:36:53 GMT-0500 (Central Daylight Time)","173990","","null","","","","FIX","","<div class='trialBorder'><div class='vertical-center'><img style='vertical-align:center; align:center' src=img/fixation3.jpg></div></div>","null","","","","","",""
"html-keyboard-response","167","163216","0.0-5.0-2.54","63d42c21dc6f4d60e34cc337","bdp_rd","Sat Mar 25 2023 10:36:53 GMT-0500 (Central Daylight Time)","173990","","3185","","","","offer","","<div class='trialBorder'><div class='vertical-center'><img style='vertical-align:center; align:center' src=img/fixation3.jpg></div><div class='cl'><div class='vertical-center'>$2<br>for<br>sure</div></div><div class='cr'><div class='vertical-center'>$21<br>with a<br>50% chance</div></div><div class='respDivL'><div class='vertical-center'>(E)</div></div><div class='respDivR'><div class='vertical-center'>(I)</div></div></div>","I","$2","$21","0","2","21","RISKY"
"html-keyboard-response","168","163469","0.0-5.0-3.54","63d42c21dc6f4d60e34cc337","bdp_rd","Sat Mar 25 2023 10:36:53 GMT-0500 (Central Daylight Time)","173990","","null","","","","offerFB","","<div class='trialBorder'><div class='vertical-center'><img style='vertical-align:center; align:center' src=img/fixation3.jpg></div><div class='cl'><div class='vertical-center'>$2<br>for<br>sure</div></div><div class='cr'><div class='vertical-center'><font style='color:orange'>$21<br>with a<br>50% chance</font></div></div><div class='respDivL'><div class='vertical-center'>(E)</div></div><div class='respDivR'><div class='vertical-center'><font style='color:orange'>(I)</font></div></div></div>","null","$2","$21","0","2","21",""
"html-keyboard-response","169","163974","0.0-5.0-1.55","63d42c21dc6f4d60e34cc337","bdp_rd","Sat Mar 25 2023 10:36:53 GMT-0500 (Central Daylight Time)","173990","","null","","","","FIX","","<div class='trialBorder'><div class='vertical-center'><img style='vertical-align:center; align:center' src=img/fixation3.jpg></div></div>","null","","","","","",""
"html-keyboard-response","170","165624","0.0-5.0-2.55","63d42c21dc6f4d60e34cc337","bdp_rd","Sat Mar 25 2023 10:36:53 GMT-0500 (Central Daylight Time)","173990","","1648","","","","offer","","<div class='trialBorder'><div class='vertical-center'><img style='vertical-align:center; align:center' src=img/fixation3.jpg></div><div class='cl'><div class='vertical-center'>$19<br>for<br>sure</div></div><div class='cr'><div class='vertical-center'>$51<br>with a<br>50% chance</div></div><div class='respDivL'><div class='vertical-center'>(E)</div></div><div class='respDivR'><div class='vertical-center'>(I)</div></div></div>","E","$19","$51","0","19","51","SURE"
"html-keyboard-response","171","165878","0.0-5.0-3.55","63d42c21dc6f4d60e34cc337","bdp_rd","Sat Mar 25 2023 10:36:53 GMT-0500 (Central Daylight Time)","173990","","null","","","","offerFB","","<div class='trialBorder'><div class='vertical-center'><img style='vertical-align:center; align:center' src=img/fixation3.jpg></div><div class='cl'><div class='vertical-center'><font style='color:orange'>$19<br>for<br>sure</font></div></div><div class='cr'><div class='vertical-center'>$51<br>with a<br>50% chance</div></div><div class='respDivL'><div class='vertical-center'><font style='color:orange'>(E)</font></div></div><div class='respDivR'><div class='vertical-center'>(I)</div></div></div>","null","$19","$51","0","19","51",""
"html-keyboard-response","172","166381","0.0-5.0-1.56","63d42c21dc6f4d60e34cc337","bdp_rd","Sat Mar 25 2023 10:36:53 GMT-0500 (Central Daylight Time)","173990","","null","","","","FIX","","<div class='trialBorder'><div class='vertical-center'><img style='vertical-align:center; align:center' src=img/fixation3.jpg></div></div>","null","","","","","",""
"html-keyboard-response","173","167229","0.0-5.0-2.56","63d42c21dc6f4d60e34cc337","bdp_rd","Sat Mar 25 2023 10:36:53 GMT-0500 (Central Daylight Time)","173990","","846","","","","offer","","<div class='trialBorder'><div class='vertical-center'><img style='vertical-align:center; align:center' src=img/fixation3.jpg></div><div class='cl'><div class='vertical-center'>$26<br>for<br>sure</div></div><div class='cr'><div class='vertical-center'>$92<br>with a<br>50% chance</div></div><div class='respDivL'><div class='vertical-center'>(E)</div></div><div class='respDivR'><div class='vertical-center'>(I)</div></div></div>","E","$26","$92","0","26","92","SURE"
