"trial_type","trial_index","time_elapsed","internal_node_id","subject_id","task","startTime","totalTime","view_history","rt","event","trial","time","trialtype","success","stimulus","key_press","sureOffer","riskyOffer","riskyLeft","sureAmt","riskyAmt","chosen"
"pavlovia","0","1","0.0-0.0","5fb7c9fa2be0a83d8f8913b8","bdp_rd","Sat Mar 25 2023 16:08:55 GMT-0700 (PDT)","208776","","","","","","","","","","","","","","",""
"instructions","1","1684","0.0-1.0","5fb7c9fa2be0a83d8f8913b8","bdp_rd","Sat Mar 25 2023 16:08:55 GMT-0700 (PDT)","208776","[{""page_index"":0,""viewing_time"":1683}]","1683","","","","","","","","","","","","",""
"","","","","5fb7c9fa2be0a83d8f8913b8","bdp_rd","Sat Mar 25 2023 16:08:55 GMT-0700 (PDT)","208776","","","fullscreenenter","2","3619","fullscreenenter","","","","","","","","",""
"fullscreen","2","4574","0.0-2.0","5fb7c9fa2be0a83d8f8913b8","bdp_rd","Sat Mar 25 2023 16:08:55 GMT-0700 (PDT)","208776","","","","","","","true","","","","","","","",""
"instructions","3","46426","0.0-4.0","5fb7c9fa2be0a83d8f8913b8","bdp_rd","Sat Mar 25 2023 16:08:55 GMT-0700 (PDT)","208776","[{""page_index"":0,""viewing_time"":11952},{""page_index"":1,""viewing_time"":24365},{""page_index"":2,""viewing_time"":5532}]","41850","","","","","","","","","","","","",""
"html-keyboard-response","4","46928","0.0-5.0-1.0","5fb7c9fa2be0a83d8f8913b8","bdp_rd","Sat Mar 25 2023 16:08:55 GMT-0700 (PDT)","208776","","null","","","","FIX","","<div class='trialBorder'><div class='vertical-center'><img style='vertical-align:center; align:center' src=img/fixation3.jpg></div></div>","null","","","","","",""
"html-keyboard-response","5","50617","0.0-5.0-2.0","5fb7c9fa2be0a83d8f8913b8","bdp_rd","Sat Mar 25 2023 16:08:55 GMT-0700 (PDT)","208776","","3687","","","","offer","","<div class='trialBorder'><div class='vertical-center'><img style='vertical-align:center; align:center' src=img/fixation3.jpg></div><div class='cl'><div class='vertical-center'>$63<br>for<br>sure</div></div><div class='cr'><div class='vertical-center'>$100<br>with a<br>50% chance</div></div><div class='respDivL'><div class='vertical-center'>(E)</div></div><div class='respDivR'><div class='vertical-center'>(I)</div></div></div>","E","$63","$100","0","63","10","SURE"
"html-keyboard-response","6","50871","0.0-5.0-3.0","5fb7c9fa2be0a83d8f8913b8","bdp_rd","Sat Mar 25 2023 16:08:55 GMT-0700 (PDT)","208776","","null","","","","offerFB","","<div class='trialBorder'><div class='vertical-center'><img style='vertical-align:center; align:center' src=img/fixation3.jpg></div><div class='cl'><div class='vertical-center'><font style='color:orange'>$63<br>for<br>sure</font></div></div><div class='cr'><div class='vertical-center'>$100<br>with a<br>50% chance</div></div><div class='respDivL'><div class='vertical-center'><font style='color:orange'>(E)</font></div></div><div class='respDivR'><div class='vertical-center'>(I)</div></div></div>","null","$63","$100","0","63","10",""
"html-keyboard-response","7","51374","0.0-5.0-1.1","5fb7c9fa2be0a83d8f8913b8","bdp_rd","Sat Mar 25 2023 16:08:55 GMT-0700 (PDT)","208776","","null","","","","FIX","","<div class='trialBorder'><div class='vertical-center'><img style='vertical-align:center; align:center' src=img/fixation3.jpg></div></div>","null","","","","","",""
"html-keyboard-response","8","53317","0.0-5.0-2.1","5fb7c9fa2be0a83d8f8913b8","bdp_rd","Sat Mar 25 2023 16:08:55 GMT-0700 (PDT)","208776","","1942","","","","offer","","<div class='trialBorder'><div class='vertical-center'><img style='vertical-align:center; align:center' src=img/fixation3.jpg></div><div class='cl'><div class='vertical-center'>$34<br>for<br>sure</div></div><div class='cr'><div class='vertical-center'>$48<br>with a<br>50% chance</div></div><div class='respDivL'><div class='vertical-center'>(E)</div></div><div class='respDivR'><div class='vertical-center'>(I)</div></div></div>","E","$34","$48","0","34","48","SURE"
"html-keyboard-response","9","53569","0.0-5.0-3.1","5fb7c9fa2be0a83d8f8913b8","bdp_rd","Sat Mar 25 2023 16:08:55 GMT-0700 (PDT)","208776","","null","","","","offerFB","","<div class='trialBorder'><div class='vertical-center'><img style='vertical-align:center; align:center' src=img/fixation3.jpg></div><div class='cl'><div class='vertical-center'><font style='color:orange'>$34<br>for<br>sure</font></div></div><div class='cr'><div class='vertical-center'>$48<br>with a<br>50% chance</div></div><div class='respDivL'><div class='vertical-center'><font style='color:orange'>(E)</font></div></div><div class='respDivR'><div class='vertical-center'>(I)</div></div></div>","null","$34","$48","0","34","48",""
"html-keyboard-response","10","54071","0.0-5.0-1.2","5fb7c9fa2be0a83d8f8913b8","bdp_rd","Sat Mar 25 2023 16:08:55 GMT-0700 (PDT)","208776","","null","","","","FIX","","<div class='trialBorder'><div class='vertical-center'><img style='vertical-align:center; align:center' src=img/fixation3.jpg></div></div>","null","","","","","",""
"html-keyboard-response","11","57899","0.0-5.0-2.2","5fb7c9fa2be0a83d8f8913b8","bdp_rd","Sat Mar 25 2023 16:08:55 GMT-0700 (PDT)","208776","","3827","","","","offer","","<div class='trialBorder'><div class='vertical-center'><img style='vertical-align:center; align:center' src=img/fixation3.jpg></div><div class='cl'><div class='vertical-center'>$15<br>for<br>sure</div></div><div class='cr'><div class='vertical-center'>$34<br>with a<br>50% chance</div></div><div class='respDivL'><div class='vertical-center'>(E)</div></div><div class='respDivR'><div class='vertical-center'>(I)</div></div></div>","E","$15","$34","0","15","34","SURE"
"html-keyboard-response","12","58152","0.0-5.0-3.2","5fb7c9fa2be0a83d8f8913b8","bdp_rd","Sat Mar 25 2023 16:08:55 GMT-0700 (PDT)","208776","","null","","","","offerFB","","<div class='trialBorder'><div class='vertical-center'><img style='vertical-align:center; align:center' src=img/fixation3.jpg></div><div class='cl'><div class='vertical-center'><font style='color:orange'>$15<br>for<br>sure</font></div></div><div class='cr'><div class='vertical-center'>$34<br>with a<br>50% chance</div></div><div class='respDivL'><div class='vertical-center'><font style='color:orange'>(E)</font></div></div><div class='respDivR'><div class='vertical-center'>(I)</div></div></div>","null","$15","$34","0","15","34",""
"html-keyboard-response","13","58654","0.0-5.0-1.3","5fb7c9fa2be0a83d8f8913b8","bdp_rd","Sat Mar 25 2023 16:08:55 GMT-0700 (PDT)","208776","","null","","","","FIX","","<div class='trialBorder'><div class='vertical-center'><img style='vertical-align:center; align:center' src=img/fixation3.jpg></div></div>","null","","","","","",""
"html-keyboard-response","14","60093","0.0-5.0-2.3","5fb7c9fa2be0a83d8f8913b8","bdp_rd","Sat Mar 25 2023 16:08:55 GMT-0700 (PDT)","208776","","1437","","","","offer","","<div class='trialBorder'><div class='vertical-center'><img style='vertical-align:center; align:center' src=img/fixation3.jpg></div><div class='cl'><div class='vertical-center'>$38<br>with a<br>50% chance</div></div><div class='cr'><div class='vertical-center'>$16<br>for<br>sure</div></div><div class='respDivL'><div class='vertical-center'>(E)</div></div><div class='respDivR'><div class='vertical-center'>(I)</div></div></div>","I","$16","$38","1","16","38","SURE"
"html-keyboard-response","15","60346","0.0-5.0-3.3","5fb7c9fa2be0a83d8f8913b8","bdp_rd","Sat Mar 25 2023 16:08:55 GMT-0700 (PDT)","208776","","null","","","","offerFB","","<div class='trialBorder'><div class='vertical-center'><img style='vertical-align:center; align:center' src=img/fixation3.jpg></div><div class='cl'><div class='vertical-center'>$38<br>with a<br>50% chance</div></div><div class='cr'><div class='vertical-center'><font style='color:orange'>$16<br>for<br>sure</font></div></div><div class='respDivL'><div class='vertical-center'>(E)</div></div><div class='respDivR'><div class='vertical-center'><font style='color:orange'>(I)</font></div></div></div>","null","$16","$38","1","16","38",""
"html-keyboard-response","16","60847","0.0-5.0-1.4","5fb7c9fa2be0a83d8f8913b8","bdp_rd","Sat Mar 25 2023 16:08:55 GMT-0700 (PDT)","208776","","null","","","","FIX","","<div class='trialBorder'><div class='vertical-center'><img style='vertical-align:center; align:center' src=img/fixation3.jpg></div></div>","null","","","","","",""
"html-keyboard-response","17","62498","0.0-5.0-2.4","5fb7c9fa2be0a83d8f8913b8","bdp_rd","Sat Mar 25 2023 16:08:55 GMT-0700 (PDT)","208776","","1648","","","","offer","","<div class='trialBorder'><div class='vertical-center'><img style='vertical-align:center; align:center' src=img/fixation3.jpg></div><div class='cl'><div class='vertical-center'>$10<br>with a<br>50% chance</div></div><div class='cr'><div class='vertical-center'>$7<br>for<br>sure</div></div><div class='respDivL'><div class='vertical-center'>(E)</div></div><div class='respDivR'><div class='vertical-center'>(I)</div></div></div>","I","$7","$10","1","7","10","SURE"
"html-keyboard-response","18","62750","0.0-5.0-3.4","5fb7c9fa2be0a83d8f8913b8","bdp_rd","Sat Mar 25 2023 16:08:55 GMT-0700 (PDT)","208776","","null","","","","offerFB","","<div class='trialBorder'><div class='vertical-center'><img style='vertical-align:center; align:center' src=img/fixation3.jpg></div><div class='cl'><div class='vertical-center'>$10<br>with a<br>50% chance</div></div><div class='cr'><div class='vertical-center'><font style='color:orange'>$7<br>for<br>sure</font></div></div><div class='respDivL'><div class='vertical-center'>(E)</div></div><div class='respDivR'><div class='vertical-center'><font style='color:orange'>(I)</font></div></div></div>","null","$7","$10","1","7","10",""
"html-keyboard-response","19","63253","0.0-5.0-1.5","5fb7c9fa2be0a83d8f8913b8","bdp_rd","Sat Mar 25 2023 16:08:55 GMT-0700 (PDT)","208776","","null","","","","FIX","","<div class='trialBorder'><div class='vertical-center'><img style='vertical-align:center; align:center' src=img/fixation3.jpg></div></div>","null","","","","","",""
"html-keyboard-response","20","65542","0.0-5.0-2.5","5fb7c9fa2be0a83d8f8913b8","bdp_rd","Sat Mar 25 2023 16:08:55 GMT-0700 (PDT)","208776","","2288","","","","offer","","<div class='trialBorder'><div class='vertical-center'><img style='vertical-align:center; align:center' src=img/fixation3.jpg></div><div class='cl'><div class='vertical-center'>$19<br>with a<br>50% chance</div></div><div class='cr'><div class='vertical-center'>$10<br>for<br>sure</div></div><div class='respDivL'><div class='vertical-center'>(E)</div></div><div class='respDivR'><div class='vertical-center'>(I)</div></div></div>","I","$10","$19","1","10","19","SURE"
"html-keyboard-response","21","65795","0.0-5.0-3.5","5fb7c9fa2be0a83d8f8913b8","bdp_rd","Sat Mar 25 2023 16:08:55 GMT-0700 (PDT)","208776","","null","","","","offerFB","","<div class='trialBorder'><div class='vertical-center'><img style='vertical-align:center; align:center' src=img/fixation3.jpg></div><div class='cl'><div class='vertical-center'>$19<br>with a<br>50% chance</div></div><div class='cr'><div class='vertical-center'><font style='color:orange'>$10<br>for<br>sure</font></div></div><div class='respDivL'><div class='vertical-center'>(E)</div></div><div class='respDivR'><div class='vertical-center'><font style='color:orange'>(I)</font></div></div></div>","null","$10","$19","1","10","19",""
"html-keyboard-response","22","66297","0.0-5.0-1.6","5fb7c9fa2be0a83d8f8913b8","bdp_rd","Sat Mar 25 2023 16:08:55 GMT-0700 (PDT)","208776","","null","","","","FIX","","<div class='trialBorder'><div class='vertical-center'><img style='vertical-align:center; align:center' src=img/fixation3.jpg></div></div>","null","","","","","",""
"html-keyboard-response","23","68337","0.0-5.0-2.6","5fb7c9fa2be0a83d8f8913b8","bdp_rd","Sat Mar 25 2023 16:08:55 GMT-0700 (PDT)","208776","","2039","","","","offer","","<div class='trialBorder'><div class='vertical-center'><img style='vertical-align:center; align:center' src=img/fixation3.jpg></div><div class='cl'><div class='vertical-center'>$1<br>for<br>sure</div></div><div class='cr'><div class='vertical-center'>$33<br>with a<br>50% chance</div></div><div class='respDivL'><div class='vertical-center'>(E)</div></div><div class='respDivR'><div class='vertical-center'>(I)</div></div></div>","I","$1","$33","0","1","33","RISKY"
"html-keyboard-response","24","68590","0.0-5.0-3.6","5fb7c9fa2be0a83d8f8913b8","bdp_rd","Sat Mar 25 2023 16:08:55 GMT-0700 (PDT)","208776","","null","","","","offerFB","","<div class='trialBorder'><div class='vertical-center'><img style='vertical-align:center; align:center' src=img/fixation3.jpg></div><div class='cl'><div class='vertical-center'>$1<br>for<br>sure</div></div><div class='cr'><div class='vertical-center'><font style='color:orange'>$33<br>with a<br>50% chance</font></div></div><div class='respDivL'><div class='vertical-center'>(E)</div></div><div class='respDivR'><div class='vertical-center'><font style='color:orange'>(I)</font></div></div></div>","null","$1","$33","0","1","33",""
"html-keyboard-response","25","69092","0.0-5.0-1.7","5fb7c9fa2be0a83d8f8913b8","bdp_rd","Sat Mar 25 2023 16:08:55 GMT-0700 (PDT)","208776","","null","","","","FIX","","<div class='trialBorder'><div class='vertical-center'><img style='vertical-align:center; align:center' src=img/fixation3.jpg></div></div>","null","","","","","",""
"html-keyboard-response","26","70695","0.0-5.0-2.7","5fb7c9fa2be0a83d8f8913b8","bdp_rd","Sat Mar 25 2023 16:08:55 GMT-0700 (PDT)","208776","","1602","","","","offer","","<div class='trialBorder'><div class='vertical-center'><img style='vertical-align:center; align:center' src=img/fixation3.jpg></div><div class='cl'><div class='vertical-center'>$25<br>with a<br>50% chance</div></div><div class='cr'><div class='vertical-center'>$21<br>for<br>sure</div></div><div class='respDivL'><div class='vertical-center'>(E)</div></div><div class='respDivR'><div class='vertical-center'>(I)</div></div></div>","I","$21","$25","1","21","25","SURE"
"html-keyboard-response","27","70948","0.0-5.0-3.7","5fb7c9fa2be0a83d8f8913b8","bdp_rd","Sat Mar 25 2023 16:08:55 GMT-0700 (PDT)","208776","","null","","","","offerFB","","<div class='trialBorder'><div class='vertical-center'><img style='vertical-align:center; align:center' src=img/fixation3.jpg></div><div class='cl'><div class='vertical-center'>$25<br>with a<br>50% chance</div></div><div class='cr'><div class='vertical-center'><font style='color:orange'>$21<br>for<br>sure</font></div></div><div class='respDivL'><div class='vertical-center'>(E)</div></div><div class='respDivR'><div class='vertical-center'><font style='color:orange'>(I)</font></div></div></div>","null","$21","$25","1","21","25",""
"html-keyboard-response","28","71450","0.0-5.0-1.8","5fb7c9fa2be0a83d8f8913b8","bdp_rd","Sat Mar 25 2023 16:08:55 GMT-0700 (PDT)","208776","","null","","","","FIX","","<div class='trialBorder'><div class='vertical-center'><img style='vertical-align:center; align:center' src=img/fixation3.jpg></div></div>","null","","","","","",""
"html-keyboard-response","29","73090","0.0-5.0-2.8","5fb7c9fa2be0a83d8f8913b8","bdp_rd","Sat Mar 25 2023 16:08:55 GMT-0700 (PDT)","208776","","1638","","","","offer","","<div class='trialBorder'><div class='vertical-center'><img style='vertical-align:center; align:center' src=img/fixation3.jpg></div><div class='cl'><div class='vertical-center'>$13<br>for<br>sure</div></div><div class='cr'><div class='vertical-center'>$24<br>with a<br>50% chance</div></div><div class='respDivL'><div class='vertical-center'>(E)</div></div><div class='respDivR'><div class='vertical-center'>(I)</div></div></div>","E","$13","$24","0","13","24","SURE"
"html-keyboard-response","30","73343","0.0-5.0-3.8","5fb7c9fa2be0a83d8f8913b8","bdp_rd","Sat Mar 25 2023 16:08:55 GMT-0700 (PDT)","208776","","null","","","","offerFB","","<div class='trialBorder'><div class='vertical-center'><img style='vertical-align:center; align:center' src=img/fixation3.jpg></div><div class='cl'><div class='vertical-center'><font style='color:orange'>$13<br>for<br>sure</font></div></div><div class='cr'><div class='vertical-center'>$24<br>with a<br>50% chance</div></div><div class='respDivL'><div class='vertical-center'><font style='color:orange'>(E)</font></div></div><div class='respDivR'><div class='vertical-center'>(I)</div></div></div>","null","$13","$24","0","13","24",""
"html-keyboard-response","31","73845","0.0-5.0-1.9","5fb7c9fa2be0a83d8f8913b8","bdp_rd","Sat Mar 25 2023 16:08:55 GMT-0700 (PDT)","208776","","null","","","","FIX","","<div class='trialBorder'><div class='vertical-center'><img style='vertical-align:center; align:center' src=img/fixation3.jpg></div></div>","null","","","","","",""
"html-keyboard-response","32","75289","0.0-5.0-2.9","5fb7c9fa2be0a83d8f8913b8","bdp_rd","Sat Mar 25 2023 16:08:55 GMT-0700 (PDT)","208776","","1443","","","","offer","","<div class='trialBorder'><div class='vertical-center'><img style='vertical-align:center; align:center' src=img/fixation3.jpg></div><div class='cl'><div class='vertical-center'>$5<br>for<br>sure</div></div><div class='cr'><div class='vertical-center'>$50<br>with a<br>50% chance</div></div><div class='respDivL'><div class='vertical-center'>(E)</div></div><div class='respDivR'><div class='vertical-center'>(I)</div></div></div>","I","$5","$50","0","5","50","RISKY"
"html-keyboard-response","33","75542","0.0-5.0-3.9","5fb7c9fa2be0a83d8f8913b8","bdp_rd","Sat Mar 25 2023 16:08:55 GMT-0700 (PDT)","208776","","null","","","","offerFB","","<div class='trialBorder'><div class='vertical-center'><img style='vertical-align:center; align:center' src=img/fixation3.jpg></div><div class='cl'><div class='vertical-center'>$5<br>for<br>sure</div></div><div class='cr'><div class='vertical-center'><font style='color:orange'>$50<br>with a<br>50% chance</font></div></div><div class='respDivL'><div class='vertical-center'>(E)</div></div><div class='respDivR'><div class='vertical-center'><font style='color:orange'>(I)</font></div></div></div>","null","$5","$50","0","5","50",""
"html-keyboard-response","34","76044","0.0-5.0-1.10","5fb7c9fa2be0a83d8f8913b8","bdp_rd","Sat Mar 25 2023 16:08:55 GMT-0700 (PDT)","208776","","null","","","","FIX","","<div class='trialBorder'><div class='vertical-center'><img style='vertical-align:center; align:center' src=img/fixation3.jpg></div></div>","null","","","","","",""
"html-keyboard-response","35","78571","0.0-5.0-2.10","5fb7c9fa2be0a83d8f8913b8","bdp_rd","Sat Mar 25 2023 16:08:55 GMT-0700 (PDT)","208776","","2525","","","","offer","","<div class='trialBorder'><div class='vertical-center'><img style='vertical-align:center; align:center' src=img/fixation3.jpg></div><div class='cl'><div class='vertical-center'>$46<br>for<br>sure</div></div><div class='cr'><div class='vertical-center'>$65<br>with a<br>50% chance</div></div><div class='respDivL'><div class='vertical-center'>(E)</div></div><div class='respDivR'><div class='vertical-center'>(I)</div></div></div>","E","$46","$65","0","46","65","SURE"
"html-keyboard-response","36","78823","0.0-5.0-3.10","5fb7c9fa2be0a83d8f8913b8","bdp_rd","Sat Mar 25 2023 16:08:55 GMT-0700 (PDT)","208776","","null","","","","offerFB","","<div class='trialBorder'><div class='vertical-center'><img style='vertical-align:center; align:center' src=img/fixation3.jpg></div><div class='cl'><div class='vertical-center'><font style='color:orange'>$46<br>for<br>sure</font></div></div><div class='cr'><div class='vertical-center'>$65<br>with a<br>50% chance</div></div><div class='respDivL'><div class='vertical-center'><font style='color:orange'>(E)</font></div></div><div class='respDivR'><div class='vertical-center'>(I)</div></div></div>","null","$46","$65","0","46","65",""
"html-keyboard-response","37","79325","0.0-5.0-1.11","5fb7c9fa2be0a83d8f8913b8","bdp_rd","Sat Mar 25 2023 16:08:55 GMT-0700 (PDT)","208776","","null","","","","FIX","","<div class='trialBorder'><div class='vertical-center'><img style='vertical-align:center; align:center' src=img/fixation3.jpg></div></div>","null","","","","","",""
"html-keyboard-response","38","81348","0.0-5.0-2.11","5fb7c9fa2be0a83d8f8913b8","bdp_rd","Sat Mar 25 2023 16:08:55 GMT-0700 (PDT)","208776","","2021","","","","offer","","<div class='trialBorder'><div class='vertical-center'><img style='vertical-align:center; align:center' src=img/fixation3.jpg></div><div class='cl'><div class='vertical-center'>$32<br>with a<br>50% chance</div></div><div class='cr'><div class='vertical-center'>$9<br>for<br>sure</div></div><div class='respDivL'><div class='vertical-center'>(E)</div></div><div class='respDivR'><div class='vertical-center'>(I)</div></div></div>","E","$9","$32","1","9","32","RISKY"
"html-keyboard-response","39","81600","0.0-5.0-3.11","5fb7c9fa2be0a83d8f8913b8","bdp_rd","Sat Mar 25 2023 16:08:55 GMT-0700 (PDT)","208776","","null","","","","offerFB","","<div class='trialBorder'><div class='vertical-center'><img style='vertical-align:center; align:center' src=img/fixation3.jpg></div><div class='cl'><div class='vertical-center'><font style='color:orange'>$32<br>with a<br>50% chance</font></div></div><div class='cr'><div class='vertical-center'>$9<br>for<br>sure</div></div><div class='respDivL'><div class='vertical-center'><font style='color:orange'>(E)</font></div></div><div class='respDivR'><div class='vertical-center'>(I)</div></div></div>","null","$9","$32","1","9","32",""
"html-keyboard-response","40","82103","0.0-5.0-1.12","5fb7c9fa2be0a83d8f8913b8","bdp_rd","Sat Mar 25 2023 16:08:55 GMT-0700 (PDT)","208776","","null","","","","FIX","","<div class='trialBorder'><div class='vertical-center'><img style='vertical-align:center; align:center' src=img/fixation3.jpg></div></div>","null","","","","","",""
"html-keyboard-response","41","83521","0.0-5.0-2.12","5fb7c9fa2be0a83d8f8913b8","bdp_rd","Sat Mar 25 2023 16:08:55 GMT-0700 (PDT)","208776","","1418","","","","offer","","<div class='trialBorder'><div class='vertical-center'><img style='vertical-align:center; align:center' src=img/fixation3.jpg></div><div class='cl'><div class='vertical-center'>$89<br>with a<br>50% chance</div></div><div class='cr'><div class='vertical-center'>$28<br>for<br>sure</div></div><div class='respDivL'><div class='vertical-center'>(E)</div></div><div class='respDivR'><div class='vertical-center'>(I)</div></div></div>","I","$28","$89","1","28","89","SURE"
"html-keyboard-response","42","83774","0.0-5.0-3.12","5fb7c9fa2be0a83d8f8913b8","bdp_rd","Sat Mar 25 2023 16:08:55 GMT-0700 (PDT)","208776","","null","","","","offerFB","","<div class='trialBorder'><div class='vertical-center'><img style='vertical-align:center; align:center' src=img/fixation3.jpg></div><div class='cl'><div class='vertical-center'>$89<br>with a<br>50% chance</div></div><div class='cr'><div class='vertical-center'><font style='color:orange'>$28<br>for<br>sure</font></div></div><div class='respDivL'><div class='vertical-center'>(E)</div></div><div class='respDivR'><div class='vertical-center'><font style='color:orange'>(I)</font></div></div></div>","null","$28","$89","1","28","89",""
"html-keyboard-response","43","84276","0.0-5.0-1.13","5fb7c9fa2be0a83d8f8913b8","bdp_rd","Sat Mar 25 2023 16:08:55 GMT-0700 (PDT)","208776","","null","","","","FIX","","<div class='trialBorder'><div class='vertical-center'><img style='vertical-align:center; align:center' src=img/fixation3.jpg></div></div>","null","","","","","",""
"html-keyboard-response","44","86106","0.0-5.0-2.13","5fb7c9fa2be0a83d8f8913b8","bdp_rd","Sat Mar 25 2023 16:08:55 GMT-0700 (PDT)","208776","","1829","","","","offer","","<div class='trialBorder'><div class='vertical-center'><img style='vertical-align:center; align:center' src=img/fixation3.jpg></div><div class='cl'><div class='vertical-center'>$25<br>for<br>sure</div></div><div class='cr'><div class='vertical-center'>$54<br>with a<br>50% chance</div></div><div class='respDivL'><div class='vertical-center'>(E)</div></div><div class='respDivR'><div class='vertical-center'>(I)</div></div></div>","E","$25","$54","0","25","54","SURE"
"html-keyboard-response","45","86359","0.0-5.0-3.13","5fb7c9fa2be0a83d8f8913b8","bdp_rd","Sat Mar 25 2023 16:08:55 GMT-0700 (PDT)","208776","","null","","","","offerFB","","<div class='trialBorder'><div class='vertical-center'><img style='vertical-align:center; align:center' src=img/fixation3.jpg></div><div class='cl'><div class='vertical-center'><font style='color:orange'>$25<br>for<br>sure</font></div></div><div class='cr'><div class='vertical-center'>$54<br>with a<br>50% chance</div></div><div class='respDivL'><div class='vertical-center'><font style='color:orange'>(E)</font></div></div><div class='respDivR'><div class='vertical-center'>(I)</div></div></div>","null","$25","$54","0","25","54",""
"html-keyboard-response","46","86861","0.0-5.0-1.14","5fb7c9fa2be0a83d8f8913b8","bdp_rd","Sat Mar 25 2023 16:08:55 GMT-0700 (PDT)","208776","","null","","","","FIX","","<div class='trialBorder'><div class='vertical-center'><img style='vertical-align:center; align:center' src=img/fixation3.jpg></div></div>","null","","","","","",""
"html-keyboard-response","47","88153","0.0-5.0-2.14","5fb7c9fa2be0a83d8f8913b8","bdp_rd","Sat Mar 25 2023 16:08:55 GMT-0700 (PDT)","208776","","1290","","","","offer","","<div class='trialBorder'><div class='vertical-center'><img style='vertical-align:center; align:center' src=img/fixation3.jpg></div><div class='cl'><div class='vertical-center'>$2<br>for<br>sure</div></div><div class='cr'><div class='vertical-center'>$64<br>with a<br>50% chance</div></div><div class='respDivL'><div class='vertical-center'>(E)</div></div><div class='respDivR'><div class='vertical-center'>(I)</div></div></div>","I","$2","$64","0","2","64","RISKY"
"html-keyboard-response","48","88405","0.0-5.0-3.14","5fb7c9fa2be0a83d8f8913b8","bdp_rd","Sat Mar 25 2023 16:08:55 GMT-0700 (PDT)","208776","","null","","","","offerFB","","<div class='trialBorder'><div class='vertical-center'><img style='vertical-align:center; align:center' src=img/fixation3.jpg></div><div class='cl'><div class='vertical-center'>$2<br>for<br>sure</div></div><div class='cr'><div class='vertical-center'><font style='color:orange'>$64<br>with a<br>50% chance</font></div></div><div class='respDivL'><div class='vertical-center'>(E)</div></div><div class='respDivR'><div class='vertical-center'><font style='color:orange'>(I)</font></div></div></div>","null","$2","$64","0","2","64",""
"html-keyboard-response","49","88906","0.0-5.0-1.15","5fb7c9fa2be0a83d8f8913b8","bdp_rd","Sat Mar 25 2023 16:08:55 GMT-0700 (PDT)","208776","","null","","","","FIX","","<div class='trialBorder'><div class='vertical-center'><img style='vertical-align:center; align:center' src=img/fixation3.jpg></div></div>","null","","","","","",""
"html-keyboard-response","50","90853","0.0-5.0-2.15","5fb7c9fa2be0a83d8f8913b8","bdp_rd","Sat Mar 25 2023 16:08:55 GMT-0700 (PDT)","208776","","1946","","","","offer","","<div class='trialBorder'><div class='vertical-center'><img style='vertical-align:center; align:center' src=img/fixation3.jpg></div><div class='cl'><div class='vertical-center'>$13<br>with a<br>50% chance</div></div><div class='cr'><div class='vertical-center'>$6<br>for<br>sure</div></div><div class='respDivL'><div class='vertical-center'>(E)</div></div><div class='respDivR'><div class='vertical-center'>(I)</div></div></div>","I","$6","$13","1","6","13","SURE"
"html-keyboard-response","51","91105","0.0-5.0-3.15","5fb7c9fa2be0a83d8f8913b8","bdp_rd","Sat Mar 25 2023 16:08:55 GMT-0700 (PDT)","208776","","null","","","","offerFB","","<div class='trialBorder'><div class='vertical-center'><img style='vertical-align:center; align:center' src=img/fixation3.jpg></div><div class='cl'><div class='vertical-center'>$13<br>with a<br>50% chance</div></div><div class='cr'><div class='vertical-center'><font style='color:orange'>$6<br>for<br>sure</font></div></div><div class='respDivL'><div class='vertical-center'>(E)</div></div><div class='respDivR'><div class='vertical-center'><font style='color:orange'>(I)</font></div></div></div>","null","$6","$13","1","6","13",""
"html-keyboard-response","52","91608","0.0-5.0-1.16","5fb7c9fa2be0a83d8f8913b8","bdp_rd","Sat Mar 25 2023 16:08:55 GMT-0700 (PDT)","208776","","null","","","","FIX","","<div class='trialBorder'><div class='vertical-center'><img style='vertical-align:center; align:center' src=img/fixation3.jpg></div></div>","null","","","","","",""
"html-keyboard-response","53","95344","0.0-5.0-2.16","5fb7c9fa2be0a83d8f8913b8","bdp_rd","Sat Mar 25 2023 16:08:55 GMT-0700 (PDT)","208776","","3735","","","","offer","","<div class='trialBorder'><div class='vertical-center'><img style='vertical-align:center; align:center' src=img/fixation3.jpg></div><div class='cl'><div class='vertical-center'>$39<br>for<br>sure</div></div><div class='cr'><div class='vertical-center'>$81<br>with a<br>50% chance</div></div><div class='respDivL'><div class='vertical-center'>(E)</div></div><div class='respDivR'><div class='vertical-center'>(I)</div></div></div>","E","$39","$81","0","39","81","SURE"
"html-keyboard-response","54","95596","0.0-5.0-3.16","5fb7c9fa2be0a83d8f8913b8","bdp_rd","Sat Mar 25 2023 16:08:55 GMT-0700 (PDT)","208776","","null","","","","offerFB","","<div class='trialBorder'><div class='vertical-center'><img style='vertical-align:center; align:center' src=img/fixation3.jpg></div><div class='cl'><div class='vertical-center'><font style='color:orange'>$39<br>for<br>sure</font></div></div><div class='cr'><div class='vertical-center'>$81<br>with a<br>50% chance</div></div><div class='respDivL'><div class='vertical-center'><font style='color:orange'>(E)</font></div></div><div class='respDivR'><div class='vertical-center'>(I)</div></div></div>","null","$39","$81","0","39","81",""
"html-keyboard-response","55","96098","0.0-5.0-1.17","5fb7c9fa2be0a83d8f8913b8","bdp_rd","Sat Mar 25 2023 16:08:55 GMT-0700 (PDT)","208776","","null","","","","FIX","","<div class='trialBorder'><div class='vertical-center'><img style='vertical-align:center; align:center' src=img/fixation3.jpg></div></div>","null","","","","","",""
"html-keyboard-response","56","97880","0.0-5.0-2.17","5fb7c9fa2be0a83d8f8913b8","bdp_rd","Sat Mar 25 2023 16:08:55 GMT-0700 (PDT)","208776","","1781","","","","offer","","<div class='trialBorder'><div class='vertical-center'><img style='vertical-align:center; align:center' src=img/fixation3.jpg></div><div class='cl'><div class='vertical-center'>$18<br>for<br>sure</div></div><div class='cr'><div class='vertical-center'>$36<br>with a<br>50% chance</div></div><div class='respDivL'><div class='vertical-center'>(E)</div></div><div class='respDivR'><div class='vertical-center'>(I)</div></div></div>","E","$18","$36","0","18","36","SURE"
"html-keyboard-response","57","98133","0.0-5.0-3.17","5fb7c9fa2be0a83d8f8913b8","bdp_rd","Sat Mar 25 2023 16:08:55 GMT-0700 (PDT)","208776","","null","","","","offerFB","","<div class='trialBorder'><div class='vertical-center'><img style='vertical-align:center; align:center' src=img/fixation3.jpg></div><div class='cl'><div class='vertical-center'><font style='color:orange'>$18<br>for<br>sure</font></div></div><div class='cr'><div class='vertical-center'>$36<br>with a<br>50% chance</div></div><div class='respDivL'><div class='vertical-center'><font style='color:orange'>(E)</font></div></div><div class='respDivR'><div class='vertical-center'>(I)</div></div></div>","null","$18","$36","0","18","36",""
"html-keyboard-response","58","98635","0.0-5.0-1.18","5fb7c9fa2be0a83d8f8913b8","bdp_rd","Sat Mar 25 2023 16:08:55 GMT-0700 (PDT)","208776","","null","","","","FIX","","<div class='trialBorder'><div class='vertical-center'><img style='vertical-align:center; align:center' src=img/fixation3.jpg></div></div>","null","","","","","",""
"html-keyboard-response","59","100902","0.0-5.0-2.18","5fb7c9fa2be0a83d8f8913b8","bdp_rd","Sat Mar 25 2023 16:08:55 GMT-0700 (PDT)","208776","","2266","","","","offer","","<div class='trialBorder'><div class='vertical-center'><img style='vertical-align:center; align:center' src=img/fixation3.jpg></div><div class='cl'><div class='vertical-center'>$12<br>with a<br>50% chance</div></div><div class='cr'><div class='vertical-center'>$3<br>for<br>sure</div></div><div class='respDivL'><div class='vertical-center'>(E)</div></div><div class='respDivR'><div class='vertical-center'>(I)</div></div></div>","E","$3","$12","1","3","12","RISKY"
"html-keyboard-response","60","101154","0.0-5.0-3.18","5fb7c9fa2be0a83d8f8913b8","bdp_rd","Sat Mar 25 2023 16:08:55 GMT-0700 (PDT)","208776","","null","","","","offerFB","","<div class='trialBorder'><div class='vertical-center'><img style='vertical-align:center; align:center' src=img/fixation3.jpg></div><div class='cl'><div class='vertical-center'><font style='color:orange'>$12<br>with a<br>50% chance</font></div></div><div class='cr'><div class='vertical-center'>$3<br>for<br>sure</div></div><div class='respDivL'><div class='vertical-center'><font style='color:orange'>(E)</font></div></div><div class='respDivR'><div class='vertical-center'>(I)</div></div></div>","null","$3","$12","1","3","12",""
"html-keyboard-response","61","101656","0.0-5.0-1.19","5fb7c9fa2be0a83d8f8913b8","bdp_rd","Sat Mar 25 2023 16:08:55 GMT-0700 (PDT)","208776","","null","","","","FIX","","<div class='trialBorder'><div class='vertical-center'><img style='vertical-align:center; align:center' src=img/fixation3.jpg></div></div>","null","","","","","",""
"html-keyboard-response","62","103642","0.0-5.0-2.19","5fb7c9fa2be0a83d8f8913b8","bdp_rd","Sat Mar 25 2023 16:08:55 GMT-0700 (PDT)","208776","","1984","","","","offer","","<div class='trialBorder'><div class='vertical-center'><img style='vertical-align:center; align:center' src=img/fixation3.jpg></div><div class='cl'><div class='vertical-center'>$37<br>with a<br>50% chance</div></div><div class='cr'><div class='vertical-center'>$20<br>for<br>sure</div></div><div class='respDivL'><div class='vertical-center'>(E)</div></div><div class='respDivR'><div class='vertical-center'>(I)</div></div></div>","I","$20","$37","1","20","37","SURE"
"html-keyboard-response","63","103894","0.0-5.0-3.19","5fb7c9fa2be0a83d8f8913b8","bdp_rd","Sat Mar 25 2023 16:08:55 GMT-0700 (PDT)","208776","","null","","","","offerFB","","<div class='trialBorder'><div class='vertical-center'><img style='vertical-align:center; align:center' src=img/fixation3.jpg></div><div class='cl'><div class='vertical-center'>$37<br>with a<br>50% chance</div></div><div class='cr'><div class='vertical-center'><font style='color:orange'>$20<br>for<br>sure</font></div></div><div class='respDivL'><div class='vertical-center'>(E)</div></div><div class='respDivR'><div class='vertical-center'><font style='color:orange'>(I)</font></div></div></div>","null","$20","$37","1","20","37",""
"html-keyboard-response","64","104396","0.0-5.0-1.20","5fb7c9fa2be0a83d8f8913b8","bdp_rd","Sat Mar 25 2023 16:08:55 GMT-0700 (PDT)","208776","","null","","","","FIX","","<div class='trialBorder'><div class='vertical-center'><img style='vertical-align:center; align:center' src=img/fixation3.jpg></div></div>","null","","","","","",""
"html-keyboard-response","65","105821","0.0-5.0-2.20","5fb7c9fa2be0a83d8f8913b8","bdp_rd","Sat Mar 25 2023 16:08:55 GMT-0700 (PDT)","208776","","1423","","","","offer","","<div class='trialBorder'><div class='vertical-center'><img style='vertical-align:center; align:center' src=img/fixation3.jpg></div><div class='cl'><div class='vertical-center'>$16<br>for<br>sure</div></div><div class='cr'><div class='vertical-center'>$28<br>with a<br>50% chance</div></div><div class='respDivL'><div class='vertical-center'>(E)</div></div><div class='respDivR'><div class='vertical-center'>(I)</div></div></div>","E","$16","$28","0","16","28","SURE"
"html-keyboard-response","66","106073","0.0-5.0-3.20","5fb7c9fa2be0a83d8f8913b8","bdp_rd","Sat Mar 25 2023 16:08:55 GMT-0700 (PDT)","208776","","null","","","","offerFB","","<div class='trialBorder'><div class='vertical-center'><img style='vertical-align:center; align:center' src=img/fixation3.jpg></div><div class='cl'><div class='vertical-center'><font style='color:orange'>$16<br>for<br>sure</font></div></div><div class='cr'><div class='vertical-center'>$28<br>with a<br>50% chance</div></div><div class='respDivL'><div class='vertical-center'><font style='color:orange'>(E)</font></div></div><div class='respDivR'><div class='vertical-center'>(I)</div></div></div>","null","$16","$28","0","16","28",""
"html-keyboard-response","67","106575","0.0-5.0-1.21","5fb7c9fa2be0a83d8f8913b8","bdp_rd","Sat Mar 25 2023 16:08:55 GMT-0700 (PDT)","208776","","null","","","","FIX","","<div class='trialBorder'><div class='vertical-center'><img style='vertical-align:center; align:center' src=img/fixation3.jpg></div></div>","null","","","","","",""
"html-keyboard-response","68","111522","0.0-5.0-2.21","5fb7c9fa2be0a83d8f8913b8","bdp_rd","Sat Mar 25 2023 16:08:55 GMT-0700 (PDT)","208776","","4945","","","","offer","","<div class='trialBorder'><div class='vertical-center'><img style='vertical-align:center; align:center' src=img/fixation3.jpg></div><div class='cl'><div class='vertical-center'>$62<br>with a<br>50% chance</div></div><div class='cr'><div class='vertical-center'>$11<br>for<br>sure</div></div><div class='respDivL'><div class='vertical-center'>(E)</div></div><div class='respDivR'><div class='vertical-center'>(I)</div></div></div>","E","$11","$62","1","11","62","RISKY"
"html-keyboard-response","69","111774","0.0-5.0-3.21","5fb7c9fa2be0a83d8f8913b8","bdp_rd","Sat Mar 25 2023 16:08:55 GMT-0700 (PDT)","208776","","null","","","","offerFB","","<div class='trialBorder'><div class='vertical-center'><img style='vertical-align:center; align:center' src=img/fixation3.jpg></div><div class='cl'><div class='vertical-center'><font style='color:orange'>$62<br>with a<br>50% chance</font></div></div><div class='cr'><div class='vertical-center'>$11<br>for<br>sure</div></div><div class='respDivL'><div class='vertical-center'><font style='color:orange'>(E)</font></div></div><div class='respDivR'><div class='vertical-center'>(I)</div></div></div>","null","$11","$62","1","11","62",""
"html-keyboard-response","70","112276","0.0-5.0-1.22","5fb7c9fa2be0a83d8f8913b8","bdp_rd","Sat Mar 25 2023 16:08:55 GMT-0700 (PDT)","208776","","null","","","","FIX","","<div class='trialBorder'><div class='vertical-center'><img style='vertical-align:center; align:center' src=img/fixation3.jpg></div></div>","null","","","","","",""
"html-keyboard-response","71","113576","0.0-5.0-2.22","5fb7c9fa2be0a83d8f8913b8","bdp_rd","Sat Mar 25 2023 16:08:55 GMT-0700 (PDT)","208776","","1299","","","","offer","","<div class='trialBorder'><div class='vertical-center'><img style='vertical-align:center; align:center' src=img/fixation3.jpg></div><div class='cl'><div class='vertical-center'>$30<br>for<br>sure</div></div><div class='cr'><div class='vertical-center'>$68<br>with a<br>50% chance</div></div><div class='respDivL'><div class='vertical-center'>(E)</div></div><div class='respDivR'><div class='vertical-center'>(I)</div></div></div>","E","$30","$68","0","30","68","SURE"
"html-keyboard-response","72","113828","0.0-5.0-3.22","5fb7c9fa2be0a83d8f8913b8","bdp_rd","Sat Mar 25 2023 16:08:55 GMT-0700 (PDT)","208776","","null","","","","offerFB","","<div class='trialBorder'><div class='vertical-center'><img style='vertical-align:center; align:center' src=img/fixation3.jpg></div><div class='cl'><div class='vertical-center'><font style='color:orange'>$30<br>for<br>sure</font></div></div><div class='cr'><div class='vertical-center'>$68<br>with a<br>50% chance</div></div><div class='respDivL'><div class='vertical-center'><font style='color:orange'>(E)</font></div></div><div class='respDivR'><div class='vertical-center'>(I)</div></div></div>","null","$30","$68","0","30","68",""
"html-keyboard-response","73","114329","0.0-5.0-1.23","5fb7c9fa2be0a83d8f8913b8","bdp_rd","Sat Mar 25 2023 16:08:55 GMT-0700 (PDT)","208776","","null","","","","FIX","","<div class='trialBorder'><div class='vertical-center'><img style='vertical-align:center; align:center' src=img/fixation3.jpg></div></div>","null","","","","","",""
"html-keyboard-response","74","115847","0.0-5.0-2.23","5fb7c9fa2be0a83d8f8913b8","bdp_rd","Sat Mar 25 2023 16:08:55 GMT-0700 (PDT)","208776","","1517","","","","offer","","<div class='trialBorder'><div class='vertical-center'><img style='vertical-align:center; align:center' src=img/fixation3.jpg></div><div class='cl'><div class='vertical-center'>$45<br>with a<br>50% chance</div></div><div class='cr'><div class='vertical-center'>$8<br>for<br>sure</div></div><div class='respDivL'><div class='vertical-center'>(E)</div></div><div class='respDivR'><div class='vertical-center'>(I)</div></div></div>","E","$8","$45","1","8","45","RISKY"
"html-keyboard-response","75","116100","0.0-5.0-3.23","5fb7c9fa2be0a83d8f8913b8","bdp_rd","Sat Mar 25 2023 16:08:55 GMT-0700 (PDT)","208776","","null","","","","offerFB","","<div class='trialBorder'><div class='vertical-center'><img style='vertical-align:center; align:center' src=img/fixation3.jpg></div><div class='cl'><div class='vertical-center'><font style='color:orange'>$45<br>with a<br>50% chance</font></div></div><div class='cr'><div class='vertical-center'>$8<br>for<br>sure</div></div><div class='respDivL'><div class='vertical-center'><font style='color:orange'>(E)</font></div></div><div class='respDivR'><div class='vertical-center'>(I)</div></div></div>","null","$8","$45","1","8","45",""
"html-keyboard-response","76","116602","0.0-5.0-1.24","5fb7c9fa2be0a83d8f8913b8","bdp_rd","Sat Mar 25 2023 16:08:55 GMT-0700 (PDT)","208776","","null","","","","FIX","","<div class='trialBorder'><div class='vertical-center'><img style='vertical-align:center; align:center' src=img/fixation3.jpg></div></div>","null","","","","","",""
"html-keyboard-response","77","120249","0.0-5.0-2.24","5fb7c9fa2be0a83d8f8913b8","bdp_rd","Sat Mar 25 2023 16:08:55 GMT-0700 (PDT)","208776","","3646","","","","offer","","<div class='trialBorder'><div class='vertical-center'><img style='vertical-align:center; align:center' src=img/fixation3.jpg></div><div class='cl'><div class='vertical-center'>$26<br>for<br>sure</div></div><div class='cr'><div class='vertical-center'>$92<br>with a<br>50% chance</div></div><div class='respDivL'><div class='vertical-center'>(E)</div></div><div class='respDivR'><div class='vertical-center'>(I)</div></div></div>","I","$26","$92","0","26","92","RISKY"
"html-keyboard-response","78","120502","0.0-5.0-3.24","5fb7c9fa2be0a83d8f8913b8","bdp_rd","Sat Mar 25 2023 16:08:55 GMT-0700 (PDT)","208776","","null","","","","offerFB","","<div class='trialBorder'><div class='vertical-center'><img style='vertical-align:center; align:center' src=img/fixation3.jpg></div><div class='cl'><div class='vertical-center'>$26<br>for<br>sure</div></div><div class='cr'><div class='vertical-center'><font style='color:orange'>$92<br>with a<br>50% chance</font></div></div><div class='respDivL'><div class='vertical-center'>(E)</div></div><div class='respDivR'><div class='vertical-center'><font style='color:orange'>(I)</font></div></div></div>","null","$26","$92","0","26","92",""
"html-keyboard-response","79","121003","0.0-5.0-1.25","5fb7c9fa2be0a83d8f8913b8","bdp_rd","Sat Mar 25 2023 16:08:55 GMT-0700 (PDT)","208776","","null","","","","FIX","","<div class='trialBorder'><div class='vertical-center'><img style='vertical-align:center; align:center' src=img/fixation3.jpg></div></div>","null","","","","","",""
"html-keyboard-response","80","122432","0.0-5.0-2.25","5fb7c9fa2be0a83d8f8913b8","bdp_rd","Sat Mar 25 2023 16:08:55 GMT-0700 (PDT)","208776","","1427","","","","offer","","<div class='trialBorder'><div class='vertical-center'><img style='vertical-align:center; align:center' src=img/fixation3.jpg></div><div class='cl'><div class='vertical-center'>$19<br>for<br>sure</div></div><div class='cr'><div class='vertical-center'>$51<br>with a<br>50% chance</div></div><div class='respDivL'><div class='vertical-center'>(E)</div></div><div class='respDivR'><div class='vertical-center'>(I)</div></div></div>","E","$19","$51","0","19","51","SURE"
"html-keyboard-response","81","122684","0.0-5.0-3.25","5fb7c9fa2be0a83d8f8913b8","bdp_rd","Sat Mar 25 2023 16:08:55 GMT-0700 (PDT)","208776","","null","","","","offerFB","","<div class='trialBorder'><div class='vertical-center'><img style='vertical-align:center; align:center' src=img/fixation3.jpg></div><div class='cl'><div class='vertical-center'><font style='color:orange'>$19<br>for<br>sure</font></div></div><div class='cr'><div class='vertical-center'>$51<br>with a<br>50% chance</div></div><div class='respDivL'><div class='vertical-center'><font style='color:orange'>(E)</font></div></div><div class='respDivR'><div class='vertical-center'>(I)</div></div></div>","null","$19","$51","0","19","51",""
"html-keyboard-response","82","123186","0.0-5.0-1.26","5fb7c9fa2be0a83d8f8913b8","bdp_rd","Sat Mar 25 2023 16:08:55 GMT-0700 (PDT)","208776","","null","","","","FIX","","<div class='trialBorder'><div class='vertical-center'><img style='vertical-align:center; align:center' src=img/fixation3.jpg></div></div>","null","","","","","",""
"html-keyboard-response","83","125172","0.0-5.0-2.26","5fb7c9fa2be0a83d8f8913b8","bdp_rd","Sat Mar 25 2023 16:08:55 GMT-0700 (PDT)","208776","","1985","","","","offer","","<div class='trialBorder'><div class='vertical-center'><img style='vertical-align:center; align:center' src=img/fixation3.jpg></div><div class='cl'><div class='vertical-center'>$70<br>with a<br>50% chance</div></div><div class='cr'><div class='vertical-center'>$24<br>for<br>sure</div></div><div class='respDivL'><div class='vertical-center'>(E)</div></div><div class='respDivR'><div class='vertical-center'>(I)</div></div></div>","I","$24","$70","1","24","70","SURE"
"html-keyboard-response","84","125424","0.0-5.0-3.26","5fb7c9fa2be0a83d8f8913b8","bdp_rd","Sat Mar 25 2023 16:08:55 GMT-0700 (PDT)","208776","","null","","","","offerFB","","<div class='trialBorder'><div class='vertical-center'><img style='vertical-align:center; align:center' src=img/fixation3.jpg></div><div class='cl'><div class='vertical-center'>$70<br>with a<br>50% chance</div></div><div class='cr'><div class='vertical-center'><font style='color:orange'>$24<br>for<br>sure</font></div></div><div class='respDivL'><div class='vertical-center'>(E)</div></div><div class='respDivR'><div class='vertical-center'><font style='color:orange'>(I)</font></div></div></div>","null","$24","$70","1","24","70",""
"html-keyboard-response","85","125927","0.0-5.0-1.27","5fb7c9fa2be0a83d8f8913b8","bdp_rd","Sat Mar 25 2023 16:08:55 GMT-0700 (PDT)","208776","","null","","","","FIX","","<div class='trialBorder'><div class='vertical-center'><img style='vertical-align:center; align:center' src=img/fixation3.jpg></div></div>","null","","","","","",""
"html-keyboard-response","86","126997","0.0-5.0-2.27","5fb7c9fa2be0a83d8f8913b8","bdp_rd","Sat Mar 25 2023 16:08:55 GMT-0700 (PDT)","208776","","1068","","","","offer","","<div class='trialBorder'><div class='vertical-center'><img style='vertical-align:center; align:center' src=img/fixation3.jpg></div><div class='cl'><div class='vertical-center'>$1<br>for<br>sure</div></div><div class='cr'><div class='vertical-center'>$30<br>with a<br>50% chance</div></div><div class='respDivL'><div class='vertical-center'>(E)</div></div><div class='respDivR'><div class='vertical-center'>(I)</div></div></div>","I","$1","$30","0","1","30","RISKY"
"html-keyboard-response","87","127250","0.0-5.0-3.27","5fb7c9fa2be0a83d8f8913b8","bdp_rd","Sat Mar 25 2023 16:08:55 GMT-0700 (PDT)","208776","","null","","","","offerFB","","<div class='trialBorder'><div class='vertical-center'><img style='vertical-align:center; align:center' src=img/fixation3.jpg></div><div class='cl'><div class='vertical-center'>$1<br>for<br>sure</div></div><div class='cr'><div class='vertical-center'><font style='color:orange'>$30<br>with a<br>50% chance</font></div></div><div class='respDivL'><div class='vertical-center'>(E)</div></div><div class='respDivR'><div class='vertical-center'><font style='color:orange'>(I)</font></div></div></div>","null","$1","$30","0","1","30",""
"html-keyboard-response","88","127752","0.0-5.0-1.28","5fb7c9fa2be0a83d8f8913b8","bdp_rd","Sat Mar 25 2023 16:08:55 GMT-0700 (PDT)","208776","","null","","","","FIX","","<div class='trialBorder'><div class='vertical-center'><img style='vertical-align:center; align:center' src=img/fixation3.jpg></div></div>","null","","","","","",""
"html-keyboard-response","89","131106","0.0-5.0-2.28","5fb7c9fa2be0a83d8f8913b8","bdp_rd","Sat Mar 25 2023 16:08:55 GMT-0700 (PDT)","208776","","3353","","","","offer","","<div class='trialBorder'><div class='vertical-center'><img style='vertical-align:center; align:center' src=img/fixation3.jpg></div><div class='cl'><div class='vertical-center'>$9<br>for<br>sure</div></div><div class='cr'><div class='vertical-center'>$18<br>with a<br>50% chance</div></div><div class='respDivL'><div class='vertical-center'>(E)</div></div><div class='respDivR'><div class='vertical-center'>(I)</div></div></div>","E","$9","$18","0","9","18","SURE"
"html-keyboard-response","90","131359","0.0-5.0-3.28","5fb7c9fa2be0a83d8f8913b8","bdp_rd","Sat Mar 25 2023 16:08:55 GMT-0700 (PDT)","208776","","null","","","","offerFB","","<div class='trialBorder'><div class='vertical-center'><img style='vertical-align:center; align:center' src=img/fixation3.jpg></div><div class='cl'><div class='vertical-center'><font style='color:orange'>$9<br>for<br>sure</font></div></div><div class='cr'><div class='vertical-center'>$18<br>with a<br>50% chance</div></div><div class='respDivL'><div class='vertical-center'><font style='color:orange'>(E)</font></div></div><div class='respDivR'><div class='vertical-center'>(I)</div></div></div>","null","$9","$18","0","9","18",""
"html-keyboard-response","91","131861","0.0-5.0-1.29","5fb7c9fa2be0a83d8f8913b8","bdp_rd","Sat Mar 25 2023 16:08:55 GMT-0700 (PDT)","208776","","null","","","","FIX","","<div class='trialBorder'><div class='vertical-center'><img style='vertical-align:center; align:center' src=img/fixation3.jpg></div></div>","null","","","","","",""
"html-keyboard-response","92","134665","0.0-5.0-2.29","5fb7c9fa2be0a83d8f8913b8","bdp_rd","Sat Mar 25 2023 16:08:55 GMT-0700 (PDT)","208776","","2803","","","","offer","","<div class='trialBorder'><div class='vertical-center'><img style='vertical-align:center; align:center' src=img/fixation3.jpg></div><div class='cl'><div class='vertical-center'>$43<br>with a<br>50% chance</div></div><div class='cr'><div class='vertical-center'>$17<br>for<br>sure</div></div><div class='respDivL'><div class='vertical-center'>(E)</div></div><div class='respDivR'><div class='vertical-center'>(I)</div></div></div>","I","$17","$43","1","17","43","SURE"
"html-keyboard-response","93","134918","0.0-5.0-3.29","5fb7c9fa2be0a83d8f8913b8","bdp_rd","Sat Mar 25 2023 16:08:55 GMT-0700 (PDT)","208776","","null","","","","offerFB","","<div class='trialBorder'><div class='vertical-center'><img style='vertical-align:center; align:center' src=img/fixation3.jpg></div><div class='cl'><div class='vertical-center'>$43<br>with a<br>50% chance</div></div><div class='cr'><div class='vertical-center'><font style='color:orange'>$17<br>for<br>sure</font></div></div><div class='respDivL'><div class='vertical-center'>(E)</div></div><div class='respDivR'><div class='vertical-center'><font style='color:orange'>(I)</font></div></div></div>","null","$17","$43","1","17","43",""
"html-keyboard-response","94","135419","0.0-5.0-1.30","5fb7c9fa2be0a83d8f8913b8","bdp_rd","Sat Mar 25 2023 16:08:55 GMT-0700 (PDT)","208776","","null","","","","FIX","","<div class='trialBorder'><div class='vertical-center'><img style='vertical-align:center; align:center' src=img/fixation3.jpg></div></div>","null","","","","","",""
"html-keyboard-response","95","136799","0.0-5.0-2.30","5fb7c9fa2be0a83d8f8913b8","bdp_rd","Sat Mar 25 2023 16:08:55 GMT-0700 (PDT)","208776","","1379","","","","offer","","<div class='trialBorder'><div class='vertical-center'><img style='vertical-align:center; align:center' src=img/fixation3.jpg></div><div class='cl'><div class='vertical-center'>$14<br>for<br>sure</div></div><div class='cr'><div class='vertical-center'>$29<br>with a<br>50% chance</div></div><div class='respDivL'><div class='vertical-center'>(E)</div></div><div class='respDivR'><div class='vertical-center'>(I)</div></div></div>","E","$14","$29","0","14","29","SURE"
"html-keyboard-response","96","137052","0.0-5.0-3.30","5fb7c9fa2be0a83d8f8913b8","bdp_rd","Sat Mar 25 2023 16:08:55 GMT-0700 (PDT)","208776","","null","","","","offerFB","","<div class='trialBorder'><div class='vertical-center'><img style='vertical-align:center; align:center' src=img/fixation3.jpg></div><div class='cl'><div class='vertical-center'><font style='color:orange'>$14<br>for<br>sure</font></div></div><div class='cr'><div class='vertical-center'>$29<br>with a<br>50% chance</div></div><div class='respDivL'><div class='vertical-center'><font style='color:orange'>(E)</font></div></div><div class='respDivR'><div class='vertical-center'>(I)</div></div></div>","null","$14","$29","0","14","29",""
"html-keyboard-response","97","137553","0.0-5.0-1.31","5fb7c9fa2be0a83d8f8913b8","bdp_rd","Sat Mar 25 2023 16:08:55 GMT-0700 (PDT)","208776","","null","","","","FIX","","<div class='trialBorder'><div class='vertical-center'><img style='vertical-align:center; align:center' src=img/fixation3.jpg></div></div>","null","","","","","",""
"html-keyboard-response","98","140014","0.0-5.0-2.31","5fb7c9fa2be0a83d8f8913b8","bdp_rd","Sat Mar 25 2023 16:08:55 GMT-0700 (PDT)","208776","","2460","","","","offer","","<div class='trialBorder'><div class='vertical-center'><img style='vertical-align:center; align:center' src=img/fixation3.jpg></div><div class='cl'><div class='vertical-center'>$14<br>with a<br>50% chance</div></div><div class='cr'><div class='vertical-center'>$4<br>for<br>sure</div></div><div class='respDivL'><div class='vertical-center'>(E)</div></div><div class='respDivR'><div class='vertical-center'>(I)</div></div></div>","E","$4","$14","1","4","14","RISKY"
"html-keyboard-response","99","140266","0.0-5.0-3.31","5fb7c9fa2be0a83d8f8913b8","bdp_rd","Sat Mar 25 2023 16:08:55 GMT-0700 (PDT)","208776","","null","","","","offerFB","","<div class='trialBorder'><div class='vertical-center'><img style='vertical-align:center; align:center' src=img/fixation3.jpg></div><div class='cl'><div class='vertical-center'><font style='color:orange'>$14<br>with a<br>50% chance</font></div></div><div class='cr'><div class='vertical-center'>$4<br>for<br>sure</div></div><div class='respDivL'><div class='vertical-center'><font style='color:orange'>(E)</font></div></div><div class='respDivR'><div class='vertical-center'>(I)</div></div></div>","null","$4","$14","1","4","14",""
"html-keyboard-response","100","140768","0.0-5.0-1.32","5fb7c9fa2be0a83d8f8913b8","bdp_rd","Sat Mar 25 2023 16:08:55 GMT-0700 (PDT)","208776","","null","","","","FIX","","<div class='trialBorder'><div class='vertical-center'><img style='vertical-align:center; align:center' src=img/fixation3.jpg></div></div>","null","","","","","",""
"html-keyboard-response","101","144087","0.0-5.0-2.32","5fb7c9fa2be0a83d8f8913b8","bdp_rd","Sat Mar 25 2023 16:08:55 GMT-0700 (PDT)","208776","","3318","","","","offer","","<div class='trialBorder'><div class='vertical-center'><img style='vertical-align:center; align:center' src=img/fixation3.jpg></div><div class='cl'><div class='vertical-center'>$73<br>with a<br>50% chance</div></div><div class='cr'><div class='vertical-center'>$42<br>for<br>sure</div></div><div class='respDivL'><div class='vertical-center'>(E)</div></div><div class='respDivR'><div class='vertical-center'>(I)</div></div></div>","I","$42","$73","1","42","73","SURE"
"html-keyboard-response","102","144340","0.0-5.0-3.32","5fb7c9fa2be0a83d8f8913b8","bdp_rd","Sat Mar 25 2023 16:08:55 GMT-0700 (PDT)","208776","","null","","","","offerFB","","<div class='trialBorder'><div class='vertical-center'><img style='vertical-align:center; align:center' src=img/fixation3.jpg></div><div class='cl'><div class='vertical-center'>$73<br>with a<br>50% chance</div></div><div class='cr'><div class='vertical-center'><font style='color:orange'>$42<br>for<br>sure</font></div></div><div class='respDivL'><div class='vertical-center'>(E)</div></div><div class='respDivR'><div class='vertical-center'><font style='color:orange'>(I)</font></div></div></div>","null","$42","$73","1","42","73",""
"html-keyboard-response","103","144842","0.0-5.0-1.33","5fb7c9fa2be0a83d8f8913b8","bdp_rd","Sat Mar 25 2023 16:08:55 GMT-0700 (PDT)","208776","","null","","","","FIX","","<div class='trialBorder'><div class='vertical-center'><img style='vertical-align:center; align:center' src=img/fixation3.jpg></div></div>","null","","","","","",""
"html-keyboard-response","104","146096","0.0-5.0-2.33","5fb7c9fa2be0a83d8f8913b8","bdp_rd","Sat Mar 25 2023 16:08:55 GMT-0700 (PDT)","208776","","1253","","","","offer","","<div class='trialBorder'><div class='vertical-center'><img style='vertical-align:center; align:center' src=img/fixation3.jpg></div><div class='cl'><div class='vertical-center'>$37<br>for<br>sure</div></div><div class='cr'><div class='vertical-center'>$44<br>with a<br>50% chance</div></div><div class='respDivL'><div class='vertical-center'>(E)</div></div><div class='respDivR'><div class='vertical-center'>(I)</div></div></div>","E","$37","$44","0","37","44","SURE"
"html-keyboard-response","105","146348","0.0-5.0-3.33","5fb7c9fa2be0a83d8f8913b8","bdp_rd","Sat Mar 25 2023 16:08:55 GMT-0700 (PDT)","208776","","null","","","","offerFB","","<div class='trialBorder'><div class='vertical-center'><img style='vertical-align:center; align:center' src=img/fixation3.jpg></div><div class='cl'><div class='vertical-center'><font style='color:orange'>$37<br>for<br>sure</font></div></div><div class='cr'><div class='vertical-center'>$44<br>with a<br>50% chance</div></div><div class='respDivL'><div class='vertical-center'><font style='color:orange'>(E)</font></div></div><div class='respDivR'><div class='vertical-center'>(I)</div></div></div>","null","$37","$44","0","37","44",""
"html-keyboard-response","106","146849","0.0-5.0-1.34","5fb7c9fa2be0a83d8f8913b8","bdp_rd","Sat Mar 25 2023 16:08:55 GMT-0700 (PDT)","208776","","null","","","","FIX","","<div class='trialBorder'><div class='vertical-center'><img style='vertical-align:center; align:center' src=img/fixation3.jpg></div></div>","null","","","","","",""
"html-keyboard-response","107","149050","0.0-5.0-2.34","5fb7c9fa2be0a83d8f8913b8","bdp_rd","Sat Mar 25 2023 16:08:55 GMT-0700 (PDT)","208776","","2199","","","","offer","","<div class='trialBorder'><div class='vertical-center'><img style='vertical-align:center; align:center' src=img/fixation3.jpg></div><div class='cl'><div class='vertical-center'>$26<br>with a<br>50% chance</div></div><div class='cr'><div class='vertical-center'>$11<br>for<br>sure</div></div><div class='respDivL'><div class='vertical-center'>(E)</div></div><div class='respDivR'><div class='vertical-center'>(I)</div></div></div>","I","$11","$26","1","11","26","SURE"
"html-keyboard-response","108","149303","0.0-5.0-3.34","5fb7c9fa2be0a83d8f8913b8","bdp_rd","Sat Mar 25 2023 16:08:55 GMT-0700 (PDT)","208776","","null","","","","offerFB","","<div class='trialBorder'><div class='vertical-center'><img style='vertical-align:center; align:center' src=img/fixation3.jpg></div><div class='cl'><div class='vertical-center'>$26<br>with a<br>50% chance</div></div><div class='cr'><div class='vertical-center'><font style='color:orange'>$11<br>for<br>sure</font></div></div><div class='respDivL'><div class='vertical-center'>(E)</div></div><div class='respDivR'><div class='vertical-center'><font style='color:orange'>(I)</font></div></div></div>","null","$11","$26","1","11","26",""
"html-keyboard-response","109","149805","0.0-5.0-1.35","5fb7c9fa2be0a83d8f8913b8","bdp_rd","Sat Mar 25 2023 16:08:55 GMT-0700 (PDT)","208776","","null","","","","FIX","","<div class='trialBorder'><div class='vertical-center'><img style='vertical-align:center; align:center' src=img/fixation3.jpg></div></div>","null","","","","","",""
"html-keyboard-response","110","151310","0.0-5.0-2.35","5fb7c9fa2be0a83d8f8913b8","bdp_rd","Sat Mar 25 2023 16:08:55 GMT-0700 (PDT)","208776","","1503","","","","offer","","<div class='trialBorder'><div class='vertical-center'><img style='vertical-align:center; align:center' src=img/fixation3.jpg></div><div class='cl'><div class='vertical-center'>$27<br>with a<br>50% chance</div></div><div class='cr'><div class='vertical-center'>$12<br>for<br>sure</div></div><div class='respDivL'><div class='vertical-center'>(E)</div></div><div class='respDivR'><div class='vertical-center'>(I)</div></div></div>","I","$12","$27","1","12","27","SURE"
"html-keyboard-response","111","151562","0.0-5.0-3.35","5fb7c9fa2be0a83d8f8913b8","bdp_rd","Sat Mar 25 2023 16:08:55 GMT-0700 (PDT)","208776","","null","","","","offerFB","","<div class='trialBorder'><div class='vertical-center'><img style='vertical-align:center; align:center' src=img/fixation3.jpg></div><div class='cl'><div class='vertical-center'>$27<br>with a<br>50% chance</div></div><div class='cr'><div class='vertical-center'><font style='color:orange'>$12<br>for<br>sure</font></div></div><div class='respDivL'><div class='vertical-center'>(E)</div></div><div class='respDivR'><div class='vertical-center'><font style='color:orange'>(I)</font></div></div></div>","null","$12","$27","1","12","27",""
"html-keyboard-response","112","152064","0.0-5.0-1.36","5fb7c9fa2be0a83d8f8913b8","bdp_rd","Sat Mar 25 2023 16:08:55 GMT-0700 (PDT)","208776","","null","","","","FIX","","<div class='trialBorder'><div class='vertical-center'><img style='vertical-align:center; align:center' src=img/fixation3.jpg></div></div>","null","","","","","",""
"html-keyboard-response","113","154446","0.0-5.0-2.36","5fb7c9fa2be0a83d8f8913b8","bdp_rd","Sat Mar 25 2023 16:08:55 GMT-0700 (PDT)","208776","","2381","","","","offer","","<div class='trialBorder'><div class='vertical-center'><img style='vertical-align:center; align:center' src=img/fixation3.jpg></div><div class='cl'><div class='vertical-center'>$8<br>for<br>sure</div></div><div class='cr'><div class='vertical-center'>$23<br>with a<br>50% chance</div></div><div class='respDivL'><div class='vertical-center'>(E)</div></div><div class='respDivR'><div class='vertical-center'>(I)</div></div></div>","I","$8","$23","0","8","23","RISKY"
"html-keyboard-response","114","154699","0.0-5.0-3.36","5fb7c9fa2be0a83d8f8913b8","bdp_rd","Sat Mar 25 2023 16:08:55 GMT-0700 (PDT)","208776","","null","","","","offerFB","","<div class='trialBorder'><div class='vertical-center'><img style='vertical-align:center; align:center' src=img/fixation3.jpg></div><div class='cl'><div class='vertical-center'>$8<br>for<br>sure</div></div><div class='cr'><div class='vertical-center'><font style='color:orange'>$23<br>with a<br>50% chance</font></div></div><div class='respDivL'><div class='vertical-center'>(E)</div></div><div class='respDivR'><div class='vertical-center'><font style='color:orange'>(I)</font></div></div></div>","null","$8","$23","0","8","23",""
"html-keyboard-response","115","155201","0.0-5.0-1.37","5fb7c9fa2be0a83d8f8913b8","bdp_rd","Sat Mar 25 2023 16:08:55 GMT-0700 (PDT)","208776","","null","","","","FIX","","<div class='trialBorder'><div class='vertical-center'><img style='vertical-align:center; align:center' src=img/fixation3.jpg></div></div>","null","","","","","",""
"html-keyboard-response","116","157019","0.0-5.0-2.37","5fb7c9fa2be0a83d8f8913b8","bdp_rd","Sat Mar 25 2023 16:08:55 GMT-0700 (PDT)","208776","","1816","","","","offer","","<div class='trialBorder'><div class='vertical-center'><img style='vertical-align:center; align:center' src=img/fixation3.jpg></div><div class='cl'><div class='vertical-center'>$95<br>with a<br>50% chance</div></div><div class='cr'><div class='vertical-center'>$40<br>for<br>sure</div></div><div class='respDivL'><div class='vertical-center'>(E)</div></div><div class='respDivR'><div class='vertical-center'>(I)</div></div></div>","I","$40","$95","1","40","95","SURE"
"html-keyboard-response","117","157271","0.0-5.0-3.37","5fb7c9fa2be0a83d8f8913b8","bdp_rd","Sat Mar 25 2023 16:08:55 GMT-0700 (PDT)","208776","","null","","","","offerFB","","<div class='trialBorder'><div class='vertical-center'><img style='vertical-align:center; align:center' src=img/fixation3.jpg></div><div class='cl'><div class='vertical-center'>$95<br>with a<br>50% chance</div></div><div class='cr'><div class='vertical-center'><font style='color:orange'>$40<br>for<br>sure</font></div></div><div class='respDivL'><div class='vertical-center'>(E)</div></div><div class='respDivR'><div class='vertical-center'><font style='color:orange'>(I)</font></div></div></div>","null","$40","$95","1","40","95",""
"html-keyboard-response","118","157773","0.0-5.0-1.38","5fb7c9fa2be0a83d8f8913b8","bdp_rd","Sat Mar 25 2023 16:08:55 GMT-0700 (PDT)","208776","","null","","","","FIX","","<div class='trialBorder'><div class='vertical-center'><img style='vertical-align:center; align:center' src=img/fixation3.jpg></div></div>","null","","","","","",""
"html-keyboard-response","119","159027","0.0-5.0-2.38","5fb7c9fa2be0a83d8f8913b8","bdp_rd","Sat Mar 25 2023 16:08:55 GMT-0700 (PDT)","208776","","1252","","","","offer","","<div class='trialBorder'><div class='vertical-center'><img style='vertical-align:center; align:center' src=img/fixation3.jpg></div><div class='cl'><div class='vertical-center'>$47<br>with a<br>50% chance</div></div><div class='cr'><div class='vertical-center'>$27<br>for<br>sure</div></div><div class='respDivL'><div class='vertical-center'>(E)</div></div><div class='respDivR'><div class='vertical-center'>(I)</div></div></div>","I","$27","$47","1","27","47","SURE"
"html-keyboard-response","120","159279","0.0-5.0-3.38","5fb7c9fa2be0a83d8f8913b8","bdp_rd","Sat Mar 25 2023 16:08:55 GMT-0700 (PDT)","208776","","null","","","","offerFB","","<div class='trialBorder'><div class='vertical-center'><img style='vertical-align:center; align:center' src=img/fixation3.jpg></div><div class='cl'><div class='vertical-center'>$47<br>with a<br>50% chance</div></div><div class='cr'><div class='vertical-center'><font style='color:orange'>$27<br>for<br>sure</font></div></div><div class='respDivL'><div class='vertical-center'>(E)</div></div><div class='respDivR'><div class='vertical-center'><font style='color:orange'>(I)</font></div></div></div>","null","$27","$47","1","27","47",""
"html-keyboard-response","121","159781","0.0-5.0-1.39","5fb7c9fa2be0a83d8f8913b8","bdp_rd","Sat Mar 25 2023 16:08:55 GMT-0700 (PDT)","208776","","null","","","","FIX","","<div class='trialBorder'><div class='vertical-center'><img style='vertical-align:center; align:center' src=img/fixation3.jpg></div></div>","null","","","","","",""
"html-keyboard-response","122","160780","0.0-5.0-2.39","5fb7c9fa2be0a83d8f8913b8","bdp_rd","Sat Mar 25 2023 16:08:55 GMT-0700 (PDT)","208776","","998","","","","offer","","<div class='trialBorder'><div class='vertical-center'><img style='vertical-align:center; align:center' src=img/fixation3.jpg></div><div class='cl'><div class='vertical-center'>$46<br>with a<br>50% chance</div></div><div class='cr'><div class='vertical-center'>$29<br>for<br>sure</div></div><div class='respDivL'><div class='vertical-center'>(E)</div></div><div class='respDivR'><div class='vertical-center'>(I)</div></div></div>","I","$29","$46","1","29","46","SURE"
"html-keyboard-response","123","161033","0.0-5.0-3.39","5fb7c9fa2be0a83d8f8913b8","bdp_rd","Sat Mar 25 2023 16:08:55 GMT-0700 (PDT)","208776","","null","","","","offerFB","","<div class='trialBorder'><div class='vertical-center'><img style='vertical-align:center; align:center' src=img/fixation3.jpg></div><div class='cl'><div class='vertical-center'>$46<br>with a<br>50% chance</div></div><div class='cr'><div class='vertical-center'><font style='color:orange'>$29<br>for<br>sure</font></div></div><div class='respDivL'><div class='vertical-center'>(E)</div></div><div class='respDivR'><div class='vertical-center'><font style='color:orange'>(I)</font></div></div></div>","null","$29","$46","1","29","46",""
"html-keyboard-response","124","161534","0.0-5.0-1.40","5fb7c9fa2be0a83d8f8913b8","bdp_rd","Sat Mar 25 2023 16:08:55 GMT-0700 (PDT)","208776","","null","","","","FIX","","<div class='trialBorder'><div class='vertical-center'><img style='vertical-align:center; align:center' src=img/fixation3.jpg></div></div>","null","","","","","",""
"html-keyboard-response","125","162989","0.0-5.0-2.40","5fb7c9fa2be0a83d8f8913b8","bdp_rd","Sat Mar 25 2023 16:08:55 GMT-0700 (PDT)","208776","","1453","","","","offer","","<div class='trialBorder'><div class='vertical-center'><img style='vertical-align:center; align:center' src=img/fixation3.jpg></div><div class='cl'><div class='vertical-center'>$20<br>for<br>sure</div></div><div class='cr'><div class='vertical-center'>$80<br>with a<br>50% chance</div></div><div class='respDivL'><div class='vertical-center'>(E)</div></div><div class='respDivR'><div class='vertical-center'>(I)</div></div></div>","E","$20","$80","0","20","80","SURE"
"html-keyboard-response","126","163242","0.0-5.0-3.40","5fb7c9fa2be0a83d8f8913b8","bdp_rd","Sat Mar 25 2023 16:08:55 GMT-0700 (PDT)","208776","","null","","","","offerFB","","<div class='trialBorder'><div class='vertical-center'><img style='vertical-align:center; align:center' src=img/fixation3.jpg></div><div class='cl'><div class='vertical-center'><font style='color:orange'>$20<br>for<br>sure</font></div></div><div class='cr'><div class='vertical-center'>$80<br>with a<br>50% chance</div></div><div class='respDivL'><div class='vertical-center'><font style='color:orange'>(E)</font></div></div><div class='respDivR'><div class='vertical-center'>(I)</div></div></div>","null","$20","$80","0","20","80",""
"html-keyboard-response","127","163743","0.0-5.0-1.41","5fb7c9fa2be0a83d8f8913b8","bdp_rd","Sat Mar 25 2023 16:08:55 GMT-0700 (PDT)","208776","","null","","","","FIX","","<div class='trialBorder'><div class='vertical-center'><img style='vertical-align:center; align:center' src=img/fixation3.jpg></div></div>","null","","","","","",""
"html-keyboard-response","128","165651","0.0-5.0-2.41","5fb7c9fa2be0a83d8f8913b8","bdp_rd","Sat Mar 25 2023 16:08:55 GMT-0700 (PDT)","208776","","1906","","","","offer","","<div class='trialBorder'><div class='vertical-center'><img style='vertical-align:center; align:center' src=img/fixation3.jpg></div><div class='cl'><div class='vertical-center'>$13<br>for<br>sure</div></div><div class='cr'><div class='vertical-center'>$41<br>with a<br>50% chance</div></div><div class='respDivL'><div class='vertical-center'>(E)</div></div><div class='respDivR'><div class='vertical-center'>(I)</div></div></div>","I","$13","$41","0","13","41","RISKY"
"html-keyboard-response","129","165903","0.0-5.0-3.41","5fb7c9fa2be0a83d8f8913b8","bdp_rd","Sat Mar 25 2023 16:08:55 GMT-0700 (PDT)","208776","","null","","","","offerFB","","<div class='trialBorder'><div class='vertical-center'><img style='vertical-align:center; align:center' src=img/fixation3.jpg></div><div class='cl'><div class='vertical-center'>$13<br>for<br>sure</div></div><div class='cr'><div class='vertical-center'><font style='color:orange'>$41<br>with a<br>50% chance</font></div></div><div class='respDivL'><div class='vertical-center'>(E)</div></div><div class='respDivR'><div class='vertical-center'><font style='color:orange'>(I)</font></div></div></div>","null","$13","$41","0","13","41",""
"html-keyboard-response","130","166405","0.0-5.0-1.42","5fb7c9fa2be0a83d8f8913b8","bdp_rd","Sat Mar 25 2023 16:08:55 GMT-0700 (PDT)","208776","","null","","","","FIX","","<div class='trialBorder'><div class='vertical-center'><img style='vertical-align:center; align:center' src=img/fixation3.jpg></div></div>","null","","","","","",""
"html-keyboard-response","131","169084","0.0-5.0-2.42","5fb7c9fa2be0a83d8f8913b8","bdp_rd","Sat Mar 25 2023 16:08:55 GMT-0700 (PDT)","208776","","2678","","","","offer","","<div class='trialBorder'><div class='vertical-center'><img style='vertical-align:center; align:center' src=img/fixation3.jpg></div><div class='cl'><div class='vertical-center'>$86<br>with a<br>50% chance</div></div><div class='cr'><div class='vertical-center'>$45<br>for<br>sure</div></div><div class='respDivL'><div class='vertical-center'>(E)</div></div><div class='respDivR'><div class='vertical-center'>(I)</div></div></div>","I","$45","$86","1","45","86","SURE"
"html-keyboard-response","132","169337","0.0-5.0-3.42","5fb7c9fa2be0a83d8f8913b8","bdp_rd","Sat Mar 25 2023 16:08:55 GMT-0700 (PDT)","208776","","null","","","","offerFB","","<div class='trialBorder'><div class='vertical-center'><img style='vertical-align:center; align:center' src=img/fixation3.jpg></div><div class='cl'><div class='vertical-center'>$86<br>with a<br>50% chance</div></div><div class='cr'><div class='vertical-center'><font style='color:orange'>$45<br>for<br>sure</font></div></div><div class='respDivL'><div class='vertical-center'>(E)</div></div><div class='respDivR'><div class='vertical-center'><font style='color:orange'>(I)</font></div></div></div>","null","$45","$86","1","45","86",""
"html-keyboard-response","133","169839","0.0-5.0-1.43","5fb7c9fa2be0a83d8f8913b8","bdp_rd","Sat Mar 25 2023 16:08:55 GMT-0700 (PDT)","208776","","null","","","","FIX","","<div class='trialBorder'><div class='vertical-center'><img style='vertical-align:center; align:center' src=img/fixation3.jpg></div></div>","null","","","","","",""
"html-keyboard-response","134","171208","0.0-5.0-2.43","5fb7c9fa2be0a83d8f8913b8","bdp_rd","Sat Mar 25 2023 16:08:55 GMT-0700 (PDT)","208776","","1368","","","","offer","","<div class='trialBorder'><div class='vertical-center'><img style='vertical-align:center; align:center' src=img/fixation3.jpg></div><div class='cl'><div class='vertical-center'>$17<br>with a<br>50% chance</div></div><div class='cr'><div class='vertical-center'>$3<br>for<br>sure</div></div><div class='respDivL'><div class='vertical-center'>(E)</div></div><div class='respDivR'><div class='vertical-center'>(I)</div></div></div>","E","$3","$17","1","3","17","RISKY"
"html-keyboard-response","135","171461","0.0-5.0-3.43","5fb7c9fa2be0a83d8f8913b8","bdp_rd","Sat Mar 25 2023 16:08:55 GMT-0700 (PDT)","208776","","null","","","","offerFB","","<div class='trialBorder'><div class='vertical-center'><img style='vertical-align:center; align:center' src=img/fixation3.jpg></div><div class='cl'><div class='vertical-center'><font style='color:orange'>$17<br>with a<br>50% chance</font></div></div><div class='cr'><div class='vertical-center'>$3<br>for<br>sure</div></div><div class='respDivL'><div class='vertical-center'><font style='color:orange'>(E)</font></div></div><div class='respDivR'><div class='vertical-center'>(I)</div></div></div>","null","$3","$17","1","3","17",""
"html-keyboard-response","136","171963","0.0-5.0-1.44","5fb7c9fa2be0a83d8f8913b8","bdp_rd","Sat Mar 25 2023 16:08:55 GMT-0700 (PDT)","208776","","null","","","","FIX","","<div class='trialBorder'><div class='vertical-center'><img style='vertical-align:center; align:center' src=img/fixation3.jpg></div></div>","null","","","","","",""
"html-keyboard-response","137","174199","0.0-5.0-2.44","5fb7c9fa2be0a83d8f8913b8","bdp_rd","Sat Mar 25 2023 16:08:55 GMT-0700 (PDT)","208776","","2235","","","","offer","","<div class='trialBorder'><div class='vertical-center'><img style='vertical-align:center; align:center' src=img/fixation3.jpg></div><div class='cl'><div class='vertical-center'>$21<br>with a<br>50% chance</div></div><div class='cr'><div class='vertical-center'>$2<br>for<br>sure</div></div><div class='respDivL'><div class='vertical-center'>(E)</div></div><div class='respDivR'><div class='vertical-center'>(I)</div></div></div>","E","$2","$21","1","2","21","RISKY"
"html-keyboard-response","138","174451","0.0-5.0-3.44","5fb7c9fa2be0a83d8f8913b8","bdp_rd","Sat Mar 25 2023 16:08:55 GMT-0700 (PDT)","208776","","null","","","","offerFB","","<div class='trialBorder'><div class='vertical-center'><img style='vertical-align:center; align:center' src=img/fixation3.jpg></div><div class='cl'><div class='vertical-center'><font style='color:orange'>$21<br>with a<br>50% chance</font></div></div><div class='cr'><div class='vertical-center'>$2<br>for<br>sure</div></div><div class='respDivL'><div class='vertical-center'><font style='color:orange'>(E)</font></div></div><div class='respDivR'><div class='vertical-center'>(I)</div></div></div>","null","$2","$21","1","2","21",""
"html-keyboard-response","139","174952","0.0-5.0-1.45","5fb7c9fa2be0a83d8f8913b8","bdp_rd","Sat Mar 25 2023 16:08:55 GMT-0700 (PDT)","208776","","null","","","","FIX","","<div class='trialBorder'><div class='vertical-center'><img style='vertical-align:center; align:center' src=img/fixation3.jpg></div></div>","null","","","","","",""
"html-keyboard-response","140","175976","0.0-5.0-2.45","5fb7c9fa2be0a83d8f8913b8","bdp_rd","Sat Mar 25 2023 16:08:55 GMT-0700 (PDT)","208776","","1024","","","","offer","","<div class='trialBorder'><div class='vertical-center'><img style='vertical-align:center; align:center' src=img/fixation3.jpg></div><div class='cl'><div class='vertical-center'>$98<br>with a<br>50% chance</div></div><div class='cr'><div class='vertical-center'>$53<br>for<br>sure</div></div><div class='respDivL'><div class='vertical-center'>(E)</div></div><div class='respDivR'><div class='vertical-center'>(I)</div></div></div>","I","$53","$98","1","53","98","SURE"
"html-keyboard-response","141","176229","0.0-5.0-3.45","5fb7c9fa2be0a83d8f8913b8","bdp_rd","Sat Mar 25 2023 16:08:55 GMT-0700 (PDT)","208776","","null","","","","offerFB","","<div class='trialBorder'><div class='vertical-center'><img style='vertical-align:center; align:center' src=img/fixation3.jpg></div><div class='cl'><div class='vertical-center'>$98<br>with a<br>50% chance</div></div><div class='cr'><div class='vertical-center'><font style='color:orange'>$53<br>for<br>sure</font></div></div><div class='respDivL'><div class='vertical-center'>(E)</div></div><div class='respDivR'><div class='vertical-center'><font style='color:orange'>(I)</font></div></div></div>","null","$53","$98","1","53","98",""
"html-keyboard-response","142","176732","0.0-5.0-1.46","5fb7c9fa2be0a83d8f8913b8","bdp_rd","Sat Mar 25 2023 16:08:55 GMT-0700 (PDT)","208776","","null","","","","FIX","","<div class='trialBorder'><div class='vertical-center'><img style='vertical-align:center; align:center' src=img/fixation3.jpg></div></div>","null","","","","","",""
"html-keyboard-response","143","177726","0.0-5.0-2.46","5fb7c9fa2be0a83d8f8913b8","bdp_rd","Sat Mar 25 2023 16:08:55 GMT-0700 (PDT)","208776","","993","","","","offer","","<div class='trialBorder'><div class='vertical-center'><img style='vertical-align:center; align:center' src=img/fixation3.jpg></div><div class='cl'><div class='vertical-center'>$22<br>for<br>sure</div></div><div class='cr'><div class='vertical-center'>$42<br>with a<br>50% chance</div></div><div class='respDivL'><div class='vertical-center'>(E)</div></div><div class='respDivR'><div class='vertical-center'>(I)</div></div></div>","E","$22","$42","0","22","42","SURE"
"html-keyboard-response","144","177978","0.0-5.0-3.46","5fb7c9fa2be0a83d8f8913b8","bdp_rd","Sat Mar 25 2023 16:08:55 GMT-0700 (PDT)","208776","","null","","","","offerFB","","<div class='trialBorder'><div class='vertical-center'><img style='vertical-align:center; align:center' src=img/fixation3.jpg></div><div class='cl'><div class='vertical-center'><font style='color:orange'>$22<br>for<br>sure</font></div></div><div class='cr'><div class='vertical-center'>$42<br>with a<br>50% chance</div></div><div class='respDivL'><div class='vertical-center'><font style='color:orange'>(E)</font></div></div><div class='respDivR'><div class='vertical-center'>(I)</div></div></div>","null","$22","$42","0","22","42",""
"html-keyboard-response","145","178479","0.0-5.0-1.47","5fb7c9fa2be0a83d8f8913b8","bdp_rd","Sat Mar 25 2023 16:08:55 GMT-0700 (PDT)","208776","","null","","","","FIX","","<div class='trialBorder'><div class='vertical-center'><img style='vertical-align:center; align:center' src=img/fixation3.jpg></div></div>","null","","","","","",""
"html-keyboard-response","146","179373","0.0-5.0-2.47","5fb7c9fa2be0a83d8f8913b8","bdp_rd","Sat Mar 25 2023 16:08:55 GMT-0700 (PDT)","208776","","894","","","","offer","","<div class='trialBorder'><div class='vertical-center'><img style='vertical-align:center; align:center' src=img/fixation3.jpg></div><div class='cl'><div class='vertical-center'>$5<br>for<br>sure</div></div><div class='cr'><div class='vertical-center'>$16<br>with a<br>50% chance</div></div><div class='respDivL'><div class='vertical-center'>(E)</div></div><div class='respDivR'><div class='vertical-center'>(I)</div></div></div>","I","$5","$16","0","5","16","RISKY"
"html-keyboard-response","147","179626","0.0-5.0-3.47","5fb7c9fa2be0a83d8f8913b8","bdp_rd","Sat Mar 25 2023 16:08:55 GMT-0700 (PDT)","208776","","null","","","","offerFB","","<div class='trialBorder'><div class='vertical-center'><img style='vertical-align:center; align:center' src=img/fixation3.jpg></div><div class='cl'><div class='vertical-center'>$5<br>for<br>sure</div></div><div class='cr'><div class='vertical-center'><font style='color:orange'>$16<br>with a<br>50% chance</font></div></div><div class='respDivL'><div class='vertical-center'>(E)</div></div><div class='respDivR'><div class='vertical-center'><font style='color:orange'>(I)</font></div></div></div>","null","$5","$16","0","5","16",""
"html-keyboard-response","148","180127","0.0-5.0-1.48","5fb7c9fa2be0a83d8f8913b8","bdp_rd","Sat Mar 25 2023 16:08:55 GMT-0700 (PDT)","208776","","null","","","","FIX","","<div class='trialBorder'><div class='vertical-center'><img style='vertical-align:center; align:center' src=img/fixation3.jpg></div></div>","null","","","","","",""
"html-keyboard-response","149","182190","0.0-5.0-2.48","5fb7c9fa2be0a83d8f8913b8","bdp_rd","Sat Mar 25 2023 16:08:55 GMT-0700 (PDT)","208776","","2061","","","","offer","","<div class='trialBorder'><div class='vertical-center'><img style='vertical-align:center; align:center' src=img/fixation3.jpg></div><div class='cl'><div class='vertical-center'>$12<br>for<br>sure</div></div><div class='cr'><div class='vertical-center'>$35<br>with a<br>50% chance</div></div><div class='respDivL'><div class='vertical-center'>(E)</div></div><div class='respDivR'><div class='vertical-center'>(I)</div></div></div>","I","$12","$35","0","12","35","RISKY"
"html-keyboard-response","150","182442","0.0-5.0-3.48","5fb7c9fa2be0a83d8f8913b8","bdp_rd","Sat Mar 25 2023 16:08:55 GMT-0700 (PDT)","208776","","null","","","","offerFB","","<div class='trialBorder'><div class='vertical-center'><img style='vertical-align:center; align:center' src=img/fixation3.jpg></div><div class='cl'><div class='vertical-center'>$12<br>for<br>sure</div></div><div class='cr'><div class='vertical-center'><font style='color:orange'>$35<br>with a<br>50% chance</font></div></div><div class='respDivL'><div class='vertical-center'>(E)</div></div><div class='respDivR'><div class='vertical-center'><font style='color:orange'>(I)</font></div></div></div>","null","$12","$35","0","12","35",""
"html-keyboard-response","151","182943","0.0-5.0-1.49","5fb7c9fa2be0a83d8f8913b8","bdp_rd","Sat Mar 25 2023 16:08:55 GMT-0700 (PDT)","208776","","null","","","","FIX","","<div class='trialBorder'><div class='vertical-center'><img style='vertical-align:center; align:center' src=img/fixation3.jpg></div></div>","null","","","","","",""
"html-keyboard-response","152","184327","0.0-5.0-2.49","5fb7c9fa2be0a83d8f8913b8","bdp_rd","Sat Mar 25 2023 16:08:55 GMT-0700 (PDT)","208776","","1383","","","","offer","","<div class='trialBorder'><div class='vertical-center'><img style='vertical-align:center; align:center' src=img/fixation3.jpg></div><div class='cl'><div class='vertical-center'>$66<br>with a<br>50% chance</div></div><div class='cr'><div class='vertical-center'>$33<br>for<br>sure</div></div><div class='respDivL'><div class='vertical-center'>(E)</div></div><div class='respDivR'><div class='vertical-center'>(I)</div></div></div>","I","$33","$66","1","33","66","SURE"
"html-keyboard-response","153","184580","0.0-5.0-3.49","5fb7c9fa2be0a83d8f8913b8","bdp_rd","Sat Mar 25 2023 16:08:55 GMT-0700 (PDT)","208776","","null","","","","offerFB","","<div class='trialBorder'><div class='vertical-center'><img style='vertical-align:center; align:center' src=img/fixation3.jpg></div><div class='cl'><div class='vertical-center'>$66<br>with a<br>50% chance</div></div><div class='cr'><div class='vertical-center'><font style='color:orange'>$33<br>for<br>sure</font></div></div><div class='respDivL'><div class='vertical-center'>(E)</div></div><div class='respDivR'><div class='vertical-center'><font style='color:orange'>(I)</font></div></div></div>","null","$33","$66","1","33","66",""
"html-keyboard-response","154","185082","0.0-5.0-1.50","5fb7c9fa2be0a83d8f8913b8","bdp_rd","Sat Mar 25 2023 16:08:55 GMT-0700 (PDT)","208776","","null","","","","FIX","","<div class='trialBorder'><div class='vertical-center'><img style='vertical-align:center; align:center' src=img/fixation3.jpg></div></div>","null","","","","","",""
"html-keyboard-response","155","186241","0.0-5.0-2.50","5fb7c9fa2be0a83d8f8913b8","bdp_rd","Sat Mar 25 2023 16:08:55 GMT-0700 (PDT)","208776","","1159","","","","offer","","<div class='trialBorder'><div class='vertical-center'><img style='vertical-align:center; align:center' src=img/fixation3.jpg></div><div class='cl'><div class='vertical-center'>$18<br>for<br>sure</div></div><div class='cr'><div class='vertical-center'>$39<br>with a<br>50% chance</div></div><div class='respDivL'><div class='vertical-center'>(E)</div></div><div class='respDivR'><div class='vertical-center'>(I)</div></div></div>","E","$18","$39","0","18","39","SURE"
"html-keyboard-response","156","186494","0.0-5.0-3.50","5fb7c9fa2be0a83d8f8913b8","bdp_rd","Sat Mar 25 2023 16:08:55 GMT-0700 (PDT)","208776","","null","","","","offerFB","","<div class='trialBorder'><div class='vertical-center'><img style='vertical-align:center; align:center' src=img/fixation3.jpg></div><div class='cl'><div class='vertical-center'><font style='color:orange'>$18<br>for<br>sure</font></div></div><div class='cr'><div class='vertical-center'>$39<br>with a<br>50% chance</div></div><div class='respDivL'><div class='vertical-center'><font style='color:orange'>(E)</font></div></div><div class='respDivR'><div class='vertical-center'>(I)</div></div></div>","null","$18","$39","0","18","39",""
"html-keyboard-response","157","186995","0.0-5.0-1.51","5fb7c9fa2be0a83d8f8913b8","bdp_rd","Sat Mar 25 2023 16:08:55 GMT-0700 (PDT)","208776","","null","","","","FIX","","<div class='trialBorder'><div class='vertical-center'><img style='vertical-align:center; align:center' src=img/fixation3.jpg></div></div>","null","","","","","",""
"html-keyboard-response","158","188068","0.0-5.0-2.51","5fb7c9fa2be0a83d8f8913b8","bdp_rd","Sat Mar 25 2023 16:08:55 GMT-0700 (PDT)","208776","","1072","","","","offer","","<div class='trialBorder'><div class='vertical-center'><img style='vertical-align:center; align:center' src=img/fixation3.jpg></div><div class='cl'><div class='vertical-center'>$71<br>with a<br>50% chance</div></div><div class='cr'><div class='vertical-center'>$7<br>for<br>sure</div></div><div class='respDivL'><div class='vertical-center'>(E)</div></div><div class='respDivR'><div class='vertical-center'>(I)</div></div></div>","E","$7","$71","1","7","71","RISKY"
"html-keyboard-response","159","188321","0.0-5.0-3.51","5fb7c9fa2be0a83d8f8913b8","bdp_rd","Sat Mar 25 2023 16:08:55 GMT-0700 (PDT)","208776","","null","","","","offerFB","","<div class='trialBorder'><div class='vertical-center'><img style='vertical-align:center; align:center' src=img/fixation3.jpg></div><div class='cl'><div class='vertical-center'><font style='color:orange'>$71<br>with a<br>50% chance</font></div></div><div class='cr'><div class='vertical-center'>$7<br>for<br>sure</div></div><div class='respDivL'><div class='vertical-center'><font style='color:orange'>(E)</font></div></div><div class='respDivR'><div class='vertical-center'>(I)</div></div></div>","null","$7","$71","1","7","71",""
"html-keyboard-response","160","188823","0.0-5.0-1.52","5fb7c9fa2be0a83d8f8913b8","bdp_rd","Sat Mar 25 2023 16:08:55 GMT-0700 (PDT)","208776","","null","","","","FIX","","<div class='trialBorder'><div class='vertical-center'><img style='vertical-align:center; align:center' src=img/fixation3.jpg></div></div>","null","","","","","",""
"html-keyboard-response","161","189831","0.0-5.0-2.52","5fb7c9fa2be0a83d8f8913b8","bdp_rd","Sat Mar 25 2023 16:08:55 GMT-0700 (PDT)","208776","","1007","","","","offer","","<div class='trialBorder'><div class='vertical-center'><img style='vertical-align:center; align:center' src=img/fixation3.jpg></div><div class='cl'><div class='vertical-center'>$22<br>with a<br>50% chance</div></div><div class='cr'><div class='vertical-center'>$14<br>for<br>sure</div></div><div class='respDivL'><div class='vertical-center'>(E)</div></div><div class='respDivR'><div class='vertical-center'>(I)</div></div></div>","I","$14","$22","1","14","22","SURE"
"html-keyboard-response","162","190083","0.0-5.0-3.52","5fb7c9fa2be0a83d8f8913b8","bdp_rd","Sat Mar 25 2023 16:08:55 GMT-0700 (PDT)","208776","","null","","","","offerFB","","<div class='trialBorder'><div class='vertical-center'><img style='vertical-align:center; align:center' src=img/fixation3.jpg></div><div class='cl'><div class='vertical-center'>$22<br>with a<br>50% chance</div></div><div class='cr'><div class='vertical-center'><font style='color:orange'>$14<br>for<br>sure</font></div></div><div class='respDivL'><div class='vertical-center'>(E)</div></div><div class='respDivR'><div class='vertical-center'><font style='color:orange'>(I)</font></div></div></div>","null","$14","$22","1","14","22",""
"html-keyboard-response","163","190585","0.0-5.0-1.53","5fb7c9fa2be0a83d8f8913b8","bdp_rd","Sat Mar 25 2023 16:08:55 GMT-0700 (PDT)","208776","","null","","","","FIX","","<div class='trialBorder'><div class='vertical-center'><img style='vertical-align:center; align:center' src=img/fixation3.jpg></div></div>","null","","","","","",""
"html-keyboard-response","164","191794","0.0-5.0-2.53","5fb7c9fa2be0a83d8f8913b8","bdp_rd","Sat Mar 25 2023 16:08:55 GMT-0700 (PDT)","208776","","1208","","","","offer","","<div class='trialBorder'><div class='vertical-center'><img style='vertical-align:center; align:center' src=img/fixation3.jpg></div><div class='cl'><div class='vertical-center'>$6<br>for<br>sure</div></div><div class='cr'><div class='vertical-center'>$15<br>with a<br>50% chance</div></div><div class='respDivL'><div class='vertical-center'>(E)</div></div><div class='respDivR'><div class='vertical-center'>(I)</div></div></div>","I","$6","$15","0","6","15","RISKY"
"html-keyboard-response","165","192046","0.0-5.0-3.53","5fb7c9fa2be0a83d8f8913b8","bdp_rd","Sat Mar 25 2023 16:08:55 GMT-0700 (PDT)","208776","","null","","","","offerFB","","<div class='trialBorder'><div class='vertical-center'><img style='vertical-align:center; align:center' src=img/fixation3.jpg></div><div class='cl'><div class='vertical-center'>$6<br>for<br>sure</div></div><div class='cr'><div class='vertical-center'><font style='color:orange'>$15<br>with a<br>50% chance</font></div></div><div class='respDivL'><div class='vertical-center'>(E)</div></div><div class='respDivR'><div class='vertical-center'><font style='color:orange'>(I)</font></div></div></div>","null","$6","$15","0","6","15",""
"html-keyboard-response","166","192548","0.0-5.0-1.54","5fb7c9fa2be0a83d8f8913b8","bdp_rd","Sat Mar 25 2023 16:08:55 GMT-0700 (PDT)","208776","","null","","","","FIX","","<div class='trialBorder'><div class='vertical-center'><img style='vertical-align:center; align:center' src=img/fixation3.jpg></div></div>","null","","","","","",""
"html-keyboard-response","167","194277","0.0-5.0-2.54","5fb7c9fa2be0a83d8f8913b8","bdp_rd","Sat Mar 25 2023 16:08:55 GMT-0700 (PDT)","208776","","1728","","","","offer","","<div class='trialBorder'><div class='vertical-center'><img style='vertical-align:center; align:center' src=img/fixation3.jpg></div><div class='cl'><div class='vertical-center'>$40<br>with a<br>50% chance</div></div><div class='cr'><div class='vertical-center'>$10<br>for<br>sure</div></div><div class='respDivL'><div class='vertical-center'>(E)</div></div><div class='respDivR'><div class='vertical-center'>(I)</div></div></div>","E","$10","$40","1","10","40","RISKY"
"html-keyboard-response","168","194529","0.0-5.0-3.54","5fb7c9fa2be0a83d8f8913b8","bdp_rd","Sat Mar 25 2023 16:08:55 GMT-0700 (PDT)","208776","","null","","","","offerFB","","<div class='trialBorder'><div class='vertical-center'><img style='vertical-align:center; align:center' src=img/fixation3.jpg></div><div class='cl'><div class='vertical-center'><font style='color:orange'>$40<br>with a<br>50% chance</font></div></div><div class='cr'><div class='vertical-center'>$10<br>for<br>sure</div></div><div class='respDivL'><div class='vertical-center'><font style='color:orange'>(E)</font></div></div><div class='respDivR'><div class='vertical-center'>(I)</div></div></div>","null","$10","$40","1","10","40",""
"html-keyboard-response","169","195031","0.0-5.0-1.55","5fb7c9fa2be0a83d8f8913b8","bdp_rd","Sat Mar 25 2023 16:08:55 GMT-0700 (PDT)","208776","","null","","","","FIX","","<div class='trialBorder'><div class='vertical-center'><img style='vertical-align:center; align:center' src=img/fixation3.jpg></div></div>","null","","","","","",""
"html-keyboard-response","170","196876","0.0-5.0-2.55","5fb7c9fa2be0a83d8f8913b8","bdp_rd","Sat Mar 25 2023 16:08:55 GMT-0700 (PDT)","208776","","1843","","","","offer","","<div class='trialBorder'><div class='vertical-center'><img style='vertical-align:center; align:center' src=img/fixation3.jpg></div><div class='cl'><div class='vertical-center'>$22<br>for<br>sure</div></div><div class='cr'><div class='vertical-center'>$59<br>with a<br>50% chance</div></div><div class='respDivL'><div class='vertical-center'>(E)</div></div><div class='respDivR'><div class='vertical-center'>(I)</div></div></div>","E","$22","$59","0","22","59","SURE"
"html-keyboard-response","171","197128","0.0-5.0-3.55","5fb7c9fa2be0a83d8f8913b8","bdp_rd","Sat Mar 25 2023 16:08:55 GMT-0700 (PDT)","208776","","null","","","","offerFB","","<div class='trialBorder'><div class='vertical-center'><img style='vertical-align:center; align:center' src=img/fixation3.jpg></div><div class='cl'><div class='vertical-center'><font style='color:orange'>$22<br>for<br>sure</font></div></div><div class='cr'><div class='vertical-center'>$59<br>with a<br>50% chance</div></div><div class='respDivL'><div class='vertical-center'><font style='color:orange'>(E)</font></div></div><div class='respDivR'><div class='vertical-center'>(I)</div></div></div>","null","$22","$59","0","22","59",""
"html-keyboard-response","172","197630","0.0-5.0-1.56","5fb7c9fa2be0a83d8f8913b8","bdp_rd","Sat Mar 25 2023 16:08:55 GMT-0700 (PDT)","208776","","null","","","","FIX","","<div class='trialBorder'><div class='vertical-center'><img style='vertical-align:center; align:center' src=img/fixation3.jpg></div></div>","null","","","","","",""
"html-keyboard-response","173","200859","0.0-5.0-2.56","5fb7c9fa2be0a83d8f8913b8","bdp_rd","Sat Mar 25 2023 16:08:55 GMT-0700 (PDT)","208776","","3227","","","","offer","","<div class='trialBorder'><div class='vertical-center'><img style='vertical-align:center; align:center' src=img/fixation3.jpg></div><div class='cl'><div class='vertical-center'>$4<br>for<br>sure</div></div><div class='cr'><div class='vertical-center'>$11<br>with a<br>50% chance</div></div><div class='respDivL'><div class='vertical-center'>(E)</div></div><div class='respDivR'><div class='vertical-center'>(I)</div></div></div>","E","$4","$11","0","4","11","SURE"
"html-keyboard-response","174","201111","0.0-5.0-3.56","5fb7c9fa2be0a83d8f8913b8","bdp_rd","Sat Mar 25 2023 16:08:55 GMT-0700 (PDT)","208776","","null","","","","offerFB","","<div class='trialBorder'><div class='vertical-center'><img style='vertical-align:center; align:center' src=img/fixation3.jpg></div><div class='cl'><div class='vertical-center'><font style='color:orange'>$4<br>for<br>sure</font></div></div><div class='cr'><div class='vertical-center'>$11<br>with a<br>50% chance</div></div><div class='respDivL'><div class='vertical-center'><font style='color:orange'>(E)</font></div></div><div class='respDivR'><div class='vertical-center'>(I)</div></div></div>","null","$4","$11","0","4","11",""
"html-keyboard-response","175","201613","0.0-5.0-1.57","5fb7c9fa2be0a83d8f8913b8","bdp_rd","Sat Mar 25 2023 16:08:55 GMT-0700 (PDT)","208776","","null","","","","FIX","","<div class='trialBorder'><div class='vertical-center'><img style='vertical-align:center; align:center' src=img/fixation3.jpg></div></div>","null","","","","","",""
"html-keyboard-response","176","203564","0.0-5.0-2.57","5fb7c9fa2be0a83d8f8913b8","bdp_rd","Sat Mar 25 2023 16:08:55 GMT-0700 (PDT)","208776","","1950","","","","offer","","<div class='trialBorder'><div class='vertical-center'><img style='vertical-align:center; align:center' src=img/fixation3.jpg></div><div class='cl'><div class='vertical-center'>$31<br>with a<br>50% chance</div></div><div class='cr'><div class='vertical-center'>$15<br>for<br>sure</div></div><div class='respDivL'><div class='vertical-center'>(E)</div></div><div class='respDivR'><div class='vertical-center'>(I)</div></div></div>","I","$15","$31","1","15","31","SURE"
"html-keyboard-response","177","203817","0.0-5.0-3.57","5fb7c9fa2be0a83d8f8913b8","bdp_rd","Sat Mar 25 2023 16:08:55 GMT-0700 (PDT)","208776","","null","","","","offerFB","","<div class='trialBorder'><div class='vertical-center'><img style='vertical-align:center; align:center' src=img/fixation3.jpg></div><div class='cl'><div class='vertical-center'>$31<br>with a<br>50% chance</div></div><div class='cr'><div class='vertical-center'><font style='color:orange'>$15<br>for<br>sure</font></div></div><div class='respDivL'><div class='vertical-center'>(E)</div></div><div class='respDivR'><div class='vertical-center'><font style='color:orange'>(I)</font></div></div></div>","null","$15","$31","1","15","31",""
"html-keyboard-response","178","204319","0.0-5.0-1.58","5fb7c9fa2be0a83d8f8913b8","bdp_rd","Sat Mar 25 2023 16:08:55 GMT-0700 (PDT)","208776","","null","","","","FIX","","<div class='trialBorder'><div class='vertical-center'><img style='vertical-align:center; align:center' src=img/fixation3.jpg></div></div>","null","","","","","",""
"html-keyboard-response","179","205563","0.0-5.0-2.58","5fb7c9fa2be0a83d8f8913b8","bdp_rd","Sat Mar 25 2023 16:08:55 GMT-0700 (PDT)","208776","","1243","","","","offer","","<div class='trialBorder'><div class='vertical-center'><img style='vertical-align:center; align:center' src=img/fixation3.jpg></div><div class='cl'><div class='vertical-center'>$78<br>with a<br>50% chance</div></div><div class='cr'><div class='vertical-center'>$31<br>for<br>sure</div></div><div class='respDivL'><div class='vertical-center'>(E)</div></div><div class='respDivR'><div class='vertical-center'>(I)</div></div></div>","I","$31","$78","1","31","78","SURE"
