"trial_type","trial_index","time_elapsed","internal_node_id","subject_id","task","startTime","totalTime","view_history","rt","event","trial","time","trialtype","success","stimulus","key_press","sureOffer","riskyOffer","riskyLeft","sureAmt","riskyAmt","chosen"
"pavlovia","0","2","0.0-0.0","6404fb7b9a7b3cfb4179d185","bdp_rd","Tue Mar 28 2023 17:32:01 GMT-0400 (Eastern Daylight Time)","203744","","","","","","","","","","","","","","",""
"instructions","1","2414","0.0-1.0","6404fb7b9a7b3cfb4179d185","bdp_rd","Tue Mar 28 2023 17:32:01 GMT-0400 (Eastern Daylight Time)","203744","[{""page_index"":0,""viewing_time"":2411}]","2411","","","","","","","","","","","","",""
"","","","","6404fb7b9a7b3cfb4179d185","bdp_rd","Tue Mar 28 2023 17:32:01 GMT-0400 (Eastern Daylight Time)","203744","","","fullscreenenter","2","4690","fullscreenenter","","","","","","","","",""
"fullscreen","2","5669","0.0-2.0","6404fb7b9a7b3cfb4179d185","bdp_rd","Tue Mar 28 2023 17:32:01 GMT-0400 (Eastern Daylight Time)","203744","","","","","","","true","","","","","","","",""
"instructions","3","41606","0.0-4.0","6404fb7b9a7b3cfb4179d185","bdp_rd","Tue Mar 28 2023 17:32:01 GMT-0400 (Eastern Daylight Time)","203744","[{""page_index"":0,""viewing_time"":17004},{""page_index"":1,""viewing_time"":11520},{""page_index"":2,""viewing_time"":7413}]","35937","","","","","","","","","","","","",""
"html-keyboard-response","4","42108","0.0-5.0-1.0","6404fb7b9a7b3cfb4179d185","bdp_rd","Tue Mar 28 2023 17:32:01 GMT-0400 (Eastern Daylight Time)","203744","","null","","","","FIX","","<div class='trialBorder'><div class='vertical-center'><img style='vertical-align:center; align:center' src=img/fixation3.jpg></div></div>","null","","","","","",""
"html-keyboard-response","5","46712","0.0-5.0-2.0","6404fb7b9a7b3cfb4179d185","bdp_rd","Tue Mar 28 2023 17:32:01 GMT-0400 (Eastern Daylight Time)","203744","","4603","","","","offer","","<div class='trialBorder'><div class='vertical-center'><img style='vertical-align:center; align:center' src=img/fixation3.jpg></div><div class='cl'><div class='vertical-center'>$95<br>with a<br>50% chance</div></div><div class='cr'><div class='vertical-center'>$40<br>for<br>sure</div></div><div class='respDivL'><div class='vertical-center'>(E)</div></div><div class='respDivR'><div class='vertical-center'>(I)</div></div></div>","I","$40","$95","1","40","95","SURE"
"html-keyboard-response","6","46963","0.0-5.0-3.0","6404fb7b9a7b3cfb4179d185","bdp_rd","Tue Mar 28 2023 17:32:01 GMT-0400 (Eastern Daylight Time)","203744","","null","","","","offerFB","","<div class='trialBorder'><div class='vertical-center'><img style='vertical-align:center; align:center' src=img/fixation3.jpg></div><div class='cl'><div class='vertical-center'>$95<br>with a<br>50% chance</div></div><div class='cr'><div class='vertical-center'><font style='color:orange'>$40<br>for<br>sure</font></div></div><div class='respDivL'><div class='vertical-center'>(E)</div></div><div class='respDivR'><div class='vertical-center'><font style='color:orange'>(I)</font></div></div></div>","null","$40","$95","1","40","95",""
"html-keyboard-response","7","47465","0.0-5.0-1.1","6404fb7b9a7b3cfb4179d185","bdp_rd","Tue Mar 28 2023 17:32:01 GMT-0400 (Eastern Daylight Time)","203744","","null","","","","FIX","","<div class='trialBorder'><div class='vertical-center'><img style='vertical-align:center; align:center' src=img/fixation3.jpg></div></div>","null","","","","","",""
"html-keyboard-response","8","49820","0.0-5.0-2.1","6404fb7b9a7b3cfb4179d185","bdp_rd","Tue Mar 28 2023 17:32:01 GMT-0400 (Eastern Daylight Time)","203744","","2354","","","","offer","","<div class='trialBorder'><div class='vertical-center'><img style='vertical-align:center; align:center' src=img/fixation3.jpg></div><div class='cl'><div class='vertical-center'>$8<br>for<br>sure</div></div><div class='cr'><div class='vertical-center'>$23<br>with a<br>50% chance</div></div><div class='respDivL'><div class='vertical-center'>(E)</div></div><div class='respDivR'><div class='vertical-center'>(I)</div></div></div>","E","$8","$23","0","8","23","SURE"
"html-keyboard-response","9","50071","0.0-5.0-3.1","6404fb7b9a7b3cfb4179d185","bdp_rd","Tue Mar 28 2023 17:32:01 GMT-0400 (Eastern Daylight Time)","203744","","null","","","","offerFB","","<div class='trialBorder'><div class='vertical-center'><img style='vertical-align:center; align:center' src=img/fixation3.jpg></div><div class='cl'><div class='vertical-center'><font style='color:orange'>$8<br>for<br>sure</font></div></div><div class='cr'><div class='vertical-center'>$23<br>with a<br>50% chance</div></div><div class='respDivL'><div class='vertical-center'><font style='color:orange'>(E)</font></div></div><div class='respDivR'><div class='vertical-center'>(I)</div></div></div>","null","$8","$23","0","8","23",""
"html-keyboard-response","10","50572","0.0-5.0-1.2","6404fb7b9a7b3cfb4179d185","bdp_rd","Tue Mar 28 2023 17:32:01 GMT-0400 (Eastern Daylight Time)","203744","","null","","","","FIX","","<div class='trialBorder'><div class='vertical-center'><img style='vertical-align:center; align:center' src=img/fixation3.jpg></div></div>","null","","","","","",""
"html-keyboard-response","11","52251","0.0-5.0-2.2","6404fb7b9a7b3cfb4179d185","bdp_rd","Tue Mar 28 2023 17:32:01 GMT-0400 (Eastern Daylight Time)","203744","","1678","","","","offer","","<div class='trialBorder'><div class='vertical-center'><img style='vertical-align:center; align:center' src=img/fixation3.jpg></div><div class='cl'><div class='vertical-center'>$3<br>for<br>sure</div></div><div class='cr'><div class='vertical-center'>$12<br>with a<br>50% chance</div></div><div class='respDivL'><div class='vertical-center'>(E)</div></div><div class='respDivR'><div class='vertical-center'>(I)</div></div></div>","E","$3","$12","0","3","12","SURE"
"html-keyboard-response","12","52503","0.0-5.0-3.2","6404fb7b9a7b3cfb4179d185","bdp_rd","Tue Mar 28 2023 17:32:01 GMT-0400 (Eastern Daylight Time)","203744","","null","","","","offerFB","","<div class='trialBorder'><div class='vertical-center'><img style='vertical-align:center; align:center' src=img/fixation3.jpg></div><div class='cl'><div class='vertical-center'><font style='color:orange'>$3<br>for<br>sure</font></div></div><div class='cr'><div class='vertical-center'>$12<br>with a<br>50% chance</div></div><div class='respDivL'><div class='vertical-center'><font style='color:orange'>(E)</font></div></div><div class='respDivR'><div class='vertical-center'>(I)</div></div></div>","null","$3","$12","0","3","12",""
"html-keyboard-response","13","53005","0.0-5.0-1.3","6404fb7b9a7b3cfb4179d185","bdp_rd","Tue Mar 28 2023 17:32:01 GMT-0400 (Eastern Daylight Time)","203744","","null","","","","FIX","","<div class='trialBorder'><div class='vertical-center'><img style='vertical-align:center; align:center' src=img/fixation3.jpg></div></div>","null","","","","","",""
"html-keyboard-response","14","55194","0.0-5.0-2.3","6404fb7b9a7b3cfb4179d185","bdp_rd","Tue Mar 28 2023 17:32:01 GMT-0400 (Eastern Daylight Time)","203744","","2188","","","","offer","","<div class='trialBorder'><div class='vertical-center'><img style='vertical-align:center; align:center' src=img/fixation3.jpg></div><div class='cl'><div class='vertical-center'>$14<br>with a<br>50% chance</div></div><div class='cr'><div class='vertical-center'>$4<br>for<br>sure</div></div><div class='respDivL'><div class='vertical-center'>(E)</div></div><div class='respDivR'><div class='vertical-center'>(I)</div></div></div>","I","$4","$14","1","4","14","SURE"
"html-keyboard-response","15","55445","0.0-5.0-3.3","6404fb7b9a7b3cfb4179d185","bdp_rd","Tue Mar 28 2023 17:32:01 GMT-0400 (Eastern Daylight Time)","203744","","null","","","","offerFB","","<div class='trialBorder'><div class='vertical-center'><img style='vertical-align:center; align:center' src=img/fixation3.jpg></div><div class='cl'><div class='vertical-center'>$14<br>with a<br>50% chance</div></div><div class='cr'><div class='vertical-center'><font style='color:orange'>$4<br>for<br>sure</font></div></div><div class='respDivL'><div class='vertical-center'>(E)</div></div><div class='respDivR'><div class='vertical-center'><font style='color:orange'>(I)</font></div></div></div>","null","$4","$14","1","4","14",""
"html-keyboard-response","16","55946","0.0-5.0-1.4","6404fb7b9a7b3cfb4179d185","bdp_rd","Tue Mar 28 2023 17:32:01 GMT-0400 (Eastern Daylight Time)","203744","","null","","","","FIX","","<div class='trialBorder'><div class='vertical-center'><img style='vertical-align:center; align:center' src=img/fixation3.jpg></div></div>","null","","","","","",""
"html-keyboard-response","17","57433","0.0-5.0-2.4","6404fb7b9a7b3cfb4179d185","bdp_rd","Tue Mar 28 2023 17:32:01 GMT-0400 (Eastern Daylight Time)","203744","","1486","","","","offer","","<div class='trialBorder'><div class='vertical-center'><img style='vertical-align:center; align:center' src=img/fixation3.jpg></div><div class='cl'><div class='vertical-center'>$17<br>with a<br>50% chance</div></div><div class='cr'><div class='vertical-center'>$3<br>for<br>sure</div></div><div class='respDivL'><div class='vertical-center'>(E)</div></div><div class='respDivR'><div class='vertical-center'>(I)</div></div></div>","I","$3","$17","1","3","17","SURE"
"html-keyboard-response","18","57683","0.0-5.0-3.4","6404fb7b9a7b3cfb4179d185","bdp_rd","Tue Mar 28 2023 17:32:01 GMT-0400 (Eastern Daylight Time)","203744","","null","","","","offerFB","","<div class='trialBorder'><div class='vertical-center'><img style='vertical-align:center; align:center' src=img/fixation3.jpg></div><div class='cl'><div class='vertical-center'>$17<br>with a<br>50% chance</div></div><div class='cr'><div class='vertical-center'><font style='color:orange'>$3<br>for<br>sure</font></div></div><div class='respDivL'><div class='vertical-center'>(E)</div></div><div class='respDivR'><div class='vertical-center'><font style='color:orange'>(I)</font></div></div></div>","null","$3","$17","1","3","17",""
"html-keyboard-response","19","58185","0.0-5.0-1.5","6404fb7b9a7b3cfb4179d185","bdp_rd","Tue Mar 28 2023 17:32:01 GMT-0400 (Eastern Daylight Time)","203744","","null","","","","FIX","","<div class='trialBorder'><div class='vertical-center'><img style='vertical-align:center; align:center' src=img/fixation3.jpg></div></div>","null","","","","","",""
"html-keyboard-response","20","59764","0.0-5.0-2.5","6404fb7b9a7b3cfb4179d185","bdp_rd","Tue Mar 28 2023 17:32:01 GMT-0400 (Eastern Daylight Time)","203744","","1579","","","","offer","","<div class='trialBorder'><div class='vertical-center'><img style='vertical-align:center; align:center' src=img/fixation3.jpg></div><div class='cl'><div class='vertical-center'>$26<br>with a<br>50% chance</div></div><div class='cr'><div class='vertical-center'>$11<br>for<br>sure</div></div><div class='respDivL'><div class='vertical-center'>(E)</div></div><div class='respDivR'><div class='vertical-center'>(I)</div></div></div>","I","$11","$26","1","11","26","SURE"
"html-keyboard-response","21","60016","0.0-5.0-3.5","6404fb7b9a7b3cfb4179d185","bdp_rd","Tue Mar 28 2023 17:32:01 GMT-0400 (Eastern Daylight Time)","203744","","null","","","","offerFB","","<div class='trialBorder'><div class='vertical-center'><img style='vertical-align:center; align:center' src=img/fixation3.jpg></div><div class='cl'><div class='vertical-center'>$26<br>with a<br>50% chance</div></div><div class='cr'><div class='vertical-center'><font style='color:orange'>$11<br>for<br>sure</font></div></div><div class='respDivL'><div class='vertical-center'>(E)</div></div><div class='respDivR'><div class='vertical-center'><font style='color:orange'>(I)</font></div></div></div>","null","$11","$26","1","11","26",""
"html-keyboard-response","22","60518","0.0-5.0-1.6","6404fb7b9a7b3cfb4179d185","bdp_rd","Tue Mar 28 2023 17:32:01 GMT-0400 (Eastern Daylight Time)","203744","","null","","","","FIX","","<div class='trialBorder'><div class='vertical-center'><img style='vertical-align:center; align:center' src=img/fixation3.jpg></div></div>","null","","","","","",""
"html-keyboard-response","23","62423","0.0-5.0-2.6","6404fb7b9a7b3cfb4179d185","bdp_rd","Tue Mar 28 2023 17:32:01 GMT-0400 (Eastern Daylight Time)","203744","","1905","","","","offer","","<div class='trialBorder'><div class='vertical-center'><img style='vertical-align:center; align:center' src=img/fixation3.jpg></div><div class='cl'><div class='vertical-center'>$31<br>for<br>sure</div></div><div class='cr'><div class='vertical-center'>$78<br>with a<br>50% chance</div></div><div class='respDivL'><div class='vertical-center'>(E)</div></div><div class='respDivR'><div class='vertical-center'>(I)</div></div></div>","E","$31","$78","0","31","78","SURE"
"html-keyboard-response","24","62675","0.0-5.0-3.6","6404fb7b9a7b3cfb4179d185","bdp_rd","Tue Mar 28 2023 17:32:01 GMT-0400 (Eastern Daylight Time)","203744","","null","","","","offerFB","","<div class='trialBorder'><div class='vertical-center'><img style='vertical-align:center; align:center' src=img/fixation3.jpg></div><div class='cl'><div class='vertical-center'><font style='color:orange'>$31<br>for<br>sure</font></div></div><div class='cr'><div class='vertical-center'>$78<br>with a<br>50% chance</div></div><div class='respDivL'><div class='vertical-center'><font style='color:orange'>(E)</font></div></div><div class='respDivR'><div class='vertical-center'>(I)</div></div></div>","null","$31","$78","0","31","78",""
"html-keyboard-response","25","63178","0.0-5.0-1.7","6404fb7b9a7b3cfb4179d185","bdp_rd","Tue Mar 28 2023 17:32:01 GMT-0400 (Eastern Daylight Time)","203744","","null","","","","FIX","","<div class='trialBorder'><div class='vertical-center'><img style='vertical-align:center; align:center' src=img/fixation3.jpg></div></div>","null","","","","","",""
"html-keyboard-response","26","65045","0.0-5.0-2.7","6404fb7b9a7b3cfb4179d185","bdp_rd","Tue Mar 28 2023 17:32:01 GMT-0400 (Eastern Daylight Time)","203744","","1866","","","","offer","","<div class='trialBorder'><div class='vertical-center'><img style='vertical-align:center; align:center' src=img/fixation3.jpg></div><div class='cl'><div class='vertical-center'>$24<br>for<br>sure</div></div><div class='cr'><div class='vertical-center'>$70<br>with a<br>50% chance</div></div><div class='respDivL'><div class='vertical-center'>(E)</div></div><div class='respDivR'><div class='vertical-center'>(I)</div></div></div>","E","$24","$70","0","24","70","SURE"
"html-keyboard-response","27","65296","0.0-5.0-3.7","6404fb7b9a7b3cfb4179d185","bdp_rd","Tue Mar 28 2023 17:32:01 GMT-0400 (Eastern Daylight Time)","203744","","null","","","","offerFB","","<div class='trialBorder'><div class='vertical-center'><img style='vertical-align:center; align:center' src=img/fixation3.jpg></div><div class='cl'><div class='vertical-center'><font style='color:orange'>$24<br>for<br>sure</font></div></div><div class='cr'><div class='vertical-center'>$70<br>with a<br>50% chance</div></div><div class='respDivL'><div class='vertical-center'><font style='color:orange'>(E)</font></div></div><div class='respDivR'><div class='vertical-center'>(I)</div></div></div>","null","$24","$70","0","24","70",""
"html-keyboard-response","28","65798","0.0-5.0-1.8","6404fb7b9a7b3cfb4179d185","bdp_rd","Tue Mar 28 2023 17:32:01 GMT-0400 (Eastern Daylight Time)","203744","","null","","","","FIX","","<div class='trialBorder'><div class='vertical-center'><img style='vertical-align:center; align:center' src=img/fixation3.jpg></div></div>","null","","","","","",""
"html-keyboard-response","29","68387","0.0-5.0-2.8","6404fb7b9a7b3cfb4179d185","bdp_rd","Tue Mar 28 2023 17:32:01 GMT-0400 (Eastern Daylight Time)","203744","","2589","","","","offer","","<div class='trialBorder'><div class='vertical-center'><img style='vertical-align:center; align:center' src=img/fixation3.jpg></div><div class='cl'><div class='vertical-center'>$2<br>for<br>sure</div></div><div class='cr'><div class='vertical-center'>$21<br>with a<br>50% chance</div></div><div class='respDivL'><div class='vertical-center'>(E)</div></div><div class='respDivR'><div class='vertical-center'>(I)</div></div></div>","I","$2","$21","0","2","21","RISKY"
"html-keyboard-response","30","68638","0.0-5.0-3.8","6404fb7b9a7b3cfb4179d185","bdp_rd","Tue Mar 28 2023 17:32:01 GMT-0400 (Eastern Daylight Time)","203744","","null","","","","offerFB","","<div class='trialBorder'><div class='vertical-center'><img style='vertical-align:center; align:center' src=img/fixation3.jpg></div><div class='cl'><div class='vertical-center'>$2<br>for<br>sure</div></div><div class='cr'><div class='vertical-center'><font style='color:orange'>$21<br>with a<br>50% chance</font></div></div><div class='respDivL'><div class='vertical-center'>(E)</div></div><div class='respDivR'><div class='vertical-center'><font style='color:orange'>(I)</font></div></div></div>","null","$2","$21","0","2","21",""
"html-keyboard-response","31","69139","0.0-5.0-1.9","6404fb7b9a7b3cfb4179d185","bdp_rd","Tue Mar 28 2023 17:32:01 GMT-0400 (Eastern Daylight Time)","203744","","null","","","","FIX","","<div class='trialBorder'><div class='vertical-center'><img style='vertical-align:center; align:center' src=img/fixation3.jpg></div></div>","null","","","","","",""
"html-keyboard-response","32","71667","0.0-5.0-2.9","6404fb7b9a7b3cfb4179d185","bdp_rd","Tue Mar 28 2023 17:32:01 GMT-0400 (Eastern Daylight Time)","203744","","2527","","","","offer","","<div class='trialBorder'><div class='vertical-center'><img style='vertical-align:center; align:center' src=img/fixation3.jpg></div><div class='cl'><div class='vertical-center'>$58<br>for<br>sure</div></div><div class='cr'><div class='vertical-center'>$69<br>with a<br>50% chance</div></div><div class='respDivL'><div class='vertical-center'>(E)</div></div><div class='respDivR'><div class='vertical-center'>(I)</div></div></div>","E","$58","$69","0","58","69","SURE"
"html-keyboard-response","33","71919","0.0-5.0-3.9","6404fb7b9a7b3cfb4179d185","bdp_rd","Tue Mar 28 2023 17:32:01 GMT-0400 (Eastern Daylight Time)","203744","","null","","","","offerFB","","<div class='trialBorder'><div class='vertical-center'><img style='vertical-align:center; align:center' src=img/fixation3.jpg></div><div class='cl'><div class='vertical-center'><font style='color:orange'>$58<br>for<br>sure</font></div></div><div class='cr'><div class='vertical-center'>$69<br>with a<br>50% chance</div></div><div class='respDivL'><div class='vertical-center'><font style='color:orange'>(E)</font></div></div><div class='respDivR'><div class='vertical-center'>(I)</div></div></div>","null","$58","$69","0","58","69",""
"html-keyboard-response","34","72421","0.0-5.0-1.10","6404fb7b9a7b3cfb4179d185","bdp_rd","Tue Mar 28 2023 17:32:01 GMT-0400 (Eastern Daylight Time)","203744","","null","","","","FIX","","<div class='trialBorder'><div class='vertical-center'><img style='vertical-align:center; align:center' src=img/fixation3.jpg></div></div>","null","","","","","",""
"html-keyboard-response","35","74279","0.0-5.0-2.10","6404fb7b9a7b3cfb4179d185","bdp_rd","Tue Mar 28 2023 17:32:01 GMT-0400 (Eastern Daylight Time)","203744","","1857","","","","offer","","<div class='trialBorder'><div class='vertical-center'><img style='vertical-align:center; align:center' src=img/fixation3.jpg></div><div class='cl'><div class='vertical-center'>$27<br>for<br>sure</div></div><div class='cr'><div class='vertical-center'>$47<br>with a<br>50% chance</div></div><div class='respDivL'><div class='vertical-center'>(E)</div></div><div class='respDivR'><div class='vertical-center'>(I)</div></div></div>","E","$27","$47","0","27","47","SURE"
"html-keyboard-response","36","74530","0.0-5.0-3.10","6404fb7b9a7b3cfb4179d185","bdp_rd","Tue Mar 28 2023 17:32:01 GMT-0400 (Eastern Daylight Time)","203744","","null","","","","offerFB","","<div class='trialBorder'><div class='vertical-center'><img style='vertical-align:center; align:center' src=img/fixation3.jpg></div><div class='cl'><div class='vertical-center'><font style='color:orange'>$27<br>for<br>sure</font></div></div><div class='cr'><div class='vertical-center'>$47<br>with a<br>50% chance</div></div><div class='respDivL'><div class='vertical-center'><font style='color:orange'>(E)</font></div></div><div class='respDivR'><div class='vertical-center'>(I)</div></div></div>","null","$27","$47","0","27","47",""
"html-keyboard-response","37","75032","0.0-5.0-1.11","6404fb7b9a7b3cfb4179d185","bdp_rd","Tue Mar 28 2023 17:32:01 GMT-0400 (Eastern Daylight Time)","203744","","null","","","","FIX","","<div class='trialBorder'><div class='vertical-center'><img style='vertical-align:center; align:center' src=img/fixation3.jpg></div></div>","null","","","","","",""
"html-keyboard-response","38","76803","0.0-5.0-2.11","6404fb7b9a7b3cfb4179d185","bdp_rd","Tue Mar 28 2023 17:32:01 GMT-0400 (Eastern Daylight Time)","203744","","1769","","","","offer","","<div class='trialBorder'><div class='vertical-center'><img style='vertical-align:center; align:center' src=img/fixation3.jpg></div><div class='cl'><div class='vertical-center'>$28<br>for<br>sure</div></div><div class='cr'><div class='vertical-center'>$89<br>with a<br>50% chance</div></div><div class='respDivL'><div class='vertical-center'>(E)</div></div><div class='respDivR'><div class='vertical-center'>(I)</div></div></div>","E","$28","$89","0","28","89","SURE"
"html-keyboard-response","39","77054","0.0-5.0-3.11","6404fb7b9a7b3cfb4179d185","bdp_rd","Tue Mar 28 2023 17:32:01 GMT-0400 (Eastern Daylight Time)","203744","","null","","","","offerFB","","<div class='trialBorder'><div class='vertical-center'><img style='vertical-align:center; align:center' src=img/fixation3.jpg></div><div class='cl'><div class='vertical-center'><font style='color:orange'>$28<br>for<br>sure</font></div></div><div class='cr'><div class='vertical-center'>$89<br>with a<br>50% chance</div></div><div class='respDivL'><div class='vertical-center'><font style='color:orange'>(E)</font></div></div><div class='respDivR'><div class='vertical-center'>(I)</div></div></div>","null","$28","$89","0","28","89",""
"html-keyboard-response","40","77555","0.0-5.0-1.12","6404fb7b9a7b3cfb4179d185","bdp_rd","Tue Mar 28 2023 17:32:01 GMT-0400 (Eastern Daylight Time)","203744","","null","","","","FIX","","<div class='trialBorder'><div class='vertical-center'><img style='vertical-align:center; align:center' src=img/fixation3.jpg></div></div>","null","","","","","",""
"html-keyboard-response","41","78879","0.0-5.0-2.12","6404fb7b9a7b3cfb4179d185","bdp_rd","Tue Mar 28 2023 17:32:01 GMT-0400 (Eastern Daylight Time)","203744","","1323","","","","offer","","<div class='trialBorder'><div class='vertical-center'><img style='vertical-align:center; align:center' src=img/fixation3.jpg></div><div class='cl'><div class='vertical-center'>$39<br>for<br>sure</div></div><div class='cr'><div class='vertical-center'>$81<br>with a<br>50% chance</div></div><div class='respDivL'><div class='vertical-center'>(E)</div></div><div class='respDivR'><div class='vertical-center'>(I)</div></div></div>","E","$39","$81","0","39","81","SURE"
"html-keyboard-response","42","79130","0.0-5.0-3.12","6404fb7b9a7b3cfb4179d185","bdp_rd","Tue Mar 28 2023 17:32:01 GMT-0400 (Eastern Daylight Time)","203744","","null","","","","offerFB","","<div class='trialBorder'><div class='vertical-center'><img style='vertical-align:center; align:center' src=img/fixation3.jpg></div><div class='cl'><div class='vertical-center'><font style='color:orange'>$39<br>for<br>sure</font></div></div><div class='cr'><div class='vertical-center'>$81<br>with a<br>50% chance</div></div><div class='respDivL'><div class='vertical-center'><font style='color:orange'>(E)</font></div></div><div class='respDivR'><div class='vertical-center'>(I)</div></div></div>","null","$39","$81","0","39","81",""
"html-keyboard-response","43","79632","0.0-5.0-1.13","6404fb7b9a7b3cfb4179d185","bdp_rd","Tue Mar 28 2023 17:32:01 GMT-0400 (Eastern Daylight Time)","203744","","null","","","","FIX","","<div class='trialBorder'><div class='vertical-center'><img style='vertical-align:center; align:center' src=img/fixation3.jpg></div></div>","null","","","","","",""
"html-keyboard-response","44","81508","0.0-5.0-2.13","6404fb7b9a7b3cfb4179d185","bdp_rd","Tue Mar 28 2023 17:32:01 GMT-0400 (Eastern Daylight Time)","203744","","1875","","","","offer","","<div class='trialBorder'><div class='vertical-center'><img style='vertical-align:center; align:center' src=img/fixation3.jpg></div><div class='cl'><div class='vertical-center'>$29<br>for<br>sure</div></div><div class='cr'><div class='vertical-center'>$46<br>with a<br>50% chance</div></div><div class='respDivL'><div class='vertical-center'>(E)</div></div><div class='respDivR'><div class='vertical-center'>(I)</div></div></div>","E","$29","$46","0","29","46","SURE"
"html-keyboard-response","45","81759","0.0-5.0-3.13","6404fb7b9a7b3cfb4179d185","bdp_rd","Tue Mar 28 2023 17:32:01 GMT-0400 (Eastern Daylight Time)","203744","","null","","","","offerFB","","<div class='trialBorder'><div class='vertical-center'><img style='vertical-align:center; align:center' src=img/fixation3.jpg></div><div class='cl'><div class='vertical-center'><font style='color:orange'>$29<br>for<br>sure</font></div></div><div class='cr'><div class='vertical-center'>$46<br>with a<br>50% chance</div></div><div class='respDivL'><div class='vertical-center'><font style='color:orange'>(E)</font></div></div><div class='respDivR'><div class='vertical-center'>(I)</div></div></div>","null","$29","$46","0","29","46",""
"html-keyboard-response","46","82260","0.0-5.0-1.14","6404fb7b9a7b3cfb4179d185","bdp_rd","Tue Mar 28 2023 17:32:01 GMT-0400 (Eastern Daylight Time)","203744","","null","","","","FIX","","<div class='trialBorder'><div class='vertical-center'><img style='vertical-align:center; align:center' src=img/fixation3.jpg></div></div>","null","","","","","",""
"html-keyboard-response","47","83874","0.0-5.0-2.14","6404fb7b9a7b3cfb4179d185","bdp_rd","Tue Mar 28 2023 17:32:01 GMT-0400 (Eastern Daylight Time)","203744","","1613","","","","offer","","<div class='trialBorder'><div class='vertical-center'><img style='vertical-align:center; align:center' src=img/fixation3.jpg></div><div class='cl'><div class='vertical-center'>$12<br>for<br>sure</div></div><div class='cr'><div class='vertical-center'>$35<br>with a<br>50% chance</div></div><div class='respDivL'><div class='vertical-center'>(E)</div></div><div class='respDivR'><div class='vertical-center'>(I)</div></div></div>","E","$12","$35","0","12","35","SURE"
"html-keyboard-response","48","84125","0.0-5.0-3.14","6404fb7b9a7b3cfb4179d185","bdp_rd","Tue Mar 28 2023 17:32:01 GMT-0400 (Eastern Daylight Time)","203744","","null","","","","offerFB","","<div class='trialBorder'><div class='vertical-center'><img style='vertical-align:center; align:center' src=img/fixation3.jpg></div><div class='cl'><div class='vertical-center'><font style='color:orange'>$12<br>for<br>sure</font></div></div><div class='cr'><div class='vertical-center'>$35<br>with a<br>50% chance</div></div><div class='respDivL'><div class='vertical-center'><font style='color:orange'>(E)</font></div></div><div class='respDivR'><div class='vertical-center'>(I)</div></div></div>","null","$12","$35","0","12","35",""
"html-keyboard-response","49","84626","0.0-5.0-1.15","6404fb7b9a7b3cfb4179d185","bdp_rd","Tue Mar 28 2023 17:32:01 GMT-0400 (Eastern Daylight Time)","203744","","null","","","","FIX","","<div class='trialBorder'><div class='vertical-center'><img style='vertical-align:center; align:center' src=img/fixation3.jpg></div></div>","null","","","","","",""
"html-keyboard-response","50","85932","0.0-5.0-2.15","6404fb7b9a7b3cfb4179d185","bdp_rd","Tue Mar 28 2023 17:32:01 GMT-0400 (Eastern Daylight Time)","203744","","1305","","","","offer","","<div class='trialBorder'><div class='vertical-center'><img style='vertical-align:center; align:center' src=img/fixation3.jpg></div><div class='cl'><div class='vertical-center'>$18<br>for<br>sure</div></div><div class='cr'><div class='vertical-center'>$36<br>with a<br>50% chance</div></div><div class='respDivL'><div class='vertical-center'>(E)</div></div><div class='respDivR'><div class='vertical-center'>(I)</div></div></div>","E","$18","$36","0","18","36","SURE"
"html-keyboard-response","51","86184","0.0-5.0-3.15","6404fb7b9a7b3cfb4179d185","bdp_rd","Tue Mar 28 2023 17:32:01 GMT-0400 (Eastern Daylight Time)","203744","","null","","","","offerFB","","<div class='trialBorder'><div class='vertical-center'><img style='vertical-align:center; align:center' src=img/fixation3.jpg></div><div class='cl'><div class='vertical-center'><font style='color:orange'>$18<br>for<br>sure</font></div></div><div class='cr'><div class='vertical-center'>$36<br>with a<br>50% chance</div></div><div class='respDivL'><div class='vertical-center'><font style='color:orange'>(E)</font></div></div><div class='respDivR'><div class='vertical-center'>(I)</div></div></div>","null","$18","$36","0","18","36",""
"html-keyboard-response","52","86684","0.0-5.0-1.16","6404fb7b9a7b3cfb4179d185","bdp_rd","Tue Mar 28 2023 17:32:01 GMT-0400 (Eastern Daylight Time)","203744","","null","","","","FIX","","<div class='trialBorder'><div class='vertical-center'><img style='vertical-align:center; align:center' src=img/fixation3.jpg></div></div>","null","","","","","",""
"html-keyboard-response","53","88066","0.0-5.0-2.16","6404fb7b9a7b3cfb4179d185","bdp_rd","Tue Mar 28 2023 17:32:01 GMT-0400 (Eastern Daylight Time)","203744","","1381","","","","offer","","<div class='trialBorder'><div class='vertical-center'><img style='vertical-align:center; align:center' src=img/fixation3.jpg></div><div class='cl'><div class='vertical-center'>$12<br>for<br>sure</div></div><div class='cr'><div class='vertical-center'>$27<br>with a<br>50% chance</div></div><div class='respDivL'><div class='vertical-center'>(E)</div></div><div class='respDivR'><div class='vertical-center'>(I)</div></div></div>","E","$12","$27","0","12","27","SURE"
"html-keyboard-response","54","88318","0.0-5.0-3.16","6404fb7b9a7b3cfb4179d185","bdp_rd","Tue Mar 28 2023 17:32:01 GMT-0400 (Eastern Daylight Time)","203744","","null","","","","offerFB","","<div class='trialBorder'><div class='vertical-center'><img style='vertical-align:center; align:center' src=img/fixation3.jpg></div><div class='cl'><div class='vertical-center'><font style='color:orange'>$12<br>for<br>sure</font></div></div><div class='cr'><div class='vertical-center'>$27<br>with a<br>50% chance</div></div><div class='respDivL'><div class='vertical-center'><font style='color:orange'>(E)</font></div></div><div class='respDivR'><div class='vertical-center'>(I)</div></div></div>","null","$12","$27","0","12","27",""
"html-keyboard-response","55","88819","0.0-5.0-1.17","6404fb7b9a7b3cfb4179d185","bdp_rd","Tue Mar 28 2023 17:32:01 GMT-0400 (Eastern Daylight Time)","203744","","null","","","","FIX","","<div class='trialBorder'><div class='vertical-center'><img style='vertical-align:center; align:center' src=img/fixation3.jpg></div></div>","null","","","","","",""
"html-keyboard-response","56","90429","0.0-5.0-2.17","6404fb7b9a7b3cfb4179d185","bdp_rd","Tue Mar 28 2023 17:32:01 GMT-0400 (Eastern Daylight Time)","203744","","1609","","","","offer","","<div class='trialBorder'><div class='vertical-center'><img style='vertical-align:center; align:center' src=img/fixation3.jpg></div><div class='cl'><div class='vertical-center'>$34<br>with a<br>50% chance</div></div><div class='cr'><div class='vertical-center'>$15<br>for<br>sure</div></div><div class='respDivL'><div class='vertical-center'>(E)</div></div><div class='respDivR'><div class='vertical-center'>(I)</div></div></div>","I","$15","$34","1","15","34","SURE"
"html-keyboard-response","57","90681","0.0-5.0-3.17","6404fb7b9a7b3cfb4179d185","bdp_rd","Tue Mar 28 2023 17:32:01 GMT-0400 (Eastern Daylight Time)","203744","","null","","","","offerFB","","<div class='trialBorder'><div class='vertical-center'><img style='vertical-align:center; align:center' src=img/fixation3.jpg></div><div class='cl'><div class='vertical-center'>$34<br>with a<br>50% chance</div></div><div class='cr'><div class='vertical-center'><font style='color:orange'>$15<br>for<br>sure</font></div></div><div class='respDivL'><div class='vertical-center'>(E)</div></div><div class='respDivR'><div class='vertical-center'><font style='color:orange'>(I)</font></div></div></div>","null","$15","$34","1","15","34",""
"html-keyboard-response","58","91182","0.0-5.0-1.18","6404fb7b9a7b3cfb4179d185","bdp_rd","Tue Mar 28 2023 17:32:01 GMT-0400 (Eastern Daylight Time)","203744","","null","","","","FIX","","<div class='trialBorder'><div class='vertical-center'><img style='vertical-align:center; align:center' src=img/fixation3.jpg></div></div>","null","","","","","",""
"html-keyboard-response","59","92765","0.0-5.0-2.18","6404fb7b9a7b3cfb4179d185","bdp_rd","Tue Mar 28 2023 17:32:01 GMT-0400 (Eastern Daylight Time)","203744","","1582","","","","offer","","<div class='trialBorder'><div class='vertical-center'><img style='vertical-align:center; align:center' src=img/fixation3.jpg></div><div class='cl'><div class='vertical-center'>$48<br>with a<br>50% chance</div></div><div class='cr'><div class='vertical-center'>$34<br>for<br>sure</div></div><div class='respDivL'><div class='vertical-center'>(E)</div></div><div class='respDivR'><div class='vertical-center'>(I)</div></div></div>","I","$34","$48","1","34","48","SURE"
"html-keyboard-response","60","93016","0.0-5.0-3.18","6404fb7b9a7b3cfb4179d185","bdp_rd","Tue Mar 28 2023 17:32:01 GMT-0400 (Eastern Daylight Time)","203744","","null","","","","offerFB","","<div class='trialBorder'><div class='vertical-center'><img style='vertical-align:center; align:center' src=img/fixation3.jpg></div><div class='cl'><div class='vertical-center'>$48<br>with a<br>50% chance</div></div><div class='cr'><div class='vertical-center'><font style='color:orange'>$34<br>for<br>sure</font></div></div><div class='respDivL'><div class='vertical-center'>(E)</div></div><div class='respDivR'><div class='vertical-center'><font style='color:orange'>(I)</font></div></div></div>","null","$34","$48","1","34","48",""
"html-keyboard-response","61","93518","0.0-5.0-1.19","6404fb7b9a7b3cfb4179d185","bdp_rd","Tue Mar 28 2023 17:32:01 GMT-0400 (Eastern Daylight Time)","203744","","null","","","","FIX","","<div class='trialBorder'><div class='vertical-center'><img style='vertical-align:center; align:center' src=img/fixation3.jpg></div></div>","null","","","","","",""
"html-keyboard-response","62","95312","0.0-5.0-2.19","6404fb7b9a7b3cfb4179d185","bdp_rd","Tue Mar 28 2023 17:32:01 GMT-0400 (Eastern Daylight Time)","203744","","1794","","","","offer","","<div class='trialBorder'><div class='vertical-center'><img style='vertical-align:center; align:center' src=img/fixation3.jpg></div><div class='cl'><div class='vertical-center'>$59<br>with a<br>50% chance</div></div><div class='cr'><div class='vertical-center'>$22<br>for<br>sure</div></div><div class='respDivL'><div class='vertical-center'>(E)</div></div><div class='respDivR'><div class='vertical-center'>(I)</div></div></div>","I","$22","$59","1","22","59","SURE"
"html-keyboard-response","63","95563","0.0-5.0-3.19","6404fb7b9a7b3cfb4179d185","bdp_rd","Tue Mar 28 2023 17:32:01 GMT-0400 (Eastern Daylight Time)","203744","","null","","","","offerFB","","<div class='trialBorder'><div class='vertical-center'><img style='vertical-align:center; align:center' src=img/fixation3.jpg></div><div class='cl'><div class='vertical-center'>$59<br>with a<br>50% chance</div></div><div class='cr'><div class='vertical-center'><font style='color:orange'>$22<br>for<br>sure</font></div></div><div class='respDivL'><div class='vertical-center'>(E)</div></div><div class='respDivR'><div class='vertical-center'><font style='color:orange'>(I)</font></div></div></div>","null","$22","$59","1","22","59",""
"html-keyboard-response","64","96064","0.0-5.0-1.20","6404fb7b9a7b3cfb4179d185","bdp_rd","Tue Mar 28 2023 17:32:01 GMT-0400 (Eastern Daylight Time)","203744","","null","","","","FIX","","<div class='trialBorder'><div class='vertical-center'><img style='vertical-align:center; align:center' src=img/fixation3.jpg></div></div>","null","","","","","",""
"html-keyboard-response","65","97722","0.0-5.0-2.20","6404fb7b9a7b3cfb4179d185","bdp_rd","Tue Mar 28 2023 17:32:01 GMT-0400 (Eastern Daylight Time)","203744","","1657","","","","offer","","<div class='trialBorder'><div class='vertical-center'><img style='vertical-align:center; align:center' src=img/fixation3.jpg></div><div class='cl'><div class='vertical-center'>$6<br>for<br>sure</div></div><div class='cr'><div class='vertical-center'>$15<br>with a<br>50% chance</div></div><div class='respDivL'><div class='vertical-center'>(E)</div></div><div class='respDivR'><div class='vertical-center'>(I)</div></div></div>","E","$6","$15","0","6","15","SURE"
"html-keyboard-response","66","97974","0.0-5.0-3.20","6404fb7b9a7b3cfb4179d185","bdp_rd","Tue Mar 28 2023 17:32:01 GMT-0400 (Eastern Daylight Time)","203744","","null","","","","offerFB","","<div class='trialBorder'><div class='vertical-center'><img style='vertical-align:center; align:center' src=img/fixation3.jpg></div><div class='cl'><div class='vertical-center'><font style='color:orange'>$6<br>for<br>sure</font></div></div><div class='cr'><div class='vertical-center'>$15<br>with a<br>50% chance</div></div><div class='respDivL'><div class='vertical-center'><font style='color:orange'>(E)</font></div></div><div class='respDivR'><div class='vertical-center'>(I)</div></div></div>","null","$6","$15","0","6","15",""
"html-keyboard-response","67","98475","0.0-5.0-1.21","6404fb7b9a7b3cfb4179d185","bdp_rd","Tue Mar 28 2023 17:32:01 GMT-0400 (Eastern Daylight Time)","203744","","null","","","","FIX","","<div class='trialBorder'><div class='vertical-center'><img style='vertical-align:center; align:center' src=img/fixation3.jpg></div></div>","null","","","","","",""
"html-keyboard-response","68","101474","0.0-5.0-2.21","6404fb7b9a7b3cfb4179d185","bdp_rd","Tue Mar 28 2023 17:32:01 GMT-0400 (Eastern Daylight Time)","203744","","2998","","","","offer","","<div class='trialBorder'><div class='vertical-center'><img style='vertical-align:center; align:center' src=img/fixation3.jpg></div><div class='cl'><div class='vertical-center'>$50<br>with a<br>50% chance</div></div><div class='cr'><div class='vertical-center'>$5<br>for<br>sure</div></div><div class='respDivL'><div class='vertical-center'>(E)</div></div><div class='respDivR'><div class='vertical-center'>(I)</div></div></div>","E","$5","$50","1","5","50","RISKY"
"html-keyboard-response","69","101725","0.0-5.0-3.21","6404fb7b9a7b3cfb4179d185","bdp_rd","Tue Mar 28 2023 17:32:01 GMT-0400 (Eastern Daylight Time)","203744","","null","","","","offerFB","","<div class='trialBorder'><div class='vertical-center'><img style='vertical-align:center; align:center' src=img/fixation3.jpg></div><div class='cl'><div class='vertical-center'><font style='color:orange'>$50<br>with a<br>50% chance</font></div></div><div class='cr'><div class='vertical-center'>$5<br>for<br>sure</div></div><div class='respDivL'><div class='vertical-center'><font style='color:orange'>(E)</font></div></div><div class='respDivR'><div class='vertical-center'>(I)</div></div></div>","null","$5","$50","1","5","50",""
"html-keyboard-response","70","102228","0.0-5.0-1.22","6404fb7b9a7b3cfb4179d185","bdp_rd","Tue Mar 28 2023 17:32:01 GMT-0400 (Eastern Daylight Time)","203744","","null","","","","FIX","","<div class='trialBorder'><div class='vertical-center'><img style='vertical-align:center; align:center' src=img/fixation3.jpg></div></div>","null","","","","","",""
"html-keyboard-response","71","103992","0.0-5.0-2.22","6404fb7b9a7b3cfb4179d185","bdp_rd","Tue Mar 28 2023 17:32:01 GMT-0400 (Eastern Daylight Time)","203744","","1763","","","","offer","","<div class='trialBorder'><div class='vertical-center'><img style='vertical-align:center; align:center' src=img/fixation3.jpg></div><div class='cl'><div class='vertical-center'>$25<br>with a<br>50% chance</div></div><div class='cr'><div class='vertical-center'>$21<br>for<br>sure</div></div><div class='respDivL'><div class='vertical-center'>(E)</div></div><div class='respDivR'><div class='vertical-center'>(I)</div></div></div>","I","$21","$25","1","21","25","SURE"
"html-keyboard-response","72","104243","0.0-5.0-3.22","6404fb7b9a7b3cfb4179d185","bdp_rd","Tue Mar 28 2023 17:32:01 GMT-0400 (Eastern Daylight Time)","203744","","null","","","","offerFB","","<div class='trialBorder'><div class='vertical-center'><img style='vertical-align:center; align:center' src=img/fixation3.jpg></div><div class='cl'><div class='vertical-center'>$25<br>with a<br>50% chance</div></div><div class='cr'><div class='vertical-center'><font style='color:orange'>$21<br>for<br>sure</font></div></div><div class='respDivL'><div class='vertical-center'>(E)</div></div><div class='respDivR'><div class='vertical-center'><font style='color:orange'>(I)</font></div></div></div>","null","$21","$25","1","21","25",""
"html-keyboard-response","73","104745","0.0-5.0-1.23","6404fb7b9a7b3cfb4179d185","bdp_rd","Tue Mar 28 2023 17:32:01 GMT-0400 (Eastern Daylight Time)","203744","","null","","","","FIX","","<div class='trialBorder'><div class='vertical-center'><img style='vertical-align:center; align:center' src=img/fixation3.jpg></div></div>","null","","","","","",""
"html-keyboard-response","74","111614","0.0-5.0-2.23","6404fb7b9a7b3cfb4179d185","bdp_rd","Tue Mar 28 2023 17:32:01 GMT-0400 (Eastern Daylight Time)","203744","","6867","","","","offer","","<div class='trialBorder'><div class='vertical-center'><img style='vertical-align:center; align:center' src=img/fixation3.jpg></div><div class='cl'><div class='vertical-center'>$32<br>with a<br>50% chance</div></div><div class='cr'><div class='vertical-center'>$9<br>for<br>sure</div></div><div class='respDivL'><div class='vertical-center'>(E)</div></div><div class='respDivR'><div class='vertical-center'>(I)</div></div></div>","E","$9","$32","1","9","32","RISKY"
"html-keyboard-response","75","111865","0.0-5.0-3.23","6404fb7b9a7b3cfb4179d185","bdp_rd","Tue Mar 28 2023 17:32:01 GMT-0400 (Eastern Daylight Time)","203744","","null","","","","offerFB","","<div class='trialBorder'><div class='vertical-center'><img style='vertical-align:center; align:center' src=img/fixation3.jpg></div><div class='cl'><div class='vertical-center'><font style='color:orange'>$32<br>with a<br>50% chance</font></div></div><div class='cr'><div class='vertical-center'>$9<br>for<br>sure</div></div><div class='respDivL'><div class='vertical-center'><font style='color:orange'>(E)</font></div></div><div class='respDivR'><div class='vertical-center'>(I)</div></div></div>","null","$9","$32","1","9","32",""
"html-keyboard-response","76","112367","0.0-5.0-1.24","6404fb7b9a7b3cfb4179d185","bdp_rd","Tue Mar 28 2023 17:32:01 GMT-0400 (Eastern Daylight Time)","203744","","null","","","","FIX","","<div class='trialBorder'><div class='vertical-center'><img style='vertical-align:center; align:center' src=img/fixation3.jpg></div></div>","null","","","","","",""
"html-keyboard-response","77","113852","0.0-5.0-2.24","6404fb7b9a7b3cfb4179d185","bdp_rd","Tue Mar 28 2023 17:32:01 GMT-0400 (Eastern Daylight Time)","203744","","1485","","","","offer","","<div class='trialBorder'><div class='vertical-center'><img style='vertical-align:center; align:center' src=img/fixation3.jpg></div><div class='cl'><div class='vertical-center'>$24<br>with a<br>50% chance</div></div><div class='cr'><div class='vertical-center'>$13<br>for<br>sure</div></div><div class='respDivL'><div class='vertical-center'>(E)</div></div><div class='respDivR'><div class='vertical-center'>(I)</div></div></div>","I","$13","$24","1","13","24","SURE"
"html-keyboard-response","78","114104","0.0-5.0-3.24","6404fb7b9a7b3cfb4179d185","bdp_rd","Tue Mar 28 2023 17:32:01 GMT-0400 (Eastern Daylight Time)","203744","","null","","","","offerFB","","<div class='trialBorder'><div class='vertical-center'><img style='vertical-align:center; align:center' src=img/fixation3.jpg></div><div class='cl'><div class='vertical-center'>$24<br>with a<br>50% chance</div></div><div class='cr'><div class='vertical-center'><font style='color:orange'>$13<br>for<br>sure</font></div></div><div class='respDivL'><div class='vertical-center'>(E)</div></div><div class='respDivR'><div class='vertical-center'><font style='color:orange'>(I)</font></div></div></div>","null","$13","$24","1","13","24",""
"html-keyboard-response","79","114606","0.0-5.0-1.25","6404fb7b9a7b3cfb4179d185","bdp_rd","Tue Mar 28 2023 17:32:01 GMT-0400 (Eastern Daylight Time)","203744","","null","","","","FIX","","<div class='trialBorder'><div class='vertical-center'><img style='vertical-align:center; align:center' src=img/fixation3.jpg></div></div>","null","","","","","",""
"html-keyboard-response","80","116240","0.0-5.0-2.25","6404fb7b9a7b3cfb4179d185","bdp_rd","Tue Mar 28 2023 17:32:01 GMT-0400 (Eastern Daylight Time)","203744","","1634","","","","offer","","<div class='trialBorder'><div class='vertical-center'><img style='vertical-align:center; align:center' src=img/fixation3.jpg></div><div class='cl'><div class='vertical-center'>$54<br>with a<br>50% chance</div></div><div class='cr'><div class='vertical-center'>$25<br>for<br>sure</div></div><div class='respDivL'><div class='vertical-center'>(E)</div></div><div class='respDivR'><div class='vertical-center'>(I)</div></div></div>","I","$25","$54","1","25","54","SURE"
"html-keyboard-response","81","116491","0.0-5.0-3.25","6404fb7b9a7b3cfb4179d185","bdp_rd","Tue Mar 28 2023 17:32:01 GMT-0400 (Eastern Daylight Time)","203744","","null","","","","offerFB","","<div class='trialBorder'><div class='vertical-center'><img style='vertical-align:center; align:center' src=img/fixation3.jpg></div><div class='cl'><div class='vertical-center'>$54<br>with a<br>50% chance</div></div><div class='cr'><div class='vertical-center'><font style='color:orange'>$25<br>for<br>sure</font></div></div><div class='respDivL'><div class='vertical-center'>(E)</div></div><div class='respDivR'><div class='vertical-center'><font style='color:orange'>(I)</font></div></div></div>","null","$25","$54","1","25","54",""
"html-keyboard-response","82","116993","0.0-5.0-1.26","6404fb7b9a7b3cfb4179d185","bdp_rd","Tue Mar 28 2023 17:32:01 GMT-0400 (Eastern Daylight Time)","203744","","null","","","","FIX","","<div class='trialBorder'><div class='vertical-center'><img style='vertical-align:center; align:center' src=img/fixation3.jpg></div></div>","null","","","","","",""
"html-keyboard-response","83","119114","0.0-5.0-2.26","6404fb7b9a7b3cfb4179d185","bdp_rd","Tue Mar 28 2023 17:32:01 GMT-0400 (Eastern Daylight Time)","203744","","2121","","","","offer","","<div class='trialBorder'><div class='vertical-center'><img style='vertical-align:center; align:center' src=img/fixation3.jpg></div><div class='cl'><div class='vertical-center'>$18<br>with a<br>50% chance</div></div><div class='cr'><div class='vertical-center'>$9<br>for<br>sure</div></div><div class='respDivL'><div class='vertical-center'>(E)</div></div><div class='respDivR'><div class='vertical-center'>(I)</div></div></div>","I","$9","$18","1","9","18","SURE"
"html-keyboard-response","84","119365","0.0-5.0-3.26","6404fb7b9a7b3cfb4179d185","bdp_rd","Tue Mar 28 2023 17:32:01 GMT-0400 (Eastern Daylight Time)","203744","","null","","","","offerFB","","<div class='trialBorder'><div class='vertical-center'><img style='vertical-align:center; align:center' src=img/fixation3.jpg></div><div class='cl'><div class='vertical-center'>$18<br>with a<br>50% chance</div></div><div class='cr'><div class='vertical-center'><font style='color:orange'>$9<br>for<br>sure</font></div></div><div class='respDivL'><div class='vertical-center'>(E)</div></div><div class='respDivR'><div class='vertical-center'><font style='color:orange'>(I)</font></div></div></div>","null","$9","$18","1","9","18",""
"html-keyboard-response","85","119866","0.0-5.0-1.27","6404fb7b9a7b3cfb4179d185","bdp_rd","Tue Mar 28 2023 17:32:01 GMT-0400 (Eastern Daylight Time)","203744","","null","","","","FIX","","<div class='trialBorder'><div class='vertical-center'><img style='vertical-align:center; align:center' src=img/fixation3.jpg></div></div>","null","","","","","",""
"html-keyboard-response","86","122511","0.0-5.0-2.27","6404fb7b9a7b3cfb4179d185","bdp_rd","Tue Mar 28 2023 17:32:01 GMT-0400 (Eastern Daylight Time)","203744","","2644","","","","offer","","<div class='trialBorder'><div class='vertical-center'><img style='vertical-align:center; align:center' src=img/fixation3.jpg></div><div class='cl'><div class='vertical-center'>$13<br>for<br>sure</div></div><div class='cr'><div class='vertical-center'>$41<br>with a<br>50% chance</div></div><div class='respDivL'><div class='vertical-center'>(E)</div></div><div class='respDivR'><div class='vertical-center'>(I)</div></div></div>","E","$13","$41","0","13","41","SURE"
"html-keyboard-response","87","122763","0.0-5.0-3.27","6404fb7b9a7b3cfb4179d185","bdp_rd","Tue Mar 28 2023 17:32:01 GMT-0400 (Eastern Daylight Time)","203744","","null","","","","offerFB","","<div class='trialBorder'><div class='vertical-center'><img style='vertical-align:center; align:center' src=img/fixation3.jpg></div><div class='cl'><div class='vertical-center'><font style='color:orange'>$13<br>for<br>sure</font></div></div><div class='cr'><div class='vertical-center'>$41<br>with a<br>50% chance</div></div><div class='respDivL'><div class='vertical-center'><font style='color:orange'>(E)</font></div></div><div class='respDivR'><div class='vertical-center'>(I)</div></div></div>","null","$13","$41","0","13","41",""
"html-keyboard-response","88","123264","0.0-5.0-1.28","6404fb7b9a7b3cfb4179d185","bdp_rd","Tue Mar 28 2023 17:32:01 GMT-0400 (Eastern Daylight Time)","203744","","null","","","","FIX","","<div class='trialBorder'><div class='vertical-center'><img style='vertical-align:center; align:center' src=img/fixation3.jpg></div></div>","null","","","","","",""
"html-keyboard-response","89","125406","0.0-5.0-2.28","6404fb7b9a7b3cfb4179d185","bdp_rd","Tue Mar 28 2023 17:32:01 GMT-0400 (Eastern Daylight Time)","203744","","2142","","","","offer","","<div class='trialBorder'><div class='vertical-center'><img style='vertical-align:center; align:center' src=img/fixation3.jpg></div><div class='cl'><div class='vertical-center'>$33<br>with a<br>50% chance</div></div><div class='cr'><div class='vertical-center'>$1<br>for<br>sure</div></div><div class='respDivL'><div class='vertical-center'>(E)</div></div><div class='respDivR'><div class='vertical-center'>(I)</div></div></div>","E","$1","$33","1","1","33","RISKY"
"html-keyboard-response","90","125658","0.0-5.0-3.28","6404fb7b9a7b3cfb4179d185","bdp_rd","Tue Mar 28 2023 17:32:01 GMT-0400 (Eastern Daylight Time)","203744","","null","","","","offerFB","","<div class='trialBorder'><div class='vertical-center'><img style='vertical-align:center; align:center' src=img/fixation3.jpg></div><div class='cl'><div class='vertical-center'><font style='color:orange'>$33<br>with a<br>50% chance</font></div></div><div class='cr'><div class='vertical-center'>$1<br>for<br>sure</div></div><div class='respDivL'><div class='vertical-center'><font style='color:orange'>(E)</font></div></div><div class='respDivR'><div class='vertical-center'>(I)</div></div></div>","null","$1","$33","1","1","33",""
"html-keyboard-response","91","126160","0.0-5.0-1.29","6404fb7b9a7b3cfb4179d185","bdp_rd","Tue Mar 28 2023 17:32:01 GMT-0400 (Eastern Daylight Time)","203744","","null","","","","FIX","","<div class='trialBorder'><div class='vertical-center'><img style='vertical-align:center; align:center' src=img/fixation3.jpg></div></div>","null","","","","","",""
"html-keyboard-response","92","128025","0.0-5.0-2.29","6404fb7b9a7b3cfb4179d185","bdp_rd","Tue Mar 28 2023 17:32:01 GMT-0400 (Eastern Daylight Time)","203744","","1865","","","","offer","","<div class='trialBorder'><div class='vertical-center'><img style='vertical-align:center; align:center' src=img/fixation3.jpg></div><div class='cl'><div class='vertical-center'>$20<br>for<br>sure</div></div><div class='cr'><div class='vertical-center'>$37<br>with a<br>50% chance</div></div><div class='respDivL'><div class='vertical-center'>(E)</div></div><div class='respDivR'><div class='vertical-center'>(I)</div></div></div>","E","$20","$37","0","20","37","SURE"
"html-keyboard-response","93","128277","0.0-5.0-3.29","6404fb7b9a7b3cfb4179d185","bdp_rd","Tue Mar 28 2023 17:32:01 GMT-0400 (Eastern Daylight Time)","203744","","null","","","","offerFB","","<div class='trialBorder'><div class='vertical-center'><img style='vertical-align:center; align:center' src=img/fixation3.jpg></div><div class='cl'><div class='vertical-center'><font style='color:orange'>$20<br>for<br>sure</font></div></div><div class='cr'><div class='vertical-center'>$37<br>with a<br>50% chance</div></div><div class='respDivL'><div class='vertical-center'><font style='color:orange'>(E)</font></div></div><div class='respDivR'><div class='vertical-center'>(I)</div></div></div>","null","$20","$37","0","20","37",""
"html-keyboard-response","94","128779","0.0-5.0-1.30","6404fb7b9a7b3cfb4179d185","bdp_rd","Tue Mar 28 2023 17:32:01 GMT-0400 (Eastern Daylight Time)","203744","","null","","","","FIX","","<div class='trialBorder'><div class='vertical-center'><img style='vertical-align:center; align:center' src=img/fixation3.jpg></div></div>","null","","","","","",""
"html-keyboard-response","95","130607","0.0-5.0-2.30","6404fb7b9a7b3cfb4179d185","bdp_rd","Tue Mar 28 2023 17:32:01 GMT-0400 (Eastern Daylight Time)","203744","","1827","","","","offer","","<div class='trialBorder'><div class='vertical-center'><img style='vertical-align:center; align:center' src=img/fixation3.jpg></div><div class='cl'><div class='vertical-center'>$64<br>with a<br>50% chance</div></div><div class='cr'><div class='vertical-center'>$2<br>for<br>sure</div></div><div class='respDivL'><div class='vertical-center'>(E)</div></div><div class='respDivR'><div class='vertical-center'>(I)</div></div></div>","E","$2","$64","1","2","64","RISKY"
"html-keyboard-response","96","130859","0.0-5.0-3.30","6404fb7b9a7b3cfb4179d185","bdp_rd","Tue Mar 28 2023 17:32:01 GMT-0400 (Eastern Daylight Time)","203744","","null","","","","offerFB","","<div class='trialBorder'><div class='vertical-center'><img style='vertical-align:center; align:center' src=img/fixation3.jpg></div><div class='cl'><div class='vertical-center'><font style='color:orange'>$64<br>with a<br>50% chance</font></div></div><div class='cr'><div class='vertical-center'>$2<br>for<br>sure</div></div><div class='respDivL'><div class='vertical-center'><font style='color:orange'>(E)</font></div></div><div class='respDivR'><div class='vertical-center'>(I)</div></div></div>","null","$2","$64","1","2","64",""
"html-keyboard-response","97","131360","0.0-5.0-1.31","6404fb7b9a7b3cfb4179d185","bdp_rd","Tue Mar 28 2023 17:32:01 GMT-0400 (Eastern Daylight Time)","203744","","null","","","","FIX","","<div class='trialBorder'><div class='vertical-center'><img style='vertical-align:center; align:center' src=img/fixation3.jpg></div></div>","null","","","","","",""
"html-keyboard-response","98","132987","0.0-5.0-2.31","6404fb7b9a7b3cfb4179d185","bdp_rd","Tue Mar 28 2023 17:32:01 GMT-0400 (Eastern Daylight Time)","203744","","1626","","","","offer","","<div class='trialBorder'><div class='vertical-center'><img style='vertical-align:center; align:center' src=img/fixation3.jpg></div><div class='cl'><div class='vertical-center'>$22<br>for<br>sure</div></div><div class='cr'><div class='vertical-center'>$42<br>with a<br>50% chance</div></div><div class='respDivL'><div class='vertical-center'>(E)</div></div><div class='respDivR'><div class='vertical-center'>(I)</div></div></div>","E","$22","$42","0","22","42","SURE"
"html-keyboard-response","99","133238","0.0-5.0-3.31","6404fb7b9a7b3cfb4179d185","bdp_rd","Tue Mar 28 2023 17:32:01 GMT-0400 (Eastern Daylight Time)","203744","","null","","","","offerFB","","<div class='trialBorder'><div class='vertical-center'><img style='vertical-align:center; align:center' src=img/fixation3.jpg></div><div class='cl'><div class='vertical-center'><font style='color:orange'>$22<br>for<br>sure</font></div></div><div class='cr'><div class='vertical-center'>$42<br>with a<br>50% chance</div></div><div class='respDivL'><div class='vertical-center'><font style='color:orange'>(E)</font></div></div><div class='respDivR'><div class='vertical-center'>(I)</div></div></div>","null","$22","$42","0","22","42",""
"html-keyboard-response","100","133740","0.0-5.0-1.32","6404fb7b9a7b3cfb4179d185","bdp_rd","Tue Mar 28 2023 17:32:01 GMT-0400 (Eastern Daylight Time)","203744","","null","","","","FIX","","<div class='trialBorder'><div class='vertical-center'><img style='vertical-align:center; align:center' src=img/fixation3.jpg></div></div>","null","","","","","",""
"html-keyboard-response","101","135244","0.0-5.0-2.32","6404fb7b9a7b3cfb4179d185","bdp_rd","Tue Mar 28 2023 17:32:01 GMT-0400 (Eastern Daylight Time)","203744","","1504","","","","offer","","<div class='trialBorder'><div class='vertical-center'><img style='vertical-align:center; align:center' src=img/fixation3.jpg></div><div class='cl'><div class='vertical-center'>$53<br>for<br>sure</div></div><div class='cr'><div class='vertical-center'>$98<br>with a<br>50% chance</div></div><div class='respDivL'><div class='vertical-center'>(E)</div></div><div class='respDivR'><div class='vertical-center'>(I)</div></div></div>","E","$53","$98","0","53","98","SURE"
"html-keyboard-response","102","135495","0.0-5.0-3.32","6404fb7b9a7b3cfb4179d185","bdp_rd","Tue Mar 28 2023 17:32:01 GMT-0400 (Eastern Daylight Time)","203744","","null","","","","offerFB","","<div class='trialBorder'><div class='vertical-center'><img style='vertical-align:center; align:center' src=img/fixation3.jpg></div><div class='cl'><div class='vertical-center'><font style='color:orange'>$53<br>for<br>sure</font></div></div><div class='cr'><div class='vertical-center'>$98<br>with a<br>50% chance</div></div><div class='respDivL'><div class='vertical-center'><font style='color:orange'>(E)</font></div></div><div class='respDivR'><div class='vertical-center'>(I)</div></div></div>","null","$53","$98","0","53","98",""
"html-keyboard-response","103","135997","0.0-5.0-1.33","6404fb7b9a7b3cfb4179d185","bdp_rd","Tue Mar 28 2023 17:32:01 GMT-0400 (Eastern Daylight Time)","203744","","null","","","","FIX","","<div class='trialBorder'><div class='vertical-center'><img style='vertical-align:center; align:center' src=img/fixation3.jpg></div></div>","null","","","","","",""
"html-keyboard-response","104","139091","0.0-5.0-2.33","6404fb7b9a7b3cfb4179d185","bdp_rd","Tue Mar 28 2023 17:32:01 GMT-0400 (Eastern Daylight Time)","203744","","3094","","","","offer","","<div class='trialBorder'><div class='vertical-center'><img style='vertical-align:center; align:center' src=img/fixation3.jpg></div><div class='cl'><div class='vertical-center'>$20<br>for<br>sure</div></div><div class='cr'><div class='vertical-center'>$80<br>with a<br>50% chance</div></div><div class='respDivL'><div class='vertical-center'>(E)</div></div><div class='respDivR'><div class='vertical-center'>(I)</div></div></div>","E","$20","$80","0","20","80","SURE"
"html-keyboard-response","105","139343","0.0-5.0-3.33","6404fb7b9a7b3cfb4179d185","bdp_rd","Tue Mar 28 2023 17:32:01 GMT-0400 (Eastern Daylight Time)","203744","","null","","","","offerFB","","<div class='trialBorder'><div class='vertical-center'><img style='vertical-align:center; align:center' src=img/fixation3.jpg></div><div class='cl'><div class='vertical-center'><font style='color:orange'>$20<br>for<br>sure</font></div></div><div class='cr'><div class='vertical-center'>$80<br>with a<br>50% chance</div></div><div class='respDivL'><div class='vertical-center'><font style='color:orange'>(E)</font></div></div><div class='respDivR'><div class='vertical-center'>(I)</div></div></div>","null","$20","$80","0","20","80",""
"html-keyboard-response","106","139844","0.0-5.0-1.34","6404fb7b9a7b3cfb4179d185","bdp_rd","Tue Mar 28 2023 17:32:01 GMT-0400 (Eastern Daylight Time)","203744","","null","","","","FIX","","<div class='trialBorder'><div class='vertical-center'><img style='vertical-align:center; align:center' src=img/fixation3.jpg></div></div>","null","","","","","",""
"html-keyboard-response","107","141454","0.0-5.0-2.34","6404fb7b9a7b3cfb4179d185","bdp_rd","Tue Mar 28 2023 17:32:01 GMT-0400 (Eastern Daylight Time)","203744","","1610","","","","offer","","<div class='trialBorder'><div class='vertical-center'><img style='vertical-align:center; align:center' src=img/fixation3.jpg></div><div class='cl'><div class='vertical-center'>$13<br>with a<br>50% chance</div></div><div class='cr'><div class='vertical-center'>$6<br>for<br>sure</div></div><div class='respDivL'><div class='vertical-center'>(E)</div></div><div class='respDivR'><div class='vertical-center'>(I)</div></div></div>","I","$6","$13","1","6","13","SURE"
"html-keyboard-response","108","141705","0.0-5.0-3.34","6404fb7b9a7b3cfb4179d185","bdp_rd","Tue Mar 28 2023 17:32:01 GMT-0400 (Eastern Daylight Time)","203744","","null","","","","offerFB","","<div class='trialBorder'><div class='vertical-center'><img style='vertical-align:center; align:center' src=img/fixation3.jpg></div><div class='cl'><div class='vertical-center'>$13<br>with a<br>50% chance</div></div><div class='cr'><div class='vertical-center'><font style='color:orange'>$6<br>for<br>sure</font></div></div><div class='respDivL'><div class='vertical-center'>(E)</div></div><div class='respDivR'><div class='vertical-center'><font style='color:orange'>(I)</font></div></div></div>","null","$6","$13","1","6","13",""
"html-keyboard-response","109","142206","0.0-5.0-1.35","6404fb7b9a7b3cfb4179d185","bdp_rd","Tue Mar 28 2023 17:32:01 GMT-0400 (Eastern Daylight Time)","203744","","null","","","","FIX","","<div class='trialBorder'><div class='vertical-center'><img style='vertical-align:center; align:center' src=img/fixation3.jpg></div></div>","null","","","","","",""
"html-keyboard-response","110","144522","0.0-5.0-2.35","6404fb7b9a7b3cfb4179d185","bdp_rd","Tue Mar 28 2023 17:32:01 GMT-0400 (Eastern Daylight Time)","203744","","2315","","","","offer","","<div class='trialBorder'><div class='vertical-center'><img style='vertical-align:center; align:center' src=img/fixation3.jpg></div><div class='cl'><div class='vertical-center'>$14<br>for<br>sure</div></div><div class='cr'><div class='vertical-center'>$29<br>with a<br>50% chance</div></div><div class='respDivL'><div class='vertical-center'>(E)</div></div><div class='respDivR'><div class='vertical-center'>(I)</div></div></div>","E","$14","$29","0","14","29","SURE"
"html-keyboard-response","111","144773","0.0-5.0-3.35","6404fb7b9a7b3cfb4179d185","bdp_rd","Tue Mar 28 2023 17:32:01 GMT-0400 (Eastern Daylight Time)","203744","","null","","","","offerFB","","<div class='trialBorder'><div class='vertical-center'><img style='vertical-align:center; align:center' src=img/fixation3.jpg></div><div class='cl'><div class='vertical-center'><font style='color:orange'>$14<br>for<br>sure</font></div></div><div class='cr'><div class='vertical-center'>$29<br>with a<br>50% chance</div></div><div class='respDivL'><div class='vertical-center'><font style='color:orange'>(E)</font></div></div><div class='respDivR'><div class='vertical-center'>(I)</div></div></div>","null","$14","$29","0","14","29",""
"html-keyboard-response","112","145275","0.0-5.0-1.36","6404fb7b9a7b3cfb4179d185","bdp_rd","Tue Mar 28 2023 17:32:01 GMT-0400 (Eastern Daylight Time)","203744","","null","","","","FIX","","<div class='trialBorder'><div class='vertical-center'><img style='vertical-align:center; align:center' src=img/fixation3.jpg></div></div>","null","","","","","",""
"html-keyboard-response","113","147044","0.0-5.0-2.36","6404fb7b9a7b3cfb4179d185","bdp_rd","Tue Mar 28 2023 17:32:01 GMT-0400 (Eastern Daylight Time)","203744","","1769","","","","offer","","<div class='trialBorder'><div class='vertical-center'><img style='vertical-align:center; align:center' src=img/fixation3.jpg></div><div class='cl'><div class='vertical-center'>$26<br>for<br>sure</div></div><div class='cr'><div class='vertical-center'>$92<br>with a<br>50% chance</div></div><div class='respDivL'><div class='vertical-center'>(E)</div></div><div class='respDivR'><div class='vertical-center'>(I)</div></div></div>","E","$26","$92","0","26","92","SURE"
"html-keyboard-response","114","147296","0.0-5.0-3.36","6404fb7b9a7b3cfb4179d185","bdp_rd","Tue Mar 28 2023 17:32:01 GMT-0400 (Eastern Daylight Time)","203744","","null","","","","offerFB","","<div class='trialBorder'><div class='vertical-center'><img style='vertical-align:center; align:center' src=img/fixation3.jpg></div><div class='cl'><div class='vertical-center'><font style='color:orange'>$26<br>for<br>sure</font></div></div><div class='cr'><div class='vertical-center'>$92<br>with a<br>50% chance</div></div><div class='respDivL'><div class='vertical-center'><font style='color:orange'>(E)</font></div></div><div class='respDivR'><div class='vertical-center'>(I)</div></div></div>","null","$26","$92","0","26","92",""
"html-keyboard-response","115","147798","0.0-5.0-1.37","6404fb7b9a7b3cfb4179d185","bdp_rd","Tue Mar 28 2023 17:32:01 GMT-0400 (Eastern Daylight Time)","203744","","null","","","","FIX","","<div class='trialBorder'><div class='vertical-center'><img style='vertical-align:center; align:center' src=img/fixation3.jpg></div></div>","null","","","","","",""
"html-keyboard-response","116","149766","0.0-5.0-2.37","6404fb7b9a7b3cfb4179d185","bdp_rd","Tue Mar 28 2023 17:32:01 GMT-0400 (Eastern Daylight Time)","203744","","1968","","","","offer","","<div class='trialBorder'><div class='vertical-center'><img style='vertical-align:center; align:center' src=img/fixation3.jpg></div><div class='cl'><div class='vertical-center'>$19<br>with a<br>50% chance</div></div><div class='cr'><div class='vertical-center'>$10<br>for<br>sure</div></div><div class='respDivL'><div class='vertical-center'>(E)</div></div><div class='respDivR'><div class='vertical-center'>(I)</div></div></div>","I","$10","$19","1","10","19","SURE"
"html-keyboard-response","117","150018","0.0-5.0-3.37","6404fb7b9a7b3cfb4179d185","bdp_rd","Tue Mar 28 2023 17:32:01 GMT-0400 (Eastern Daylight Time)","203744","","null","","","","offerFB","","<div class='trialBorder'><div class='vertical-center'><img style='vertical-align:center; align:center' src=img/fixation3.jpg></div><div class='cl'><div class='vertical-center'>$19<br>with a<br>50% chance</div></div><div class='cr'><div class='vertical-center'><font style='color:orange'>$10<br>for<br>sure</font></div></div><div class='respDivL'><div class='vertical-center'>(E)</div></div><div class='respDivR'><div class='vertical-center'><font style='color:orange'>(I)</font></div></div></div>","null","$10","$19","1","10","19",""
"html-keyboard-response","118","150519","0.0-5.0-1.38","6404fb7b9a7b3cfb4179d185","bdp_rd","Tue Mar 28 2023 17:32:01 GMT-0400 (Eastern Daylight Time)","203744","","null","","","","FIX","","<div class='trialBorder'><div class='vertical-center'><img style='vertical-align:center; align:center' src=img/fixation3.jpg></div></div>","null","","","","","",""
"html-keyboard-response","119","152451","0.0-5.0-2.38","6404fb7b9a7b3cfb4179d185","bdp_rd","Tue Mar 28 2023 17:32:01 GMT-0400 (Eastern Daylight Time)","203744","","1932","","","","offer","","<div class='trialBorder'><div class='vertical-center'><img style='vertical-align:center; align:center' src=img/fixation3.jpg></div><div class='cl'><div class='vertical-center'>$31<br>with a<br>50% chance</div></div><div class='cr'><div class='vertical-center'>$15<br>for<br>sure</div></div><div class='respDivL'><div class='vertical-center'>(E)</div></div><div class='respDivR'><div class='vertical-center'>(I)</div></div></div>","I","$15","$31","1","15","31","SURE"
"html-keyboard-response","120","152702","0.0-5.0-3.38","6404fb7b9a7b3cfb4179d185","bdp_rd","Tue Mar 28 2023 17:32:01 GMT-0400 (Eastern Daylight Time)","203744","","null","","","","offerFB","","<div class='trialBorder'><div class='vertical-center'><img style='vertical-align:center; align:center' src=img/fixation3.jpg></div><div class='cl'><div class='vertical-center'>$31<br>with a<br>50% chance</div></div><div class='cr'><div class='vertical-center'><font style='color:orange'>$15<br>for<br>sure</font></div></div><div class='respDivL'><div class='vertical-center'>(E)</div></div><div class='respDivR'><div class='vertical-center'><font style='color:orange'>(I)</font></div></div></div>","null","$15","$31","1","15","31",""
"html-keyboard-response","121","153204","0.0-5.0-1.39","6404fb7b9a7b3cfb4179d185","bdp_rd","Tue Mar 28 2023 17:32:01 GMT-0400 (Eastern Daylight Time)","203744","","null","","","","FIX","","<div class='trialBorder'><div class='vertical-center'><img style='vertical-align:center; align:center' src=img/fixation3.jpg></div></div>","null","","","","","",""
"html-keyboard-response","122","154754","0.0-5.0-2.39","6404fb7b9a7b3cfb4179d185","bdp_rd","Tue Mar 28 2023 17:32:01 GMT-0400 (Eastern Daylight Time)","203744","","1550","","","","offer","","<div class='trialBorder'><div class='vertical-center'><img style='vertical-align:center; align:center' src=img/fixation3.jpg></div><div class='cl'><div class='vertical-center'>$18<br>for<br>sure</div></div><div class='cr'><div class='vertical-center'>$39<br>with a<br>50% chance</div></div><div class='respDivL'><div class='vertical-center'>(E)</div></div><div class='respDivR'><div class='vertical-center'>(I)</div></div></div>","E","$18","$39","0","18","39","SURE"
"html-keyboard-response","123","155005","0.0-5.0-3.39","6404fb7b9a7b3cfb4179d185","bdp_rd","Tue Mar 28 2023 17:32:01 GMT-0400 (Eastern Daylight Time)","203744","","null","","","","offerFB","","<div class='trialBorder'><div class='vertical-center'><img style='vertical-align:center; align:center' src=img/fixation3.jpg></div><div class='cl'><div class='vertical-center'><font style='color:orange'>$18<br>for<br>sure</font></div></div><div class='cr'><div class='vertical-center'>$39<br>with a<br>50% chance</div></div><div class='respDivL'><div class='vertical-center'><font style='color:orange'>(E)</font></div></div><div class='respDivR'><div class='vertical-center'>(I)</div></div></div>","null","$18","$39","0","18","39",""
"html-keyboard-response","124","155508","0.0-5.0-1.40","6404fb7b9a7b3cfb4179d185","bdp_rd","Tue Mar 28 2023 17:32:01 GMT-0400 (Eastern Daylight Time)","203744","","null","","","","FIX","","<div class='trialBorder'><div class='vertical-center'><img style='vertical-align:center; align:center' src=img/fixation3.jpg></div></div>","null","","","","","",""
"html-keyboard-response","125","157700","0.0-5.0-2.40","6404fb7b9a7b3cfb4179d185","bdp_rd","Tue Mar 28 2023 17:32:01 GMT-0400 (Eastern Daylight Time)","203744","","2192","","","","offer","","<div class='trialBorder'><div class='vertical-center'><img style='vertical-align:center; align:center' src=img/fixation3.jpg></div><div class='cl'><div class='vertical-center'>$40<br>with a<br>50% chance</div></div><div class='cr'><div class='vertical-center'>$10<br>for<br>sure</div></div><div class='respDivL'><div class='vertical-center'>(E)</div></div><div class='respDivR'><div class='vertical-center'>(I)</div></div></div>","I","$10","$40","1","10","40","SURE"
"html-keyboard-response","126","157952","0.0-5.0-3.40","6404fb7b9a7b3cfb4179d185","bdp_rd","Tue Mar 28 2023 17:32:01 GMT-0400 (Eastern Daylight Time)","203744","","null","","","","offerFB","","<div class='trialBorder'><div class='vertical-center'><img style='vertical-align:center; align:center' src=img/fixation3.jpg></div><div class='cl'><div class='vertical-center'>$40<br>with a<br>50% chance</div></div><div class='cr'><div class='vertical-center'><font style='color:orange'>$10<br>for<br>sure</font></div></div><div class='respDivL'><div class='vertical-center'>(E)</div></div><div class='respDivR'><div class='vertical-center'><font style='color:orange'>(I)</font></div></div></div>","null","$10","$40","1","10","40",""
"html-keyboard-response","127","158453","0.0-5.0-1.41","6404fb7b9a7b3cfb4179d185","bdp_rd","Tue Mar 28 2023 17:32:01 GMT-0400 (Eastern Daylight Time)","203744","","null","","","","FIX","","<div class='trialBorder'><div class='vertical-center'><img style='vertical-align:center; align:center' src=img/fixation3.jpg></div></div>","null","","","","","",""
"html-keyboard-response","128","160343","0.0-5.0-2.41","6404fb7b9a7b3cfb4179d185","bdp_rd","Tue Mar 28 2023 17:32:01 GMT-0400 (Eastern Daylight Time)","203744","","1890","","","","offer","","<div class='trialBorder'><div class='vertical-center'><img style='vertical-align:center; align:center' src=img/fixation3.jpg></div><div class='cl'><div class='vertical-center'>$10<br>with a<br>50% chance</div></div><div class='cr'><div class='vertical-center'>$7<br>for<br>sure</div></div><div class='respDivL'><div class='vertical-center'>(E)</div></div><div class='respDivR'><div class='vertical-center'>(I)</div></div></div>","I","$7","$10","1","7","10","SURE"
"html-keyboard-response","129","160594","0.0-5.0-3.41","6404fb7b9a7b3cfb4179d185","bdp_rd","Tue Mar 28 2023 17:32:01 GMT-0400 (Eastern Daylight Time)","203744","","null","","","","offerFB","","<div class='trialBorder'><div class='vertical-center'><img style='vertical-align:center; align:center' src=img/fixation3.jpg></div><div class='cl'><div class='vertical-center'>$10<br>with a<br>50% chance</div></div><div class='cr'><div class='vertical-center'><font style='color:orange'>$7<br>for<br>sure</font></div></div><div class='respDivL'><div class='vertical-center'>(E)</div></div><div class='respDivR'><div class='vertical-center'><font style='color:orange'>(I)</font></div></div></div>","null","$7","$10","1","7","10",""
"html-keyboard-response","130","161096","0.0-5.0-1.42","6404fb7b9a7b3cfb4179d185","bdp_rd","Tue Mar 28 2023 17:32:01 GMT-0400 (Eastern Daylight Time)","203744","","null","","","","FIX","","<div class='trialBorder'><div class='vertical-center'><img style='vertical-align:center; align:center' src=img/fixation3.jpg></div></div>","null","","","","","",""
"html-keyboard-response","131","163163","0.0-5.0-2.42","6404fb7b9a7b3cfb4179d185","bdp_rd","Tue Mar 28 2023 17:32:01 GMT-0400 (Eastern Daylight Time)","203744","","2067","","","","offer","","<div class='trialBorder'><div class='vertical-center'><img style='vertical-align:center; align:center' src=img/fixation3.jpg></div><div class='cl'><div class='vertical-center'>$62<br>with a<br>50% chance</div></div><div class='cr'><div class='vertical-center'>$11<br>for<br>sure</div></div><div class='respDivL'><div class='vertical-center'>(E)</div></div><div class='respDivR'><div class='vertical-center'>(I)</div></div></div>","I","$11","$62","1","11","62","SURE"
"html-keyboard-response","132","163414","0.0-5.0-3.42","6404fb7b9a7b3cfb4179d185","bdp_rd","Tue Mar 28 2023 17:32:01 GMT-0400 (Eastern Daylight Time)","203744","","null","","","","offerFB","","<div class='trialBorder'><div class='vertical-center'><img style='vertical-align:center; align:center' src=img/fixation3.jpg></div><div class='cl'><div class='vertical-center'>$62<br>with a<br>50% chance</div></div><div class='cr'><div class='vertical-center'><font style='color:orange'>$11<br>for<br>sure</font></div></div><div class='respDivL'><div class='vertical-center'>(E)</div></div><div class='respDivR'><div class='vertical-center'><font style='color:orange'>(I)</font></div></div></div>","null","$11","$62","1","11","62",""
"html-keyboard-response","133","163915","0.0-5.0-1.43","6404fb7b9a7b3cfb4179d185","bdp_rd","Tue Mar 28 2023 17:32:01 GMT-0400 (Eastern Daylight Time)","203744","","null","","","","FIX","","<div class='trialBorder'><div class='vertical-center'><img style='vertical-align:center; align:center' src=img/fixation3.jpg></div></div>","null","","","","","",""
"html-keyboard-response","134","165444","0.0-5.0-2.43","6404fb7b9a7b3cfb4179d185","bdp_rd","Tue Mar 28 2023 17:32:01 GMT-0400 (Eastern Daylight Time)","203744","","1528","","","","offer","","<div class='trialBorder'><div class='vertical-center'><img style='vertical-align:center; align:center' src=img/fixation3.jpg></div><div class='cl'><div class='vertical-center'>$65<br>with a<br>50% chance</div></div><div class='cr'><div class='vertical-center'>$46<br>for<br>sure</div></div><div class='respDivL'><div class='vertical-center'>(E)</div></div><div class='respDivR'><div class='vertical-center'>(I)</div></div></div>","I","$46","$65","1","46","65","SURE"
"html-keyboard-response","135","165696","0.0-5.0-3.43","6404fb7b9a7b3cfb4179d185","bdp_rd","Tue Mar 28 2023 17:32:01 GMT-0400 (Eastern Daylight Time)","203744","","null","","","","offerFB","","<div class='trialBorder'><div class='vertical-center'><img style='vertical-align:center; align:center' src=img/fixation3.jpg></div><div class='cl'><div class='vertical-center'>$65<br>with a<br>50% chance</div></div><div class='cr'><div class='vertical-center'><font style='color:orange'>$46<br>for<br>sure</font></div></div><div class='respDivL'><div class='vertical-center'>(E)</div></div><div class='respDivR'><div class='vertical-center'><font style='color:orange'>(I)</font></div></div></div>","null","$46","$65","1","46","65",""
"html-keyboard-response","136","166196","0.0-5.0-1.44","6404fb7b9a7b3cfb4179d185","bdp_rd","Tue Mar 28 2023 17:32:01 GMT-0400 (Eastern Daylight Time)","203744","","null","","","","FIX","","<div class='trialBorder'><div class='vertical-center'><img style='vertical-align:center; align:center' src=img/fixation3.jpg></div></div>","null","","","","","",""
"html-keyboard-response","137","167574","0.0-5.0-2.44","6404fb7b9a7b3cfb4179d185","bdp_rd","Tue Mar 28 2023 17:32:01 GMT-0400 (Eastern Daylight Time)","203744","","1377","","","","offer","","<div class='trialBorder'><div class='vertical-center'><img style='vertical-align:center; align:center' src=img/fixation3.jpg></div><div class='cl'><div class='vertical-center'>$17<br>for<br>sure</div></div><div class='cr'><div class='vertical-center'>$43<br>with a<br>50% chance</div></div><div class='respDivL'><div class='vertical-center'>(E)</div></div><div class='respDivR'><div class='vertical-center'>(I)</div></div></div>","E","$17","$43","0","17","43","SURE"
"html-keyboard-response","138","167825","0.0-5.0-3.44","6404fb7b9a7b3cfb4179d185","bdp_rd","Tue Mar 28 2023 17:32:01 GMT-0400 (Eastern Daylight Time)","203744","","null","","","","offerFB","","<div class='trialBorder'><div class='vertical-center'><img style='vertical-align:center; align:center' src=img/fixation3.jpg></div><div class='cl'><div class='vertical-center'><font style='color:orange'>$17<br>for<br>sure</font></div></div><div class='cr'><div class='vertical-center'>$43<br>with a<br>50% chance</div></div><div class='respDivL'><div class='vertical-center'><font style='color:orange'>(E)</font></div></div><div class='respDivR'><div class='vertical-center'>(I)</div></div></div>","null","$17","$43","0","17","43",""
"html-keyboard-response","139","168327","0.0-5.0-1.45","6404fb7b9a7b3cfb4179d185","bdp_rd","Tue Mar 28 2023 17:32:01 GMT-0400 (Eastern Daylight Time)","203744","","null","","","","FIX","","<div class='trialBorder'><div class='vertical-center'><img style='vertical-align:center; align:center' src=img/fixation3.jpg></div></div>","null","","","","","",""
"html-keyboard-response","140","169603","0.0-5.0-2.45","6404fb7b9a7b3cfb4179d185","bdp_rd","Tue Mar 28 2023 17:32:01 GMT-0400 (Eastern Daylight Time)","203744","","1275","","","","offer","","<div class='trialBorder'><div class='vertical-center'><img style='vertical-align:center; align:center' src=img/fixation3.jpg></div><div class='cl'><div class='vertical-center'>$5<br>for<br>sure</div></div><div class='cr'><div class='vertical-center'>$16<br>with a<br>50% chance</div></div><div class='respDivL'><div class='vertical-center'>(E)</div></div><div class='respDivR'><div class='vertical-center'>(I)</div></div></div>","E","$5","$16","0","5","16","SURE"
"html-keyboard-response","141","169854","0.0-5.0-3.45","6404fb7b9a7b3cfb4179d185","bdp_rd","Tue Mar 28 2023 17:32:01 GMT-0400 (Eastern Daylight Time)","203744","","null","","","","offerFB","","<div class='trialBorder'><div class='vertical-center'><img style='vertical-align:center; align:center' src=img/fixation3.jpg></div><div class='cl'><div class='vertical-center'><font style='color:orange'>$5<br>for<br>sure</font></div></div><div class='cr'><div class='vertical-center'>$16<br>with a<br>50% chance</div></div><div class='respDivL'><div class='vertical-center'><font style='color:orange'>(E)</font></div></div><div class='respDivR'><div class='vertical-center'>(I)</div></div></div>","null","$5","$16","0","5","16",""
"html-keyboard-response","142","170356","0.0-5.0-1.46","6404fb7b9a7b3cfb4179d185","bdp_rd","Tue Mar 28 2023 17:32:01 GMT-0400 (Eastern Daylight Time)","203744","","null","","","","FIX","","<div class='trialBorder'><div class='vertical-center'><img style='vertical-align:center; align:center' src=img/fixation3.jpg></div></div>","null","","","","","",""
"html-keyboard-response","143","172168","0.0-5.0-2.46","6404fb7b9a7b3cfb4179d185","bdp_rd","Tue Mar 28 2023 17:32:01 GMT-0400 (Eastern Daylight Time)","203744","","1812","","","","offer","","<div class='trialBorder'><div class='vertical-center'><img style='vertical-align:center; align:center' src=img/fixation3.jpg></div><div class='cl'><div class='vertical-center'>$22<br>with a<br>50% chance</div></div><div class='cr'><div class='vertical-center'>$14<br>for<br>sure</div></div><div class='respDivL'><div class='vertical-center'>(E)</div></div><div class='respDivR'><div class='vertical-center'>(I)</div></div></div>","I","$14","$22","1","14","22","SURE"
"html-keyboard-response","144","172419","0.0-5.0-3.46","6404fb7b9a7b3cfb4179d185","bdp_rd","Tue Mar 28 2023 17:32:01 GMT-0400 (Eastern Daylight Time)","203744","","null","","","","offerFB","","<div class='trialBorder'><div class='vertical-center'><img style='vertical-align:center; align:center' src=img/fixation3.jpg></div><div class='cl'><div class='vertical-center'>$22<br>with a<br>50% chance</div></div><div class='cr'><div class='vertical-center'><font style='color:orange'>$14<br>for<br>sure</font></div></div><div class='respDivL'><div class='vertical-center'>(E)</div></div><div class='respDivR'><div class='vertical-center'><font style='color:orange'>(I)</font></div></div></div>","null","$14","$22","1","14","22",""
"html-keyboard-response","145","172920","0.0-5.0-1.47","6404fb7b9a7b3cfb4179d185","bdp_rd","Tue Mar 28 2023 17:32:01 GMT-0400 (Eastern Daylight Time)","203744","","null","","","","FIX","","<div class='trialBorder'><div class='vertical-center'><img style='vertical-align:center; align:center' src=img/fixation3.jpg></div></div>","null","","","","","",""
"html-keyboard-response","146","174253","0.0-5.0-2.47","6404fb7b9a7b3cfb4179d185","bdp_rd","Tue Mar 28 2023 17:32:01 GMT-0400 (Eastern Daylight Time)","203744","","1331","","","","offer","","<div class='trialBorder'><div class='vertical-center'><img style='vertical-align:center; align:center' src=img/fixation3.jpg></div><div class='cl'><div class='vertical-center'>$45<br>with a<br>50% chance</div></div><div class='cr'><div class='vertical-center'>$8<br>for<br>sure</div></div><div class='respDivL'><div class='vertical-center'>(E)</div></div><div class='respDivR'><div class='vertical-center'>(I)</div></div></div>","I","$8","$45","1","8","45","SURE"
"html-keyboard-response","147","174504","0.0-5.0-3.47","6404fb7b9a7b3cfb4179d185","bdp_rd","Tue Mar 28 2023 17:32:01 GMT-0400 (Eastern Daylight Time)","203744","","null","","","","offerFB","","<div class='trialBorder'><div class='vertical-center'><img style='vertical-align:center; align:center' src=img/fixation3.jpg></div><div class='cl'><div class='vertical-center'>$45<br>with a<br>50% chance</div></div><div class='cr'><div class='vertical-center'><font style='color:orange'>$8<br>for<br>sure</font></div></div><div class='respDivL'><div class='vertical-center'>(E)</div></div><div class='respDivR'><div class='vertical-center'><font style='color:orange'>(I)</font></div></div></div>","null","$8","$45","1","8","45",""
"html-keyboard-response","148","175005","0.0-5.0-1.48","6404fb7b9a7b3cfb4179d185","bdp_rd","Tue Mar 28 2023 17:32:01 GMT-0400 (Eastern Daylight Time)","203744","","null","","","","FIX","","<div class='trialBorder'><div class='vertical-center'><img style='vertical-align:center; align:center' src=img/fixation3.jpg></div></div>","null","","","","","",""
"html-keyboard-response","149","176986","0.0-5.0-2.48","6404fb7b9a7b3cfb4179d185","bdp_rd","Tue Mar 28 2023 17:32:01 GMT-0400 (Eastern Daylight Time)","203744","","1981","","","","offer","","<div class='trialBorder'><div class='vertical-center'><img style='vertical-align:center; align:center' src=img/fixation3.jpg></div><div class='cl'><div class='vertical-center'>$33<br>for<br>sure</div></div><div class='cr'><div class='vertical-center'>$66<br>with a<br>50% chance</div></div><div class='respDivL'><div class='vertical-center'>(E)</div></div><div class='respDivR'><div class='vertical-center'>(I)</div></div></div>","E","$33","$66","0","33","66","SURE"
"html-keyboard-response","150","177238","0.0-5.0-3.48","6404fb7b9a7b3cfb4179d185","bdp_rd","Tue Mar 28 2023 17:32:01 GMT-0400 (Eastern Daylight Time)","203744","","null","","","","offerFB","","<div class='trialBorder'><div class='vertical-center'><img style='vertical-align:center; align:center' src=img/fixation3.jpg></div><div class='cl'><div class='vertical-center'><font style='color:orange'>$33<br>for<br>sure</font></div></div><div class='cr'><div class='vertical-center'>$66<br>with a<br>50% chance</div></div><div class='respDivL'><div class='vertical-center'><font style='color:orange'>(E)</font></div></div><div class='respDivR'><div class='vertical-center'>(I)</div></div></div>","null","$33","$66","0","33","66",""
"html-keyboard-response","151","177740","0.0-5.0-1.49","6404fb7b9a7b3cfb4179d185","bdp_rd","Tue Mar 28 2023 17:32:01 GMT-0400 (Eastern Daylight Time)","203744","","null","","","","FIX","","<div class='trialBorder'><div class='vertical-center'><img style='vertical-align:center; align:center' src=img/fixation3.jpg></div></div>","null","","","","","",""
"html-keyboard-response","152","178884","0.0-5.0-2.49","6404fb7b9a7b3cfb4179d185","bdp_rd","Tue Mar 28 2023 17:32:01 GMT-0400 (Eastern Daylight Time)","203744","","1144","","","","offer","","<div class='trialBorder'><div class='vertical-center'><img style='vertical-align:center; align:center' src=img/fixation3.jpg></div><div class='cl'><div class='vertical-center'>$37<br>for<br>sure</div></div><div class='cr'><div class='vertical-center'>$44<br>with a<br>50% chance</div></div><div class='respDivL'><div class='vertical-center'>(E)</div></div><div class='respDivR'><div class='vertical-center'>(I)</div></div></div>","E","$37","$44","0","37","44","SURE"
"html-keyboard-response","153","179136","0.0-5.0-3.49","6404fb7b9a7b3cfb4179d185","bdp_rd","Tue Mar 28 2023 17:32:01 GMT-0400 (Eastern Daylight Time)","203744","","null","","","","offerFB","","<div class='trialBorder'><div class='vertical-center'><img style='vertical-align:center; align:center' src=img/fixation3.jpg></div><div class='cl'><div class='vertical-center'><font style='color:orange'>$37<br>for<br>sure</font></div></div><div class='cr'><div class='vertical-center'>$44<br>with a<br>50% chance</div></div><div class='respDivL'><div class='vertical-center'><font style='color:orange'>(E)</font></div></div><div class='respDivR'><div class='vertical-center'>(I)</div></div></div>","null","$37","$44","0","37","44",""
"html-keyboard-response","154","179636","0.0-5.0-1.50","6404fb7b9a7b3cfb4179d185","bdp_rd","Tue Mar 28 2023 17:32:01 GMT-0400 (Eastern Daylight Time)","203744","","null","","","","FIX","","<div class='trialBorder'><div class='vertical-center'><img style='vertical-align:center; align:center' src=img/fixation3.jpg></div></div>","null","","","","","",""
"html-keyboard-response","155","181528","0.0-5.0-2.50","6404fb7b9a7b3cfb4179d185","bdp_rd","Tue Mar 28 2023 17:32:01 GMT-0400 (Eastern Daylight Time)","203744","","1891","","","","offer","","<div class='trialBorder'><div class='vertical-center'><img style='vertical-align:center; align:center' src=img/fixation3.jpg></div><div class='cl'><div class='vertical-center'>$51<br>with a<br>50% chance</div></div><div class='cr'><div class='vertical-center'>$19<br>for<br>sure</div></div><div class='respDivL'><div class='vertical-center'>(E)</div></div><div class='respDivR'><div class='vertical-center'>(I)</div></div></div>","I","$19","$51","1","19","51","SURE"
"html-keyboard-response","156","181780","0.0-5.0-3.50","6404fb7b9a7b3cfb4179d185","bdp_rd","Tue Mar 28 2023 17:32:01 GMT-0400 (Eastern Daylight Time)","203744","","null","","","","offerFB","","<div class='trialBorder'><div class='vertical-center'><img style='vertical-align:center; align:center' src=img/fixation3.jpg></div><div class='cl'><div class='vertical-center'>$51<br>with a<br>50% chance</div></div><div class='cr'><div class='vertical-center'><font style='color:orange'>$19<br>for<br>sure</font></div></div><div class='respDivL'><div class='vertical-center'>(E)</div></div><div class='respDivR'><div class='vertical-center'><font style='color:orange'>(I)</font></div></div></div>","null","$19","$51","1","19","51",""
"html-keyboard-response","157","182282","0.0-5.0-1.51","6404fb7b9a7b3cfb4179d185","bdp_rd","Tue Mar 28 2023 17:32:01 GMT-0400 (Eastern Daylight Time)","203744","","null","","","","FIX","","<div class='trialBorder'><div class='vertical-center'><img style='vertical-align:center; align:center' src=img/fixation3.jpg></div></div>","null","","","","","",""
"html-keyboard-response","158","183368","0.0-5.0-2.51","6404fb7b9a7b3cfb4179d185","bdp_rd","Tue Mar 28 2023 17:32:01 GMT-0400 (Eastern Daylight Time)","203744","","1086","","","","offer","","<div class='trialBorder'><div class='vertical-center'><img style='vertical-align:center; align:center' src=img/fixation3.jpg></div><div class='cl'><div class='vertical-center'>$68<br>with a<br>50% chance</div></div><div class='cr'><div class='vertical-center'>$30<br>for<br>sure</div></div><div class='respDivL'><div class='vertical-center'>(E)</div></div><div class='respDivR'><div class='vertical-center'>(I)</div></div></div>","I","$30","$68","1","30","68","SURE"
"html-keyboard-response","159","183619","0.0-5.0-3.51","6404fb7b9a7b3cfb4179d185","bdp_rd","Tue Mar 28 2023 17:32:01 GMT-0400 (Eastern Daylight Time)","203744","","null","","","","offerFB","","<div class='trialBorder'><div class='vertical-center'><img style='vertical-align:center; align:center' src=img/fixation3.jpg></div><div class='cl'><div class='vertical-center'>$68<br>with a<br>50% chance</div></div><div class='cr'><div class='vertical-center'><font style='color:orange'>$30<br>for<br>sure</font></div></div><div class='respDivL'><div class='vertical-center'>(E)</div></div><div class='respDivR'><div class='vertical-center'><font style='color:orange'>(I)</font></div></div></div>","null","$30","$68","1","30","68",""
"html-keyboard-response","160","184121","0.0-5.0-1.52","6404fb7b9a7b3cfb4179d185","bdp_rd","Tue Mar 28 2023 17:32:01 GMT-0400 (Eastern Daylight Time)","203744","","null","","","","FIX","","<div class='trialBorder'><div class='vertical-center'><img style='vertical-align:center; align:center' src=img/fixation3.jpg></div></div>","null","","","","","",""
"html-keyboard-response","161","185079","0.0-5.0-2.52","6404fb7b9a7b3cfb4179d185","bdp_rd","Tue Mar 28 2023 17:32:01 GMT-0400 (Eastern Daylight Time)","203744","","958","","","","offer","","<div class='trialBorder'><div class='vertical-center'><img style='vertical-align:center; align:center' src=img/fixation3.jpg></div><div class='cl'><div class='vertical-center'>$4<br>for<br>sure</div></div><div class='cr'><div class='vertical-center'>$11<br>with a<br>50% chance</div></div><div class='respDivL'><div class='vertical-center'>(E)</div></div><div class='respDivR'><div class='vertical-center'>(I)</div></div></div>","E","$4","$11","0","4","11","SURE"
"html-keyboard-response","162","185331","0.0-5.0-3.52","6404fb7b9a7b3cfb4179d185","bdp_rd","Tue Mar 28 2023 17:32:01 GMT-0400 (Eastern Daylight Time)","203744","","null","","","","offerFB","","<div class='trialBorder'><div class='vertical-center'><img style='vertical-align:center; align:center' src=img/fixation3.jpg></div><div class='cl'><div class='vertical-center'><font style='color:orange'>$4<br>for<br>sure</font></div></div><div class='cr'><div class='vertical-center'>$11<br>with a<br>50% chance</div></div><div class='respDivL'><div class='vertical-center'><font style='color:orange'>(E)</font></div></div><div class='respDivR'><div class='vertical-center'>(I)</div></div></div>","null","$4","$11","0","4","11",""
"html-keyboard-response","163","185833","0.0-5.0-1.53","6404fb7b9a7b3cfb4179d185","bdp_rd","Tue Mar 28 2023 17:32:01 GMT-0400 (Eastern Daylight Time)","203744","","null","","","","FIX","","<div class='trialBorder'><div class='vertical-center'><img style='vertical-align:center; align:center' src=img/fixation3.jpg></div></div>","null","","","","","",""
"html-keyboard-response","164","187857","0.0-5.0-2.53","6404fb7b9a7b3cfb4179d185","bdp_rd","Tue Mar 28 2023 17:32:01 GMT-0400 (Eastern Daylight Time)","203744","","2024","","","","offer","","<div class='trialBorder'><div class='vertical-center'><img style='vertical-align:center; align:center' src=img/fixation3.jpg></div><div class='cl'><div class='vertical-center'>$30<br>with a<br>50% chance</div></div><div class='cr'><div class='vertical-center'>$1<br>for<br>sure</div></div><div class='respDivL'><div class='vertical-center'>(E)</div></div><div class='respDivR'><div class='vertical-center'>(I)</div></div></div>","E","$1","$30","1","1","30","RISKY"
"html-keyboard-response","165","188108","0.0-5.0-3.53","6404fb7b9a7b3cfb4179d185","bdp_rd","Tue Mar 28 2023 17:32:01 GMT-0400 (Eastern Daylight Time)","203744","","null","","","","offerFB","","<div class='trialBorder'><div class='vertical-center'><img style='vertical-align:center; align:center' src=img/fixation3.jpg></div><div class='cl'><div class='vertical-center'><font style='color:orange'>$30<br>with a<br>50% chance</font></div></div><div class='cr'><div class='vertical-center'>$1<br>for<br>sure</div></div><div class='respDivL'><div class='vertical-center'><font style='color:orange'>(E)</font></div></div><div class='respDivR'><div class='vertical-center'>(I)</div></div></div>","null","$1","$30","1","1","30",""
"html-keyboard-response","166","188610","0.0-5.0-1.54","6404fb7b9a7b3cfb4179d185","bdp_rd","Tue Mar 28 2023 17:32:01 GMT-0400 (Eastern Daylight Time)","203744","","null","","","","FIX","","<div class='trialBorder'><div class='vertical-center'><img style='vertical-align:center; align:center' src=img/fixation3.jpg></div></div>","null","","","","","",""
"html-keyboard-response","167","190117","0.0-5.0-2.54","6404fb7b9a7b3cfb4179d185","bdp_rd","Tue Mar 28 2023 17:32:01 GMT-0400 (Eastern Daylight Time)","203744","","1506","","","","offer","","<div class='trialBorder'><div class='vertical-center'><img style='vertical-align:center; align:center' src=img/fixation3.jpg></div><div class='cl'><div class='vertical-center'>$38<br>with a<br>50% chance</div></div><div class='cr'><div class='vertical-center'>$16<br>for<br>sure</div></div><div class='respDivL'><div class='vertical-center'>(E)</div></div><div class='respDivR'><div class='vertical-center'>(I)</div></div></div>","I","$16","$38","1","16","38","SURE"
"html-keyboard-response","168","190368","0.0-5.0-3.54","6404fb7b9a7b3cfb4179d185","bdp_rd","Tue Mar 28 2023 17:32:01 GMT-0400 (Eastern Daylight Time)","203744","","null","","","","offerFB","","<div class='trialBorder'><div class='vertical-center'><img style='vertical-align:center; align:center' src=img/fixation3.jpg></div><div class='cl'><div class='vertical-center'>$38<br>with a<br>50% chance</div></div><div class='cr'><div class='vertical-center'><font style='color:orange'>$16<br>for<br>sure</font></div></div><div class='respDivL'><div class='vertical-center'>(E)</div></div><div class='respDivR'><div class='vertical-center'><font style='color:orange'>(I)</font></div></div></div>","null","$16","$38","1","16","38",""
"html-keyboard-response","169","190870","0.0-5.0-1.55","6404fb7b9a7b3cfb4179d185","bdp_rd","Tue Mar 28 2023 17:32:01 GMT-0400 (Eastern Daylight Time)","203744","","null","","","","FIX","","<div class='trialBorder'><div class='vertical-center'><img style='vertical-align:center; align:center' src=img/fixation3.jpg></div></div>","null","","","","","",""
"html-keyboard-response","170","193078","0.0-5.0-2.55","6404fb7b9a7b3cfb4179d185","bdp_rd","Tue Mar 28 2023 17:32:01 GMT-0400 (Eastern Daylight Time)","203744","","2206","","","","offer","","<div class='trialBorder'><div class='vertical-center'><img style='vertical-align:center; align:center' src=img/fixation3.jpg></div><div class='cl'><div class='vertical-center'>$7<br>for<br>sure</div></div><div class='cr'><div class='vertical-center'>$71<br>with a<br>50% chance</div></div><div class='respDivL'><div class='vertical-center'>(E)</div></div><div class='respDivR'><div class='vertical-center'>(I)</div></div></div>","I","$7","$71","0","7","71","RISKY"
"html-keyboard-response","171","193328","0.0-5.0-3.55","6404fb7b9a7b3cfb4179d185","bdp_rd","Tue Mar 28 2023 17:32:01 GMT-0400 (Eastern Daylight Time)","203744","","null","","","","offerFB","","<div class='trialBorder'><div class='vertical-center'><img style='vertical-align:center; align:center' src=img/fixation3.jpg></div><div class='cl'><div class='vertical-center'>$7<br>for<br>sure</div></div><div class='cr'><div class='vertical-center'><font style='color:orange'>$71<br>with a<br>50% chance</font></div></div><div class='respDivL'><div class='vertical-center'>(E)</div></div><div class='respDivR'><div class='vertical-center'><font style='color:orange'>(I)</font></div></div></div>","null","$7","$71","0","7","71",""
"html-keyboard-response","172","193830","0.0-5.0-1.56","6404fb7b9a7b3cfb4179d185","bdp_rd","Tue Mar 28 2023 17:32:01 GMT-0400 (Eastern Daylight Time)","203744","","null","","","","FIX","","<div class='trialBorder'><div class='vertical-center'><img style='vertical-align:center; align:center' src=img/fixation3.jpg></div></div>","null","","","","","",""
"html-keyboard-response","173","195736","0.0-5.0-2.56","6404fb7b9a7b3cfb4179d185","bdp_rd","Tue Mar 28 2023 17:32:01 GMT-0400 (Eastern Daylight Time)","203744","","1905","","","","offer","","<div class='trialBorder'><div class='vertical-center'><img style='vertical-align:center; align:center' src=img/fixation3.jpg></div><div class='cl'><div class='vertical-center'>$100<br>with a<br>50% chance</div></div><div class='cr'><div class='vertical-center'>$63<br>for<br>sure</div></div><div class='respDivL'><div class='vertical-center'>(E)</div></div><div class='respDivR'><div class='vertical-center'>(I)</div></div></div>","I","$63","$100","1","63","10","SURE"
