"trial_type","trial_index","time_elapsed","internal_node_id","subject_id","task","startTime","totalTime","view_history","rt","event","trial","time","trialtype","success","stimulus","key_press","sureOffer","riskyOffer","riskyLeft","sureAmt","riskyAmt","chosen"
"pavlovia","0","2","0.0-0.0","63d1b93d9abc8c4b40e2d92f","bdp_rd","Mon Mar 27 2023 11:11:37 GMT-0500 (Central Daylight Time)","166082","","","","","","","","","","","","","","",""
"instructions","1","5425","0.0-1.0","63d1b93d9abc8c4b40e2d92f","bdp_rd","Mon Mar 27 2023 11:11:37 GMT-0500 (Central Daylight Time)","166082","[{""page_index"":0,""viewing_time"":5421}]","5421","","","","","","","","","","","","",""
"","","","","63d1b93d9abc8c4b40e2d92f","bdp_rd","Mon Mar 27 2023 11:11:37 GMT-0500 (Central Daylight Time)","166082","","","fullscreenenter","2","6826","fullscreenenter","","","","","","","","",""
"fullscreen","2","7798","0.0-2.0","63d1b93d9abc8c4b40e2d92f","bdp_rd","Mon Mar 27 2023 11:11:37 GMT-0500 (Central Daylight Time)","166082","","","","","","","true","","","","","","","",""
"instructions","3","15791","0.0-4.0","63d1b93d9abc8c4b40e2d92f","bdp_rd","Mon Mar 27 2023 11:11:37 GMT-0500 (Central Daylight Time)","166082","[{""page_index"":0,""viewing_time"":2086},{""page_index"":1,""viewing_time"":4942},{""page_index"":2,""viewing_time"":962}]","7991","","","","","","","","","","","","",""
"html-keyboard-response","4","16296","0.0-5.0-1.0","63d1b93d9abc8c4b40e2d92f","bdp_rd","Mon Mar 27 2023 11:11:37 GMT-0500 (Central Daylight Time)","166082","","null","","","","FIX","","<div class='trialBorder'><div class='vertical-center'><img style='vertical-align:center; align:center' src=img/fixation3.jpg></div></div>","null","","","","","",""
"html-keyboard-response","5","19317","0.0-5.0-2.0","63d1b93d9abc8c4b40e2d92f","bdp_rd","Mon Mar 27 2023 11:11:37 GMT-0500 (Central Daylight Time)","166082","","3016","","","","offer","","<div class='trialBorder'><div class='vertical-center'><img style='vertical-align:center; align:center' src=img/fixation3.jpg></div><div class='cl'><div class='vertical-center'>$51<br>with a<br>50% chance</div></div><div class='cr'><div class='vertical-center'>$19<br>for<br>sure</div></div><div class='respDivL'><div class='vertical-center'>(E)</div></div><div class='respDivR'><div class='vertical-center'>(I)</div></div></div>","E","$19","$51","1","19","51","RISKY"
"html-keyboard-response","6","19569","0.0-5.0-3.0","63d1b93d9abc8c4b40e2d92f","bdp_rd","Mon Mar 27 2023 11:11:37 GMT-0500 (Central Daylight Time)","166082","","null","","","","offerFB","","<div class='trialBorder'><div class='vertical-center'><img style='vertical-align:center; align:center' src=img/fixation3.jpg></div><div class='cl'><div class='vertical-center'><font style='color:orange'>$51<br>with a<br>50% chance</font></div></div><div class='cr'><div class='vertical-center'>$19<br>for<br>sure</div></div><div class='respDivL'><div class='vertical-center'><font style='color:orange'>(E)</font></div></div><div class='respDivR'><div class='vertical-center'>(I)</div></div></div>","null","$19","$51","1","19","51",""
"html-keyboard-response","7","20071","0.0-5.0-1.1","63d1b93d9abc8c4b40e2d92f","bdp_rd","Mon Mar 27 2023 11:11:37 GMT-0500 (Central Daylight Time)","166082","","null","","","","FIX","","<div class='trialBorder'><div class='vertical-center'><img style='vertical-align:center; align:center' src=img/fixation3.jpg></div></div>","null","","","","","",""
"html-keyboard-response","8","22798","0.0-5.0-2.1","63d1b93d9abc8c4b40e2d92f","bdp_rd","Mon Mar 27 2023 11:11:37 GMT-0500 (Central Daylight Time)","166082","","2725","","","","offer","","<div class='trialBorder'><div class='vertical-center'><img style='vertical-align:center; align:center' src=img/fixation3.jpg></div><div class='cl'><div class='vertical-center'>$35<br>with a<br>50% chance</div></div><div class='cr'><div class='vertical-center'>$12<br>for<br>sure</div></div><div class='respDivL'><div class='vertical-center'>(E)</div></div><div class='respDivR'><div class='vertical-center'>(I)</div></div></div>","I","$12","$35","1","12","35","SURE"
"html-keyboard-response","9","23050","0.0-5.0-3.1","63d1b93d9abc8c4b40e2d92f","bdp_rd","Mon Mar 27 2023 11:11:37 GMT-0500 (Central Daylight Time)","166082","","null","","","","offerFB","","<div class='trialBorder'><div class='vertical-center'><img style='vertical-align:center; align:center' src=img/fixation3.jpg></div><div class='cl'><div class='vertical-center'>$35<br>with a<br>50% chance</div></div><div class='cr'><div class='vertical-center'><font style='color:orange'>$12<br>for<br>sure</font></div></div><div class='respDivL'><div class='vertical-center'>(E)</div></div><div class='respDivR'><div class='vertical-center'><font style='color:orange'>(I)</font></div></div></div>","null","$12","$35","1","12","35",""
"html-keyboard-response","10","23553","0.0-5.0-1.2","63d1b93d9abc8c4b40e2d92f","bdp_rd","Mon Mar 27 2023 11:11:37 GMT-0500 (Central Daylight Time)","166082","","null","","","","FIX","","<div class='trialBorder'><div class='vertical-center'><img style='vertical-align:center; align:center' src=img/fixation3.jpg></div></div>","null","","","","","",""
"html-keyboard-response","11","26045","0.0-5.0-2.2","63d1b93d9abc8c4b40e2d92f","bdp_rd","Mon Mar 27 2023 11:11:37 GMT-0500 (Central Daylight Time)","166082","","2490","","","","offer","","<div class='trialBorder'><div class='vertical-center'><img style='vertical-align:center; align:center' src=img/fixation3.jpg></div><div class='cl'><div class='vertical-center'>$15<br>for<br>sure</div></div><div class='cr'><div class='vertical-center'>$31<br>with a<br>50% chance</div></div><div class='respDivL'><div class='vertical-center'>(E)</div></div><div class='respDivR'><div class='vertical-center'>(I)</div></div></div>","I","$15","$31","0","15","31","RISKY"
"html-keyboard-response","12","26296","0.0-5.0-3.2","63d1b93d9abc8c4b40e2d92f","bdp_rd","Mon Mar 27 2023 11:11:37 GMT-0500 (Central Daylight Time)","166082","","null","","","","offerFB","","<div class='trialBorder'><div class='vertical-center'><img style='vertical-align:center; align:center' src=img/fixation3.jpg></div><div class='cl'><div class='vertical-center'>$15<br>for<br>sure</div></div><div class='cr'><div class='vertical-center'><font style='color:orange'>$31<br>with a<br>50% chance</font></div></div><div class='respDivL'><div class='vertical-center'>(E)</div></div><div class='respDivR'><div class='vertical-center'><font style='color:orange'>(I)</font></div></div></div>","null","$15","$31","0","15","31",""
"html-keyboard-response","13","26798","0.0-5.0-1.3","63d1b93d9abc8c4b40e2d92f","bdp_rd","Mon Mar 27 2023 11:11:37 GMT-0500 (Central Daylight Time)","166082","","null","","","","FIX","","<div class='trialBorder'><div class='vertical-center'><img style='vertical-align:center; align:center' src=img/fixation3.jpg></div></div>","null","","","","","",""
"html-keyboard-response","14","28756","0.0-5.0-2.3","63d1b93d9abc8c4b40e2d92f","bdp_rd","Mon Mar 27 2023 11:11:37 GMT-0500 (Central Daylight Time)","166082","","1957","","","","offer","","<div class='trialBorder'><div class='vertical-center'><img style='vertical-align:center; align:center' src=img/fixation3.jpg></div><div class='cl'><div class='vertical-center'>$11<br>with a<br>50% chance</div></div><div class='cr'><div class='vertical-center'>$4<br>for<br>sure</div></div><div class='respDivL'><div class='vertical-center'>(E)</div></div><div class='respDivR'><div class='vertical-center'>(I)</div></div></div>","I","$4","$11","1","4","11","SURE"
"html-keyboard-response","15","29007","0.0-5.0-3.3","63d1b93d9abc8c4b40e2d92f","bdp_rd","Mon Mar 27 2023 11:11:37 GMT-0500 (Central Daylight Time)","166082","","null","","","","offerFB","","<div class='trialBorder'><div class='vertical-center'><img style='vertical-align:center; align:center' src=img/fixation3.jpg></div><div class='cl'><div class='vertical-center'>$11<br>with a<br>50% chance</div></div><div class='cr'><div class='vertical-center'><font style='color:orange'>$4<br>for<br>sure</font></div></div><div class='respDivL'><div class='vertical-center'>(E)</div></div><div class='respDivR'><div class='vertical-center'><font style='color:orange'>(I)</font></div></div></div>","null","$4","$11","1","4","11",""
"html-keyboard-response","16","29510","0.0-5.0-1.4","63d1b93d9abc8c4b40e2d92f","bdp_rd","Mon Mar 27 2023 11:11:37 GMT-0500 (Central Daylight Time)","166082","","null","","","","FIX","","<div class='trialBorder'><div class='vertical-center'><img style='vertical-align:center; align:center' src=img/fixation3.jpg></div></div>","null","","","","","",""
"html-keyboard-response","17","31046","0.0-5.0-2.4","63d1b93d9abc8c4b40e2d92f","bdp_rd","Mon Mar 27 2023 11:11:37 GMT-0500 (Central Daylight Time)","166082","","1534","","","","offer","","<div class='trialBorder'><div class='vertical-center'><img style='vertical-align:center; align:center' src=img/fixation3.jpg></div><div class='cl'><div class='vertical-center'>$30<br>with a<br>50% chance</div></div><div class='cr'><div class='vertical-center'>$1<br>for<br>sure</div></div><div class='respDivL'><div class='vertical-center'>(E)</div></div><div class='respDivR'><div class='vertical-center'>(I)</div></div></div>","E","$1","$30","1","1","30","RISKY"
"html-keyboard-response","18","31299","0.0-5.0-3.4","63d1b93d9abc8c4b40e2d92f","bdp_rd","Mon Mar 27 2023 11:11:37 GMT-0500 (Central Daylight Time)","166082","","null","","","","offerFB","","<div class='trialBorder'><div class='vertical-center'><img style='vertical-align:center; align:center' src=img/fixation3.jpg></div><div class='cl'><div class='vertical-center'><font style='color:orange'>$30<br>with a<br>50% chance</font></div></div><div class='cr'><div class='vertical-center'>$1<br>for<br>sure</div></div><div class='respDivL'><div class='vertical-center'><font style='color:orange'>(E)</font></div></div><div class='respDivR'><div class='vertical-center'>(I)</div></div></div>","null","$1","$30","1","1","30",""
"html-keyboard-response","19","31801","0.0-5.0-1.5","63d1b93d9abc8c4b40e2d92f","bdp_rd","Mon Mar 27 2023 11:11:37 GMT-0500 (Central Daylight Time)","166082","","null","","","","FIX","","<div class='trialBorder'><div class='vertical-center'><img style='vertical-align:center; align:center' src=img/fixation3.jpg></div></div>","null","","","","","",""
"html-keyboard-response","20","34332","0.0-5.0-2.5","63d1b93d9abc8c4b40e2d92f","bdp_rd","Mon Mar 27 2023 11:11:37 GMT-0500 (Central Daylight Time)","166082","","2530","","","","offer","","<div class='trialBorder'><div class='vertical-center'><img style='vertical-align:center; align:center' src=img/fixation3.jpg></div><div class='cl'><div class='vertical-center'>$15<br>with a<br>50% chance</div></div><div class='cr'><div class='vertical-center'>$6<br>for<br>sure</div></div><div class='respDivL'><div class='vertical-center'>(E)</div></div><div class='respDivR'><div class='vertical-center'>(I)</div></div></div>","E","$6","$15","1","6","15","RISKY"
"html-keyboard-response","21","34585","0.0-5.0-3.5","63d1b93d9abc8c4b40e2d92f","bdp_rd","Mon Mar 27 2023 11:11:37 GMT-0500 (Central Daylight Time)","166082","","null","","","","offerFB","","<div class='trialBorder'><div class='vertical-center'><img style='vertical-align:center; align:center' src=img/fixation3.jpg></div><div class='cl'><div class='vertical-center'><font style='color:orange'>$15<br>with a<br>50% chance</font></div></div><div class='cr'><div class='vertical-center'>$6<br>for<br>sure</div></div><div class='respDivL'><div class='vertical-center'><font style='color:orange'>(E)</font></div></div><div class='respDivR'><div class='vertical-center'>(I)</div></div></div>","null","$6","$15","1","6","15",""
"html-keyboard-response","22","35087","0.0-5.0-1.6","63d1b93d9abc8c4b40e2d92f","bdp_rd","Mon Mar 27 2023 11:11:37 GMT-0500 (Central Daylight Time)","166082","","null","","","","FIX","","<div class='trialBorder'><div class='vertical-center'><img style='vertical-align:center; align:center' src=img/fixation3.jpg></div></div>","null","","","","","",""
"html-keyboard-response","23","36646","0.0-5.0-2.6","63d1b93d9abc8c4b40e2d92f","bdp_rd","Mon Mar 27 2023 11:11:37 GMT-0500 (Central Daylight Time)","166082","","1558","","","","offer","","<div class='trialBorder'><div class='vertical-center'><img style='vertical-align:center; align:center' src=img/fixation3.jpg></div><div class='cl'><div class='vertical-center'>$25<br>with a<br>50% chance</div></div><div class='cr'><div class='vertical-center'>$21<br>for<br>sure</div></div><div class='respDivL'><div class='vertical-center'>(E)</div></div><div class='respDivR'><div class='vertical-center'>(I)</div></div></div>","I","$21","$25","1","21","25","SURE"
"html-keyboard-response","24","36898","0.0-5.0-3.6","63d1b93d9abc8c4b40e2d92f","bdp_rd","Mon Mar 27 2023 11:11:37 GMT-0500 (Central Daylight Time)","166082","","null","","","","offerFB","","<div class='trialBorder'><div class='vertical-center'><img style='vertical-align:center; align:center' src=img/fixation3.jpg></div><div class='cl'><div class='vertical-center'>$25<br>with a<br>50% chance</div></div><div class='cr'><div class='vertical-center'><font style='color:orange'>$21<br>for<br>sure</font></div></div><div class='respDivL'><div class='vertical-center'>(E)</div></div><div class='respDivR'><div class='vertical-center'><font style='color:orange'>(I)</font></div></div></div>","null","$21","$25","1","21","25",""
"html-keyboard-response","25","37401","0.0-5.0-1.7","63d1b93d9abc8c4b40e2d92f","bdp_rd","Mon Mar 27 2023 11:11:37 GMT-0500 (Central Daylight Time)","166082","","null","","","","FIX","","<div class='trialBorder'><div class='vertical-center'><img style='vertical-align:center; align:center' src=img/fixation3.jpg></div></div>","null","","","","","",""
"html-keyboard-response","26","38967","0.0-5.0-2.7","63d1b93d9abc8c4b40e2d92f","bdp_rd","Mon Mar 27 2023 11:11:37 GMT-0500 (Central Daylight Time)","166082","","1566","","","","offer","","<div class='trialBorder'><div class='vertical-center'><img style='vertical-align:center; align:center' src=img/fixation3.jpg></div><div class='cl'><div class='vertical-center'>$5<br>for<br>sure</div></div><div class='cr'><div class='vertical-center'>$50<br>with a<br>50% chance</div></div><div class='respDivL'><div class='vertical-center'>(E)</div></div><div class='respDivR'><div class='vertical-center'>(I)</div></div></div>","I","$5","$50","0","5","50","RISKY"
"html-keyboard-response","27","39219","0.0-5.0-3.7","63d1b93d9abc8c4b40e2d92f","bdp_rd","Mon Mar 27 2023 11:11:37 GMT-0500 (Central Daylight Time)","166082","","null","","","","offerFB","","<div class='trialBorder'><div class='vertical-center'><img style='vertical-align:center; align:center' src=img/fixation3.jpg></div><div class='cl'><div class='vertical-center'>$5<br>for<br>sure</div></div><div class='cr'><div class='vertical-center'><font style='color:orange'>$50<br>with a<br>50% chance</font></div></div><div class='respDivL'><div class='vertical-center'>(E)</div></div><div class='respDivR'><div class='vertical-center'><font style='color:orange'>(I)</font></div></div></div>","null","$5","$50","0","5","50",""
"html-keyboard-response","28","39722","0.0-5.0-1.8","63d1b93d9abc8c4b40e2d92f","bdp_rd","Mon Mar 27 2023 11:11:37 GMT-0500 (Central Daylight Time)","166082","","null","","","","FIX","","<div class='trialBorder'><div class='vertical-center'><img style='vertical-align:center; align:center' src=img/fixation3.jpg></div></div>","null","","","","","",""
"html-keyboard-response","29","41335","0.0-5.0-2.8","63d1b93d9abc8c4b40e2d92f","bdp_rd","Mon Mar 27 2023 11:11:37 GMT-0500 (Central Daylight Time)","166082","","1612","","","","offer","","<div class='trialBorder'><div class='vertical-center'><img style='vertical-align:center; align:center' src=img/fixation3.jpg></div><div class='cl'><div class='vertical-center'>$2<br>for<br>sure</div></div><div class='cr'><div class='vertical-center'>$21<br>with a<br>50% chance</div></div><div class='respDivL'><div class='vertical-center'>(E)</div></div><div class='respDivR'><div class='vertical-center'>(I)</div></div></div>","I","$2","$21","0","2","21","RISKY"
"html-keyboard-response","30","41588","0.0-5.0-3.8","63d1b93d9abc8c4b40e2d92f","bdp_rd","Mon Mar 27 2023 11:11:37 GMT-0500 (Central Daylight Time)","166082","","null","","","","offerFB","","<div class='trialBorder'><div class='vertical-center'><img style='vertical-align:center; align:center' src=img/fixation3.jpg></div><div class='cl'><div class='vertical-center'>$2<br>for<br>sure</div></div><div class='cr'><div class='vertical-center'><font style='color:orange'>$21<br>with a<br>50% chance</font></div></div><div class='respDivL'><div class='vertical-center'>(E)</div></div><div class='respDivR'><div class='vertical-center'><font style='color:orange'>(I)</font></div></div></div>","null","$2","$21","0","2","21",""
"html-keyboard-response","31","42089","0.0-5.0-1.9","63d1b93d9abc8c4b40e2d92f","bdp_rd","Mon Mar 27 2023 11:11:37 GMT-0500 (Central Daylight Time)","166082","","null","","","","FIX","","<div class='trialBorder'><div class='vertical-center'><img style='vertical-align:center; align:center' src=img/fixation3.jpg></div></div>","null","","","","","",""
"html-keyboard-response","32","49040","0.0-5.0-2.9","63d1b93d9abc8c4b40e2d92f","bdp_rd","Mon Mar 27 2023 11:11:37 GMT-0500 (Central Daylight Time)","166082","","6948","","","","offer","","<div class='trialBorder'><div class='vertical-center'><img style='vertical-align:center; align:center' src=img/fixation3.jpg></div><div class='cl'><div class='vertical-center'>$47<br>with a<br>50% chance</div></div><div class='cr'><div class='vertical-center'>$27<br>for<br>sure</div></div><div class='respDivL'><div class='vertical-center'>(E)</div></div><div class='respDivR'><div class='vertical-center'>(I)</div></div></div>","E","$27","$47","1","27","47","RISKY"
"html-keyboard-response","33","49295","0.0-5.0-3.9","63d1b93d9abc8c4b40e2d92f","bdp_rd","Mon Mar 27 2023 11:11:37 GMT-0500 (Central Daylight Time)","166082","","null","","","","offerFB","","<div class='trialBorder'><div class='vertical-center'><img style='vertical-align:center; align:center' src=img/fixation3.jpg></div><div class='cl'><div class='vertical-center'><font style='color:orange'>$47<br>with a<br>50% chance</font></div></div><div class='cr'><div class='vertical-center'>$27<br>for<br>sure</div></div><div class='respDivL'><div class='vertical-center'><font style='color:orange'>(E)</font></div></div><div class='respDivR'><div class='vertical-center'>(I)</div></div></div>","null","$27","$47","1","27","47",""
"html-keyboard-response","34","49798","0.0-5.0-1.10","63d1b93d9abc8c4b40e2d92f","bdp_rd","Mon Mar 27 2023 11:11:37 GMT-0500 (Central Daylight Time)","166082","","null","","","","FIX","","<div class='trialBorder'><div class='vertical-center'><img style='vertical-align:center; align:center' src=img/fixation3.jpg></div></div>","null","","","","","",""
"html-keyboard-response","35","51580","0.0-5.0-2.10","63d1b93d9abc8c4b40e2d92f","bdp_rd","Mon Mar 27 2023 11:11:37 GMT-0500 (Central Daylight Time)","166082","","1781","","","","offer","","<div class='trialBorder'><div class='vertical-center'><img style='vertical-align:center; align:center' src=img/fixation3.jpg></div><div class='cl'><div class='vertical-center'>$68<br>with a<br>50% chance</div></div><div class='cr'><div class='vertical-center'>$30<br>for<br>sure</div></div><div class='respDivL'><div class='vertical-center'>(E)</div></div><div class='respDivR'><div class='vertical-center'>(I)</div></div></div>","E","$30","$68","1","30","68","RISKY"
"html-keyboard-response","36","51832","0.0-5.0-3.10","63d1b93d9abc8c4b40e2d92f","bdp_rd","Mon Mar 27 2023 11:11:37 GMT-0500 (Central Daylight Time)","166082","","null","","","","offerFB","","<div class='trialBorder'><div class='vertical-center'><img style='vertical-align:center; align:center' src=img/fixation3.jpg></div><div class='cl'><div class='vertical-center'><font style='color:orange'>$68<br>with a<br>50% chance</font></div></div><div class='cr'><div class='vertical-center'>$30<br>for<br>sure</div></div><div class='respDivL'><div class='vertical-center'><font style='color:orange'>(E)</font></div></div><div class='respDivR'><div class='vertical-center'>(I)</div></div></div>","null","$30","$68","1","30","68",""
"html-keyboard-response","37","52334","0.0-5.0-1.11","63d1b93d9abc8c4b40e2d92f","bdp_rd","Mon Mar 27 2023 11:11:37 GMT-0500 (Central Daylight Time)","166082","","null","","","","FIX","","<div class='trialBorder'><div class='vertical-center'><img style='vertical-align:center; align:center' src=img/fixation3.jpg></div></div>","null","","","","","",""
"html-keyboard-response","38","56023","0.0-5.0-2.11","63d1b93d9abc8c4b40e2d92f","bdp_rd","Mon Mar 27 2023 11:11:37 GMT-0500 (Central Daylight Time)","166082","","3686","","","","offer","","<div class='trialBorder'><div class='vertical-center'><img style='vertical-align:center; align:center' src=img/fixation3.jpg></div><div class='cl'><div class='vertical-center'>$13<br>for<br>sure</div></div><div class='cr'><div class='vertical-center'>$24<br>with a<br>50% chance</div></div><div class='respDivL'><div class='vertical-center'>(E)</div></div><div class='respDivR'><div class='vertical-center'>(I)</div></div></div>","I","$13","$24","0","13","24","RISKY"
"html-keyboard-response","39","56276","0.0-5.0-3.11","63d1b93d9abc8c4b40e2d92f","bdp_rd","Mon Mar 27 2023 11:11:37 GMT-0500 (Central Daylight Time)","166082","","null","","","","offerFB","","<div class='trialBorder'><div class='vertical-center'><img style='vertical-align:center; align:center' src=img/fixation3.jpg></div><div class='cl'><div class='vertical-center'>$13<br>for<br>sure</div></div><div class='cr'><div class='vertical-center'><font style='color:orange'>$24<br>with a<br>50% chance</font></div></div><div class='respDivL'><div class='vertical-center'>(E)</div></div><div class='respDivR'><div class='vertical-center'><font style='color:orange'>(I)</font></div></div></div>","null","$13","$24","0","13","24",""
"html-keyboard-response","40","56780","0.0-5.0-1.12","63d1b93d9abc8c4b40e2d92f","bdp_rd","Mon Mar 27 2023 11:11:37 GMT-0500 (Central Daylight Time)","166082","","null","","","","FIX","","<div class='trialBorder'><div class='vertical-center'><img style='vertical-align:center; align:center' src=img/fixation3.jpg></div></div>","null","","","","","",""
"html-keyboard-response","41","69585","0.0-5.0-2.12","63d1b93d9abc8c4b40e2d92f","bdp_rd","Mon Mar 27 2023 11:11:37 GMT-0500 (Central Daylight Time)","166082","","12803","","","","offer","","<div class='trialBorder'><div class='vertical-center'><img style='vertical-align:center; align:center' src=img/fixation3.jpg></div><div class='cl'><div class='vertical-center'>$8<br>for<br>sure</div></div><div class='cr'><div class='vertical-center'>$23<br>with a<br>50% chance</div></div><div class='respDivL'><div class='vertical-center'>(E)</div></div><div class='respDivR'><div class='vertical-center'>(I)</div></div></div>","I","$8","$23","0","8","23","RISKY"
"html-keyboard-response","42","69839","0.0-5.0-3.12","63d1b93d9abc8c4b40e2d92f","bdp_rd","Mon Mar 27 2023 11:11:37 GMT-0500 (Central Daylight Time)","166082","","null","","","","offerFB","","<div class='trialBorder'><div class='vertical-center'><img style='vertical-align:center; align:center' src=img/fixation3.jpg></div><div class='cl'><div class='vertical-center'>$8<br>for<br>sure</div></div><div class='cr'><div class='vertical-center'><font style='color:orange'>$23<br>with a<br>50% chance</font></div></div><div class='respDivL'><div class='vertical-center'>(E)</div></div><div class='respDivR'><div class='vertical-center'><font style='color:orange'>(I)</font></div></div></div>","null","$8","$23","0","8","23",""
"html-keyboard-response","43","70341","0.0-5.0-1.13","63d1b93d9abc8c4b40e2d92f","bdp_rd","Mon Mar 27 2023 11:11:37 GMT-0500 (Central Daylight Time)","166082","","null","","","","FIX","","<div class='trialBorder'><div class='vertical-center'><img style='vertical-align:center; align:center' src=img/fixation3.jpg></div></div>","null","","","","","",""
"html-keyboard-response","44","72056","0.0-5.0-2.13","63d1b93d9abc8c4b40e2d92f","bdp_rd","Mon Mar 27 2023 11:11:37 GMT-0500 (Central Daylight Time)","166082","","1713","","","","offer","","<div class='trialBorder'><div class='vertical-center'><img style='vertical-align:center; align:center' src=img/fixation3.jpg></div><div class='cl'><div class='vertical-center'>$9<br>for<br>sure</div></div><div class='cr'><div class='vertical-center'>$18<br>with a<br>50% chance</div></div><div class='respDivL'><div class='vertical-center'>(E)</div></div><div class='respDivR'><div class='vertical-center'>(I)</div></div></div>","E","$9","$18","0","9","18","SURE"
"html-keyboard-response","45","72310","0.0-5.0-3.13","63d1b93d9abc8c4b40e2d92f","bdp_rd","Mon Mar 27 2023 11:11:37 GMT-0500 (Central Daylight Time)","166082","","null","","","","offerFB","","<div class='trialBorder'><div class='vertical-center'><img style='vertical-align:center; align:center' src=img/fixation3.jpg></div><div class='cl'><div class='vertical-center'><font style='color:orange'>$9<br>for<br>sure</font></div></div><div class='cr'><div class='vertical-center'>$18<br>with a<br>50% chance</div></div><div class='respDivL'><div class='vertical-center'><font style='color:orange'>(E)</font></div></div><div class='respDivR'><div class='vertical-center'>(I)</div></div></div>","null","$9","$18","0","9","18",""
"html-keyboard-response","46","72812","0.0-5.0-1.14","63d1b93d9abc8c4b40e2d92f","bdp_rd","Mon Mar 27 2023 11:11:37 GMT-0500 (Central Daylight Time)","166082","","null","","","","FIX","","<div class='trialBorder'><div class='vertical-center'><img style='vertical-align:center; align:center' src=img/fixation3.jpg></div></div>","null","","","","","",""
"html-keyboard-response","47","73756","0.0-5.0-2.14","63d1b93d9abc8c4b40e2d92f","bdp_rd","Mon Mar 27 2023 11:11:37 GMT-0500 (Central Daylight Time)","166082","","941","","","","offer","","<div class='trialBorder'><div class='vertical-center'><img style='vertical-align:center; align:center' src=img/fixation3.jpg></div><div class='cl'><div class='vertical-center'>$6<br>for<br>sure</div></div><div class='cr'><div class='vertical-center'>$13<br>with a<br>50% chance</div></div><div class='respDivL'><div class='vertical-center'>(E)</div></div><div class='respDivR'><div class='vertical-center'>(I)</div></div></div>","E","$6","$13","0","6","13","SURE"
"html-keyboard-response","48","74008","0.0-5.0-3.14","63d1b93d9abc8c4b40e2d92f","bdp_rd","Mon Mar 27 2023 11:11:37 GMT-0500 (Central Daylight Time)","166082","","null","","","","offerFB","","<div class='trialBorder'><div class='vertical-center'><img style='vertical-align:center; align:center' src=img/fixation3.jpg></div><div class='cl'><div class='vertical-center'><font style='color:orange'>$6<br>for<br>sure</font></div></div><div class='cr'><div class='vertical-center'>$13<br>with a<br>50% chance</div></div><div class='respDivL'><div class='vertical-center'><font style='color:orange'>(E)</font></div></div><div class='respDivR'><div class='vertical-center'>(I)</div></div></div>","null","$6","$13","0","6","13",""
"html-keyboard-response","49","74511","0.0-5.0-1.15","63d1b93d9abc8c4b40e2d92f","bdp_rd","Mon Mar 27 2023 11:11:37 GMT-0500 (Central Daylight Time)","166082","","null","","","","FIX","","<div class='trialBorder'><div class='vertical-center'><img style='vertical-align:center; align:center' src=img/fixation3.jpg></div></div>","null","","","","","",""
"html-keyboard-response","50","76078","0.0-5.0-2.15","63d1b93d9abc8c4b40e2d92f","bdp_rd","Mon Mar 27 2023 11:11:37 GMT-0500 (Central Daylight Time)","166082","","1566","","","","offer","","<div class='trialBorder'><div class='vertical-center'><img style='vertical-align:center; align:center' src=img/fixation3.jpg></div><div class='cl'><div class='vertical-center'>$62<br>with a<br>50% chance</div></div><div class='cr'><div class='vertical-center'>$11<br>for<br>sure</div></div><div class='respDivL'><div class='vertical-center'>(E)</div></div><div class='respDivR'><div class='vertical-center'>(I)</div></div></div>","E","$11","$62","1","11","62","RISKY"
"html-keyboard-response","51","76332","0.0-5.0-3.15","63d1b93d9abc8c4b40e2d92f","bdp_rd","Mon Mar 27 2023 11:11:37 GMT-0500 (Central Daylight Time)","166082","","null","","","","offerFB","","<div class='trialBorder'><div class='vertical-center'><img style='vertical-align:center; align:center' src=img/fixation3.jpg></div><div class='cl'><div class='vertical-center'><font style='color:orange'>$62<br>with a<br>50% chance</font></div></div><div class='cr'><div class='vertical-center'>$11<br>for<br>sure</div></div><div class='respDivL'><div class='vertical-center'><font style='color:orange'>(E)</font></div></div><div class='respDivR'><div class='vertical-center'>(I)</div></div></div>","null","$11","$62","1","11","62",""
"html-keyboard-response","52","76833","0.0-5.0-1.16","63d1b93d9abc8c4b40e2d92f","bdp_rd","Mon Mar 27 2023 11:11:37 GMT-0500 (Central Daylight Time)","166082","","null","","","","FIX","","<div class='trialBorder'><div class='vertical-center'><img style='vertical-align:center; align:center' src=img/fixation3.jpg></div></div>","null","","","","","",""
"html-keyboard-response","53","78183","0.0-5.0-2.16","63d1b93d9abc8c4b40e2d92f","bdp_rd","Mon Mar 27 2023 11:11:37 GMT-0500 (Central Daylight Time)","166082","","1348","","","","offer","","<div class='trialBorder'><div class='vertical-center'><img style='vertical-align:center; align:center' src=img/fixation3.jpg></div><div class='cl'><div class='vertical-center'>$26<br>for<br>sure</div></div><div class='cr'><div class='vertical-center'>$92<br>with a<br>50% chance</div></div><div class='respDivL'><div class='vertical-center'>(E)</div></div><div class='respDivR'><div class='vertical-center'>(I)</div></div></div>","I","$26","$92","0","26","92","RISKY"
"html-keyboard-response","54","78436","0.0-5.0-3.16","63d1b93d9abc8c4b40e2d92f","bdp_rd","Mon Mar 27 2023 11:11:37 GMT-0500 (Central Daylight Time)","166082","","null","","","","offerFB","","<div class='trialBorder'><div class='vertical-center'><img style='vertical-align:center; align:center' src=img/fixation3.jpg></div><div class='cl'><div class='vertical-center'>$26<br>for<br>sure</div></div><div class='cr'><div class='vertical-center'><font style='color:orange'>$92<br>with a<br>50% chance</font></div></div><div class='respDivL'><div class='vertical-center'>(E)</div></div><div class='respDivR'><div class='vertical-center'><font style='color:orange'>(I)</font></div></div></div>","null","$26","$92","0","26","92",""
"html-keyboard-response","55","78937","0.0-5.0-1.17","63d1b93d9abc8c4b40e2d92f","bdp_rd","Mon Mar 27 2023 11:11:37 GMT-0500 (Central Daylight Time)","166082","","null","","","","FIX","","<div class='trialBorder'><div class='vertical-center'><img style='vertical-align:center; align:center' src=img/fixation3.jpg></div></div>","null","","","","","",""
"html-keyboard-response","56","79967","0.0-5.0-2.17","63d1b93d9abc8c4b40e2d92f","bdp_rd","Mon Mar 27 2023 11:11:37 GMT-0500 (Central Daylight Time)","166082","","1028","","","","offer","","<div class='trialBorder'><div class='vertical-center'><img style='vertical-align:center; align:center' src=img/fixation3.jpg></div><div class='cl'><div class='vertical-center'>$42<br>for<br>sure</div></div><div class='cr'><div class='vertical-center'>$73<br>with a<br>50% chance</div></div><div class='respDivL'><div class='vertical-center'>(E)</div></div><div class='respDivR'><div class='vertical-center'>(I)</div></div></div>","I","$42","$73","0","42","73","RISKY"
"html-keyboard-response","57","80220","0.0-5.0-3.17","63d1b93d9abc8c4b40e2d92f","bdp_rd","Mon Mar 27 2023 11:11:37 GMT-0500 (Central Daylight Time)","166082","","null","","","","offerFB","","<div class='trialBorder'><div class='vertical-center'><img style='vertical-align:center; align:center' src=img/fixation3.jpg></div><div class='cl'><div class='vertical-center'>$42<br>for<br>sure</div></div><div class='cr'><div class='vertical-center'><font style='color:orange'>$73<br>with a<br>50% chance</font></div></div><div class='respDivL'><div class='vertical-center'>(E)</div></div><div class='respDivR'><div class='vertical-center'><font style='color:orange'>(I)</font></div></div></div>","null","$42","$73","0","42","73",""
"html-keyboard-response","58","80722","0.0-5.0-1.18","63d1b93d9abc8c4b40e2d92f","bdp_rd","Mon Mar 27 2023 11:11:37 GMT-0500 (Central Daylight Time)","166082","","null","","","","FIX","","<div class='trialBorder'><div class='vertical-center'><img style='vertical-align:center; align:center' src=img/fixation3.jpg></div></div>","null","","","","","",""
"html-keyboard-response","59","82238","0.0-5.0-2.18","63d1b93d9abc8c4b40e2d92f","bdp_rd","Mon Mar 27 2023 11:11:37 GMT-0500 (Central Daylight Time)","166082","","1514","","","","offer","","<div class='trialBorder'><div class='vertical-center'><img style='vertical-align:center; align:center' src=img/fixation3.jpg></div><div class='cl'><div class='vertical-center'>$19<br>with a<br>50% chance</div></div><div class='cr'><div class='vertical-center'>$10<br>for<br>sure</div></div><div class='respDivL'><div class='vertical-center'>(E)</div></div><div class='respDivR'><div class='vertical-center'>(I)</div></div></div>","I","$10","$19","1","10","19","SURE"
"html-keyboard-response","60","82490","0.0-5.0-3.18","63d1b93d9abc8c4b40e2d92f","bdp_rd","Mon Mar 27 2023 11:11:37 GMT-0500 (Central Daylight Time)","166082","","null","","","","offerFB","","<div class='trialBorder'><div class='vertical-center'><img style='vertical-align:center; align:center' src=img/fixation3.jpg></div><div class='cl'><div class='vertical-center'>$19<br>with a<br>50% chance</div></div><div class='cr'><div class='vertical-center'><font style='color:orange'>$10<br>for<br>sure</font></div></div><div class='respDivL'><div class='vertical-center'>(E)</div></div><div class='respDivR'><div class='vertical-center'><font style='color:orange'>(I)</font></div></div></div>","null","$10","$19","1","10","19",""
"html-keyboard-response","61","82992","0.0-5.0-1.19","63d1b93d9abc8c4b40e2d92f","bdp_rd","Mon Mar 27 2023 11:11:37 GMT-0500 (Central Daylight Time)","166082","","null","","","","FIX","","<div class='trialBorder'><div class='vertical-center'><img style='vertical-align:center; align:center' src=img/fixation3.jpg></div></div>","null","","","","","",""
"html-keyboard-response","62","84166","0.0-5.0-2.19","63d1b93d9abc8c4b40e2d92f","bdp_rd","Mon Mar 27 2023 11:11:37 GMT-0500 (Central Daylight Time)","166082","","1173","","","","offer","","<div class='trialBorder'><div class='vertical-center'><img style='vertical-align:center; align:center' src=img/fixation3.jpg></div><div class='cl'><div class='vertical-center'>$48<br>with a<br>50% chance</div></div><div class='cr'><div class='vertical-center'>$34<br>for<br>sure</div></div><div class='respDivL'><div class='vertical-center'>(E)</div></div><div class='respDivR'><div class='vertical-center'>(I)</div></div></div>","E","$34","$48","1","34","48","RISKY"
"html-keyboard-response","63","84419","0.0-5.0-3.19","63d1b93d9abc8c4b40e2d92f","bdp_rd","Mon Mar 27 2023 11:11:37 GMT-0500 (Central Daylight Time)","166082","","null","","","","offerFB","","<div class='trialBorder'><div class='vertical-center'><img style='vertical-align:center; align:center' src=img/fixation3.jpg></div><div class='cl'><div class='vertical-center'><font style='color:orange'>$48<br>with a<br>50% chance</font></div></div><div class='cr'><div class='vertical-center'>$34<br>for<br>sure</div></div><div class='respDivL'><div class='vertical-center'><font style='color:orange'>(E)</font></div></div><div class='respDivR'><div class='vertical-center'>(I)</div></div></div>","null","$34","$48","1","34","48",""
"html-keyboard-response","64","84921","0.0-5.0-1.20","63d1b93d9abc8c4b40e2d92f","bdp_rd","Mon Mar 27 2023 11:11:37 GMT-0500 (Central Daylight Time)","166082","","null","","","","FIX","","<div class='trialBorder'><div class='vertical-center'><img style='vertical-align:center; align:center' src=img/fixation3.jpg></div></div>","null","","","","","",""
"html-keyboard-response","65","86198","0.0-5.0-2.20","63d1b93d9abc8c4b40e2d92f","bdp_rd","Mon Mar 27 2023 11:11:37 GMT-0500 (Central Daylight Time)","166082","","1275","","","","offer","","<div class='trialBorder'><div class='vertical-center'><img style='vertical-align:center; align:center' src=img/fixation3.jpg></div><div class='cl'><div class='vertical-center'>$16<br>with a<br>50% chance</div></div><div class='cr'><div class='vertical-center'>$5<br>for<br>sure</div></div><div class='respDivL'><div class='vertical-center'>(E)</div></div><div class='respDivR'><div class='vertical-center'>(I)</div></div></div>","E","$5","$16","1","5","16","RISKY"
"html-keyboard-response","66","86451","0.0-5.0-3.20","63d1b93d9abc8c4b40e2d92f","bdp_rd","Mon Mar 27 2023 11:11:37 GMT-0500 (Central Daylight Time)","166082","","null","","","","offerFB","","<div class='trialBorder'><div class='vertical-center'><img style='vertical-align:center; align:center' src=img/fixation3.jpg></div><div class='cl'><div class='vertical-center'><font style='color:orange'>$16<br>with a<br>50% chance</font></div></div><div class='cr'><div class='vertical-center'>$5<br>for<br>sure</div></div><div class='respDivL'><div class='vertical-center'><font style='color:orange'>(E)</font></div></div><div class='respDivR'><div class='vertical-center'>(I)</div></div></div>","null","$5","$16","1","5","16",""
"html-keyboard-response","67","86953","0.0-5.0-1.21","63d1b93d9abc8c4b40e2d92f","bdp_rd","Mon Mar 27 2023 11:11:37 GMT-0500 (Central Daylight Time)","166082","","null","","","","FIX","","<div class='trialBorder'><div class='vertical-center'><img style='vertical-align:center; align:center' src=img/fixation3.jpg></div></div>","null","","","","","",""
"html-keyboard-response","68","87782","0.0-5.0-2.21","63d1b93d9abc8c4b40e2d92f","bdp_rd","Mon Mar 27 2023 11:11:37 GMT-0500 (Central Daylight Time)","166082","","828","","","","offer","","<div class='trialBorder'><div class='vertical-center'><img style='vertical-align:center; align:center' src=img/fixation3.jpg></div><div class='cl'><div class='vertical-center'>$38<br>with a<br>50% chance</div></div><div class='cr'><div class='vertical-center'>$16<br>for<br>sure</div></div><div class='respDivL'><div class='vertical-center'>(E)</div></div><div class='respDivR'><div class='vertical-center'>(I)</div></div></div>","E","$16","$38","1","16","38","RISKY"
"html-keyboard-response","69","88036","0.0-5.0-3.21","63d1b93d9abc8c4b40e2d92f","bdp_rd","Mon Mar 27 2023 11:11:37 GMT-0500 (Central Daylight Time)","166082","","null","","","","offerFB","","<div class='trialBorder'><div class='vertical-center'><img style='vertical-align:center; align:center' src=img/fixation3.jpg></div><div class='cl'><div class='vertical-center'><font style='color:orange'>$38<br>with a<br>50% chance</font></div></div><div class='cr'><div class='vertical-center'>$16<br>for<br>sure</div></div><div class='respDivL'><div class='vertical-center'><font style='color:orange'>(E)</font></div></div><div class='respDivR'><div class='vertical-center'>(I)</div></div></div>","null","$16","$38","1","16","38",""
"html-keyboard-response","70","88538","0.0-5.0-1.22","63d1b93d9abc8c4b40e2d92f","bdp_rd","Mon Mar 27 2023 11:11:37 GMT-0500 (Central Daylight Time)","166082","","null","","","","FIX","","<div class='trialBorder'><div class='vertical-center'><img style='vertical-align:center; align:center' src=img/fixation3.jpg></div></div>","null","","","","","",""
"html-keyboard-response","71","89972","0.0-5.0-2.22","63d1b93d9abc8c4b40e2d92f","bdp_rd","Mon Mar 27 2023 11:11:37 GMT-0500 (Central Daylight Time)","166082","","1432","","","","offer","","<div class='trialBorder'><div class='vertical-center'><img style='vertical-align:center; align:center' src=img/fixation3.jpg></div><div class='cl'><div class='vertical-center'>$26<br>with a<br>50% chance</div></div><div class='cr'><div class='vertical-center'>$11<br>for<br>sure</div></div><div class='respDivL'><div class='vertical-center'>(E)</div></div><div class='respDivR'><div class='vertical-center'>(I)</div></div></div>","I","$11","$26","1","11","26","SURE"
"html-keyboard-response","72","90224","0.0-5.0-3.22","63d1b93d9abc8c4b40e2d92f","bdp_rd","Mon Mar 27 2023 11:11:37 GMT-0500 (Central Daylight Time)","166082","","null","","","","offerFB","","<div class='trialBorder'><div class='vertical-center'><img style='vertical-align:center; align:center' src=img/fixation3.jpg></div><div class='cl'><div class='vertical-center'>$26<br>with a<br>50% chance</div></div><div class='cr'><div class='vertical-center'><font style='color:orange'>$11<br>for<br>sure</font></div></div><div class='respDivL'><div class='vertical-center'>(E)</div></div><div class='respDivR'><div class='vertical-center'><font style='color:orange'>(I)</font></div></div></div>","null","$11","$26","1","11","26",""
"html-keyboard-response","73","90727","0.0-5.0-1.23","63d1b93d9abc8c4b40e2d92f","bdp_rd","Mon Mar 27 2023 11:11:37 GMT-0500 (Central Daylight Time)","166082","","null","","","","FIX","","<div class='trialBorder'><div class='vertical-center'><img style='vertical-align:center; align:center' src=img/fixation3.jpg></div></div>","null","","","","","",""
"html-keyboard-response","74","91744","0.0-5.0-2.23","63d1b93d9abc8c4b40e2d92f","bdp_rd","Mon Mar 27 2023 11:11:37 GMT-0500 (Central Daylight Time)","166082","","1015","","","","offer","","<div class='trialBorder'><div class='vertical-center'><img style='vertical-align:center; align:center' src=img/fixation3.jpg></div><div class='cl'><div class='vertical-center'>$46<br>for<br>sure</div></div><div class='cr'><div class='vertical-center'>$65<br>with a<br>50% chance</div></div><div class='respDivL'><div class='vertical-center'>(E)</div></div><div class='respDivR'><div class='vertical-center'>(I)</div></div></div>","I","$46","$65","0","46","65","RISKY"
"html-keyboard-response","75","91996","0.0-5.0-3.23","63d1b93d9abc8c4b40e2d92f","bdp_rd","Mon Mar 27 2023 11:11:37 GMT-0500 (Central Daylight Time)","166082","","null","","","","offerFB","","<div class='trialBorder'><div class='vertical-center'><img style='vertical-align:center; align:center' src=img/fixation3.jpg></div><div class='cl'><div class='vertical-center'>$46<br>for<br>sure</div></div><div class='cr'><div class='vertical-center'><font style='color:orange'>$65<br>with a<br>50% chance</font></div></div><div class='respDivL'><div class='vertical-center'>(E)</div></div><div class='respDivR'><div class='vertical-center'><font style='color:orange'>(I)</font></div></div></div>","null","$46","$65","0","46","65",""
"html-keyboard-response","76","92499","0.0-5.0-1.24","63d1b93d9abc8c4b40e2d92f","bdp_rd","Mon Mar 27 2023 11:11:37 GMT-0500 (Central Daylight Time)","166082","","null","","","","FIX","","<div class='trialBorder'><div class='vertical-center'><img style='vertical-align:center; align:center' src=img/fixation3.jpg></div></div>","null","","","","","",""
"html-keyboard-response","77","93389","0.0-5.0-2.24","63d1b93d9abc8c4b40e2d92f","bdp_rd","Mon Mar 27 2023 11:11:37 GMT-0500 (Central Daylight Time)","166082","","888","","","","offer","","<div class='trialBorder'><div class='vertical-center'><img style='vertical-align:center; align:center' src=img/fixation3.jpg></div><div class='cl'><div class='vertical-center'>$20<br>for<br>sure</div></div><div class='cr'><div class='vertical-center'>$80<br>with a<br>50% chance</div></div><div class='respDivL'><div class='vertical-center'>(E)</div></div><div class='respDivR'><div class='vertical-center'>(I)</div></div></div>","I","$20","$80","0","20","80","RISKY"
"html-keyboard-response","78","93641","0.0-5.0-3.24","63d1b93d9abc8c4b40e2d92f","bdp_rd","Mon Mar 27 2023 11:11:37 GMT-0500 (Central Daylight Time)","166082","","null","","","","offerFB","","<div class='trialBorder'><div class='vertical-center'><img style='vertical-align:center; align:center' src=img/fixation3.jpg></div><div class='cl'><div class='vertical-center'>$20<br>for<br>sure</div></div><div class='cr'><div class='vertical-center'><font style='color:orange'>$80<br>with a<br>50% chance</font></div></div><div class='respDivL'><div class='vertical-center'>(E)</div></div><div class='respDivR'><div class='vertical-center'><font style='color:orange'>(I)</font></div></div></div>","null","$20","$80","0","20","80",""
"html-keyboard-response","79","94144","0.0-5.0-1.25","63d1b93d9abc8c4b40e2d92f","bdp_rd","Mon Mar 27 2023 11:11:37 GMT-0500 (Central Daylight Time)","166082","","null","","","","FIX","","<div class='trialBorder'><div class='vertical-center'><img style='vertical-align:center; align:center' src=img/fixation3.jpg></div></div>","null","","","","","",""
"html-keyboard-response","80","95118","0.0-5.0-2.25","63d1b93d9abc8c4b40e2d92f","bdp_rd","Mon Mar 27 2023 11:11:37 GMT-0500 (Central Daylight Time)","166082","","974","","","","offer","","<div class='trialBorder'><div class='vertical-center'><img style='vertical-align:center; align:center' src=img/fixation3.jpg></div><div class='cl'><div class='vertical-center'>$22<br>with a<br>50% chance</div></div><div class='cr'><div class='vertical-center'>$14<br>for<br>sure</div></div><div class='respDivL'><div class='vertical-center'>(E)</div></div><div class='respDivR'><div class='vertical-center'>(I)</div></div></div>","E","$14","$22","1","14","22","RISKY"
"html-keyboard-response","81","95371","0.0-5.0-3.25","63d1b93d9abc8c4b40e2d92f","bdp_rd","Mon Mar 27 2023 11:11:37 GMT-0500 (Central Daylight Time)","166082","","null","","","","offerFB","","<div class='trialBorder'><div class='vertical-center'><img style='vertical-align:center; align:center' src=img/fixation3.jpg></div><div class='cl'><div class='vertical-center'><font style='color:orange'>$22<br>with a<br>50% chance</font></div></div><div class='cr'><div class='vertical-center'>$14<br>for<br>sure</div></div><div class='respDivL'><div class='vertical-center'><font style='color:orange'>(E)</font></div></div><div class='respDivR'><div class='vertical-center'>(I)</div></div></div>","null","$14","$22","1","14","22",""
"html-keyboard-response","82","95873","0.0-5.0-1.26","63d1b93d9abc8c4b40e2d92f","bdp_rd","Mon Mar 27 2023 11:11:37 GMT-0500 (Central Daylight Time)","166082","","null","","","","FIX","","<div class='trialBorder'><div class='vertical-center'><img style='vertical-align:center; align:center' src=img/fixation3.jpg></div></div>","null","","","","","",""
"html-keyboard-response","83","96542","0.0-5.0-2.26","63d1b93d9abc8c4b40e2d92f","bdp_rd","Mon Mar 27 2023 11:11:37 GMT-0500 (Central Daylight Time)","166082","","667","","","","offer","","<div class='trialBorder'><div class='vertical-center'><img style='vertical-align:center; align:center' src=img/fixation3.jpg></div><div class='cl'><div class='vertical-center'>$18<br>for<br>sure</div></div><div class='cr'><div class='vertical-center'>$36<br>with a<br>50% chance</div></div><div class='respDivL'><div class='vertical-center'>(E)</div></div><div class='respDivR'><div class='vertical-center'>(I)</div></div></div>","I","$18","$36","0","18","36","RISKY"
"html-keyboard-response","84","96794","0.0-5.0-3.26","63d1b93d9abc8c4b40e2d92f","bdp_rd","Mon Mar 27 2023 11:11:37 GMT-0500 (Central Daylight Time)","166082","","null","","","","offerFB","","<div class='trialBorder'><div class='vertical-center'><img style='vertical-align:center; align:center' src=img/fixation3.jpg></div><div class='cl'><div class='vertical-center'>$18<br>for<br>sure</div></div><div class='cr'><div class='vertical-center'><font style='color:orange'>$36<br>with a<br>50% chance</font></div></div><div class='respDivL'><div class='vertical-center'>(E)</div></div><div class='respDivR'><div class='vertical-center'><font style='color:orange'>(I)</font></div></div></div>","null","$18","$36","0","18","36",""
"html-keyboard-response","85","97297","0.0-5.0-1.27","63d1b93d9abc8c4b40e2d92f","bdp_rd","Mon Mar 27 2023 11:11:37 GMT-0500 (Central Daylight Time)","166082","","null","","","","FIX","","<div class='trialBorder'><div class='vertical-center'><img style='vertical-align:center; align:center' src=img/fixation3.jpg></div></div>","null","","","","","",""
"html-keyboard-response","86","98031","0.0-5.0-2.27","63d1b93d9abc8c4b40e2d92f","bdp_rd","Mon Mar 27 2023 11:11:37 GMT-0500 (Central Daylight Time)","166082","","732","","","","offer","","<div class='trialBorder'><div class='vertical-center'><img style='vertical-align:center; align:center' src=img/fixation3.jpg></div><div class='cl'><div class='vertical-center'>$54<br>with a<br>50% chance</div></div><div class='cr'><div class='vertical-center'>$25<br>for<br>sure</div></div><div class='respDivL'><div class='vertical-center'>(E)</div></div><div class='respDivR'><div class='vertical-center'>(I)</div></div></div>","E","$25","$54","1","25","54","RISKY"
"html-keyboard-response","87","98284","0.0-5.0-3.27","63d1b93d9abc8c4b40e2d92f","bdp_rd","Mon Mar 27 2023 11:11:37 GMT-0500 (Central Daylight Time)","166082","","null","","","","offerFB","","<div class='trialBorder'><div class='vertical-center'><img style='vertical-align:center; align:center' src=img/fixation3.jpg></div><div class='cl'><div class='vertical-center'><font style='color:orange'>$54<br>with a<br>50% chance</font></div></div><div class='cr'><div class='vertical-center'>$25<br>for<br>sure</div></div><div class='respDivL'><div class='vertical-center'><font style='color:orange'>(E)</font></div></div><div class='respDivR'><div class='vertical-center'>(I)</div></div></div>","null","$25","$54","1","25","54",""
"html-keyboard-response","88","98786","0.0-5.0-1.28","63d1b93d9abc8c4b40e2d92f","bdp_rd","Mon Mar 27 2023 11:11:37 GMT-0500 (Central Daylight Time)","166082","","null","","","","FIX","","<div class='trialBorder'><div class='vertical-center'><img style='vertical-align:center; align:center' src=img/fixation3.jpg></div></div>","null","","","","","",""
"html-keyboard-response","89","99879","0.0-5.0-2.28","63d1b93d9abc8c4b40e2d92f","bdp_rd","Mon Mar 27 2023 11:11:37 GMT-0500 (Central Daylight Time)","166082","","1092","","","","offer","","<div class='trialBorder'><div class='vertical-center'><img style='vertical-align:center; align:center' src=img/fixation3.jpg></div><div class='cl'><div class='vertical-center'>$58<br>for<br>sure</div></div><div class='cr'><div class='vertical-center'>$69<br>with a<br>50% chance</div></div><div class='respDivL'><div class='vertical-center'>(E)</div></div><div class='respDivR'><div class='vertical-center'>(I)</div></div></div>","I","$58","$69","0","58","69","RISKY"
"html-keyboard-response","90","100132","0.0-5.0-3.28","63d1b93d9abc8c4b40e2d92f","bdp_rd","Mon Mar 27 2023 11:11:37 GMT-0500 (Central Daylight Time)","166082","","null","","","","offerFB","","<div class='trialBorder'><div class='vertical-center'><img style='vertical-align:center; align:center' src=img/fixation3.jpg></div><div class='cl'><div class='vertical-center'>$58<br>for<br>sure</div></div><div class='cr'><div class='vertical-center'><font style='color:orange'>$69<br>with a<br>50% chance</font></div></div><div class='respDivL'><div class='vertical-center'>(E)</div></div><div class='respDivR'><div class='vertical-center'><font style='color:orange'>(I)</font></div></div></div>","null","$58","$69","0","58","69",""
"html-keyboard-response","91","100635","0.0-5.0-1.29","63d1b93d9abc8c4b40e2d92f","bdp_rd","Mon Mar 27 2023 11:11:37 GMT-0500 (Central Daylight Time)","166082","","null","","","","FIX","","<div class='trialBorder'><div class='vertical-center'><img style='vertical-align:center; align:center' src=img/fixation3.jpg></div></div>","null","","","","","",""
"html-keyboard-response","92","101935","0.0-5.0-2.29","63d1b93d9abc8c4b40e2d92f","bdp_rd","Mon Mar 27 2023 11:11:37 GMT-0500 (Central Daylight Time)","166082","","1299","","","","offer","","<div class='trialBorder'><div class='vertical-center'><img style='vertical-align:center; align:center' src=img/fixation3.jpg></div><div class='cl'><div class='vertical-center'>$45<br>for<br>sure</div></div><div class='cr'><div class='vertical-center'>$86<br>with a<br>50% chance</div></div><div class='respDivL'><div class='vertical-center'>(E)</div></div><div class='respDivR'><div class='vertical-center'>(I)</div></div></div>","I","$45","$86","0","45","86","RISKY"
"html-keyboard-response","93","102188","0.0-5.0-3.29","63d1b93d9abc8c4b40e2d92f","bdp_rd","Mon Mar 27 2023 11:11:37 GMT-0500 (Central Daylight Time)","166082","","null","","","","offerFB","","<div class='trialBorder'><div class='vertical-center'><img style='vertical-align:center; align:center' src=img/fixation3.jpg></div><div class='cl'><div class='vertical-center'>$45<br>for<br>sure</div></div><div class='cr'><div class='vertical-center'><font style='color:orange'>$86<br>with a<br>50% chance</font></div></div><div class='respDivL'><div class='vertical-center'>(E)</div></div><div class='respDivR'><div class='vertical-center'><font style='color:orange'>(I)</font></div></div></div>","null","$45","$86","0","45","86",""
"html-keyboard-response","94","102696","0.0-5.0-1.30","63d1b93d9abc8c4b40e2d92f","bdp_rd","Mon Mar 27 2023 11:11:37 GMT-0500 (Central Daylight Time)","166082","","null","","","","FIX","","<div class='trialBorder'><div class='vertical-center'><img style='vertical-align:center; align:center' src=img/fixation3.jpg></div></div>","null","","","","","",""
"html-keyboard-response","95","103965","0.0-5.0-2.30","63d1b93d9abc8c4b40e2d92f","bdp_rd","Mon Mar 27 2023 11:11:37 GMT-0500 (Central Daylight Time)","166082","","1267","","","","offer","","<div class='trialBorder'><div class='vertical-center'><img style='vertical-align:center; align:center' src=img/fixation3.jpg></div><div class='cl'><div class='vertical-center'>$16<br>for<br>sure</div></div><div class='cr'><div class='vertical-center'>$28<br>with a<br>50% chance</div></div><div class='respDivL'><div class='vertical-center'>(E)</div></div><div class='respDivR'><div class='vertical-center'>(I)</div></div></div>","E","$16","$28","0","16","28","SURE"
"html-keyboard-response","96","104217","0.0-5.0-3.30","63d1b93d9abc8c4b40e2d92f","bdp_rd","Mon Mar 27 2023 11:11:37 GMT-0500 (Central Daylight Time)","166082","","null","","","","offerFB","","<div class='trialBorder'><div class='vertical-center'><img style='vertical-align:center; align:center' src=img/fixation3.jpg></div><div class='cl'><div class='vertical-center'><font style='color:orange'>$16<br>for<br>sure</font></div></div><div class='cr'><div class='vertical-center'>$28<br>with a<br>50% chance</div></div><div class='respDivL'><div class='vertical-center'><font style='color:orange'>(E)</font></div></div><div class='respDivR'><div class='vertical-center'>(I)</div></div></div>","null","$16","$28","0","16","28",""
"html-keyboard-response","97","104720","0.0-5.0-1.31","63d1b93d9abc8c4b40e2d92f","bdp_rd","Mon Mar 27 2023 11:11:37 GMT-0500 (Central Daylight Time)","166082","","null","","","","FIX","","<div class='trialBorder'><div class='vertical-center'><img style='vertical-align:center; align:center' src=img/fixation3.jpg></div></div>","null","","","","","",""
"html-keyboard-response","98","105807","0.0-5.0-2.31","63d1b93d9abc8c4b40e2d92f","bdp_rd","Mon Mar 27 2023 11:11:37 GMT-0500 (Central Daylight Time)","166082","","1087","","","","offer","","<div class='trialBorder'><div class='vertical-center'><img style='vertical-align:center; align:center' src=img/fixation3.jpg></div><div class='cl'><div class='vertical-center'>$40<br>for<br>sure</div></div><div class='cr'><div class='vertical-center'>$95<br>with a<br>50% chance</div></div><div class='respDivL'><div class='vertical-center'>(E)</div></div><div class='respDivR'><div class='vertical-center'>(I)</div></div></div>","I","$40","$95","0","40","95","RISKY"
"html-keyboard-response","99","106060","0.0-5.0-3.31","63d1b93d9abc8c4b40e2d92f","bdp_rd","Mon Mar 27 2023 11:11:37 GMT-0500 (Central Daylight Time)","166082","","null","","","","offerFB","","<div class='trialBorder'><div class='vertical-center'><img style='vertical-align:center; align:center' src=img/fixation3.jpg></div><div class='cl'><div class='vertical-center'>$40<br>for<br>sure</div></div><div class='cr'><div class='vertical-center'><font style='color:orange'>$95<br>with a<br>50% chance</font></div></div><div class='respDivL'><div class='vertical-center'>(E)</div></div><div class='respDivR'><div class='vertical-center'><font style='color:orange'>(I)</font></div></div></div>","null","$40","$95","0","40","95",""
"html-keyboard-response","100","106562","0.0-5.0-1.32","63d1b93d9abc8c4b40e2d92f","bdp_rd","Mon Mar 27 2023 11:11:37 GMT-0500 (Central Daylight Time)","166082","","null","","","","FIX","","<div class='trialBorder'><div class='vertical-center'><img style='vertical-align:center; align:center' src=img/fixation3.jpg></div></div>","null","","","","","",""
"html-keyboard-response","101","107885","0.0-5.0-2.32","63d1b93d9abc8c4b40e2d92f","bdp_rd","Mon Mar 27 2023 11:11:37 GMT-0500 (Central Daylight Time)","166082","","1322","","","","offer","","<div class='trialBorder'><div class='vertical-center'><img style='vertical-align:center; align:center' src=img/fixation3.jpg></div><div class='cl'><div class='vertical-center'>$3<br>for<br>sure</div></div><div class='cr'><div class='vertical-center'>$12<br>with a<br>50% chance</div></div><div class='respDivL'><div class='vertical-center'>(E)</div></div><div class='respDivR'><div class='vertical-center'>(I)</div></div></div>","E","$3","$12","0","3","12","SURE"
"html-keyboard-response","102","108138","0.0-5.0-3.32","63d1b93d9abc8c4b40e2d92f","bdp_rd","Mon Mar 27 2023 11:11:37 GMT-0500 (Central Daylight Time)","166082","","null","","","","offerFB","","<div class='trialBorder'><div class='vertical-center'><img style='vertical-align:center; align:center' src=img/fixation3.jpg></div><div class='cl'><div class='vertical-center'><font style='color:orange'>$3<br>for<br>sure</font></div></div><div class='cr'><div class='vertical-center'>$12<br>with a<br>50% chance</div></div><div class='respDivL'><div class='vertical-center'><font style='color:orange'>(E)</font></div></div><div class='respDivR'><div class='vertical-center'>(I)</div></div></div>","null","$3","$12","0","3","12",""
"html-keyboard-response","103","108641","0.0-5.0-1.33","63d1b93d9abc8c4b40e2d92f","bdp_rd","Mon Mar 27 2023 11:11:37 GMT-0500 (Central Daylight Time)","166082","","null","","","","FIX","","<div class='trialBorder'><div class='vertical-center'><img style='vertical-align:center; align:center' src=img/fixation3.jpg></div></div>","null","","","","","",""
"html-keyboard-response","104","109903","0.0-5.0-2.33","63d1b93d9abc8c4b40e2d92f","bdp_rd","Mon Mar 27 2023 11:11:37 GMT-0500 (Central Daylight Time)","166082","","1260","","","","offer","","<div class='trialBorder'><div class='vertical-center'><img style='vertical-align:center; align:center' src=img/fixation3.jpg></div><div class='cl'><div class='vertical-center'>$15<br>for<br>sure</div></div><div class='cr'><div class='vertical-center'>$34<br>with a<br>50% chance</div></div><div class='respDivL'><div class='vertical-center'>(E)</div></div><div class='respDivR'><div class='vertical-center'>(I)</div></div></div>","I","$15","$34","0","15","34","RISKY"
"html-keyboard-response","105","110156","0.0-5.0-3.33","63d1b93d9abc8c4b40e2d92f","bdp_rd","Mon Mar 27 2023 11:11:37 GMT-0500 (Central Daylight Time)","166082","","null","","","","offerFB","","<div class='trialBorder'><div class='vertical-center'><img style='vertical-align:center; align:center' src=img/fixation3.jpg></div><div class='cl'><div class='vertical-center'>$15<br>for<br>sure</div></div><div class='cr'><div class='vertical-center'><font style='color:orange'>$34<br>with a<br>50% chance</font></div></div><div class='respDivL'><div class='vertical-center'>(E)</div></div><div class='respDivR'><div class='vertical-center'><font style='color:orange'>(I)</font></div></div></div>","null","$15","$34","0","15","34",""
"html-keyboard-response","106","110659","0.0-5.0-1.34","63d1b93d9abc8c4b40e2d92f","bdp_rd","Mon Mar 27 2023 11:11:37 GMT-0500 (Central Daylight Time)","166082","","null","","","","FIX","","<div class='trialBorder'><div class='vertical-center'><img style='vertical-align:center; align:center' src=img/fixation3.jpg></div></div>","null","","","","","",""
"html-keyboard-response","107","111862","0.0-5.0-2.34","63d1b93d9abc8c4b40e2d92f","bdp_rd","Mon Mar 27 2023 11:11:37 GMT-0500 (Central Daylight Time)","166082","","1201","","","","offer","","<div class='trialBorder'><div class='vertical-center'><img style='vertical-align:center; align:center' src=img/fixation3.jpg></div><div class='cl'><div class='vertical-center'>$7<br>for<br>sure</div></div><div class='cr'><div class='vertical-center'>$10<br>with a<br>50% chance</div></div><div class='respDivL'><div class='vertical-center'>(E)</div></div><div class='respDivR'><div class='vertical-center'>(I)</div></div></div>","E","$7","$10","0","7","10","SURE"
"html-keyboard-response","108","112115","0.0-5.0-3.34","63d1b93d9abc8c4b40e2d92f","bdp_rd","Mon Mar 27 2023 11:11:37 GMT-0500 (Central Daylight Time)","166082","","null","","","","offerFB","","<div class='trialBorder'><div class='vertical-center'><img style='vertical-align:center; align:center' src=img/fixation3.jpg></div><div class='cl'><div class='vertical-center'><font style='color:orange'>$7<br>for<br>sure</font></div></div><div class='cr'><div class='vertical-center'>$10<br>with a<br>50% chance</div></div><div class='respDivL'><div class='vertical-center'><font style='color:orange'>(E)</font></div></div><div class='respDivR'><div class='vertical-center'>(I)</div></div></div>","null","$7","$10","0","7","10",""
"html-keyboard-response","109","112618","0.0-5.0-1.35","63d1b93d9abc8c4b40e2d92f","bdp_rd","Mon Mar 27 2023 11:11:37 GMT-0500 (Central Daylight Time)","166082","","null","","","","FIX","","<div class='trialBorder'><div class='vertical-center'><img style='vertical-align:center; align:center' src=img/fixation3.jpg></div></div>","null","","","","","",""
"html-keyboard-response","110","114055","0.0-5.0-2.35","63d1b93d9abc8c4b40e2d92f","bdp_rd","Mon Mar 27 2023 11:11:37 GMT-0500 (Central Daylight Time)","166082","","1435","","","","offer","","<div class='trialBorder'><div class='vertical-center'><img style='vertical-align:center; align:center' src=img/fixation3.jpg></div><div class='cl'><div class='vertical-center'>$59<br>with a<br>50% chance</div></div><div class='cr'><div class='vertical-center'>$22<br>for<br>sure</div></div><div class='respDivL'><div class='vertical-center'>(E)</div></div><div class='respDivR'><div class='vertical-center'>(I)</div></div></div>","E","$22","$59","1","22","59","RISKY"
"html-keyboard-response","111","114307","0.0-5.0-3.35","63d1b93d9abc8c4b40e2d92f","bdp_rd","Mon Mar 27 2023 11:11:37 GMT-0500 (Central Daylight Time)","166082","","null","","","","offerFB","","<div class='trialBorder'><div class='vertical-center'><img style='vertical-align:center; align:center' src=img/fixation3.jpg></div><div class='cl'><div class='vertical-center'><font style='color:orange'>$59<br>with a<br>50% chance</font></div></div><div class='cr'><div class='vertical-center'>$22<br>for<br>sure</div></div><div class='respDivL'><div class='vertical-center'><font style='color:orange'>(E)</font></div></div><div class='respDivR'><div class='vertical-center'>(I)</div></div></div>","null","$22","$59","1","22","59",""
"html-keyboard-response","112","114810","0.0-5.0-1.36","63d1b93d9abc8c4b40e2d92f","bdp_rd","Mon Mar 27 2023 11:11:37 GMT-0500 (Central Daylight Time)","166082","","null","","","","FIX","","<div class='trialBorder'><div class='vertical-center'><img style='vertical-align:center; align:center' src=img/fixation3.jpg></div></div>","null","","","","","",""
"html-keyboard-response","113","116247","0.0-5.0-2.36","63d1b93d9abc8c4b40e2d92f","bdp_rd","Mon Mar 27 2023 11:11:37 GMT-0500 (Central Daylight Time)","166082","","1435","","","","offer","","<div class='trialBorder'><div class='vertical-center'><img style='vertical-align:center; align:center' src=img/fixation3.jpg></div><div class='cl'><div class='vertical-center'>$39<br>with a<br>50% chance</div></div><div class='cr'><div class='vertical-center'>$18<br>for<br>sure</div></div><div class='respDivL'><div class='vertical-center'>(E)</div></div><div class='respDivR'><div class='vertical-center'>(I)</div></div></div>","E","$18","$39","1","18","39","RISKY"
"html-keyboard-response","114","116500","0.0-5.0-3.36","63d1b93d9abc8c4b40e2d92f","bdp_rd","Mon Mar 27 2023 11:11:37 GMT-0500 (Central Daylight Time)","166082","","null","","","","offerFB","","<div class='trialBorder'><div class='vertical-center'><img style='vertical-align:center; align:center' src=img/fixation3.jpg></div><div class='cl'><div class='vertical-center'><font style='color:orange'>$39<br>with a<br>50% chance</font></div></div><div class='cr'><div class='vertical-center'>$18<br>for<br>sure</div></div><div class='respDivL'><div class='vertical-center'><font style='color:orange'>(E)</font></div></div><div class='respDivR'><div class='vertical-center'>(I)</div></div></div>","null","$18","$39","1","18","39",""
"html-keyboard-response","115","117001","0.0-5.0-1.37","63d1b93d9abc8c4b40e2d92f","bdp_rd","Mon Mar 27 2023 11:11:37 GMT-0500 (Central Daylight Time)","166082","","null","","","","FIX","","<div class='trialBorder'><div class='vertical-center'><img style='vertical-align:center; align:center' src=img/fixation3.jpg></div></div>","null","","","","","",""
"html-keyboard-response","116","118044","0.0-5.0-2.37","63d1b93d9abc8c4b40e2d92f","bdp_rd","Mon Mar 27 2023 11:11:37 GMT-0500 (Central Daylight Time)","166082","","1042","","","","offer","","<div class='trialBorder'><div class='vertical-center'><img style='vertical-align:center; align:center' src=img/fixation3.jpg></div><div class='cl'><div class='vertical-center'>$7<br>for<br>sure</div></div><div class='cr'><div class='vertical-center'>$71<br>with a<br>50% chance</div></div><div class='respDivL'><div class='vertical-center'>(E)</div></div><div class='respDivR'><div class='vertical-center'>(I)</div></div></div>","I","$7","$71","0","7","71","RISKY"
"html-keyboard-response","117","118296","0.0-5.0-3.37","63d1b93d9abc8c4b40e2d92f","bdp_rd","Mon Mar 27 2023 11:11:37 GMT-0500 (Central Daylight Time)","166082","","null","","","","offerFB","","<div class='trialBorder'><div class='vertical-center'><img style='vertical-align:center; align:center' src=img/fixation3.jpg></div><div class='cl'><div class='vertical-center'>$7<br>for<br>sure</div></div><div class='cr'><div class='vertical-center'><font style='color:orange'>$71<br>with a<br>50% chance</font></div></div><div class='respDivL'><div class='vertical-center'>(E)</div></div><div class='respDivR'><div class='vertical-center'><font style='color:orange'>(I)</font></div></div></div>","null","$7","$71","0","7","71",""
"html-keyboard-response","118","118798","0.0-5.0-1.38","63d1b93d9abc8c4b40e2d92f","bdp_rd","Mon Mar 27 2023 11:11:37 GMT-0500 (Central Daylight Time)","166082","","null","","","","FIX","","<div class='trialBorder'><div class='vertical-center'><img style='vertical-align:center; align:center' src=img/fixation3.jpg></div></div>","null","","","","","",""
"html-keyboard-response","119","120444","0.0-5.0-2.38","63d1b93d9abc8c4b40e2d92f","bdp_rd","Mon Mar 27 2023 11:11:37 GMT-0500 (Central Daylight Time)","166082","","1644","","","","offer","","<div class='trialBorder'><div class='vertical-center'><img style='vertical-align:center; align:center' src=img/fixation3.jpg></div><div class='cl'><div class='vertical-center'>$81<br>with a<br>50% chance</div></div><div class='cr'><div class='vertical-center'>$39<br>for<br>sure</div></div><div class='respDivL'><div class='vertical-center'>(E)</div></div><div class='respDivR'><div class='vertical-center'>(I)</div></div></div>","E","$39","$81","1","39","81","RISKY"
"html-keyboard-response","120","120695","0.0-5.0-3.38","63d1b93d9abc8c4b40e2d92f","bdp_rd","Mon Mar 27 2023 11:11:37 GMT-0500 (Central Daylight Time)","166082","","null","","","","offerFB","","<div class='trialBorder'><div class='vertical-center'><img style='vertical-align:center; align:center' src=img/fixation3.jpg></div><div class='cl'><div class='vertical-center'><font style='color:orange'>$81<br>with a<br>50% chance</font></div></div><div class='cr'><div class='vertical-center'>$39<br>for<br>sure</div></div><div class='respDivL'><div class='vertical-center'><font style='color:orange'>(E)</font></div></div><div class='respDivR'><div class='vertical-center'>(I)</div></div></div>","null","$39","$81","1","39","81",""
"html-keyboard-response","121","121197","0.0-5.0-1.39","63d1b93d9abc8c4b40e2d92f","bdp_rd","Mon Mar 27 2023 11:11:37 GMT-0500 (Central Daylight Time)","166082","","null","","","","FIX","","<div class='trialBorder'><div class='vertical-center'><img style='vertical-align:center; align:center' src=img/fixation3.jpg></div></div>","null","","","","","",""
"html-keyboard-response","122","123565","0.0-5.0-2.39","63d1b93d9abc8c4b40e2d92f","bdp_rd","Mon Mar 27 2023 11:11:37 GMT-0500 (Central Daylight Time)","166082","","2365","","","","offer","","<div class='trialBorder'><div class='vertical-center'><img style='vertical-align:center; align:center' src=img/fixation3.jpg></div><div class='cl'><div class='vertical-center'>$27<br>with a<br>50% chance</div></div><div class='cr'><div class='vertical-center'>$12<br>for<br>sure</div></div><div class='respDivL'><div class='vertical-center'>(E)</div></div><div class='respDivR'><div class='vertical-center'>(I)</div></div></div>","I","$12","$27","1","12","27","SURE"
"html-keyboard-response","123","123816","0.0-5.0-3.39","63d1b93d9abc8c4b40e2d92f","bdp_rd","Mon Mar 27 2023 11:11:37 GMT-0500 (Central Daylight Time)","166082","","null","","","","offerFB","","<div class='trialBorder'><div class='vertical-center'><img style='vertical-align:center; align:center' src=img/fixation3.jpg></div><div class='cl'><div class='vertical-center'>$27<br>with a<br>50% chance</div></div><div class='cr'><div class='vertical-center'><font style='color:orange'>$12<br>for<br>sure</font></div></div><div class='respDivL'><div class='vertical-center'>(E)</div></div><div class='respDivR'><div class='vertical-center'><font style='color:orange'>(I)</font></div></div></div>","null","$12","$27","1","12","27",""
"html-keyboard-response","124","124318","0.0-5.0-1.40","63d1b93d9abc8c4b40e2d92f","bdp_rd","Mon Mar 27 2023 11:11:37 GMT-0500 (Central Daylight Time)","166082","","null","","","","FIX","","<div class='trialBorder'><div class='vertical-center'><img style='vertical-align:center; align:center' src=img/fixation3.jpg></div></div>","null","","","","","",""
"html-keyboard-response","125","125539","0.0-5.0-2.40","63d1b93d9abc8c4b40e2d92f","bdp_rd","Mon Mar 27 2023 11:11:37 GMT-0500 (Central Daylight Time)","166082","","1220","","","","offer","","<div class='trialBorder'><div class='vertical-center'><img style='vertical-align:center; align:center' src=img/fixation3.jpg></div><div class='cl'><div class='vertical-center'>$89<br>with a<br>50% chance</div></div><div class='cr'><div class='vertical-center'>$28<br>for<br>sure</div></div><div class='respDivL'><div class='vertical-center'>(E)</div></div><div class='respDivR'><div class='vertical-center'>(I)</div></div></div>","E","$28","$89","1","28","89","RISKY"
"html-keyboard-response","126","125791","0.0-5.0-3.40","63d1b93d9abc8c4b40e2d92f","bdp_rd","Mon Mar 27 2023 11:11:37 GMT-0500 (Central Daylight Time)","166082","","null","","","","offerFB","","<div class='trialBorder'><div class='vertical-center'><img style='vertical-align:center; align:center' src=img/fixation3.jpg></div><div class='cl'><div class='vertical-center'><font style='color:orange'>$89<br>with a<br>50% chance</font></div></div><div class='cr'><div class='vertical-center'>$28<br>for<br>sure</div></div><div class='respDivL'><div class='vertical-center'><font style='color:orange'>(E)</font></div></div><div class='respDivR'><div class='vertical-center'>(I)</div></div></div>","null","$28","$89","1","28","89",""
"html-keyboard-response","127","126294","0.0-5.0-1.41","63d1b93d9abc8c4b40e2d92f","bdp_rd","Mon Mar 27 2023 11:11:37 GMT-0500 (Central Daylight Time)","166082","","null","","","","FIX","","<div class='trialBorder'><div class='vertical-center'><img style='vertical-align:center; align:center' src=img/fixation3.jpg></div></div>","null","","","","","",""
"html-keyboard-response","128","127790","0.0-5.0-2.41","63d1b93d9abc8c4b40e2d92f","bdp_rd","Mon Mar 27 2023 11:11:37 GMT-0500 (Central Daylight Time)","166082","","1494","","","","offer","","<div class='trialBorder'><div class='vertical-center'><img style='vertical-align:center; align:center' src=img/fixation3.jpg></div><div class='cl'><div class='vertical-center'>$1<br>for<br>sure</div></div><div class='cr'><div class='vertical-center'>$33<br>with a<br>50% chance</div></div><div class='respDivL'><div class='vertical-center'>(E)</div></div><div class='respDivR'><div class='vertical-center'>(I)</div></div></div>","I","$1","$33","0","1","33","RISKY"
"html-keyboard-response","129","128043","0.0-5.0-3.41","63d1b93d9abc8c4b40e2d92f","bdp_rd","Mon Mar 27 2023 11:11:37 GMT-0500 (Central Daylight Time)","166082","","null","","","","offerFB","","<div class='trialBorder'><div class='vertical-center'><img style='vertical-align:center; align:center' src=img/fixation3.jpg></div><div class='cl'><div class='vertical-center'>$1<br>for<br>sure</div></div><div class='cr'><div class='vertical-center'><font style='color:orange'>$33<br>with a<br>50% chance</font></div></div><div class='respDivL'><div class='vertical-center'>(E)</div></div><div class='respDivR'><div class='vertical-center'><font style='color:orange'>(I)</font></div></div></div>","null","$1","$33","0","1","33",""
"html-keyboard-response","130","128544","0.0-5.0-1.42","63d1b93d9abc8c4b40e2d92f","bdp_rd","Mon Mar 27 2023 11:11:37 GMT-0500 (Central Daylight Time)","166082","","null","","","","FIX","","<div class='trialBorder'><div class='vertical-center'><img style='vertical-align:center; align:center' src=img/fixation3.jpg></div></div>","null","","","","","",""
"html-keyboard-response","131","129701","0.0-5.0-2.42","63d1b93d9abc8c4b40e2d92f","bdp_rd","Mon Mar 27 2023 11:11:37 GMT-0500 (Central Daylight Time)","166082","","1154","","","","offer","","<div class='trialBorder'><div class='vertical-center'><img style='vertical-align:center; align:center' src=img/fixation3.jpg></div><div class='cl'><div class='vertical-center'>$22<br>for<br>sure</div></div><div class='cr'><div class='vertical-center'>$42<br>with a<br>50% chance</div></div><div class='respDivL'><div class='vertical-center'>(E)</div></div><div class='respDivR'><div class='vertical-center'>(I)</div></div></div>","I","$22","$42","0","22","42","RISKY"
"html-keyboard-response","132","129953","0.0-5.0-3.42","63d1b93d9abc8c4b40e2d92f","bdp_rd","Mon Mar 27 2023 11:11:37 GMT-0500 (Central Daylight Time)","166082","","null","","","","offerFB","","<div class='trialBorder'><div class='vertical-center'><img style='vertical-align:center; align:center' src=img/fixation3.jpg></div><div class='cl'><div class='vertical-center'>$22<br>for<br>sure</div></div><div class='cr'><div class='vertical-center'><font style='color:orange'>$42<br>with a<br>50% chance</font></div></div><div class='respDivL'><div class='vertical-center'>(E)</div></div><div class='respDivR'><div class='vertical-center'><font style='color:orange'>(I)</font></div></div></div>","null","$22","$42","0","22","42",""
"html-keyboard-response","133","130455","0.0-5.0-1.43","63d1b93d9abc8c4b40e2d92f","bdp_rd","Mon Mar 27 2023 11:11:37 GMT-0500 (Central Daylight Time)","166082","","null","","","","FIX","","<div class='trialBorder'><div class='vertical-center'><img style='vertical-align:center; align:center' src=img/fixation3.jpg></div></div>","null","","","","","",""
"html-keyboard-response","134","132166","0.0-5.0-2.43","63d1b93d9abc8c4b40e2d92f","bdp_rd","Mon Mar 27 2023 11:11:37 GMT-0500 (Central Daylight Time)","166082","","1711","","","","offer","","<div class='trialBorder'><div class='vertical-center'><img style='vertical-align:center; align:center' src=img/fixation3.jpg></div><div class='cl'><div class='vertical-center'>$8<br>for<br>sure</div></div><div class='cr'><div class='vertical-center'>$45<br>with a<br>50% chance</div></div><div class='respDivL'><div class='vertical-center'>(E)</div></div><div class='respDivR'><div class='vertical-center'>(I)</div></div></div>","I","$8","$45","0","8","45","RISKY"
"html-keyboard-response","135","132419","0.0-5.0-3.43","63d1b93d9abc8c4b40e2d92f","bdp_rd","Mon Mar 27 2023 11:11:37 GMT-0500 (Central Daylight Time)","166082","","null","","","","offerFB","","<div class='trialBorder'><div class='vertical-center'><img style='vertical-align:center; align:center' src=img/fixation3.jpg></div><div class='cl'><div class='vertical-center'>$8<br>for<br>sure</div></div><div class='cr'><div class='vertical-center'><font style='color:orange'>$45<br>with a<br>50% chance</font></div></div><div class='respDivL'><div class='vertical-center'>(E)</div></div><div class='respDivR'><div class='vertical-center'><font style='color:orange'>(I)</font></div></div></div>","null","$8","$45","0","8","45",""
"html-keyboard-response","136","132934","0.0-5.0-1.44","63d1b93d9abc8c4b40e2d92f","bdp_rd","Mon Mar 27 2023 11:11:37 GMT-0500 (Central Daylight Time)","166082","","null","","","","FIX","","<div class='trialBorder'><div class='vertical-center'><img style='vertical-align:center; align:center' src=img/fixation3.jpg></div></div>","null","","","","","",""
"html-keyboard-response","137","134086","0.0-5.0-2.44","63d1b93d9abc8c4b40e2d92f","bdp_rd","Mon Mar 27 2023 11:11:37 GMT-0500 (Central Daylight Time)","166082","","1150","","","","offer","","<div class='trialBorder'><div class='vertical-center'><img style='vertical-align:center; align:center' src=img/fixation3.jpg></div><div class='cl'><div class='vertical-center'>$33<br>for<br>sure</div></div><div class='cr'><div class='vertical-center'>$66<br>with a<br>50% chance</div></div><div class='respDivL'><div class='vertical-center'>(E)</div></div><div class='respDivR'><div class='vertical-center'>(I)</div></div></div>","I","$33","$66","0","33","66","RISKY"
"html-keyboard-response","138","134339","0.0-5.0-3.44","63d1b93d9abc8c4b40e2d92f","bdp_rd","Mon Mar 27 2023 11:11:37 GMT-0500 (Central Daylight Time)","166082","","null","","","","offerFB","","<div class='trialBorder'><div class='vertical-center'><img style='vertical-align:center; align:center' src=img/fixation3.jpg></div><div class='cl'><div class='vertical-center'>$33<br>for<br>sure</div></div><div class='cr'><div class='vertical-center'><font style='color:orange'>$66<br>with a<br>50% chance</font></div></div><div class='respDivL'><div class='vertical-center'>(E)</div></div><div class='respDivR'><div class='vertical-center'><font style='color:orange'>(I)</font></div></div></div>","null","$33","$66","0","33","66",""
"html-keyboard-response","139","134841","0.0-5.0-1.45","63d1b93d9abc8c4b40e2d92f","bdp_rd","Mon Mar 27 2023 11:11:37 GMT-0500 (Central Daylight Time)","166082","","null","","","","FIX","","<div class='trialBorder'><div class='vertical-center'><img style='vertical-align:center; align:center' src=img/fixation3.jpg></div></div>","null","","","","","",""
"html-keyboard-response","140","136471","0.0-5.0-2.45","63d1b93d9abc8c4b40e2d92f","bdp_rd","Mon Mar 27 2023 11:11:37 GMT-0500 (Central Daylight Time)","166082","","1628","","","","offer","","<div class='trialBorder'><div class='vertical-center'><img style='vertical-align:center; align:center' src=img/fixation3.jpg></div><div class='cl'><div class='vertical-center'>$37<br>for<br>sure</div></div><div class='cr'><div class='vertical-center'>$44<br>with a<br>50% chance</div></div><div class='respDivL'><div class='vertical-center'>(E)</div></div><div class='respDivR'><div class='vertical-center'>(I)</div></div></div>","E","$37","$44","0","37","44","SURE"
"html-keyboard-response","141","136723","0.0-5.0-3.45","63d1b93d9abc8c4b40e2d92f","bdp_rd","Mon Mar 27 2023 11:11:37 GMT-0500 (Central Daylight Time)","166082","","null","","","","offerFB","","<div class='trialBorder'><div class='vertical-center'><img style='vertical-align:center; align:center' src=img/fixation3.jpg></div><div class='cl'><div class='vertical-center'><font style='color:orange'>$37<br>for<br>sure</font></div></div><div class='cr'><div class='vertical-center'>$44<br>with a<br>50% chance</div></div><div class='respDivL'><div class='vertical-center'><font style='color:orange'>(E)</font></div></div><div class='respDivR'><div class='vertical-center'>(I)</div></div></div>","null","$37","$44","0","37","44",""
"html-keyboard-response","142","137226","0.0-5.0-1.46","63d1b93d9abc8c4b40e2d92f","bdp_rd","Mon Mar 27 2023 11:11:37 GMT-0500 (Central Daylight Time)","166082","","null","","","","FIX","","<div class='trialBorder'><div class='vertical-center'><img style='vertical-align:center; align:center' src=img/fixation3.jpg></div></div>","null","","","","","",""
"html-keyboard-response","143","138886","0.0-5.0-2.46","63d1b93d9abc8c4b40e2d92f","bdp_rd","Mon Mar 27 2023 11:11:37 GMT-0500 (Central Daylight Time)","166082","","1657","","","","offer","","<div class='trialBorder'><div class='vertical-center'><img style='vertical-align:center; align:center' src=img/fixation3.jpg></div><div class='cl'><div class='vertical-center'>$14<br>with a<br>50% chance</div></div><div class='cr'><div class='vertical-center'>$4<br>for<br>sure</div></div><div class='respDivL'><div class='vertical-center'>(E)</div></div><div class='respDivR'><div class='vertical-center'>(I)</div></div></div>","E","$4","$14","1","4","14","RISKY"
"html-keyboard-response","144","139138","0.0-5.0-3.46","63d1b93d9abc8c4b40e2d92f","bdp_rd","Mon Mar 27 2023 11:11:37 GMT-0500 (Central Daylight Time)","166082","","null","","","","offerFB","","<div class='trialBorder'><div class='vertical-center'><img style='vertical-align:center; align:center' src=img/fixation3.jpg></div><div class='cl'><div class='vertical-center'><font style='color:orange'>$14<br>with a<br>50% chance</font></div></div><div class='cr'><div class='vertical-center'>$4<br>for<br>sure</div></div><div class='respDivL'><div class='vertical-center'><font style='color:orange'>(E)</font></div></div><div class='respDivR'><div class='vertical-center'>(I)</div></div></div>","null","$4","$14","1","4","14",""
"html-keyboard-response","145","139642","0.0-5.0-1.47","63d1b93d9abc8c4b40e2d92f","bdp_rd","Mon Mar 27 2023 11:11:37 GMT-0500 (Central Daylight Time)","166082","","null","","","","FIX","","<div class='trialBorder'><div class='vertical-center'><img style='vertical-align:center; align:center' src=img/fixation3.jpg></div></div>","null","","","","","",""
"html-keyboard-response","146","141070","0.0-5.0-2.47","63d1b93d9abc8c4b40e2d92f","bdp_rd","Mon Mar 27 2023 11:11:37 GMT-0500 (Central Daylight Time)","166082","","1426","","","","offer","","<div class='trialBorder'><div class='vertical-center'><img style='vertical-align:center; align:center' src=img/fixation3.jpg></div><div class='cl'><div class='vertical-center'>$29<br>for<br>sure</div></div><div class='cr'><div class='vertical-center'>$46<br>with a<br>50% chance</div></div><div class='respDivL'><div class='vertical-center'>(E)</div></div><div class='respDivR'><div class='vertical-center'>(I)</div></div></div>","E","$29","$46","0","29","46","SURE"
"html-keyboard-response","147","141323","0.0-5.0-3.47","63d1b93d9abc8c4b40e2d92f","bdp_rd","Mon Mar 27 2023 11:11:37 GMT-0500 (Central Daylight Time)","166082","","null","","","","offerFB","","<div class='trialBorder'><div class='vertical-center'><img style='vertical-align:center; align:center' src=img/fixation3.jpg></div><div class='cl'><div class='vertical-center'><font style='color:orange'>$29<br>for<br>sure</font></div></div><div class='cr'><div class='vertical-center'>$46<br>with a<br>50% chance</div></div><div class='respDivL'><div class='vertical-center'><font style='color:orange'>(E)</font></div></div><div class='respDivR'><div class='vertical-center'>(I)</div></div></div>","null","$29","$46","0","29","46",""
"html-keyboard-response","148","141826","0.0-5.0-1.48","63d1b93d9abc8c4b40e2d92f","bdp_rd","Mon Mar 27 2023 11:11:37 GMT-0500 (Central Daylight Time)","166082","","null","","","","FIX","","<div class='trialBorder'><div class='vertical-center'><img style='vertical-align:center; align:center' src=img/fixation3.jpg></div></div>","null","","","","","",""
"html-keyboard-response","149","142958","0.0-5.0-2.48","63d1b93d9abc8c4b40e2d92f","bdp_rd","Mon Mar 27 2023 11:11:37 GMT-0500 (Central Daylight Time)","166082","","1129","","","","offer","","<div class='trialBorder'><div class='vertical-center'><img style='vertical-align:center; align:center' src=img/fixation3.jpg></div><div class='cl'><div class='vertical-center'>$13<br>for<br>sure</div></div><div class='cr'><div class='vertical-center'>$41<br>with a<br>50% chance</div></div><div class='respDivL'><div class='vertical-center'>(E)</div></div><div class='respDivR'><div class='vertical-center'>(I)</div></div></div>","I","$13","$41","0","13","41","RISKY"
"html-keyboard-response","150","143210","0.0-5.0-3.48","63d1b93d9abc8c4b40e2d92f","bdp_rd","Mon Mar 27 2023 11:11:37 GMT-0500 (Central Daylight Time)","166082","","null","","","","offerFB","","<div class='trialBorder'><div class='vertical-center'><img style='vertical-align:center; align:center' src=img/fixation3.jpg></div><div class='cl'><div class='vertical-center'>$13<br>for<br>sure</div></div><div class='cr'><div class='vertical-center'><font style='color:orange'>$41<br>with a<br>50% chance</font></div></div><div class='respDivL'><div class='vertical-center'>(E)</div></div><div class='respDivR'><div class='vertical-center'><font style='color:orange'>(I)</font></div></div></div>","null","$13","$41","0","13","41",""
"html-keyboard-response","151","143712","0.0-5.0-1.49","63d1b93d9abc8c4b40e2d92f","bdp_rd","Mon Mar 27 2023 11:11:37 GMT-0500 (Central Daylight Time)","166082","","null","","","","FIX","","<div class='trialBorder'><div class='vertical-center'><img style='vertical-align:center; align:center' src=img/fixation3.jpg></div></div>","null","","","","","",""
"html-keyboard-response","152","145565","0.0-5.0-2.49","63d1b93d9abc8c4b40e2d92f","bdp_rd","Mon Mar 27 2023 11:11:37 GMT-0500 (Central Daylight Time)","166082","","1850","","","","offer","","<div class='trialBorder'><div class='vertical-center'><img style='vertical-align:center; align:center' src=img/fixation3.jpg></div><div class='cl'><div class='vertical-center'>$100<br>with a<br>50% chance</div></div><div class='cr'><div class='vertical-center'>$63<br>for<br>sure</div></div><div class='respDivL'><div class='vertical-center'>(E)</div></div><div class='respDivR'><div class='vertical-center'>(I)</div></div></div>","E","$63","$100","1","63","10","RISKY"
"html-keyboard-response","153","145817","0.0-5.0-3.49","63d1b93d9abc8c4b40e2d92f","bdp_rd","Mon Mar 27 2023 11:11:37 GMT-0500 (Central Daylight Time)","166082","","null","","","","offerFB","","<div class='trialBorder'><div class='vertical-center'><img style='vertical-align:center; align:center' src=img/fixation3.jpg></div><div class='cl'><div class='vertical-center'><font style='color:orange'>$100<br>with a<br>50% chance</font></div></div><div class='cr'><div class='vertical-center'>$63<br>for<br>sure</div></div><div class='respDivL'><div class='vertical-center'><font style='color:orange'>(E)</font></div></div><div class='respDivR'><div class='vertical-center'>(I)</div></div></div>","null","$63","$100","1","63","10",""
"html-keyboard-response","154","146319","0.0-5.0-1.50","63d1b93d9abc8c4b40e2d92f","bdp_rd","Mon Mar 27 2023 11:11:37 GMT-0500 (Central Daylight Time)","166082","","null","","","","FIX","","<div class='trialBorder'><div class='vertical-center'><img style='vertical-align:center; align:center' src=img/fixation3.jpg></div></div>","null","","","","","",""
"html-keyboard-response","155","147436","0.0-5.0-2.50","63d1b93d9abc8c4b40e2d92f","bdp_rd","Mon Mar 27 2023 11:11:37 GMT-0500 (Central Daylight Time)","166082","","1115","","","","offer","","<div class='trialBorder'><div class='vertical-center'><img style='vertical-align:center; align:center' src=img/fixation3.jpg></div><div class='cl'><div class='vertical-center'>$20<br>for<br>sure</div></div><div class='cr'><div class='vertical-center'>$37<br>with a<br>50% chance</div></div><div class='respDivL'><div class='vertical-center'>(E)</div></div><div class='respDivR'><div class='vertical-center'>(I)</div></div></div>","E","$20","$37","0","20","37","SURE"
"html-keyboard-response","156","147688","0.0-5.0-3.50","63d1b93d9abc8c4b40e2d92f","bdp_rd","Mon Mar 27 2023 11:11:37 GMT-0500 (Central Daylight Time)","166082","","null","","","","offerFB","","<div class='trialBorder'><div class='vertical-center'><img style='vertical-align:center; align:center' src=img/fixation3.jpg></div><div class='cl'><div class='vertical-center'><font style='color:orange'>$20<br>for<br>sure</font></div></div><div class='cr'><div class='vertical-center'>$37<br>with a<br>50% chance</div></div><div class='respDivL'><div class='vertical-center'><font style='color:orange'>(E)</font></div></div><div class='respDivR'><div class='vertical-center'>(I)</div></div></div>","null","$20","$37","0","20","37",""
"html-keyboard-response","157","148191","0.0-5.0-1.51","63d1b93d9abc8c4b40e2d92f","bdp_rd","Mon Mar 27 2023 11:11:37 GMT-0500 (Central Daylight Time)","166082","","null","","","","FIX","","<div class='trialBorder'><div class='vertical-center'><img style='vertical-align:center; align:center' src=img/fixation3.jpg></div></div>","null","","","","","",""
"html-keyboard-response","158","149128","0.0-5.0-2.51","63d1b93d9abc8c4b40e2d92f","bdp_rd","Mon Mar 27 2023 11:11:37 GMT-0500 (Central Daylight Time)","166082","","936","","","","offer","","<div class='trialBorder'><div class='vertical-center'><img style='vertical-align:center; align:center' src=img/fixation3.jpg></div><div class='cl'><div class='vertical-center'>$70<br>with a<br>50% chance</div></div><div class='cr'><div class='vertical-center'>$24<br>for<br>sure</div></div><div class='respDivL'><div class='vertical-center'>(E)</div></div><div class='respDivR'><div class='vertical-center'>(I)</div></div></div>","E","$24","$70","1","24","70","RISKY"
"html-keyboard-response","159","149381","0.0-5.0-3.51","63d1b93d9abc8c4b40e2d92f","bdp_rd","Mon Mar 27 2023 11:11:37 GMT-0500 (Central Daylight Time)","166082","","null","","","","offerFB","","<div class='trialBorder'><div class='vertical-center'><img style='vertical-align:center; align:center' src=img/fixation3.jpg></div><div class='cl'><div class='vertical-center'><font style='color:orange'>$70<br>with a<br>50% chance</font></div></div><div class='cr'><div class='vertical-center'>$24<br>for<br>sure</div></div><div class='respDivL'><div class='vertical-center'><font style='color:orange'>(E)</font></div></div><div class='respDivR'><div class='vertical-center'>(I)</div></div></div>","null","$24","$70","1","24","70",""
"html-keyboard-response","160","149882","0.0-5.0-1.52","63d1b93d9abc8c4b40e2d92f","bdp_rd","Mon Mar 27 2023 11:11:37 GMT-0500 (Central Daylight Time)","166082","","null","","","","FIX","","<div class='trialBorder'><div class='vertical-center'><img style='vertical-align:center; align:center' src=img/fixation3.jpg></div></div>","null","","","","","",""
"html-keyboard-response","161","150908","0.0-5.0-2.52","63d1b93d9abc8c4b40e2d92f","bdp_rd","Mon Mar 27 2023 11:11:37 GMT-0500 (Central Daylight Time)","166082","","1024","","","","offer","","<div class='trialBorder'><div class='vertical-center'><img style='vertical-align:center; align:center' src=img/fixation3.jpg></div><div class='cl'><div class='vertical-center'>$43<br>with a<br>50% chance</div></div><div class='cr'><div class='vertical-center'>$17<br>for<br>sure</div></div><div class='respDivL'><div class='vertical-center'>(E)</div></div><div class='respDivR'><div class='vertical-center'>(I)</div></div></div>","E","$17","$43","1","17","43","RISKY"
"html-keyboard-response","162","151160","0.0-5.0-3.52","63d1b93d9abc8c4b40e2d92f","bdp_rd","Mon Mar 27 2023 11:11:37 GMT-0500 (Central Daylight Time)","166082","","null","","","","offerFB","","<div class='trialBorder'><div class='vertical-center'><img style='vertical-align:center; align:center' src=img/fixation3.jpg></div><div class='cl'><div class='vertical-center'><font style='color:orange'>$43<br>with a<br>50% chance</font></div></div><div class='cr'><div class='vertical-center'>$17<br>for<br>sure</div></div><div class='respDivL'><div class='vertical-center'><font style='color:orange'>(E)</font></div></div><div class='respDivR'><div class='vertical-center'>(I)</div></div></div>","null","$17","$43","1","17","43",""
"html-keyboard-response","163","151663","0.0-5.0-1.53","63d1b93d9abc8c4b40e2d92f","bdp_rd","Mon Mar 27 2023 11:11:37 GMT-0500 (Central Daylight Time)","166082","","null","","","","FIX","","<div class='trialBorder'><div class='vertical-center'><img style='vertical-align:center; align:center' src=img/fixation3.jpg></div></div>","null","","","","","",""
"html-keyboard-response","164","152654","0.0-5.0-2.53","63d1b93d9abc8c4b40e2d92f","bdp_rd","Mon Mar 27 2023 11:11:37 GMT-0500 (Central Daylight Time)","166082","","990","","","","offer","","<div class='trialBorder'><div class='vertical-center'><img style='vertical-align:center; align:center' src=img/fixation3.jpg></div><div class='cl'><div class='vertical-center'>$64<br>with a<br>50% chance</div></div><div class='cr'><div class='vertical-center'>$2<br>for<br>sure</div></div><div class='respDivL'><div class='vertical-center'>(E)</div></div><div class='respDivR'><div class='vertical-center'>(I)</div></div></div>","E","$2","$64","1","2","64","RISKY"
"html-keyboard-response","165","152907","0.0-5.0-3.53","63d1b93d9abc8c4b40e2d92f","bdp_rd","Mon Mar 27 2023 11:11:37 GMT-0500 (Central Daylight Time)","166082","","null","","","","offerFB","","<div class='trialBorder'><div class='vertical-center'><img style='vertical-align:center; align:center' src=img/fixation3.jpg></div><div class='cl'><div class='vertical-center'><font style='color:orange'>$64<br>with a<br>50% chance</font></div></div><div class='cr'><div class='vertical-center'>$2<br>for<br>sure</div></div><div class='respDivL'><div class='vertical-center'><font style='color:orange'>(E)</font></div></div><div class='respDivR'><div class='vertical-center'>(I)</div></div></div>","null","$2","$64","1","2","64",""
"html-keyboard-response","166","153410","0.0-5.0-1.54","63d1b93d9abc8c4b40e2d92f","bdp_rd","Mon Mar 27 2023 11:11:37 GMT-0500 (Central Daylight Time)","166082","","null","","","","FIX","","<div class='trialBorder'><div class='vertical-center'><img style='vertical-align:center; align:center' src=img/fixation3.jpg></div></div>","null","","","","","",""
"html-keyboard-response","167","154404","0.0-5.0-2.54","63d1b93d9abc8c4b40e2d92f","bdp_rd","Mon Mar 27 2023 11:11:37 GMT-0500 (Central Daylight Time)","166082","","993","","","","offer","","<div class='trialBorder'><div class='vertical-center'><img style='vertical-align:center; align:center' src=img/fixation3.jpg></div><div class='cl'><div class='vertical-center'>$32<br>with a<br>50% chance</div></div><div class='cr'><div class='vertical-center'>$9<br>for<br>sure</div></div><div class='respDivL'><div class='vertical-center'>(E)</div></div><div class='respDivR'><div class='vertical-center'>(I)</div></div></div>","E","$9","$32","1","9","32","RISKY"
"html-keyboard-response","168","154656","0.0-5.0-3.54","63d1b93d9abc8c4b40e2d92f","bdp_rd","Mon Mar 27 2023 11:11:37 GMT-0500 (Central Daylight Time)","166082","","null","","","","offerFB","","<div class='trialBorder'><div class='vertical-center'><img style='vertical-align:center; align:center' src=img/fixation3.jpg></div><div class='cl'><div class='vertical-center'><font style='color:orange'>$32<br>with a<br>50% chance</font></div></div><div class='cr'><div class='vertical-center'>$9<br>for<br>sure</div></div><div class='respDivL'><div class='vertical-center'><font style='color:orange'>(E)</font></div></div><div class='respDivR'><div class='vertical-center'>(I)</div></div></div>","null","$9","$32","1","9","32",""
"html-keyboard-response","169","155159","0.0-5.0-1.55","63d1b93d9abc8c4b40e2d92f","bdp_rd","Mon Mar 27 2023 11:11:37 GMT-0500 (Central Daylight Time)","166082","","null","","","","FIX","","<div class='trialBorder'><div class='vertical-center'><img style='vertical-align:center; align:center' src=img/fixation3.jpg></div></div>","null","","","","","",""
"html-keyboard-response","170","156215","0.0-5.0-2.55","63d1b93d9abc8c4b40e2d92f","bdp_rd","Mon Mar 27 2023 11:11:37 GMT-0500 (Central Daylight Time)","166082","","1056","","","","offer","","<div class='trialBorder'><div class='vertical-center'><img style='vertical-align:center; align:center' src=img/fixation3.jpg></div><div class='cl'><div class='vertical-center'>$29<br>with a<br>50% chance</div></div><div class='cr'><div class='vertical-center'>$14<br>for<br>sure</div></div><div class='respDivL'><div class='vertical-center'>(E)</div></div><div class='respDivR'><div class='vertical-center'>(I)</div></div></div>","E","$14","$29","1","14","29","RISKY"
"html-keyboard-response","171","156468","0.0-5.0-3.55","63d1b93d9abc8c4b40e2d92f","bdp_rd","Mon Mar 27 2023 11:11:37 GMT-0500 (Central Daylight Time)","166082","","null","","","","offerFB","","<div class='trialBorder'><div class='vertical-center'><img style='vertical-align:center; align:center' src=img/fixation3.jpg></div><div class='cl'><div class='vertical-center'><font style='color:orange'>$29<br>with a<br>50% chance</font></div></div><div class='cr'><div class='vertical-center'>$14<br>for<br>sure</div></div><div class='respDivL'><div class='vertical-center'><font style='color:orange'>(E)</font></div></div><div class='respDivR'><div class='vertical-center'>(I)</div></div></div>","null","$14","$29","1","14","29",""
"html-keyboard-response","172","156970","0.0-5.0-1.56","63d1b93d9abc8c4b40e2d92f","bdp_rd","Mon Mar 27 2023 11:11:37 GMT-0500 (Central Daylight Time)","166082","","null","","","","FIX","","<div class='trialBorder'><div class='vertical-center'><img style='vertical-align:center; align:center' src=img/fixation3.jpg></div></div>","null","","","","","",""
"html-keyboard-response","173","157974","0.0-5.0-2.56","63d1b93d9abc8c4b40e2d92f","bdp_rd","Mon Mar 27 2023 11:11:37 GMT-0500 (Central Daylight Time)","166082","","1003","","","","offer","","<div class='trialBorder'><div class='vertical-center'><img style='vertical-align:center; align:center' src=img/fixation3.jpg></div><div class='cl'><div class='vertical-center'>$17<br>with a<br>50% chance</div></div><div class='cr'><div class='vertical-center'>$3<br>for<br>sure</div></div><div class='respDivL'><div class='vertical-center'>(E)</div></div><div class='respDivR'><div class='vertical-center'>(I)</div></div></div>","E","$3","$17","1","3","17","RISKY"
