"trial_type","trial_index","time_elapsed","internal_node_id","subject_id","task","startTime","totalTime","view_history","rt","event","trial","time","trialtype","success","stimulus","key_press","sureOffer","riskyOffer","riskyLeft","sureAmt","riskyAmt","chosen"
"pavlovia","0","2","0.0-0.0","63f791692fa22034babcdda1","bdp_rd","Sat Mar 25 2023 20:05:18 GMT-0400 (Eastern Daylight Time)","210337","","","","","","","","","","","","","","",""
"instructions","1","2099","0.0-1.0","63f791692fa22034babcdda1","bdp_rd","Sat Mar 25 2023 20:05:18 GMT-0400 (Eastern Daylight Time)","210337","[{""page_index"":0,""viewing_time"":2096}]","2096","","","","","","","","","","","","",""
"","","","","63f791692fa22034babcdda1","bdp_rd","Sat Mar 25 2023 20:05:18 GMT-0400 (Eastern Daylight Time)","210337","","","fullscreenenter","2","3691","fullscreenenter","","","","","","","","",""
"fullscreen","2","4667","0.0-2.0","63f791692fa22034babcdda1","bdp_rd","Sat Mar 25 2023 20:05:18 GMT-0400 (Eastern Daylight Time)","210337","","","","","","","true","","","","","","","",""
"instructions","3","56386","0.0-4.0","63f791692fa22034babcdda1","bdp_rd","Sat Mar 25 2023 20:05:18 GMT-0400 (Eastern Daylight Time)","210337","[{""page_index"":0,""viewing_time"":30415},{""page_index"":1,""viewing_time"":15223},{""page_index"":2,""viewing_time"":6079}]","51717","","","","","","","","","","","","",""
"html-keyboard-response","4","56890","0.0-5.0-1.0","63f791692fa22034babcdda1","bdp_rd","Sat Mar 25 2023 20:05:18 GMT-0400 (Eastern Daylight Time)","210337","","null","","","","FIX","","<div class='trialBorder'><div class='vertical-center'><img style='vertical-align:center; align:center' src=img/fixation3.jpg></div></div>","null","","","","","",""
"html-keyboard-response","5","60194","0.0-5.0-2.0","63f791692fa22034babcdda1","bdp_rd","Sat Mar 25 2023 20:05:18 GMT-0400 (Eastern Daylight Time)","210337","","3301","","","","offer","","<div class='trialBorder'><div class='vertical-center'><img style='vertical-align:center; align:center' src=img/fixation3.jpg></div><div class='cl'><div class='vertical-center'>$38<br>with a<br>50% chance</div></div><div class='cr'><div class='vertical-center'>$16<br>for<br>sure</div></div><div class='respDivL'><div class='vertical-center'>(E)</div></div><div class='respDivR'><div class='vertical-center'>(I)</div></div></div>","I","$16","$38","1","16","38","SURE"
"html-keyboard-response","6","60448","0.0-5.0-3.0","63f791692fa22034babcdda1","bdp_rd","Sat Mar 25 2023 20:05:18 GMT-0400 (Eastern Daylight Time)","210337","","null","","","","offerFB","","<div class='trialBorder'><div class='vertical-center'><img style='vertical-align:center; align:center' src=img/fixation3.jpg></div><div class='cl'><div class='vertical-center'>$38<br>with a<br>50% chance</div></div><div class='cr'><div class='vertical-center'><font style='color:orange'>$16<br>for<br>sure</font></div></div><div class='respDivL'><div class='vertical-center'>(E)</div></div><div class='respDivR'><div class='vertical-center'><font style='color:orange'>(I)</font></div></div></div>","null","$16","$38","1","16","38",""
"html-keyboard-response","7","60949","0.0-5.0-1.1","63f791692fa22034babcdda1","bdp_rd","Sat Mar 25 2023 20:05:18 GMT-0400 (Eastern Daylight Time)","210337","","null","","","","FIX","","<div class='trialBorder'><div class='vertical-center'><img style='vertical-align:center; align:center' src=img/fixation3.jpg></div></div>","null","","","","","",""
"html-keyboard-response","8","62894","0.0-5.0-2.1","63f791692fa22034babcdda1","bdp_rd","Sat Mar 25 2023 20:05:18 GMT-0400 (Eastern Daylight Time)","210337","","1943","","","","offer","","<div class='trialBorder'><div class='vertical-center'><img style='vertical-align:center; align:center' src=img/fixation3.jpg></div><div class='cl'><div class='vertical-center'>$7<br>for<br>sure</div></div><div class='cr'><div class='vertical-center'>$71<br>with a<br>50% chance</div></div><div class='respDivL'><div class='vertical-center'>(E)</div></div><div class='respDivR'><div class='vertical-center'>(I)</div></div></div>","I","$7","$71","0","7","71","RISKY"
"html-keyboard-response","9","63146","0.0-5.0-3.1","63f791692fa22034babcdda1","bdp_rd","Sat Mar 25 2023 20:05:18 GMT-0400 (Eastern Daylight Time)","210337","","null","","","","offerFB","","<div class='trialBorder'><div class='vertical-center'><img style='vertical-align:center; align:center' src=img/fixation3.jpg></div><div class='cl'><div class='vertical-center'>$7<br>for<br>sure</div></div><div class='cr'><div class='vertical-center'><font style='color:orange'>$71<br>with a<br>50% chance</font></div></div><div class='respDivL'><div class='vertical-center'>(E)</div></div><div class='respDivR'><div class='vertical-center'><font style='color:orange'>(I)</font></div></div></div>","null","$7","$71","0","7","71",""
"html-keyboard-response","10","63648","0.0-5.0-1.2","63f791692fa22034babcdda1","bdp_rd","Sat Mar 25 2023 20:05:18 GMT-0400 (Eastern Daylight Time)","210337","","null","","","","FIX","","<div class='trialBorder'><div class='vertical-center'><img style='vertical-align:center; align:center' src=img/fixation3.jpg></div></div>","null","","","","","",""
"html-keyboard-response","11","65730","0.0-5.0-2.2","63f791692fa22034babcdda1","bdp_rd","Sat Mar 25 2023 20:05:18 GMT-0400 (Eastern Daylight Time)","210337","","2081","","","","offer","","<div class='trialBorder'><div class='vertical-center'><img style='vertical-align:center; align:center' src=img/fixation3.jpg></div><div class='cl'><div class='vertical-center'>$92<br>with a<br>50% chance</div></div><div class='cr'><div class='vertical-center'>$26<br>for<br>sure</div></div><div class='respDivL'><div class='vertical-center'>(E)</div></div><div class='respDivR'><div class='vertical-center'>(I)</div></div></div>","E","$26","$92","1","26","92","RISKY"
"html-keyboard-response","12","65983","0.0-5.0-3.2","63f791692fa22034babcdda1","bdp_rd","Sat Mar 25 2023 20:05:18 GMT-0400 (Eastern Daylight Time)","210337","","null","","","","offerFB","","<div class='trialBorder'><div class='vertical-center'><img style='vertical-align:center; align:center' src=img/fixation3.jpg></div><div class='cl'><div class='vertical-center'><font style='color:orange'>$92<br>with a<br>50% chance</font></div></div><div class='cr'><div class='vertical-center'>$26<br>for<br>sure</div></div><div class='respDivL'><div class='vertical-center'><font style='color:orange'>(E)</font></div></div><div class='respDivR'><div class='vertical-center'>(I)</div></div></div>","null","$26","$92","1","26","92",""
"html-keyboard-response","13","66485","0.0-5.0-1.3","63f791692fa22034babcdda1","bdp_rd","Sat Mar 25 2023 20:05:18 GMT-0400 (Eastern Daylight Time)","210337","","null","","","","FIX","","<div class='trialBorder'><div class='vertical-center'><img style='vertical-align:center; align:center' src=img/fixation3.jpg></div></div>","null","","","","","",""
"html-keyboard-response","14","67930","0.0-5.0-2.3","63f791692fa22034babcdda1","bdp_rd","Sat Mar 25 2023 20:05:18 GMT-0400 (Eastern Daylight Time)","210337","","1443","","","","offer","","<div class='trialBorder'><div class='vertical-center'><img style='vertical-align:center; align:center' src=img/fixation3.jpg></div><div class='cl'><div class='vertical-center'>$15<br>for<br>sure</div></div><div class='cr'><div class='vertical-center'>$31<br>with a<br>50% chance</div></div><div class='respDivL'><div class='vertical-center'>(E)</div></div><div class='respDivR'><div class='vertical-center'>(I)</div></div></div>","E","$15","$31","0","15","31","SURE"
"html-keyboard-response","15","68184","0.0-5.0-3.3","63f791692fa22034babcdda1","bdp_rd","Sat Mar 25 2023 20:05:18 GMT-0400 (Eastern Daylight Time)","210337","","null","","","","offerFB","","<div class='trialBorder'><div class='vertical-center'><img style='vertical-align:center; align:center' src=img/fixation3.jpg></div><div class='cl'><div class='vertical-center'><font style='color:orange'>$15<br>for<br>sure</font></div></div><div class='cr'><div class='vertical-center'>$31<br>with a<br>50% chance</div></div><div class='respDivL'><div class='vertical-center'><font style='color:orange'>(E)</font></div></div><div class='respDivR'><div class='vertical-center'>(I)</div></div></div>","null","$15","$31","0","15","31",""
"html-keyboard-response","16","68686","0.0-5.0-1.4","63f791692fa22034babcdda1","bdp_rd","Sat Mar 25 2023 20:05:18 GMT-0400 (Eastern Daylight Time)","210337","","null","","","","FIX","","<div class='trialBorder'><div class='vertical-center'><img style='vertical-align:center; align:center' src=img/fixation3.jpg></div></div>","null","","","","","",""
"html-keyboard-response","17","70282","0.0-5.0-2.4","63f791692fa22034babcdda1","bdp_rd","Sat Mar 25 2023 20:05:18 GMT-0400 (Eastern Daylight Time)","210337","","1595","","","","offer","","<div class='trialBorder'><div class='vertical-center'><img style='vertical-align:center; align:center' src=img/fixation3.jpg></div><div class='cl'><div class='vertical-center'>$21<br>for<br>sure</div></div><div class='cr'><div class='vertical-center'>$25<br>with a<br>50% chance</div></div><div class='respDivL'><div class='vertical-center'>(E)</div></div><div class='respDivR'><div class='vertical-center'>(I)</div></div></div>","E","$21","$25","0","21","25","SURE"
"html-keyboard-response","18","70535","0.0-5.0-3.4","63f791692fa22034babcdda1","bdp_rd","Sat Mar 25 2023 20:05:18 GMT-0400 (Eastern Daylight Time)","210337","","null","","","","offerFB","","<div class='trialBorder'><div class='vertical-center'><img style='vertical-align:center; align:center' src=img/fixation3.jpg></div><div class='cl'><div class='vertical-center'><font style='color:orange'>$21<br>for<br>sure</font></div></div><div class='cr'><div class='vertical-center'>$25<br>with a<br>50% chance</div></div><div class='respDivL'><div class='vertical-center'><font style='color:orange'>(E)</font></div></div><div class='respDivR'><div class='vertical-center'>(I)</div></div></div>","null","$21","$25","0","21","25",""
"html-keyboard-response","19","71037","0.0-5.0-1.5","63f791692fa22034babcdda1","bdp_rd","Sat Mar 25 2023 20:05:18 GMT-0400 (Eastern Daylight Time)","210337","","null","","","","FIX","","<div class='trialBorder'><div class='vertical-center'><img style='vertical-align:center; align:center' src=img/fixation3.jpg></div></div>","null","","","","","",""
"html-keyboard-response","20","73118","0.0-5.0-2.5","63f791692fa22034babcdda1","bdp_rd","Sat Mar 25 2023 20:05:18 GMT-0400 (Eastern Daylight Time)","210337","","2080","","","","offer","","<div class='trialBorder'><div class='vertical-center'><img style='vertical-align:center; align:center' src=img/fixation3.jpg></div><div class='cl'><div class='vertical-center'>$44<br>with a<br>50% chance</div></div><div class='cr'><div class='vertical-center'>$37<br>for<br>sure</div></div><div class='respDivL'><div class='vertical-center'>(E)</div></div><div class='respDivR'><div class='vertical-center'>(I)</div></div></div>","I","$37","$44","1","37","44","SURE"
"html-keyboard-response","21","73370","0.0-5.0-3.5","63f791692fa22034babcdda1","bdp_rd","Sat Mar 25 2023 20:05:18 GMT-0400 (Eastern Daylight Time)","210337","","null","","","","offerFB","","<div class='trialBorder'><div class='vertical-center'><img style='vertical-align:center; align:center' src=img/fixation3.jpg></div><div class='cl'><div class='vertical-center'>$44<br>with a<br>50% chance</div></div><div class='cr'><div class='vertical-center'><font style='color:orange'>$37<br>for<br>sure</font></div></div><div class='respDivL'><div class='vertical-center'>(E)</div></div><div class='respDivR'><div class='vertical-center'><font style='color:orange'>(I)</font></div></div></div>","null","$37","$44","1","37","44",""
"html-keyboard-response","22","73871","0.0-5.0-1.6","63f791692fa22034babcdda1","bdp_rd","Sat Mar 25 2023 20:05:18 GMT-0400 (Eastern Daylight Time)","210337","","null","","","","FIX","","<div class='trialBorder'><div class='vertical-center'><img style='vertical-align:center; align:center' src=img/fixation3.jpg></div></div>","null","","","","","",""
"html-keyboard-response","23","75601","0.0-5.0-2.6","63f791692fa22034babcdda1","bdp_rd","Sat Mar 25 2023 20:05:18 GMT-0400 (Eastern Daylight Time)","210337","","1729","","","","offer","","<div class='trialBorder'><div class='vertical-center'><img style='vertical-align:center; align:center' src=img/fixation3.jpg></div><div class='cl'><div class='vertical-center'>$4<br>for<br>sure</div></div><div class='cr'><div class='vertical-center'>$11<br>with a<br>50% chance</div></div><div class='respDivL'><div class='vertical-center'>(E)</div></div><div class='respDivR'><div class='vertical-center'>(I)</div></div></div>","I","$4","$11","0","4","11","RISKY"
"html-keyboard-response","24","75853","0.0-5.0-3.6","63f791692fa22034babcdda1","bdp_rd","Sat Mar 25 2023 20:05:18 GMT-0400 (Eastern Daylight Time)","210337","","null","","","","offerFB","","<div class='trialBorder'><div class='vertical-center'><img style='vertical-align:center; align:center' src=img/fixation3.jpg></div><div class='cl'><div class='vertical-center'>$4<br>for<br>sure</div></div><div class='cr'><div class='vertical-center'><font style='color:orange'>$11<br>with a<br>50% chance</font></div></div><div class='respDivL'><div class='vertical-center'>(E)</div></div><div class='respDivR'><div class='vertical-center'><font style='color:orange'>(I)</font></div></div></div>","null","$4","$11","0","4","11",""
"html-keyboard-response","25","76355","0.0-5.0-1.7","63f791692fa22034babcdda1","bdp_rd","Sat Mar 25 2023 20:05:18 GMT-0400 (Eastern Daylight Time)","210337","","null","","","","FIX","","<div class='trialBorder'><div class='vertical-center'><img style='vertical-align:center; align:center' src=img/fixation3.jpg></div></div>","null","","","","","",""
"html-keyboard-response","26","78754","0.0-5.0-2.7","63f791692fa22034babcdda1","bdp_rd","Sat Mar 25 2023 20:05:18 GMT-0400 (Eastern Daylight Time)","210337","","2397","","","","offer","","<div class='trialBorder'><div class='vertical-center'><img style='vertical-align:center; align:center' src=img/fixation3.jpg></div><div class='cl'><div class='vertical-center'>$11<br>for<br>sure</div></div><div class='cr'><div class='vertical-center'>$26<br>with a<br>50% chance</div></div><div class='respDivL'><div class='vertical-center'>(E)</div></div><div class='respDivR'><div class='vertical-center'>(I)</div></div></div>","I","$11","$26","0","11","26","RISKY"
"html-keyboard-response","27","79009","0.0-5.0-3.7","63f791692fa22034babcdda1","bdp_rd","Sat Mar 25 2023 20:05:18 GMT-0400 (Eastern Daylight Time)","210337","","null","","","","offerFB","","<div class='trialBorder'><div class='vertical-center'><img style='vertical-align:center; align:center' src=img/fixation3.jpg></div><div class='cl'><div class='vertical-center'>$11<br>for<br>sure</div></div><div class='cr'><div class='vertical-center'><font style='color:orange'>$26<br>with a<br>50% chance</font></div></div><div class='respDivL'><div class='vertical-center'>(E)</div></div><div class='respDivR'><div class='vertical-center'><font style='color:orange'>(I)</font></div></div></div>","null","$11","$26","0","11","26",""
"html-keyboard-response","28","79511","0.0-5.0-1.8","63f791692fa22034babcdda1","bdp_rd","Sat Mar 25 2023 20:05:18 GMT-0400 (Eastern Daylight Time)","210337","","null","","","","FIX","","<div class='trialBorder'><div class='vertical-center'><img style='vertical-align:center; align:center' src=img/fixation3.jpg></div></div>","null","","","","","",""
"html-keyboard-response","29","82049","0.0-5.0-2.8","63f791692fa22034babcdda1","bdp_rd","Sat Mar 25 2023 20:05:18 GMT-0400 (Eastern Daylight Time)","210337","","2537","","","","offer","","<div class='trialBorder'><div class='vertical-center'><img style='vertical-align:center; align:center' src=img/fixation3.jpg></div><div class='cl'><div class='vertical-center'>$34<br>with a<br>50% chance</div></div><div class='cr'><div class='vertical-center'>$15<br>for<br>sure</div></div><div class='respDivL'><div class='vertical-center'>(E)</div></div><div class='respDivR'><div class='vertical-center'>(I)</div></div></div>","E","$15","$34","1","15","34","RISKY"
"html-keyboard-response","30","82301","0.0-5.0-3.8","63f791692fa22034babcdda1","bdp_rd","Sat Mar 25 2023 20:05:18 GMT-0400 (Eastern Daylight Time)","210337","","null","","","","offerFB","","<div class='trialBorder'><div class='vertical-center'><img style='vertical-align:center; align:center' src=img/fixation3.jpg></div><div class='cl'><div class='vertical-center'><font style='color:orange'>$34<br>with a<br>50% chance</font></div></div><div class='cr'><div class='vertical-center'>$15<br>for<br>sure</div></div><div class='respDivL'><div class='vertical-center'><font style='color:orange'>(E)</font></div></div><div class='respDivR'><div class='vertical-center'>(I)</div></div></div>","null","$15","$34","1","15","34",""
"html-keyboard-response","31","82802","0.0-5.0-1.9","63f791692fa22034babcdda1","bdp_rd","Sat Mar 25 2023 20:05:18 GMT-0400 (Eastern Daylight Time)","210337","","null","","","","FIX","","<div class='trialBorder'><div class='vertical-center'><img style='vertical-align:center; align:center' src=img/fixation3.jpg></div></div>","null","","","","","",""
"html-keyboard-response","32","84974","0.0-5.0-2.9","63f791692fa22034babcdda1","bdp_rd","Sat Mar 25 2023 20:05:18 GMT-0400 (Eastern Daylight Time)","210337","","2171","","","","offer","","<div class='trialBorder'><div class='vertical-center'><img style='vertical-align:center; align:center' src=img/fixation3.jpg></div><div class='cl'><div class='vertical-center'>$69<br>with a<br>50% chance</div></div><div class='cr'><div class='vertical-center'>$58<br>for<br>sure</div></div><div class='respDivL'><div class='vertical-center'>(E)</div></div><div class='respDivR'><div class='vertical-center'>(I)</div></div></div>","I","$58","$69","1","58","69","SURE"
"html-keyboard-response","33","85226","0.0-5.0-3.9","63f791692fa22034babcdda1","bdp_rd","Sat Mar 25 2023 20:05:18 GMT-0400 (Eastern Daylight Time)","210337","","null","","","","offerFB","","<div class='trialBorder'><div class='vertical-center'><img style='vertical-align:center; align:center' src=img/fixation3.jpg></div><div class='cl'><div class='vertical-center'>$69<br>with a<br>50% chance</div></div><div class='cr'><div class='vertical-center'><font style='color:orange'>$58<br>for<br>sure</font></div></div><div class='respDivL'><div class='vertical-center'>(E)</div></div><div class='respDivR'><div class='vertical-center'><font style='color:orange'>(I)</font></div></div></div>","null","$58","$69","1","58","69",""
"html-keyboard-response","34","85728","0.0-5.0-1.10","63f791692fa22034babcdda1","bdp_rd","Sat Mar 25 2023 20:05:18 GMT-0400 (Eastern Daylight Time)","210337","","null","","","","FIX","","<div class='trialBorder'><div class='vertical-center'><img style='vertical-align:center; align:center' src=img/fixation3.jpg></div></div>","null","","","","","",""
"html-keyboard-response","35","87761","0.0-5.0-2.10","63f791692fa22034babcdda1","bdp_rd","Sat Mar 25 2023 20:05:18 GMT-0400 (Eastern Daylight Time)","210337","","2032","","","","offer","","<div class='trialBorder'><div class='vertical-center'><img style='vertical-align:center; align:center' src=img/fixation3.jpg></div><div class='cl'><div class='vertical-center'>$50<br>with a<br>50% chance</div></div><div class='cr'><div class='vertical-center'>$5<br>for<br>sure</div></div><div class='respDivL'><div class='vertical-center'>(E)</div></div><div class='respDivR'><div class='vertical-center'>(I)</div></div></div>","E","$5","$50","1","5","50","RISKY"
"html-keyboard-response","36","88013","0.0-5.0-3.10","63f791692fa22034babcdda1","bdp_rd","Sat Mar 25 2023 20:05:18 GMT-0400 (Eastern Daylight Time)","210337","","null","","","","offerFB","","<div class='trialBorder'><div class='vertical-center'><img style='vertical-align:center; align:center' src=img/fixation3.jpg></div><div class='cl'><div class='vertical-center'><font style='color:orange'>$50<br>with a<br>50% chance</font></div></div><div class='cr'><div class='vertical-center'>$5<br>for<br>sure</div></div><div class='respDivL'><div class='vertical-center'><font style='color:orange'>(E)</font></div></div><div class='respDivR'><div class='vertical-center'>(I)</div></div></div>","null","$5","$50","1","5","50",""
"html-keyboard-response","37","88515","0.0-5.0-1.11","63f791692fa22034babcdda1","bdp_rd","Sat Mar 25 2023 20:05:18 GMT-0400 (Eastern Daylight Time)","210337","","null","","","","FIX","","<div class='trialBorder'><div class='vertical-center'><img style='vertical-align:center; align:center' src=img/fixation3.jpg></div></div>","null","","","","","",""
"html-keyboard-response","38","90403","0.0-5.0-2.11","63f791692fa22034babcdda1","bdp_rd","Sat Mar 25 2023 20:05:18 GMT-0400 (Eastern Daylight Time)","210337","","1886","","","","offer","","<div class='trialBorder'><div class='vertical-center'><img style='vertical-align:center; align:center' src=img/fixation3.jpg></div><div class='cl'><div class='vertical-center'>$22<br>with a<br>50% chance</div></div><div class='cr'><div class='vertical-center'>$14<br>for<br>sure</div></div><div class='respDivL'><div class='vertical-center'>(E)</div></div><div class='respDivR'><div class='vertical-center'>(I)</div></div></div>","I","$14","$22","1","14","22","SURE"
"html-keyboard-response","39","90657","0.0-5.0-3.11","63f791692fa22034babcdda1","bdp_rd","Sat Mar 25 2023 20:05:18 GMT-0400 (Eastern Daylight Time)","210337","","null","","","","offerFB","","<div class='trialBorder'><div class='vertical-center'><img style='vertical-align:center; align:center' src=img/fixation3.jpg></div><div class='cl'><div class='vertical-center'>$22<br>with a<br>50% chance</div></div><div class='cr'><div class='vertical-center'><font style='color:orange'>$14<br>for<br>sure</font></div></div><div class='respDivL'><div class='vertical-center'>(E)</div></div><div class='respDivR'><div class='vertical-center'><font style='color:orange'>(I)</font></div></div></div>","null","$14","$22","1","14","22",""
"html-keyboard-response","40","91158","0.0-5.0-1.12","63f791692fa22034babcdda1","bdp_rd","Sat Mar 25 2023 20:05:18 GMT-0400 (Eastern Daylight Time)","210337","","null","","","","FIX","","<div class='trialBorder'><div class='vertical-center'><img style='vertical-align:center; align:center' src=img/fixation3.jpg></div></div>","null","","","","","",""
"html-keyboard-response","41","93066","0.0-5.0-2.12","63f791692fa22034babcdda1","bdp_rd","Sat Mar 25 2023 20:05:18 GMT-0400 (Eastern Daylight Time)","210337","","1906","","","","offer","","<div class='trialBorder'><div class='vertical-center'><img style='vertical-align:center; align:center' src=img/fixation3.jpg></div><div class='cl'><div class='vertical-center'>$10<br>for<br>sure</div></div><div class='cr'><div class='vertical-center'>$19<br>with a<br>50% chance</div></div><div class='respDivL'><div class='vertical-center'>(E)</div></div><div class='respDivR'><div class='vertical-center'>(I)</div></div></div>","E","$10","$19","0","10","19","SURE"
"html-keyboard-response","42","93319","0.0-5.0-3.12","63f791692fa22034babcdda1","bdp_rd","Sat Mar 25 2023 20:05:18 GMT-0400 (Eastern Daylight Time)","210337","","null","","","","offerFB","","<div class='trialBorder'><div class='vertical-center'><img style='vertical-align:center; align:center' src=img/fixation3.jpg></div><div class='cl'><div class='vertical-center'><font style='color:orange'>$10<br>for<br>sure</font></div></div><div class='cr'><div class='vertical-center'>$19<br>with a<br>50% chance</div></div><div class='respDivL'><div class='vertical-center'><font style='color:orange'>(E)</font></div></div><div class='respDivR'><div class='vertical-center'>(I)</div></div></div>","null","$10","$19","0","10","19",""
"html-keyboard-response","43","93822","0.0-5.0-1.13","63f791692fa22034babcdda1","bdp_rd","Sat Mar 25 2023 20:05:18 GMT-0400 (Eastern Daylight Time)","210337","","null","","","","FIX","","<div class='trialBorder'><div class='vertical-center'><img style='vertical-align:center; align:center' src=img/fixation3.jpg></div></div>","null","","","","","",""
"html-keyboard-response","44","95614","0.0-5.0-2.13","63f791692fa22034babcdda1","bdp_rd","Sat Mar 25 2023 20:05:18 GMT-0400 (Eastern Daylight Time)","210337","","1790","","","","offer","","<div class='trialBorder'><div class='vertical-center'><img style='vertical-align:center; align:center' src=img/fixation3.jpg></div><div class='cl'><div class='vertical-center'>$32<br>with a<br>50% chance</div></div><div class='cr'><div class='vertical-center'>$9<br>for<br>sure</div></div><div class='respDivL'><div class='vertical-center'>(E)</div></div><div class='respDivR'><div class='vertical-center'>(I)</div></div></div>","E","$9","$32","1","9","32","RISKY"
"html-keyboard-response","45","95867","0.0-5.0-3.13","63f791692fa22034babcdda1","bdp_rd","Sat Mar 25 2023 20:05:18 GMT-0400 (Eastern Daylight Time)","210337","","null","","","","offerFB","","<div class='trialBorder'><div class='vertical-center'><img style='vertical-align:center; align:center' src=img/fixation3.jpg></div><div class='cl'><div class='vertical-center'><font style='color:orange'>$32<br>with a<br>50% chance</font></div></div><div class='cr'><div class='vertical-center'>$9<br>for<br>sure</div></div><div class='respDivL'><div class='vertical-center'><font style='color:orange'>(E)</font></div></div><div class='respDivR'><div class='vertical-center'>(I)</div></div></div>","null","$9","$32","1","9","32",""
"html-keyboard-response","46","96369","0.0-5.0-1.14","63f791692fa22034babcdda1","bdp_rd","Sat Mar 25 2023 20:05:18 GMT-0400 (Eastern Daylight Time)","210337","","null","","","","FIX","","<div class='trialBorder'><div class='vertical-center'><img style='vertical-align:center; align:center' src=img/fixation3.jpg></div></div>","null","","","","","",""
"html-keyboard-response","47","98691","0.0-5.0-2.14","63f791692fa22034babcdda1","bdp_rd","Sat Mar 25 2023 20:05:18 GMT-0400 (Eastern Daylight Time)","210337","","2320","","","","offer","","<div class='trialBorder'><div class='vertical-center'><img style='vertical-align:center; align:center' src=img/fixation3.jpg></div><div class='cl'><div class='vertical-center'>$18<br>for<br>sure</div></div><div class='cr'><div class='vertical-center'>$39<br>with a<br>50% chance</div></div><div class='respDivL'><div class='vertical-center'>(E)</div></div><div class='respDivR'><div class='vertical-center'>(I)</div></div></div>","I","$18","$39","0","18","39","RISKY"
"html-keyboard-response","48","98944","0.0-5.0-3.14","63f791692fa22034babcdda1","bdp_rd","Sat Mar 25 2023 20:05:18 GMT-0400 (Eastern Daylight Time)","210337","","null","","","","offerFB","","<div class='trialBorder'><div class='vertical-center'><img style='vertical-align:center; align:center' src=img/fixation3.jpg></div><div class='cl'><div class='vertical-center'>$18<br>for<br>sure</div></div><div class='cr'><div class='vertical-center'><font style='color:orange'>$39<br>with a<br>50% chance</font></div></div><div class='respDivL'><div class='vertical-center'>(E)</div></div><div class='respDivR'><div class='vertical-center'><font style='color:orange'>(I)</font></div></div></div>","null","$18","$39","0","18","39",""
"html-keyboard-response","49","99447","0.0-5.0-1.15","63f791692fa22034babcdda1","bdp_rd","Sat Mar 25 2023 20:05:18 GMT-0400 (Eastern Daylight Time)","210337","","null","","","","FIX","","<div class='trialBorder'><div class='vertical-center'><img style='vertical-align:center; align:center' src=img/fixation3.jpg></div></div>","null","","","","","",""
"html-keyboard-response","50","101697","0.0-5.0-2.15","63f791692fa22034babcdda1","bdp_rd","Sat Mar 25 2023 20:05:18 GMT-0400 (Eastern Daylight Time)","210337","","2248","","","","offer","","<div class='trialBorder'><div class='vertical-center'><img style='vertical-align:center; align:center' src=img/fixation3.jpg></div><div class='cl'><div class='vertical-center'>$34<br>for<br>sure</div></div><div class='cr'><div class='vertical-center'>$48<br>with a<br>50% chance</div></div><div class='respDivL'><div class='vertical-center'>(E)</div></div><div class='respDivR'><div class='vertical-center'>(I)</div></div></div>","E","$34","$48","0","34","48","SURE"
"html-keyboard-response","51","101950","0.0-5.0-3.15","63f791692fa22034babcdda1","bdp_rd","Sat Mar 25 2023 20:05:18 GMT-0400 (Eastern Daylight Time)","210337","","null","","","","offerFB","","<div class='trialBorder'><div class='vertical-center'><img style='vertical-align:center; align:center' src=img/fixation3.jpg></div><div class='cl'><div class='vertical-center'><font style='color:orange'>$34<br>for<br>sure</font></div></div><div class='cr'><div class='vertical-center'>$48<br>with a<br>50% chance</div></div><div class='respDivL'><div class='vertical-center'><font style='color:orange'>(E)</font></div></div><div class='respDivR'><div class='vertical-center'>(I)</div></div></div>","null","$34","$48","0","34","48",""
"html-keyboard-response","52","102452","0.0-5.0-1.16","63f791692fa22034babcdda1","bdp_rd","Sat Mar 25 2023 20:05:18 GMT-0400 (Eastern Daylight Time)","210337","","null","","","","FIX","","<div class='trialBorder'><div class='vertical-center'><img style='vertical-align:center; align:center' src=img/fixation3.jpg></div></div>","null","","","","","",""
"html-keyboard-response","53","104242","0.0-5.0-2.16","63f791692fa22034babcdda1","bdp_rd","Sat Mar 25 2023 20:05:18 GMT-0400 (Eastern Daylight Time)","210337","","1788","","","","offer","","<div class='trialBorder'><div class='vertical-center'><img style='vertical-align:center; align:center' src=img/fixation3.jpg></div><div class='cl'><div class='vertical-center'>$40<br>with a<br>50% chance</div></div><div class='cr'><div class='vertical-center'>$10<br>for<br>sure</div></div><div class='respDivL'><div class='vertical-center'>(E)</div></div><div class='respDivR'><div class='vertical-center'>(I)</div></div></div>","E","$10","$40","1","10","40","RISKY"
"html-keyboard-response","54","104495","0.0-5.0-3.16","63f791692fa22034babcdda1","bdp_rd","Sat Mar 25 2023 20:05:18 GMT-0400 (Eastern Daylight Time)","210337","","null","","","","offerFB","","<div class='trialBorder'><div class='vertical-center'><img style='vertical-align:center; align:center' src=img/fixation3.jpg></div><div class='cl'><div class='vertical-center'><font style='color:orange'>$40<br>with a<br>50% chance</font></div></div><div class='cr'><div class='vertical-center'>$10<br>for<br>sure</div></div><div class='respDivL'><div class='vertical-center'><font style='color:orange'>(E)</font></div></div><div class='respDivR'><div class='vertical-center'>(I)</div></div></div>","null","$10","$40","1","10","40",""
"html-keyboard-response","55","104997","0.0-5.0-1.17","63f791692fa22034babcdda1","bdp_rd","Sat Mar 25 2023 20:05:18 GMT-0400 (Eastern Daylight Time)","210337","","null","","","","FIX","","<div class='trialBorder'><div class='vertical-center'><img style='vertical-align:center; align:center' src=img/fixation3.jpg></div></div>","null","","","","","",""
"html-keyboard-response","56","106755","0.0-5.0-2.17","63f791692fa22034babcdda1","bdp_rd","Sat Mar 25 2023 20:05:18 GMT-0400 (Eastern Daylight Time)","210337","","1757","","","","offer","","<div class='trialBorder'><div class='vertical-center'><img style='vertical-align:center; align:center' src=img/fixation3.jpg></div><div class='cl'><div class='vertical-center'>$30<br>for<br>sure</div></div><div class='cr'><div class='vertical-center'>$68<br>with a<br>50% chance</div></div><div class='respDivL'><div class='vertical-center'>(E)</div></div><div class='respDivR'><div class='vertical-center'>(I)</div></div></div>","I","$30","$68","0","30","68","RISKY"
"html-keyboard-response","57","107008","0.0-5.0-3.17","63f791692fa22034babcdda1","bdp_rd","Sat Mar 25 2023 20:05:18 GMT-0400 (Eastern Daylight Time)","210337","","null","","","","offerFB","","<div class='trialBorder'><div class='vertical-center'><img style='vertical-align:center; align:center' src=img/fixation3.jpg></div><div class='cl'><div class='vertical-center'>$30<br>for<br>sure</div></div><div class='cr'><div class='vertical-center'><font style='color:orange'>$68<br>with a<br>50% chance</font></div></div><div class='respDivL'><div class='vertical-center'>(E)</div></div><div class='respDivR'><div class='vertical-center'><font style='color:orange'>(I)</font></div></div></div>","null","$30","$68","0","30","68",""
"html-keyboard-response","58","107510","0.0-5.0-1.18","63f791692fa22034babcdda1","bdp_rd","Sat Mar 25 2023 20:05:18 GMT-0400 (Eastern Daylight Time)","210337","","null","","","","FIX","","<div class='trialBorder'><div class='vertical-center'><img style='vertical-align:center; align:center' src=img/fixation3.jpg></div></div>","null","","","","","",""
"html-keyboard-response","59","108978","0.0-5.0-2.18","63f791692fa22034babcdda1","bdp_rd","Sat Mar 25 2023 20:05:18 GMT-0400 (Eastern Daylight Time)","210337","","1466","","","","offer","","<div class='trialBorder'><div class='vertical-center'><img style='vertical-align:center; align:center' src=img/fixation3.jpg></div><div class='cl'><div class='vertical-center'>$22<br>for<br>sure</div></div><div class='cr'><div class='vertical-center'>$59<br>with a<br>50% chance</div></div><div class='respDivL'><div class='vertical-center'>(E)</div></div><div class='respDivR'><div class='vertical-center'>(I)</div></div></div>","I","$22","$59","0","22","59","RISKY"
"html-keyboard-response","60","109231","0.0-5.0-3.18","63f791692fa22034babcdda1","bdp_rd","Sat Mar 25 2023 20:05:18 GMT-0400 (Eastern Daylight Time)","210337","","null","","","","offerFB","","<div class='trialBorder'><div class='vertical-center'><img style='vertical-align:center; align:center' src=img/fixation3.jpg></div><div class='cl'><div class='vertical-center'>$22<br>for<br>sure</div></div><div class='cr'><div class='vertical-center'><font style='color:orange'>$59<br>with a<br>50% chance</font></div></div><div class='respDivL'><div class='vertical-center'>(E)</div></div><div class='respDivR'><div class='vertical-center'><font style='color:orange'>(I)</font></div></div></div>","null","$22","$59","0","22","59",""
"html-keyboard-response","61","109734","0.0-5.0-1.19","63f791692fa22034babcdda1","bdp_rd","Sat Mar 25 2023 20:05:18 GMT-0400 (Eastern Daylight Time)","210337","","null","","","","FIX","","<div class='trialBorder'><div class='vertical-center'><img style='vertical-align:center; align:center' src=img/fixation3.jpg></div></div>","null","","","","","",""
"html-keyboard-response","62","111347","0.0-5.0-2.19","63f791692fa22034babcdda1","bdp_rd","Sat Mar 25 2023 20:05:18 GMT-0400 (Eastern Daylight Time)","210337","","1611","","","","offer","","<div class='trialBorder'><div class='vertical-center'><img style='vertical-align:center; align:center' src=img/fixation3.jpg></div><div class='cl'><div class='vertical-center'>$45<br>with a<br>50% chance</div></div><div class='cr'><div class='vertical-center'>$8<br>for<br>sure</div></div><div class='respDivL'><div class='vertical-center'>(E)</div></div><div class='respDivR'><div class='vertical-center'>(I)</div></div></div>","E","$8","$45","1","8","45","RISKY"
"html-keyboard-response","63","111600","0.0-5.0-3.19","63f791692fa22034babcdda1","bdp_rd","Sat Mar 25 2023 20:05:18 GMT-0400 (Eastern Daylight Time)","210337","","null","","","","offerFB","","<div class='trialBorder'><div class='vertical-center'><img style='vertical-align:center; align:center' src=img/fixation3.jpg></div><div class='cl'><div class='vertical-center'><font style='color:orange'>$45<br>with a<br>50% chance</font></div></div><div class='cr'><div class='vertical-center'>$8<br>for<br>sure</div></div><div class='respDivL'><div class='vertical-center'><font style='color:orange'>(E)</font></div></div><div class='respDivR'><div class='vertical-center'>(I)</div></div></div>","null","$8","$45","1","8","45",""
"html-keyboard-response","64","112102","0.0-5.0-1.20","63f791692fa22034babcdda1","bdp_rd","Sat Mar 25 2023 20:05:18 GMT-0400 (Eastern Daylight Time)","210337","","null","","","","FIX","","<div class='trialBorder'><div class='vertical-center'><img style='vertical-align:center; align:center' src=img/fixation3.jpg></div></div>","null","","","","","",""
"html-keyboard-response","65","114186","0.0-5.0-2.20","63f791692fa22034babcdda1","bdp_rd","Sat Mar 25 2023 20:05:18 GMT-0400 (Eastern Daylight Time)","210337","","2083","","","","offer","","<div class='trialBorder'><div class='vertical-center'><img style='vertical-align:center; align:center' src=img/fixation3.jpg></div><div class='cl'><div class='vertical-center'>$63<br>for<br>sure</div></div><div class='cr'><div class='vertical-center'>$100<br>with a<br>50% chance</div></div><div class='respDivL'><div class='vertical-center'>(E)</div></div><div class='respDivR'><div class='vertical-center'>(I)</div></div></div>","E","$63","$100","0","63","10","SURE"
"html-keyboard-response","66","114440","0.0-5.0-3.20","63f791692fa22034babcdda1","bdp_rd","Sat Mar 25 2023 20:05:18 GMT-0400 (Eastern Daylight Time)","210337","","null","","","","offerFB","","<div class='trialBorder'><div class='vertical-center'><img style='vertical-align:center; align:center' src=img/fixation3.jpg></div><div class='cl'><div class='vertical-center'><font style='color:orange'>$63<br>for<br>sure</font></div></div><div class='cr'><div class='vertical-center'>$100<br>with a<br>50% chance</div></div><div class='respDivL'><div class='vertical-center'><font style='color:orange'>(E)</font></div></div><div class='respDivR'><div class='vertical-center'>(I)</div></div></div>","null","$63","$100","0","63","10",""
"html-keyboard-response","67","114943","0.0-5.0-1.21","63f791692fa22034babcdda1","bdp_rd","Sat Mar 25 2023 20:05:18 GMT-0400 (Eastern Daylight Time)","210337","","null","","","","FIX","","<div class='trialBorder'><div class='vertical-center'><img style='vertical-align:center; align:center' src=img/fixation3.jpg></div></div>","null","","","","","",""
"html-keyboard-response","68","116481","0.0-5.0-2.21","63f791692fa22034babcdda1","bdp_rd","Sat Mar 25 2023 20:05:18 GMT-0400 (Eastern Daylight Time)","210337","","1537","","","","offer","","<div class='trialBorder'><div class='vertical-center'><img style='vertical-align:center; align:center' src=img/fixation3.jpg></div><div class='cl'><div class='vertical-center'>$15<br>with a<br>50% chance</div></div><div class='cr'><div class='vertical-center'>$6<br>for<br>sure</div></div><div class='respDivL'><div class='vertical-center'>(E)</div></div><div class='respDivR'><div class='vertical-center'>(I)</div></div></div>","I","$6","$15","1","6","15","SURE"
"html-keyboard-response","69","116733","0.0-5.0-3.21","63f791692fa22034babcdda1","bdp_rd","Sat Mar 25 2023 20:05:18 GMT-0400 (Eastern Daylight Time)","210337","","null","","","","offerFB","","<div class='trialBorder'><div class='vertical-center'><img style='vertical-align:center; align:center' src=img/fixation3.jpg></div><div class='cl'><div class='vertical-center'>$15<br>with a<br>50% chance</div></div><div class='cr'><div class='vertical-center'><font style='color:orange'>$6<br>for<br>sure</font></div></div><div class='respDivL'><div class='vertical-center'>(E)</div></div><div class='respDivR'><div class='vertical-center'><font style='color:orange'>(I)</font></div></div></div>","null","$6","$15","1","6","15",""
"html-keyboard-response","70","117234","0.0-5.0-1.22","63f791692fa22034babcdda1","bdp_rd","Sat Mar 25 2023 20:05:18 GMT-0400 (Eastern Daylight Time)","210337","","null","","","","FIX","","<div class='trialBorder'><div class='vertical-center'><img style='vertical-align:center; align:center' src=img/fixation3.jpg></div></div>","null","","","","","",""
"html-keyboard-response","71","119427","0.0-5.0-2.22","63f791692fa22034babcdda1","bdp_rd","Sat Mar 25 2023 20:05:18 GMT-0400 (Eastern Daylight Time)","210337","","2191","","","","offer","","<div class='trialBorder'><div class='vertical-center'><img style='vertical-align:center; align:center' src=img/fixation3.jpg></div><div class='cl'><div class='vertical-center'>$70<br>with a<br>50% chance</div></div><div class='cr'><div class='vertical-center'>$24<br>for<br>sure</div></div><div class='respDivL'><div class='vertical-center'>(E)</div></div><div class='respDivR'><div class='vertical-center'>(I)</div></div></div>","E","$24","$70","1","24","70","RISKY"
"html-keyboard-response","72","119680","0.0-5.0-3.22","63f791692fa22034babcdda1","bdp_rd","Sat Mar 25 2023 20:05:18 GMT-0400 (Eastern Daylight Time)","210337","","null","","","","offerFB","","<div class='trialBorder'><div class='vertical-center'><img style='vertical-align:center; align:center' src=img/fixation3.jpg></div><div class='cl'><div class='vertical-center'><font style='color:orange'>$70<br>with a<br>50% chance</font></div></div><div class='cr'><div class='vertical-center'>$24<br>for<br>sure</div></div><div class='respDivL'><div class='vertical-center'><font style='color:orange'>(E)</font></div></div><div class='respDivR'><div class='vertical-center'>(I)</div></div></div>","null","$24","$70","1","24","70",""
"html-keyboard-response","73","120181","0.0-5.0-1.23","63f791692fa22034babcdda1","bdp_rd","Sat Mar 25 2023 20:05:18 GMT-0400 (Eastern Daylight Time)","210337","","null","","","","FIX","","<div class='trialBorder'><div class='vertical-center'><img style='vertical-align:center; align:center' src=img/fixation3.jpg></div></div>","null","","","","","",""
"html-keyboard-response","74","121482","0.0-5.0-2.23","63f791692fa22034babcdda1","bdp_rd","Sat Mar 25 2023 20:05:18 GMT-0400 (Eastern Daylight Time)","210337","","1300","","","","offer","","<div class='trialBorder'><div class='vertical-center'><img style='vertical-align:center; align:center' src=img/fixation3.jpg></div><div class='cl'><div class='vertical-center'>$25<br>for<br>sure</div></div><div class='cr'><div class='vertical-center'>$54<br>with a<br>50% chance</div></div><div class='respDivL'><div class='vertical-center'>(E)</div></div><div class='respDivR'><div class='vertical-center'>(I)</div></div></div>","E","$25","$54","0","25","54","SURE"
"html-keyboard-response","75","121737","0.0-5.0-3.23","63f791692fa22034babcdda1","bdp_rd","Sat Mar 25 2023 20:05:18 GMT-0400 (Eastern Daylight Time)","210337","","null","","","","offerFB","","<div class='trialBorder'><div class='vertical-center'><img style='vertical-align:center; align:center' src=img/fixation3.jpg></div><div class='cl'><div class='vertical-center'><font style='color:orange'>$25<br>for<br>sure</font></div></div><div class='cr'><div class='vertical-center'>$54<br>with a<br>50% chance</div></div><div class='respDivL'><div class='vertical-center'><font style='color:orange'>(E)</font></div></div><div class='respDivR'><div class='vertical-center'>(I)</div></div></div>","null","$25","$54","0","25","54",""
"html-keyboard-response","76","122238","0.0-5.0-1.24","63f791692fa22034babcdda1","bdp_rd","Sat Mar 25 2023 20:05:18 GMT-0400 (Eastern Daylight Time)","210337","","null","","","","FIX","","<div class='trialBorder'><div class='vertical-center'><img style='vertical-align:center; align:center' src=img/fixation3.jpg></div></div>","null","","","","","",""
"html-keyboard-response","77","123538","0.0-5.0-2.24","63f791692fa22034babcdda1","bdp_rd","Sat Mar 25 2023 20:05:18 GMT-0400 (Eastern Daylight Time)","210337","","1298","","","","offer","","<div class='trialBorder'><div class='vertical-center'><img style='vertical-align:center; align:center' src=img/fixation3.jpg></div><div class='cl'><div class='vertical-center'>$62<br>with a<br>50% chance</div></div><div class='cr'><div class='vertical-center'>$11<br>for<br>sure</div></div><div class='respDivL'><div class='vertical-center'>(E)</div></div><div class='respDivR'><div class='vertical-center'>(I)</div></div></div>","E","$11","$62","1","11","62","RISKY"
"html-keyboard-response","78","123792","0.0-5.0-3.24","63f791692fa22034babcdda1","bdp_rd","Sat Mar 25 2023 20:05:18 GMT-0400 (Eastern Daylight Time)","210337","","null","","","","offerFB","","<div class='trialBorder'><div class='vertical-center'><img style='vertical-align:center; align:center' src=img/fixation3.jpg></div><div class='cl'><div class='vertical-center'><font style='color:orange'>$62<br>with a<br>50% chance</font></div></div><div class='cr'><div class='vertical-center'>$11<br>for<br>sure</div></div><div class='respDivL'><div class='vertical-center'><font style='color:orange'>(E)</font></div></div><div class='respDivR'><div class='vertical-center'>(I)</div></div></div>","null","$11","$62","1","11","62",""
"html-keyboard-response","79","124294","0.0-5.0-1.25","63f791692fa22034babcdda1","bdp_rd","Sat Mar 25 2023 20:05:18 GMT-0400 (Eastern Daylight Time)","210337","","null","","","","FIX","","<div class='trialBorder'><div class='vertical-center'><img style='vertical-align:center; align:center' src=img/fixation3.jpg></div></div>","null","","","","","",""
"html-keyboard-response","80","125762","0.0-5.0-2.25","63f791692fa22034babcdda1","bdp_rd","Sat Mar 25 2023 20:05:18 GMT-0400 (Eastern Daylight Time)","210337","","1466","","","","offer","","<div class='trialBorder'><div class='vertical-center'><img style='vertical-align:center; align:center' src=img/fixation3.jpg></div><div class='cl'><div class='vertical-center'>$6<br>for<br>sure</div></div><div class='cr'><div class='vertical-center'>$13<br>with a<br>50% chance</div></div><div class='respDivL'><div class='vertical-center'>(E)</div></div><div class='respDivR'><div class='vertical-center'>(I)</div></div></div>","E","$6","$13","0","6","13","SURE"
"html-keyboard-response","81","126016","0.0-5.0-3.25","63f791692fa22034babcdda1","bdp_rd","Sat Mar 25 2023 20:05:18 GMT-0400 (Eastern Daylight Time)","210337","","null","","","","offerFB","","<div class='trialBorder'><div class='vertical-center'><img style='vertical-align:center; align:center' src=img/fixation3.jpg></div><div class='cl'><div class='vertical-center'><font style='color:orange'>$6<br>for<br>sure</font></div></div><div class='cr'><div class='vertical-center'>$13<br>with a<br>50% chance</div></div><div class='respDivL'><div class='vertical-center'><font style='color:orange'>(E)</font></div></div><div class='respDivR'><div class='vertical-center'>(I)</div></div></div>","null","$6","$13","0","6","13",""
"html-keyboard-response","82","126517","0.0-5.0-1.26","63f791692fa22034babcdda1","bdp_rd","Sat Mar 25 2023 20:05:18 GMT-0400 (Eastern Daylight Time)","210337","","null","","","","FIX","","<div class='trialBorder'><div class='vertical-center'><img style='vertical-align:center; align:center' src=img/fixation3.jpg></div></div>","null","","","","","",""
"html-keyboard-response","83","128354","0.0-5.0-2.26","63f791692fa22034babcdda1","bdp_rd","Sat Mar 25 2023 20:05:18 GMT-0400 (Eastern Daylight Time)","210337","","1834","","","","offer","","<div class='trialBorder'><div class='vertical-center'><img style='vertical-align:center; align:center' src=img/fixation3.jpg></div><div class='cl'><div class='vertical-center'>$7<br>for<br>sure</div></div><div class='cr'><div class='vertical-center'>$10<br>with a<br>50% chance</div></div><div class='respDivL'><div class='vertical-center'>(E)</div></div><div class='respDivR'><div class='vertical-center'>(I)</div></div></div>","E","$7","$10","0","7","10","SURE"
"html-keyboard-response","84","128607","0.0-5.0-3.26","63f791692fa22034babcdda1","bdp_rd","Sat Mar 25 2023 20:05:18 GMT-0400 (Eastern Daylight Time)","210337","","null","","","","offerFB","","<div class='trialBorder'><div class='vertical-center'><img style='vertical-align:center; align:center' src=img/fixation3.jpg></div><div class='cl'><div class='vertical-center'><font style='color:orange'>$7<br>for<br>sure</font></div></div><div class='cr'><div class='vertical-center'>$10<br>with a<br>50% chance</div></div><div class='respDivL'><div class='vertical-center'><font style='color:orange'>(E)</font></div></div><div class='respDivR'><div class='vertical-center'>(I)</div></div></div>","null","$7","$10","0","7","10",""
"html-keyboard-response","85","129110","0.0-5.0-1.27","63f791692fa22034babcdda1","bdp_rd","Sat Mar 25 2023 20:05:18 GMT-0400 (Eastern Daylight Time)","210337","","null","","","","FIX","","<div class='trialBorder'><div class='vertical-center'><img style='vertical-align:center; align:center' src=img/fixation3.jpg></div></div>","null","","","","","",""
"html-keyboard-response","86","130861","0.0-5.0-2.27","63f791692fa22034babcdda1","bdp_rd","Sat Mar 25 2023 20:05:18 GMT-0400 (Eastern Daylight Time)","210337","","1750","","","","offer","","<div class='trialBorder'><div class='vertical-center'><img style='vertical-align:center; align:center' src=img/fixation3.jpg></div><div class='cl'><div class='vertical-center'>$41<br>with a<br>50% chance</div></div><div class='cr'><div class='vertical-center'>$13<br>for<br>sure</div></div><div class='respDivL'><div class='vertical-center'>(E)</div></div><div class='respDivR'><div class='vertical-center'>(I)</div></div></div>","E","$13","$41","1","13","41","RISKY"
"html-keyboard-response","87","131113","0.0-5.0-3.27","63f791692fa22034babcdda1","bdp_rd","Sat Mar 25 2023 20:05:18 GMT-0400 (Eastern Daylight Time)","210337","","null","","","","offerFB","","<div class='trialBorder'><div class='vertical-center'><img style='vertical-align:center; align:center' src=img/fixation3.jpg></div><div class='cl'><div class='vertical-center'><font style='color:orange'>$41<br>with a<br>50% chance</font></div></div><div class='cr'><div class='vertical-center'>$13<br>for<br>sure</div></div><div class='respDivL'><div class='vertical-center'><font style='color:orange'>(E)</font></div></div><div class='respDivR'><div class='vertical-center'>(I)</div></div></div>","null","$13","$41","1","13","41",""
"html-keyboard-response","88","131616","0.0-5.0-1.28","63f791692fa22034babcdda1","bdp_rd","Sat Mar 25 2023 20:05:18 GMT-0400 (Eastern Daylight Time)","210337","","null","","","","FIX","","<div class='trialBorder'><div class='vertical-center'><img style='vertical-align:center; align:center' src=img/fixation3.jpg></div></div>","null","","","","","",""
"html-keyboard-response","89","133042","0.0-5.0-2.28","63f791692fa22034babcdda1","bdp_rd","Sat Mar 25 2023 20:05:18 GMT-0400 (Eastern Daylight Time)","210337","","1423","","","","offer","","<div class='trialBorder'><div class='vertical-center'><img style='vertical-align:center; align:center' src=img/fixation3.jpg></div><div class='cl'><div class='vertical-center'>$42<br>with a<br>50% chance</div></div><div class='cr'><div class='vertical-center'>$22<br>for<br>sure</div></div><div class='respDivL'><div class='vertical-center'>(E)</div></div><div class='respDivR'><div class='vertical-center'>(I)</div></div></div>","I","$22","$42","1","22","42","SURE"
"html-keyboard-response","90","133294","0.0-5.0-3.28","63f791692fa22034babcdda1","bdp_rd","Sat Mar 25 2023 20:05:18 GMT-0400 (Eastern Daylight Time)","210337","","null","","","","offerFB","","<div class='trialBorder'><div class='vertical-center'><img style='vertical-align:center; align:center' src=img/fixation3.jpg></div><div class='cl'><div class='vertical-center'>$42<br>with a<br>50% chance</div></div><div class='cr'><div class='vertical-center'><font style='color:orange'>$22<br>for<br>sure</font></div></div><div class='respDivL'><div class='vertical-center'>(E)</div></div><div class='respDivR'><div class='vertical-center'><font style='color:orange'>(I)</font></div></div></div>","null","$22","$42","1","22","42",""
"html-keyboard-response","91","133796","0.0-5.0-1.29","63f791692fa22034babcdda1","bdp_rd","Sat Mar 25 2023 20:05:18 GMT-0400 (Eastern Daylight Time)","210337","","null","","","","FIX","","<div class='trialBorder'><div class='vertical-center'><img style='vertical-align:center; align:center' src=img/fixation3.jpg></div></div>","null","","","","","",""
"html-keyboard-response","92","135610","0.0-5.0-2.29","63f791692fa22034babcdda1","bdp_rd","Sat Mar 25 2023 20:05:18 GMT-0400 (Eastern Daylight Time)","210337","","1813","","","","offer","","<div class='trialBorder'><div class='vertical-center'><img style='vertical-align:center; align:center' src=img/fixation3.jpg></div><div class='cl'><div class='vertical-center'>$19<br>for<br>sure</div></div><div class='cr'><div class='vertical-center'>$51<br>with a<br>50% chance</div></div><div class='respDivL'><div class='vertical-center'>(E)</div></div><div class='respDivR'><div class='vertical-center'>(I)</div></div></div>","I","$19","$51","0","19","51","RISKY"
"html-keyboard-response","93","135864","0.0-5.0-3.29","63f791692fa22034babcdda1","bdp_rd","Sat Mar 25 2023 20:05:18 GMT-0400 (Eastern Daylight Time)","210337","","null","","","","offerFB","","<div class='trialBorder'><div class='vertical-center'><img style='vertical-align:center; align:center' src=img/fixation3.jpg></div><div class='cl'><div class='vertical-center'>$19<br>for<br>sure</div></div><div class='cr'><div class='vertical-center'><font style='color:orange'>$51<br>with a<br>50% chance</font></div></div><div class='respDivL'><div class='vertical-center'>(E)</div></div><div class='respDivR'><div class='vertical-center'><font style='color:orange'>(I)</font></div></div></div>","null","$19","$51","0","19","51",""
"html-keyboard-response","94","136366","0.0-5.0-1.30","63f791692fa22034babcdda1","bdp_rd","Sat Mar 25 2023 20:05:18 GMT-0400 (Eastern Daylight Time)","210337","","null","","","","FIX","","<div class='trialBorder'><div class='vertical-center'><img style='vertical-align:center; align:center' src=img/fixation3.jpg></div></div>","null","","","","","",""
"html-keyboard-response","95","138242","0.0-5.0-2.30","63f791692fa22034babcdda1","bdp_rd","Sat Mar 25 2023 20:05:18 GMT-0400 (Eastern Daylight Time)","210337","","1875","","","","offer","","<div class='trialBorder'><div class='vertical-center'><img style='vertical-align:center; align:center' src=img/fixation3.jpg></div><div class='cl'><div class='vertical-center'>$64<br>with a<br>50% chance</div></div><div class='cr'><div class='vertical-center'>$2<br>for<br>sure</div></div><div class='respDivL'><div class='vertical-center'>(E)</div></div><div class='respDivR'><div class='vertical-center'>(I)</div></div></div>","E","$2","$64","1","2","64","RISKY"
"html-keyboard-response","96","138495","0.0-5.0-3.30","63f791692fa22034babcdda1","bdp_rd","Sat Mar 25 2023 20:05:18 GMT-0400 (Eastern Daylight Time)","210337","","null","","","","offerFB","","<div class='trialBorder'><div class='vertical-center'><img style='vertical-align:center; align:center' src=img/fixation3.jpg></div><div class='cl'><div class='vertical-center'><font style='color:orange'>$64<br>with a<br>50% chance</font></div></div><div class='cr'><div class='vertical-center'>$2<br>for<br>sure</div></div><div class='respDivL'><div class='vertical-center'><font style='color:orange'>(E)</font></div></div><div class='respDivR'><div class='vertical-center'>(I)</div></div></div>","null","$2","$64","1","2","64",""
"html-keyboard-response","97","138997","0.0-5.0-1.31","63f791692fa22034babcdda1","bdp_rd","Sat Mar 25 2023 20:05:18 GMT-0400 (Eastern Daylight Time)","210337","","null","","","","FIX","","<div class='trialBorder'><div class='vertical-center'><img style='vertical-align:center; align:center' src=img/fixation3.jpg></div></div>","null","","","","","",""
"html-keyboard-response","98","140602","0.0-5.0-2.31","63f791692fa22034babcdda1","bdp_rd","Sat Mar 25 2023 20:05:18 GMT-0400 (Eastern Daylight Time)","210337","","1602","","","","offer","","<div class='trialBorder'><div class='vertical-center'><img style='vertical-align:center; align:center' src=img/fixation3.jpg></div><div class='cl'><div class='vertical-center'>$43<br>with a<br>50% chance</div></div><div class='cr'><div class='vertical-center'>$17<br>for<br>sure</div></div><div class='respDivL'><div class='vertical-center'>(E)</div></div><div class='respDivR'><div class='vertical-center'>(I)</div></div></div>","E","$17","$43","1","17","43","RISKY"
"html-keyboard-response","99","140854","0.0-5.0-3.31","63f791692fa22034babcdda1","bdp_rd","Sat Mar 25 2023 20:05:18 GMT-0400 (Eastern Daylight Time)","210337","","null","","","","offerFB","","<div class='trialBorder'><div class='vertical-center'><img style='vertical-align:center; align:center' src=img/fixation3.jpg></div><div class='cl'><div class='vertical-center'><font style='color:orange'>$43<br>with a<br>50% chance</font></div></div><div class='cr'><div class='vertical-center'>$17<br>for<br>sure</div></div><div class='respDivL'><div class='vertical-center'><font style='color:orange'>(E)</font></div></div><div class='respDivR'><div class='vertical-center'>(I)</div></div></div>","null","$17","$43","1","17","43",""
"html-keyboard-response","100","141355","0.0-5.0-1.32","63f791692fa22034babcdda1","bdp_rd","Sat Mar 25 2023 20:05:18 GMT-0400 (Eastern Daylight Time)","210337","","null","","","","FIX","","<div class='trialBorder'><div class='vertical-center'><img style='vertical-align:center; align:center' src=img/fixation3.jpg></div></div>","null","","","","","",""
"html-keyboard-response","101","142847","0.0-5.0-2.32","63f791692fa22034babcdda1","bdp_rd","Sat Mar 25 2023 20:05:18 GMT-0400 (Eastern Daylight Time)","210337","","1489","","","","offer","","<div class='trialBorder'><div class='vertical-center'><img style='vertical-align:center; align:center' src=img/fixation3.jpg></div><div class='cl'><div class='vertical-center'>$66<br>with a<br>50% chance</div></div><div class='cr'><div class='vertical-center'>$33<br>for<br>sure</div></div><div class='respDivL'><div class='vertical-center'>(E)</div></div><div class='respDivR'><div class='vertical-center'>(I)</div></div></div>","E","$33","$66","1","33","66","RISKY"
"html-keyboard-response","102","143100","0.0-5.0-3.32","63f791692fa22034babcdda1","bdp_rd","Sat Mar 25 2023 20:05:18 GMT-0400 (Eastern Daylight Time)","210337","","null","","","","offerFB","","<div class='trialBorder'><div class='vertical-center'><img style='vertical-align:center; align:center' src=img/fixation3.jpg></div><div class='cl'><div class='vertical-center'><font style='color:orange'>$66<br>with a<br>50% chance</font></div></div><div class='cr'><div class='vertical-center'>$33<br>for<br>sure</div></div><div class='respDivL'><div class='vertical-center'><font style='color:orange'>(E)</font></div></div><div class='respDivR'><div class='vertical-center'>(I)</div></div></div>","null","$33","$66","1","33","66",""
"html-keyboard-response","103","143602","0.0-5.0-1.33","63f791692fa22034babcdda1","bdp_rd","Sat Mar 25 2023 20:05:18 GMT-0400 (Eastern Daylight Time)","210337","","null","","","","FIX","","<div class='trialBorder'><div class='vertical-center'><img style='vertical-align:center; align:center' src=img/fixation3.jpg></div></div>","null","","","","","",""
"html-keyboard-response","104","146266","0.0-5.0-2.33","63f791692fa22034babcdda1","bdp_rd","Sat Mar 25 2023 20:05:18 GMT-0400 (Eastern Daylight Time)","210337","","2662","","","","offer","","<div class='trialBorder'><div class='vertical-center'><img style='vertical-align:center; align:center' src=img/fixation3.jpg></div><div class='cl'><div class='vertical-center'>$3<br>for<br>sure</div></div><div class='cr'><div class='vertical-center'>$17<br>with a<br>50% chance</div></div><div class='respDivL'><div class='vertical-center'>(E)</div></div><div class='respDivR'><div class='vertical-center'>(I)</div></div></div>","I","$3","$17","0","3","17","RISKY"
"html-keyboard-response","105","146519","0.0-5.0-3.33","63f791692fa22034babcdda1","bdp_rd","Sat Mar 25 2023 20:05:18 GMT-0400 (Eastern Daylight Time)","210337","","null","","","","offerFB","","<div class='trialBorder'><div class='vertical-center'><img style='vertical-align:center; align:center' src=img/fixation3.jpg></div><div class='cl'><div class='vertical-center'>$3<br>for<br>sure</div></div><div class='cr'><div class='vertical-center'><font style='color:orange'>$17<br>with a<br>50% chance</font></div></div><div class='respDivL'><div class='vertical-center'>(E)</div></div><div class='respDivR'><div class='vertical-center'><font style='color:orange'>(I)</font></div></div></div>","null","$3","$17","0","3","17",""
"html-keyboard-response","106","147021","0.0-5.0-1.34","63f791692fa22034babcdda1","bdp_rd","Sat Mar 25 2023 20:05:18 GMT-0400 (Eastern Daylight Time)","210337","","null","","","","FIX","","<div class='trialBorder'><div class='vertical-center'><img style='vertical-align:center; align:center' src=img/fixation3.jpg></div></div>","null","","","","","",""
"html-keyboard-response","107","148378","0.0-5.0-2.34","63f791692fa22034babcdda1","bdp_rd","Sat Mar 25 2023 20:05:18 GMT-0400 (Eastern Daylight Time)","210337","","1354","","","","offer","","<div class='trialBorder'><div class='vertical-center'><img style='vertical-align:center; align:center' src=img/fixation3.jpg></div><div class='cl'><div class='vertical-center'>$29<br>for<br>sure</div></div><div class='cr'><div class='vertical-center'>$46<br>with a<br>50% chance</div></div><div class='respDivL'><div class='vertical-center'>(E)</div></div><div class='respDivR'><div class='vertical-center'>(I)</div></div></div>","I","$29","$46","0","29","46","RISKY"
"html-keyboard-response","108","148630","0.0-5.0-3.34","63f791692fa22034babcdda1","bdp_rd","Sat Mar 25 2023 20:05:18 GMT-0400 (Eastern Daylight Time)","210337","","null","","","","offerFB","","<div class='trialBorder'><div class='vertical-center'><img style='vertical-align:center; align:center' src=img/fixation3.jpg></div><div class='cl'><div class='vertical-center'>$29<br>for<br>sure</div></div><div class='cr'><div class='vertical-center'><font style='color:orange'>$46<br>with a<br>50% chance</font></div></div><div class='respDivL'><div class='vertical-center'>(E)</div></div><div class='respDivR'><div class='vertical-center'><font style='color:orange'>(I)</font></div></div></div>","null","$29","$46","0","29","46",""
"html-keyboard-response","109","149132","0.0-5.0-1.35","63f791692fa22034babcdda1","bdp_rd","Sat Mar 25 2023 20:05:18 GMT-0400 (Eastern Daylight Time)","210337","","null","","","","FIX","","<div class='trialBorder'><div class='vertical-center'><img style='vertical-align:center; align:center' src=img/fixation3.jpg></div></div>","null","","","","","",""
"html-keyboard-response","110","149979","0.0-5.0-2.35","63f791692fa22034babcdda1","bdp_rd","Sat Mar 25 2023 20:05:18 GMT-0400 (Eastern Daylight Time)","210337","","845","","","","offer","","<div class='trialBorder'><div class='vertical-center'><img style='vertical-align:center; align:center' src=img/fixation3.jpg></div><div class='cl'><div class='vertical-center'>$86<br>with a<br>50% chance</div></div><div class='cr'><div class='vertical-center'>$45<br>for<br>sure</div></div><div class='respDivL'><div class='vertical-center'>(E)</div></div><div class='respDivR'><div class='vertical-center'>(I)</div></div></div>","E","$45","$86","1","45","86","RISKY"
"html-keyboard-response","111","150232","0.0-5.0-3.35","63f791692fa22034babcdda1","bdp_rd","Sat Mar 25 2023 20:05:18 GMT-0400 (Eastern Daylight Time)","210337","","null","","","","offerFB","","<div class='trialBorder'><div class='vertical-center'><img style='vertical-align:center; align:center' src=img/fixation3.jpg></div><div class='cl'><div class='vertical-center'><font style='color:orange'>$86<br>with a<br>50% chance</font></div></div><div class='cr'><div class='vertical-center'>$45<br>for<br>sure</div></div><div class='respDivL'><div class='vertical-center'><font style='color:orange'>(E)</font></div></div><div class='respDivR'><div class='vertical-center'>(I)</div></div></div>","null","$45","$86","1","45","86",""
"html-keyboard-response","112","150733","0.0-5.0-1.36","63f791692fa22034babcdda1","bdp_rd","Sat Mar 25 2023 20:05:18 GMT-0400 (Eastern Daylight Time)","210337","","null","","","","FIX","","<div class='trialBorder'><div class='vertical-center'><img style='vertical-align:center; align:center' src=img/fixation3.jpg></div></div>","null","","","","","",""
"html-keyboard-response","113","153406","0.0-5.0-2.36","63f791692fa22034babcdda1","bdp_rd","Sat Mar 25 2023 20:05:18 GMT-0400 (Eastern Daylight Time)","210337","","2671","","","","offer","","<div class='trialBorder'><div class='vertical-center'><img style='vertical-align:center; align:center' src=img/fixation3.jpg></div><div class='cl'><div class='vertical-center'>$27<br>for<br>sure</div></div><div class='cr'><div class='vertical-center'>$47<br>with a<br>50% chance</div></div><div class='respDivL'><div class='vertical-center'>(E)</div></div><div class='respDivR'><div class='vertical-center'>(I)</div></div></div>","I","$27","$47","0","27","47","RISKY"
"html-keyboard-response","114","153659","0.0-5.0-3.36","63f791692fa22034babcdda1","bdp_rd","Sat Mar 25 2023 20:05:18 GMT-0400 (Eastern Daylight Time)","210337","","null","","","","offerFB","","<div class='trialBorder'><div class='vertical-center'><img style='vertical-align:center; align:center' src=img/fixation3.jpg></div><div class='cl'><div class='vertical-center'>$27<br>for<br>sure</div></div><div class='cr'><div class='vertical-center'><font style='color:orange'>$47<br>with a<br>50% chance</font></div></div><div class='respDivL'><div class='vertical-center'>(E)</div></div><div class='respDivR'><div class='vertical-center'><font style='color:orange'>(I)</font></div></div></div>","null","$27","$47","0","27","47",""
"html-keyboard-response","115","154160","0.0-5.0-1.37","63f791692fa22034babcdda1","bdp_rd","Sat Mar 25 2023 20:05:18 GMT-0400 (Eastern Daylight Time)","210337","","null","","","","FIX","","<div class='trialBorder'><div class='vertical-center'><img style='vertical-align:center; align:center' src=img/fixation3.jpg></div></div>","null","","","","","",""
"html-keyboard-response","116","155658","0.0-5.0-2.37","63f791692fa22034babcdda1","bdp_rd","Sat Mar 25 2023 20:05:18 GMT-0400 (Eastern Daylight Time)","210337","","1496","","","","offer","","<div class='trialBorder'><div class='vertical-center'><img style='vertical-align:center; align:center' src=img/fixation3.jpg></div><div class='cl'><div class='vertical-center'>$12<br>with a<br>50% chance</div></div><div class='cr'><div class='vertical-center'>$3<br>for<br>sure</div></div><div class='respDivL'><div class='vertical-center'>(E)</div></div><div class='respDivR'><div class='vertical-center'>(I)</div></div></div>","E","$3","$12","1","3","12","RISKY"
"html-keyboard-response","117","155912","0.0-5.0-3.37","63f791692fa22034babcdda1","bdp_rd","Sat Mar 25 2023 20:05:18 GMT-0400 (Eastern Daylight Time)","210337","","null","","","","offerFB","","<div class='trialBorder'><div class='vertical-center'><img style='vertical-align:center; align:center' src=img/fixation3.jpg></div><div class='cl'><div class='vertical-center'><font style='color:orange'>$12<br>with a<br>50% chance</font></div></div><div class='cr'><div class='vertical-center'>$3<br>for<br>sure</div></div><div class='respDivL'><div class='vertical-center'><font style='color:orange'>(E)</font></div></div><div class='respDivR'><div class='vertical-center'>(I)</div></div></div>","null","$3","$12","1","3","12",""
"html-keyboard-response","118","156414","0.0-5.0-1.38","63f791692fa22034babcdda1","bdp_rd","Sat Mar 25 2023 20:05:18 GMT-0400 (Eastern Daylight Time)","210337","","null","","","","FIX","","<div class='trialBorder'><div class='vertical-center'><img style='vertical-align:center; align:center' src=img/fixation3.jpg></div></div>","null","","","","","",""
"html-keyboard-response","119","157978","0.0-5.0-2.38","63f791692fa22034babcdda1","bdp_rd","Sat Mar 25 2023 20:05:18 GMT-0400 (Eastern Daylight Time)","210337","","1562","","","","offer","","<div class='trialBorder'><div class='vertical-center'><img style='vertical-align:center; align:center' src=img/fixation3.jpg></div><div class='cl'><div class='vertical-center'>$5<br>for<br>sure</div></div><div class='cr'><div class='vertical-center'>$16<br>with a<br>50% chance</div></div><div class='respDivL'><div class='vertical-center'>(E)</div></div><div class='respDivR'><div class='vertical-center'>(I)</div></div></div>","E","$5","$16","0","5","16","SURE"
"html-keyboard-response","120","158230","0.0-5.0-3.38","63f791692fa22034babcdda1","bdp_rd","Sat Mar 25 2023 20:05:18 GMT-0400 (Eastern Daylight Time)","210337","","null","","","","offerFB","","<div class='trialBorder'><div class='vertical-center'><img style='vertical-align:center; align:center' src=img/fixation3.jpg></div><div class='cl'><div class='vertical-center'><font style='color:orange'>$5<br>for<br>sure</font></div></div><div class='cr'><div class='vertical-center'>$16<br>with a<br>50% chance</div></div><div class='respDivL'><div class='vertical-center'><font style='color:orange'>(E)</font></div></div><div class='respDivR'><div class='vertical-center'>(I)</div></div></div>","null","$5","$16","0","5","16",""
"html-keyboard-response","121","158731","0.0-5.0-1.39","63f791692fa22034babcdda1","bdp_rd","Sat Mar 25 2023 20:05:18 GMT-0400 (Eastern Daylight Time)","210337","","null","","","","FIX","","<div class='trialBorder'><div class='vertical-center'><img style='vertical-align:center; align:center' src=img/fixation3.jpg></div></div>","null","","","","","",""
"html-keyboard-response","122","160537","0.0-5.0-2.39","63f791692fa22034babcdda1","bdp_rd","Sat Mar 25 2023 20:05:18 GMT-0400 (Eastern Daylight Time)","210337","","1805","","","","offer","","<div class='trialBorder'><div class='vertical-center'><img style='vertical-align:center; align:center' src=img/fixation3.jpg></div><div class='cl'><div class='vertical-center'>$21<br>with a<br>50% chance</div></div><div class='cr'><div class='vertical-center'>$2<br>for<br>sure</div></div><div class='respDivL'><div class='vertical-center'>(E)</div></div><div class='respDivR'><div class='vertical-center'>(I)</div></div></div>","E","$2","$21","1","2","21","RISKY"
"html-keyboard-response","123","160789","0.0-5.0-3.39","63f791692fa22034babcdda1","bdp_rd","Sat Mar 25 2023 20:05:18 GMT-0400 (Eastern Daylight Time)","210337","","null","","","","offerFB","","<div class='trialBorder'><div class='vertical-center'><img style='vertical-align:center; align:center' src=img/fixation3.jpg></div><div class='cl'><div class='vertical-center'><font style='color:orange'>$21<br>with a<br>50% chance</font></div></div><div class='cr'><div class='vertical-center'>$2<br>for<br>sure</div></div><div class='respDivL'><div class='vertical-center'><font style='color:orange'>(E)</font></div></div><div class='respDivR'><div class='vertical-center'>(I)</div></div></div>","null","$2","$21","1","2","21",""
"html-keyboard-response","124","161290","0.0-5.0-1.40","63f791692fa22034babcdda1","bdp_rd","Sat Mar 25 2023 20:05:18 GMT-0400 (Eastern Daylight Time)","210337","","null","","","","FIX","","<div class='trialBorder'><div class='vertical-center'><img style='vertical-align:center; align:center' src=img/fixation3.jpg></div></div>","null","","","","","",""
"html-keyboard-response","125","162746","0.0-5.0-2.40","63f791692fa22034babcdda1","bdp_rd","Sat Mar 25 2023 20:05:18 GMT-0400 (Eastern Daylight Time)","210337","","1454","","","","offer","","<div class='trialBorder'><div class='vertical-center'><img style='vertical-align:center; align:center' src=img/fixation3.jpg></div><div class='cl'><div class='vertical-center'>$27<br>with a<br>50% chance</div></div><div class='cr'><div class='vertical-center'>$12<br>for<br>sure</div></div><div class='respDivL'><div class='vertical-center'>(E)</div></div><div class='respDivR'><div class='vertical-center'>(I)</div></div></div>","I","$12","$27","1","12","27","SURE"
"html-keyboard-response","126","163000","0.0-5.0-3.40","63f791692fa22034babcdda1","bdp_rd","Sat Mar 25 2023 20:05:18 GMT-0400 (Eastern Daylight Time)","210337","","null","","","","offerFB","","<div class='trialBorder'><div class='vertical-center'><img style='vertical-align:center; align:center' src=img/fixation3.jpg></div><div class='cl'><div class='vertical-center'>$27<br>with a<br>50% chance</div></div><div class='cr'><div class='vertical-center'><font style='color:orange'>$12<br>for<br>sure</font></div></div><div class='respDivL'><div class='vertical-center'>(E)</div></div><div class='respDivR'><div class='vertical-center'><font style='color:orange'>(I)</font></div></div></div>","null","$12","$27","1","12","27",""
"html-keyboard-response","127","163503","0.0-5.0-1.41","63f791692fa22034babcdda1","bdp_rd","Sat Mar 25 2023 20:05:18 GMT-0400 (Eastern Daylight Time)","210337","","null","","","","FIX","","<div class='trialBorder'><div class='vertical-center'><img style='vertical-align:center; align:center' src=img/fixation3.jpg></div></div>","null","","","","","",""
"html-keyboard-response","128","165670","0.0-5.0-2.41","63f791692fa22034babcdda1","bdp_rd","Sat Mar 25 2023 20:05:18 GMT-0400 (Eastern Daylight Time)","210337","","2166","","","","offer","","<div class='trialBorder'><div class='vertical-center'><img style='vertical-align:center; align:center' src=img/fixation3.jpg></div><div class='cl'><div class='vertical-center'>$9<br>for<br>sure</div></div><div class='cr'><div class='vertical-center'>$18<br>with a<br>50% chance</div></div><div class='respDivL'><div class='vertical-center'>(E)</div></div><div class='respDivR'><div class='vertical-center'>(I)</div></div></div>","I","$9","$18","0","9","18","RISKY"
"html-keyboard-response","129","165923","0.0-5.0-3.41","63f791692fa22034babcdda1","bdp_rd","Sat Mar 25 2023 20:05:18 GMT-0400 (Eastern Daylight Time)","210337","","null","","","","offerFB","","<div class='trialBorder'><div class='vertical-center'><img style='vertical-align:center; align:center' src=img/fixation3.jpg></div><div class='cl'><div class='vertical-center'>$9<br>for<br>sure</div></div><div class='cr'><div class='vertical-center'><font style='color:orange'>$18<br>with a<br>50% chance</font></div></div><div class='respDivL'><div class='vertical-center'>(E)</div></div><div class='respDivR'><div class='vertical-center'><font style='color:orange'>(I)</font></div></div></div>","null","$9","$18","0","9","18",""
"html-keyboard-response","130","166425","0.0-5.0-1.42","63f791692fa22034babcdda1","bdp_rd","Sat Mar 25 2023 20:05:18 GMT-0400 (Eastern Daylight Time)","210337","","null","","","","FIX","","<div class='trialBorder'><div class='vertical-center'><img style='vertical-align:center; align:center' src=img/fixation3.jpg></div></div>","null","","","","","",""
"html-keyboard-response","131","167529","0.0-5.0-2.42","63f791692fa22034babcdda1","bdp_rd","Sat Mar 25 2023 20:05:18 GMT-0400 (Eastern Daylight Time)","210337","","1102","","","","offer","","<div class='trialBorder'><div class='vertical-center'><img style='vertical-align:center; align:center' src=img/fixation3.jpg></div><div class='cl'><div class='vertical-center'>$14<br>with a<br>50% chance</div></div><div class='cr'><div class='vertical-center'>$4<br>for<br>sure</div></div><div class='respDivL'><div class='vertical-center'>(E)</div></div><div class='respDivR'><div class='vertical-center'>(I)</div></div></div>","E","$4","$14","1","4","14","RISKY"
"html-keyboard-response","132","167781","0.0-5.0-3.42","63f791692fa22034babcdda1","bdp_rd","Sat Mar 25 2023 20:05:18 GMT-0400 (Eastern Daylight Time)","210337","","null","","","","offerFB","","<div class='trialBorder'><div class='vertical-center'><img style='vertical-align:center; align:center' src=img/fixation3.jpg></div><div class='cl'><div class='vertical-center'><font style='color:orange'>$14<br>with a<br>50% chance</font></div></div><div class='cr'><div class='vertical-center'>$4<br>for<br>sure</div></div><div class='respDivL'><div class='vertical-center'><font style='color:orange'>(E)</font></div></div><div class='respDivR'><div class='vertical-center'>(I)</div></div></div>","null","$4","$14","1","4","14",""
"html-keyboard-response","133","168284","0.0-5.0-1.43","63f791692fa22034babcdda1","bdp_rd","Sat Mar 25 2023 20:05:18 GMT-0400 (Eastern Daylight Time)","210337","","null","","","","FIX","","<div class='trialBorder'><div class='vertical-center'><img style='vertical-align:center; align:center' src=img/fixation3.jpg></div></div>","null","","","","","",""
"html-keyboard-response","134","170562","0.0-5.0-2.43","63f791692fa22034babcdda1","bdp_rd","Sat Mar 25 2023 20:05:18 GMT-0400 (Eastern Daylight Time)","210337","","2276","","","","offer","","<div class='trialBorder'><div class='vertical-center'><img style='vertical-align:center; align:center' src=img/fixation3.jpg></div><div class='cl'><div class='vertical-center'>$39<br>for<br>sure</div></div><div class='cr'><div class='vertical-center'>$81<br>with a<br>50% chance</div></div><div class='respDivL'><div class='vertical-center'>(E)</div></div><div class='respDivR'><div class='vertical-center'>(I)</div></div></div>","E","$39","$81","0","39","81","SURE"
"html-keyboard-response","135","170816","0.0-5.0-3.43","63f791692fa22034babcdda1","bdp_rd","Sat Mar 25 2023 20:05:18 GMT-0400 (Eastern Daylight Time)","210337","","null","","","","offerFB","","<div class='trialBorder'><div class='vertical-center'><img style='vertical-align:center; align:center' src=img/fixation3.jpg></div><div class='cl'><div class='vertical-center'><font style='color:orange'>$39<br>for<br>sure</font></div></div><div class='cr'><div class='vertical-center'>$81<br>with a<br>50% chance</div></div><div class='respDivL'><div class='vertical-center'><font style='color:orange'>(E)</font></div></div><div class='respDivR'><div class='vertical-center'>(I)</div></div></div>","null","$39","$81","0","39","81",""
"html-keyboard-response","136","171318","0.0-5.0-1.44","63f791692fa22034babcdda1","bdp_rd","Sat Mar 25 2023 20:05:18 GMT-0400 (Eastern Daylight Time)","210337","","null","","","","FIX","","<div class='trialBorder'><div class='vertical-center'><img style='vertical-align:center; align:center' src=img/fixation3.jpg></div></div>","null","","","","","",""
"html-keyboard-response","137","172962","0.0-5.0-2.44","63f791692fa22034babcdda1","bdp_rd","Sat Mar 25 2023 20:05:18 GMT-0400 (Eastern Daylight Time)","210337","","1643","","","","offer","","<div class='trialBorder'><div class='vertical-center'><img style='vertical-align:center; align:center' src=img/fixation3.jpg></div><div class='cl'><div class='vertical-center'>$18<br>for<br>sure</div></div><div class='cr'><div class='vertical-center'>$36<br>with a<br>50% chance</div></div><div class='respDivL'><div class='vertical-center'>(E)</div></div><div class='respDivR'><div class='vertical-center'>(I)</div></div></div>","E","$18","$36","0","18","36","SURE"
"html-keyboard-response","138","173215","0.0-5.0-3.44","63f791692fa22034babcdda1","bdp_rd","Sat Mar 25 2023 20:05:18 GMT-0400 (Eastern Daylight Time)","210337","","null","","","","offerFB","","<div class='trialBorder'><div class='vertical-center'><img style='vertical-align:center; align:center' src=img/fixation3.jpg></div><div class='cl'><div class='vertical-center'><font style='color:orange'>$18<br>for<br>sure</font></div></div><div class='cr'><div class='vertical-center'>$36<br>with a<br>50% chance</div></div><div class='respDivL'><div class='vertical-center'><font style='color:orange'>(E)</font></div></div><div class='respDivR'><div class='vertical-center'>(I)</div></div></div>","null","$18","$36","0","18","36",""
"html-keyboard-response","139","173717","0.0-5.0-1.45","63f791692fa22034babcdda1","bdp_rd","Sat Mar 25 2023 20:05:18 GMT-0400 (Eastern Daylight Time)","210337","","null","","","","FIX","","<div class='trialBorder'><div class='vertical-center'><img style='vertical-align:center; align:center' src=img/fixation3.jpg></div></div>","null","","","","","",""
"html-keyboard-response","140","175338","0.0-5.0-2.45","63f791692fa22034babcdda1","bdp_rd","Sat Mar 25 2023 20:05:18 GMT-0400 (Eastern Daylight Time)","210337","","1617","","","","offer","","<div class='trialBorder'><div class='vertical-center'><img style='vertical-align:center; align:center' src=img/fixation3.jpg></div><div class='cl'><div class='vertical-center'>$37<br>with a<br>50% chance</div></div><div class='cr'><div class='vertical-center'>$20<br>for<br>sure</div></div><div class='respDivL'><div class='vertical-center'>(E)</div></div><div class='respDivR'><div class='vertical-center'>(I)</div></div></div>","E","$20","$37","1","20","37","RISKY"
"html-keyboard-response","141","175591","0.0-5.0-3.45","63f791692fa22034babcdda1","bdp_rd","Sat Mar 25 2023 20:05:18 GMT-0400 (Eastern Daylight Time)","210337","","null","","","","offerFB","","<div class='trialBorder'><div class='vertical-center'><img style='vertical-align:center; align:center' src=img/fixation3.jpg></div><div class='cl'><div class='vertical-center'><font style='color:orange'>$37<br>with a<br>50% chance</font></div></div><div class='cr'><div class='vertical-center'>$20<br>for<br>sure</div></div><div class='respDivL'><div class='vertical-center'><font style='color:orange'>(E)</font></div></div><div class='respDivR'><div class='vertical-center'>(I)</div></div></div>","null","$20","$37","1","20","37",""
"html-keyboard-response","142","176093","0.0-5.0-1.46","63f791692fa22034babcdda1","bdp_rd","Sat Mar 25 2023 20:05:18 GMT-0400 (Eastern Daylight Time)","210337","","null","","","","FIX","","<div class='trialBorder'><div class='vertical-center'><img style='vertical-align:center; align:center' src=img/fixation3.jpg></div></div>","null","","","","","",""
"html-keyboard-response","143","177350","0.0-5.0-2.46","63f791692fa22034babcdda1","bdp_rd","Sat Mar 25 2023 20:05:18 GMT-0400 (Eastern Daylight Time)","210337","","1256","","","","offer","","<div class='trialBorder'><div class='vertical-center'><img style='vertical-align:center; align:center' src=img/fixation3.jpg></div><div class='cl'><div class='vertical-center'>$29<br>with a<br>50% chance</div></div><div class='cr'><div class='vertical-center'>$14<br>for<br>sure</div></div><div class='respDivL'><div class='vertical-center'>(E)</div></div><div class='respDivR'><div class='vertical-center'>(I)</div></div></div>","E","$14","$29","1","14","29","RISKY"
"html-keyboard-response","144","177601","0.0-5.0-3.46","63f791692fa22034babcdda1","bdp_rd","Sat Mar 25 2023 20:05:18 GMT-0400 (Eastern Daylight Time)","210337","","null","","","","offerFB","","<div class='trialBorder'><div class='vertical-center'><img style='vertical-align:center; align:center' src=img/fixation3.jpg></div><div class='cl'><div class='vertical-center'><font style='color:orange'>$29<br>with a<br>50% chance</font></div></div><div class='cr'><div class='vertical-center'>$14<br>for<br>sure</div></div><div class='respDivL'><div class='vertical-center'><font style='color:orange'>(E)</font></div></div><div class='respDivR'><div class='vertical-center'>(I)</div></div></div>","null","$14","$29","1","14","29",""
"html-keyboard-response","145","178104","0.0-5.0-1.47","63f791692fa22034babcdda1","bdp_rd","Sat Mar 25 2023 20:05:18 GMT-0400 (Eastern Daylight Time)","210337","","null","","","","FIX","","<div class='trialBorder'><div class='vertical-center'><img style='vertical-align:center; align:center' src=img/fixation3.jpg></div></div>","null","","","","","",""
"html-keyboard-response","146","179706","0.0-5.0-2.47","63f791692fa22034babcdda1","bdp_rd","Sat Mar 25 2023 20:05:18 GMT-0400 (Eastern Daylight Time)","210337","","1600","","","","offer","","<div class='trialBorder'><div class='vertical-center'><img style='vertical-align:center; align:center' src=img/fixation3.jpg></div><div class='cl'><div class='vertical-center'>$12<br>for<br>sure</div></div><div class='cr'><div class='vertical-center'>$35<br>with a<br>50% chance</div></div><div class='respDivL'><div class='vertical-center'>(E)</div></div><div class='respDivR'><div class='vertical-center'>(I)</div></div></div>","I","$12","$35","0","12","35","RISKY"
"html-keyboard-response","147","179960","0.0-5.0-3.47","63f791692fa22034babcdda1","bdp_rd","Sat Mar 25 2023 20:05:18 GMT-0400 (Eastern Daylight Time)","210337","","null","","","","offerFB","","<div class='trialBorder'><div class='vertical-center'><img style='vertical-align:center; align:center' src=img/fixation3.jpg></div><div class='cl'><div class='vertical-center'>$12<br>for<br>sure</div></div><div class='cr'><div class='vertical-center'><font style='color:orange'>$35<br>with a<br>50% chance</font></div></div><div class='respDivL'><div class='vertical-center'>(E)</div></div><div class='respDivR'><div class='vertical-center'><font style='color:orange'>(I)</font></div></div></div>","null","$12","$35","0","12","35",""
"html-keyboard-response","148","180462","0.0-5.0-1.48","63f791692fa22034babcdda1","bdp_rd","Sat Mar 25 2023 20:05:18 GMT-0400 (Eastern Daylight Time)","210337","","null","","","","FIX","","<div class='trialBorder'><div class='vertical-center'><img style='vertical-align:center; align:center' src=img/fixation3.jpg></div></div>","null","","","","","",""
"html-keyboard-response","149","182250","0.0-5.0-2.48","63f791692fa22034babcdda1","bdp_rd","Sat Mar 25 2023 20:05:18 GMT-0400 (Eastern Daylight Time)","210337","","1786","","","","offer","","<div class='trialBorder'><div class='vertical-center'><img style='vertical-align:center; align:center' src=img/fixation3.jpg></div><div class='cl'><div class='vertical-center'>$53<br>for<br>sure</div></div><div class='cr'><div class='vertical-center'>$98<br>with a<br>50% chance</div></div><div class='respDivL'><div class='vertical-center'>(E)</div></div><div class='respDivR'><div class='vertical-center'>(I)</div></div></div>","I","$53","$98","0","53","98","RISKY"
"html-keyboard-response","150","182503","0.0-5.0-3.48","63f791692fa22034babcdda1","bdp_rd","Sat Mar 25 2023 20:05:18 GMT-0400 (Eastern Daylight Time)","210337","","null","","","","offerFB","","<div class='trialBorder'><div class='vertical-center'><img style='vertical-align:center; align:center' src=img/fixation3.jpg></div><div class='cl'><div class='vertical-center'>$53<br>for<br>sure</div></div><div class='cr'><div class='vertical-center'><font style='color:orange'>$98<br>with a<br>50% chance</font></div></div><div class='respDivL'><div class='vertical-center'>(E)</div></div><div class='respDivR'><div class='vertical-center'><font style='color:orange'>(I)</font></div></div></div>","null","$53","$98","0","53","98",""
"html-keyboard-response","151","183006","0.0-5.0-1.49","63f791692fa22034babcdda1","bdp_rd","Sat Mar 25 2023 20:05:18 GMT-0400 (Eastern Daylight Time)","210337","","null","","","","FIX","","<div class='trialBorder'><div class='vertical-center'><img style='vertical-align:center; align:center' src=img/fixation3.jpg></div></div>","null","","","","","",""
"html-keyboard-response","152","184841","0.0-5.0-2.49","63f791692fa22034babcdda1","bdp_rd","Sat Mar 25 2023 20:05:18 GMT-0400 (Eastern Daylight Time)","210337","","1834","","","","offer","","<div class='trialBorder'><div class='vertical-center'><img style='vertical-align:center; align:center' src=img/fixation3.jpg></div><div class='cl'><div class='vertical-center'>$1<br>for<br>sure</div></div><div class='cr'><div class='vertical-center'>$30<br>with a<br>50% chance</div></div><div class='respDivL'><div class='vertical-center'>(E)</div></div><div class='respDivR'><div class='vertical-center'>(I)</div></div></div>","I","$1","$30","0","1","30","RISKY"
"html-keyboard-response","153","185093","0.0-5.0-3.49","63f791692fa22034babcdda1","bdp_rd","Sat Mar 25 2023 20:05:18 GMT-0400 (Eastern Daylight Time)","210337","","null","","","","offerFB","","<div class='trialBorder'><div class='vertical-center'><img style='vertical-align:center; align:center' src=img/fixation3.jpg></div><div class='cl'><div class='vertical-center'>$1<br>for<br>sure</div></div><div class='cr'><div class='vertical-center'><font style='color:orange'>$30<br>with a<br>50% chance</font></div></div><div class='respDivL'><div class='vertical-center'>(E)</div></div><div class='respDivR'><div class='vertical-center'><font style='color:orange'>(I)</font></div></div></div>","null","$1","$30","0","1","30",""
"html-keyboard-response","154","185596","0.0-5.0-1.50","63f791692fa22034babcdda1","bdp_rd","Sat Mar 25 2023 20:05:18 GMT-0400 (Eastern Daylight Time)","210337","","null","","","","FIX","","<div class='trialBorder'><div class='vertical-center'><img style='vertical-align:center; align:center' src=img/fixation3.jpg></div></div>","null","","","","","",""
"html-keyboard-response","155","187483","0.0-5.0-2.50","63f791692fa22034babcdda1","bdp_rd","Sat Mar 25 2023 20:05:18 GMT-0400 (Eastern Daylight Time)","210337","","1886","","","","offer","","<div class='trialBorder'><div class='vertical-center'><img style='vertical-align:center; align:center' src=img/fixation3.jpg></div><div class='cl'><div class='vertical-center'>$46<br>for<br>sure</div></div><div class='cr'><div class='vertical-center'>$65<br>with a<br>50% chance</div></div><div class='respDivL'><div class='vertical-center'>(E)</div></div><div class='respDivR'><div class='vertical-center'>(I)</div></div></div>","E","$46","$65","0","46","65","SURE"
"html-keyboard-response","156","187735","0.0-5.0-3.50","63f791692fa22034babcdda1","bdp_rd","Sat Mar 25 2023 20:05:18 GMT-0400 (Eastern Daylight Time)","210337","","null","","","","offerFB","","<div class='trialBorder'><div class='vertical-center'><img style='vertical-align:center; align:center' src=img/fixation3.jpg></div><div class='cl'><div class='vertical-center'><font style='color:orange'>$46<br>for<br>sure</font></div></div><div class='cr'><div class='vertical-center'>$65<br>with a<br>50% chance</div></div><div class='respDivL'><div class='vertical-center'><font style='color:orange'>(E)</font></div></div><div class='respDivR'><div class='vertical-center'>(I)</div></div></div>","null","$46","$65","0","46","65",""
"html-keyboard-response","157","188237","0.0-5.0-1.51","63f791692fa22034babcdda1","bdp_rd","Sat Mar 25 2023 20:05:18 GMT-0400 (Eastern Daylight Time)","210337","","null","","","","FIX","","<div class='trialBorder'><div class='vertical-center'><img style='vertical-align:center; align:center' src=img/fixation3.jpg></div></div>","null","","","","","",""
"html-keyboard-response","158","189610","0.0-5.0-2.51","63f791692fa22034babcdda1","bdp_rd","Sat Mar 25 2023 20:05:18 GMT-0400 (Eastern Daylight Time)","210337","","1371","","","","offer","","<div class='trialBorder'><div class='vertical-center'><img style='vertical-align:center; align:center' src=img/fixation3.jpg></div><div class='cl'><div class='vertical-center'>$95<br>with a<br>50% chance</div></div><div class='cr'><div class='vertical-center'>$40<br>for<br>sure</div></div><div class='respDivL'><div class='vertical-center'>(E)</div></div><div class='respDivR'><div class='vertical-center'>(I)</div></div></div>","I","$40","$95","1","40","95","SURE"
"html-keyboard-response","159","189863","0.0-5.0-3.51","63f791692fa22034babcdda1","bdp_rd","Sat Mar 25 2023 20:05:18 GMT-0400 (Eastern Daylight Time)","210337","","null","","","","offerFB","","<div class='trialBorder'><div class='vertical-center'><img style='vertical-align:center; align:center' src=img/fixation3.jpg></div><div class='cl'><div class='vertical-center'>$95<br>with a<br>50% chance</div></div><div class='cr'><div class='vertical-center'><font style='color:orange'>$40<br>for<br>sure</font></div></div><div class='respDivL'><div class='vertical-center'>(E)</div></div><div class='respDivR'><div class='vertical-center'><font style='color:orange'>(I)</font></div></div></div>","null","$40","$95","1","40","95",""
"html-keyboard-response","160","190365","0.0-5.0-1.52","63f791692fa22034babcdda1","bdp_rd","Sat Mar 25 2023 20:05:18 GMT-0400 (Eastern Daylight Time)","210337","","null","","","","FIX","","<div class='trialBorder'><div class='vertical-center'><img style='vertical-align:center; align:center' src=img/fixation3.jpg></div></div>","null","","","","","",""
"html-keyboard-response","161","192130","0.0-5.0-2.52","63f791692fa22034babcdda1","bdp_rd","Sat Mar 25 2023 20:05:18 GMT-0400 (Eastern Daylight Time)","210337","","1762","","","","offer","","<div class='trialBorder'><div class='vertical-center'><img style='vertical-align:center; align:center' src=img/fixation3.jpg></div><div class='cl'><div class='vertical-center'>$73<br>with a<br>50% chance</div></div><div class='cr'><div class='vertical-center'>$42<br>for<br>sure</div></div><div class='respDivL'><div class='vertical-center'>(E)</div></div><div class='respDivR'><div class='vertical-center'>(I)</div></div></div>","I","$42","$73","1","42","73","SURE"
"html-keyboard-response","162","192381","0.0-5.0-3.52","63f791692fa22034babcdda1","bdp_rd","Sat Mar 25 2023 20:05:18 GMT-0400 (Eastern Daylight Time)","210337","","null","","","","offerFB","","<div class='trialBorder'><div class='vertical-center'><img style='vertical-align:center; align:center' src=img/fixation3.jpg></div><div class='cl'><div class='vertical-center'>$73<br>with a<br>50% chance</div></div><div class='cr'><div class='vertical-center'><font style='color:orange'>$42<br>for<br>sure</font></div></div><div class='respDivL'><div class='vertical-center'>(E)</div></div><div class='respDivR'><div class='vertical-center'><font style='color:orange'>(I)</font></div></div></div>","null","$42","$73","1","42","73",""
"html-keyboard-response","163","192883","0.0-5.0-1.53","63f791692fa22034babcdda1","bdp_rd","Sat Mar 25 2023 20:05:18 GMT-0400 (Eastern Daylight Time)","210337","","null","","","","FIX","","<div class='trialBorder'><div class='vertical-center'><img style='vertical-align:center; align:center' src=img/fixation3.jpg></div></div>","null","","","","","",""
"html-keyboard-response","164","194770","0.0-5.0-2.53","63f791692fa22034babcdda1","bdp_rd","Sat Mar 25 2023 20:05:18 GMT-0400 (Eastern Daylight Time)","210337","","1885","","","","offer","","<div class='trialBorder'><div class='vertical-center'><img style='vertical-align:center; align:center' src=img/fixation3.jpg></div><div class='cl'><div class='vertical-center'>$33<br>with a<br>50% chance</div></div><div class='cr'><div class='vertical-center'>$1<br>for<br>sure</div></div><div class='respDivL'><div class='vertical-center'>(E)</div></div><div class='respDivR'><div class='vertical-center'>(I)</div></div></div>","E","$1","$33","1","1","33","RISKY"
"html-keyboard-response","165","195023","0.0-5.0-3.53","63f791692fa22034babcdda1","bdp_rd","Sat Mar 25 2023 20:05:18 GMT-0400 (Eastern Daylight Time)","210337","","null","","","","offerFB","","<div class='trialBorder'><div class='vertical-center'><img style='vertical-align:center; align:center' src=img/fixation3.jpg></div><div class='cl'><div class='vertical-center'><font style='color:orange'>$33<br>with a<br>50% chance</font></div></div><div class='cr'><div class='vertical-center'>$1<br>for<br>sure</div></div><div class='respDivL'><div class='vertical-center'><font style='color:orange'>(E)</font></div></div><div class='respDivR'><div class='vertical-center'>(I)</div></div></div>","null","$1","$33","1","1","33",""
"html-keyboard-response","166","195525","0.0-5.0-1.54","63f791692fa22034babcdda1","bdp_rd","Sat Mar 25 2023 20:05:18 GMT-0400 (Eastern Daylight Time)","210337","","null","","","","FIX","","<div class='trialBorder'><div class='vertical-center'><img style='vertical-align:center; align:center' src=img/fixation3.jpg></div></div>","null","","","","","",""
"html-keyboard-response","167","197362","0.0-5.0-2.54","63f791692fa22034babcdda1","bdp_rd","Sat Mar 25 2023 20:05:18 GMT-0400 (Eastern Daylight Time)","210337","","1836","","","","offer","","<div class='trialBorder'><div class='vertical-center'><img style='vertical-align:center; align:center' src=img/fixation3.jpg></div><div class='cl'><div class='vertical-center'>$24<br>with a<br>50% chance</div></div><div class='cr'><div class='vertical-center'>$13<br>for<br>sure</div></div><div class='respDivL'><div class='vertical-center'>(E)</div></div><div class='respDivR'><div class='vertical-center'>(I)</div></div></div>","I","$13","$24","1","13","24","SURE"
"html-keyboard-response","168","197615","0.0-5.0-3.54","63f791692fa22034babcdda1","bdp_rd","Sat Mar 25 2023 20:05:18 GMT-0400 (Eastern Daylight Time)","210337","","null","","","","offerFB","","<div class='trialBorder'><div class='vertical-center'><img style='vertical-align:center; align:center' src=img/fixation3.jpg></div><div class='cl'><div class='vertical-center'>$24<br>with a<br>50% chance</div></div><div class='cr'><div class='vertical-center'><font style='color:orange'>$13<br>for<br>sure</font></div></div><div class='respDivL'><div class='vertical-center'>(E)</div></div><div class='respDivR'><div class='vertical-center'><font style='color:orange'>(I)</font></div></div></div>","null","$13","$24","1","13","24",""
"html-keyboard-response","169","198117","0.0-5.0-1.55","63f791692fa22034babcdda1","bdp_rd","Sat Mar 25 2023 20:05:18 GMT-0400 (Eastern Daylight Time)","210337","","null","","","","FIX","","<div class='trialBorder'><div class='vertical-center'><img style='vertical-align:center; align:center' src=img/fixation3.jpg></div></div>","null","","","","","",""
"html-keyboard-response","170","199462","0.0-5.0-2.55","63f791692fa22034babcdda1","bdp_rd","Sat Mar 25 2023 20:05:18 GMT-0400 (Eastern Daylight Time)","210337","","1345","","","","offer","","<div class='trialBorder'><div class='vertical-center'><img style='vertical-align:center; align:center' src=img/fixation3.jpg></div><div class='cl'><div class='vertical-center'>$28<br>for<br>sure</div></div><div class='cr'><div class='vertical-center'>$89<br>with a<br>50% chance</div></div><div class='respDivL'><div class='vertical-center'>(E)</div></div><div class='respDivR'><div class='vertical-center'>(I)</div></div></div>","I","$28","$89","0","28","89","RISKY"
"html-keyboard-response","171","199713","0.0-5.0-3.55","63f791692fa22034babcdda1","bdp_rd","Sat Mar 25 2023 20:05:18 GMT-0400 (Eastern Daylight Time)","210337","","null","","","","offerFB","","<div class='trialBorder'><div class='vertical-center'><img style='vertical-align:center; align:center' src=img/fixation3.jpg></div><div class='cl'><div class='vertical-center'>$28<br>for<br>sure</div></div><div class='cr'><div class='vertical-center'><font style='color:orange'>$89<br>with a<br>50% chance</font></div></div><div class='respDivL'><div class='vertical-center'>(E)</div></div><div class='respDivR'><div class='vertical-center'><font style='color:orange'>(I)</font></div></div></div>","null","$28","$89","0","28","89",""
"html-keyboard-response","172","200215","0.0-5.0-1.56","63f791692fa22034babcdda1","bdp_rd","Sat Mar 25 2023 20:05:18 GMT-0400 (Eastern Daylight Time)","210337","","null","","","","FIX","","<div class='trialBorder'><div class='vertical-center'><img style='vertical-align:center; align:center' src=img/fixation3.jpg></div></div>","null","","","","","",""
"html-keyboard-response","173","202009","0.0-5.0-2.56","63f791692fa22034babcdda1","bdp_rd","Sat Mar 25 2023 20:05:18 GMT-0400 (Eastern Daylight Time)","210337","","1792","","","","offer","","<div class='trialBorder'><div class='vertical-center'><img style='vertical-align:center; align:center' src=img/fixation3.jpg></div><div class='cl'><div class='vertical-center'>$23<br>with a<br>50% chance</div></div><div class='cr'><div class='vertical-center'>$8<br>for<br>sure</div></div><div class='respDivL'><div class='vertical-center'>(E)</div></div><div class='respDivR'><div class='vertical-center'>(I)</div></div></div>","E","$8","$23","1","8","23","RISKY"
