"trial_type","trial_index","time_elapsed","internal_node_id","subject_id","task","startTime","totalTime","view_history","rt","event","trial","time","trialtype","success","stimulus","key_press","sureOffer","riskyOffer","riskyLeft","sureAmt","riskyAmt","chosen"
"pavlovia","0","5","0.0-0.0","61282ca83be28773ac7c421f","bdp_rd","Mon Mar 27 2023 14:13:34 GMT-0400 (Eastern Daylight Time)","339288","","","","","","","","","","","","","","",""
"instructions","1","3712","0.0-1.0","61282ca83be28773ac7c421f","bdp_rd","Mon Mar 27 2023 14:13:34 GMT-0400 (Eastern Daylight Time)","339288","[{""page_index"":0,""viewing_time"":3705}]","3706","","","","","","","","","","","","",""
"","","","","61282ca83be28773ac7c421f","bdp_rd","Mon Mar 27 2023 14:13:34 GMT-0400 (Eastern Daylight Time)","339288","","","fullscreenenter","2","6317","fullscreenenter","","","","","","","","",""
"fullscreen","2","7311","0.0-2.0","61282ca83be28773ac7c421f","bdp_rd","Mon Mar 27 2023 14:13:34 GMT-0400 (Eastern Daylight Time)","339288","","","","","","","true","","","","","","","",""
"instructions","3","33419","0.0-4.0","61282ca83be28773ac7c421f","bdp_rd","Mon Mar 27 2023 14:13:34 GMT-0400 (Eastern Daylight Time)","339288","[{""page_index"":0,""viewing_time"":18968},{""page_index"":1,""viewing_time"":4924},{""page_index"":2,""viewing_time"":2214}]","26106","","","","","","","","","","","","",""
"html-keyboard-response","4","33929","0.0-5.0-1.0","61282ca83be28773ac7c421f","bdp_rd","Mon Mar 27 2023 14:13:34 GMT-0400 (Eastern Daylight Time)","339288","","null","","","","FIX","","<div class='trialBorder'><div class='vertical-center'><img style='vertical-align:center; align:center' src=img/fixation3.jpg></div></div>","null","","","","","",""
"html-keyboard-response","5","77596","0.0-5.0-2.0","61282ca83be28773ac7c421f","bdp_rd","Mon Mar 27 2023 14:13:34 GMT-0400 (Eastern Daylight Time)","339288","","43665","","","","offer","","<div class='trialBorder'><div class='vertical-center'><img style='vertical-align:center; align:center' src=img/fixation3.jpg></div><div class='cl'><div class='vertical-center'>$10<br>with a<br>50% chance</div></div><div class='cr'><div class='vertical-center'>$7<br>for<br>sure</div></div><div class='respDivL'><div class='vertical-center'>(E)</div></div><div class='respDivR'><div class='vertical-center'>(I)</div></div></div>","I","$7","$10","1","7","10","SURE"
"html-keyboard-response","6","77855","0.0-5.0-3.0","61282ca83be28773ac7c421f","bdp_rd","Mon Mar 27 2023 14:13:34 GMT-0400 (Eastern Daylight Time)","339288","","null","","","","offerFB","","<div class='trialBorder'><div class='vertical-center'><img style='vertical-align:center; align:center' src=img/fixation3.jpg></div><div class='cl'><div class='vertical-center'>$10<br>with a<br>50% chance</div></div><div class='cr'><div class='vertical-center'><font style='color:orange'>$7<br>for<br>sure</font></div></div><div class='respDivL'><div class='vertical-center'>(E)</div></div><div class='respDivR'><div class='vertical-center'><font style='color:orange'>(I)</font></div></div></div>","null","$7","$10","1","7","10",""
"html-keyboard-response","7","78360","0.0-5.0-1.1","61282ca83be28773ac7c421f","bdp_rd","Mon Mar 27 2023 14:13:34 GMT-0400 (Eastern Daylight Time)","339288","","null","","","","FIX","","<div class='trialBorder'><div class='vertical-center'><img style='vertical-align:center; align:center' src=img/fixation3.jpg></div></div>","null","","","","","",""
"html-keyboard-response","8","84286","0.0-5.0-2.1","61282ca83be28773ac7c421f","bdp_rd","Mon Mar 27 2023 14:13:34 GMT-0400 (Eastern Daylight Time)","339288","","5925","","","","offer","","<div class='trialBorder'><div class='vertical-center'><img style='vertical-align:center; align:center' src=img/fixation3.jpg></div><div class='cl'><div class='vertical-center'>$11<br>with a<br>50% chance</div></div><div class='cr'><div class='vertical-center'>$4<br>for<br>sure</div></div><div class='respDivL'><div class='vertical-center'>(E)</div></div><div class='respDivR'><div class='vertical-center'>(I)</div></div></div>","I","$4","$11","1","4","11","SURE"
"html-keyboard-response","9","84544","0.0-5.0-3.1","61282ca83be28773ac7c421f","bdp_rd","Mon Mar 27 2023 14:13:34 GMT-0400 (Eastern Daylight Time)","339288","","null","","","","offerFB","","<div class='trialBorder'><div class='vertical-center'><img style='vertical-align:center; align:center' src=img/fixation3.jpg></div><div class='cl'><div class='vertical-center'>$11<br>with a<br>50% chance</div></div><div class='cr'><div class='vertical-center'><font style='color:orange'>$4<br>for<br>sure</font></div></div><div class='respDivL'><div class='vertical-center'>(E)</div></div><div class='respDivR'><div class='vertical-center'><font style='color:orange'>(I)</font></div></div></div>","null","$4","$11","1","4","11",""
"html-keyboard-response","10","85048","0.0-5.0-1.2","61282ca83be28773ac7c421f","bdp_rd","Mon Mar 27 2023 14:13:34 GMT-0400 (Eastern Daylight Time)","339288","","null","","","","FIX","","<div class='trialBorder'><div class='vertical-center'><img style='vertical-align:center; align:center' src=img/fixation3.jpg></div></div>","null","","","","","",""
"html-keyboard-response","11","91815","0.0-5.0-2.2","61282ca83be28773ac7c421f","bdp_rd","Mon Mar 27 2023 14:13:34 GMT-0400 (Eastern Daylight Time)","339288","","6767","","","","offer","","<div class='trialBorder'><div class='vertical-center'><img style='vertical-align:center; align:center' src=img/fixation3.jpg></div><div class='cl'><div class='vertical-center'>$14<br>for<br>sure</div></div><div class='cr'><div class='vertical-center'>$22<br>with a<br>50% chance</div></div><div class='respDivL'><div class='vertical-center'>(E)</div></div><div class='respDivR'><div class='vertical-center'>(I)</div></div></div>","E","$14","$22","0","14","22","SURE"
"html-keyboard-response","12","92072","0.0-5.0-3.2","61282ca83be28773ac7c421f","bdp_rd","Mon Mar 27 2023 14:13:34 GMT-0400 (Eastern Daylight Time)","339288","","null","","","","offerFB","","<div class='trialBorder'><div class='vertical-center'><img style='vertical-align:center; align:center' src=img/fixation3.jpg></div><div class='cl'><div class='vertical-center'><font style='color:orange'>$14<br>for<br>sure</font></div></div><div class='cr'><div class='vertical-center'>$22<br>with a<br>50% chance</div></div><div class='respDivL'><div class='vertical-center'><font style='color:orange'>(E)</font></div></div><div class='respDivR'><div class='vertical-center'>(I)</div></div></div>","null","$14","$22","0","14","22",""
"html-keyboard-response","13","92575","0.0-5.0-1.3","61282ca83be28773ac7c421f","bdp_rd","Mon Mar 27 2023 14:13:34 GMT-0400 (Eastern Daylight Time)","339288","","null","","","","FIX","","<div class='trialBorder'><div class='vertical-center'><img style='vertical-align:center; align:center' src=img/fixation3.jpg></div></div>","null","","","","","",""
"html-keyboard-response","14","96982","0.0-5.0-2.3","61282ca83be28773ac7c421f","bdp_rd","Mon Mar 27 2023 14:13:34 GMT-0400 (Eastern Daylight Time)","339288","","4405","","","","offer","","<div class='trialBorder'><div class='vertical-center'><img style='vertical-align:center; align:center' src=img/fixation3.jpg></div><div class='cl'><div class='vertical-center'>$11<br>for<br>sure</div></div><div class='cr'><div class='vertical-center'>$26<br>with a<br>50% chance</div></div><div class='respDivL'><div class='vertical-center'>(E)</div></div><div class='respDivR'><div class='vertical-center'>(I)</div></div></div>","E","$11","$26","0","11","26","SURE"
"html-keyboard-response","15","97240","0.0-5.0-3.3","61282ca83be28773ac7c421f","bdp_rd","Mon Mar 27 2023 14:13:34 GMT-0400 (Eastern Daylight Time)","339288","","null","","","","offerFB","","<div class='trialBorder'><div class='vertical-center'><img style='vertical-align:center; align:center' src=img/fixation3.jpg></div><div class='cl'><div class='vertical-center'><font style='color:orange'>$11<br>for<br>sure</font></div></div><div class='cr'><div class='vertical-center'>$26<br>with a<br>50% chance</div></div><div class='respDivL'><div class='vertical-center'><font style='color:orange'>(E)</font></div></div><div class='respDivR'><div class='vertical-center'>(I)</div></div></div>","null","$11","$26","0","11","26",""
"html-keyboard-response","16","97743","0.0-5.0-1.4","61282ca83be28773ac7c421f","bdp_rd","Mon Mar 27 2023 14:13:34 GMT-0400 (Eastern Daylight Time)","339288","","null","","","","FIX","","<div class='trialBorder'><div class='vertical-center'><img style='vertical-align:center; align:center' src=img/fixation3.jpg></div></div>","null","","","","","",""
"html-keyboard-response","17","101889","0.0-5.0-2.4","61282ca83be28773ac7c421f","bdp_rd","Mon Mar 27 2023 14:13:34 GMT-0400 (Eastern Daylight Time)","339288","","4145","","","","offer","","<div class='trialBorder'><div class='vertical-center'><img style='vertical-align:center; align:center' src=img/fixation3.jpg></div><div class='cl'><div class='vertical-center'>$9<br>for<br>sure</div></div><div class='cr'><div class='vertical-center'>$18<br>with a<br>50% chance</div></div><div class='respDivL'><div class='vertical-center'>(E)</div></div><div class='respDivR'><div class='vertical-center'>(I)</div></div></div>","E","$9","$18","0","9","18","SURE"
"html-keyboard-response","18","102144","0.0-5.0-3.4","61282ca83be28773ac7c421f","bdp_rd","Mon Mar 27 2023 14:13:34 GMT-0400 (Eastern Daylight Time)","339288","","null","","","","offerFB","","<div class='trialBorder'><div class='vertical-center'><img style='vertical-align:center; align:center' src=img/fixation3.jpg></div><div class='cl'><div class='vertical-center'><font style='color:orange'>$9<br>for<br>sure</font></div></div><div class='cr'><div class='vertical-center'>$18<br>with a<br>50% chance</div></div><div class='respDivL'><div class='vertical-center'><font style='color:orange'>(E)</font></div></div><div class='respDivR'><div class='vertical-center'>(I)</div></div></div>","null","$9","$18","0","9","18",""
"html-keyboard-response","19","102648","0.0-5.0-1.5","61282ca83be28773ac7c421f","bdp_rd","Mon Mar 27 2023 14:13:34 GMT-0400 (Eastern Daylight Time)","339288","","null","","","","FIX","","<div class='trialBorder'><div class='vertical-center'><img style='vertical-align:center; align:center' src=img/fixation3.jpg></div></div>","null","","","","","",""
"html-keyboard-response","20","105914","0.0-5.0-2.5","61282ca83be28773ac7c421f","bdp_rd","Mon Mar 27 2023 14:13:34 GMT-0400 (Eastern Daylight Time)","339288","","3266","","","","offer","","<div class='trialBorder'><div class='vertical-center'><img style='vertical-align:center; align:center' src=img/fixation3.jpg></div><div class='cl'><div class='vertical-center'>$71<br>with a<br>50% chance</div></div><div class='cr'><div class='vertical-center'>$7<br>for<br>sure</div></div><div class='respDivL'><div class='vertical-center'>(E)</div></div><div class='respDivR'><div class='vertical-center'>(I)</div></div></div>","E","$7","$71","1","7","71","RISKY"
"html-keyboard-response","21","106168","0.0-5.0-3.5","61282ca83be28773ac7c421f","bdp_rd","Mon Mar 27 2023 14:13:34 GMT-0400 (Eastern Daylight Time)","339288","","null","","","","offerFB","","<div class='trialBorder'><div class='vertical-center'><img style='vertical-align:center; align:center' src=img/fixation3.jpg></div><div class='cl'><div class='vertical-center'><font style='color:orange'>$71<br>with a<br>50% chance</font></div></div><div class='cr'><div class='vertical-center'>$7<br>for<br>sure</div></div><div class='respDivL'><div class='vertical-center'><font style='color:orange'>(E)</font></div></div><div class='respDivR'><div class='vertical-center'>(I)</div></div></div>","null","$7","$71","1","7","71",""
"html-keyboard-response","22","106671","0.0-5.0-1.6","61282ca83be28773ac7c421f","bdp_rd","Mon Mar 27 2023 14:13:34 GMT-0400 (Eastern Daylight Time)","339288","","null","","","","FIX","","<div class='trialBorder'><div class='vertical-center'><img style='vertical-align:center; align:center' src=img/fixation3.jpg></div></div>","null","","","","","",""
"html-keyboard-response","23","109262","0.0-5.0-2.6","61282ca83be28773ac7c421f","bdp_rd","Mon Mar 27 2023 14:13:34 GMT-0400 (Eastern Daylight Time)","339288","","2588","","","","offer","","<div class='trialBorder'><div class='vertical-center'><img style='vertical-align:center; align:center' src=img/fixation3.jpg></div><div class='cl'><div class='vertical-center'>$10<br>for<br>sure</div></div><div class='cr'><div class='vertical-center'>$19<br>with a<br>50% chance</div></div><div class='respDivL'><div class='vertical-center'>(E)</div></div><div class='respDivR'><div class='vertical-center'>(I)</div></div></div>","E","$10","$19","0","10","19","SURE"
"html-keyboard-response","24","109519","0.0-5.0-3.6","61282ca83be28773ac7c421f","bdp_rd","Mon Mar 27 2023 14:13:34 GMT-0400 (Eastern Daylight Time)","339288","","null","","","","offerFB","","<div class='trialBorder'><div class='vertical-center'><img style='vertical-align:center; align:center' src=img/fixation3.jpg></div><div class='cl'><div class='vertical-center'><font style='color:orange'>$10<br>for<br>sure</font></div></div><div class='cr'><div class='vertical-center'>$19<br>with a<br>50% chance</div></div><div class='respDivL'><div class='vertical-center'><font style='color:orange'>(E)</font></div></div><div class='respDivR'><div class='vertical-center'>(I)</div></div></div>","null","$10","$19","0","10","19",""
"html-keyboard-response","25","110023","0.0-5.0-1.7","61282ca83be28773ac7c421f","bdp_rd","Mon Mar 27 2023 14:13:34 GMT-0400 (Eastern Daylight Time)","339288","","null","","","","FIX","","<div class='trialBorder'><div class='vertical-center'><img style='vertical-align:center; align:center' src=img/fixation3.jpg></div></div>","null","","","","","",""
"html-keyboard-response","26","112594","0.0-5.0-2.7","61282ca83be28773ac7c421f","bdp_rd","Mon Mar 27 2023 14:13:34 GMT-0400 (Eastern Daylight Time)","339288","","2569","","","","offer","","<div class='trialBorder'><div class='vertical-center'><img style='vertical-align:center; align:center' src=img/fixation3.jpg></div><div class='cl'><div class='vertical-center'>$16<br>for<br>sure</div></div><div class='cr'><div class='vertical-center'>$38<br>with a<br>50% chance</div></div><div class='respDivL'><div class='vertical-center'>(E)</div></div><div class='respDivR'><div class='vertical-center'>(I)</div></div></div>","E","$16","$38","0","16","38","SURE"
"html-keyboard-response","27","112847","0.0-5.0-3.7","61282ca83be28773ac7c421f","bdp_rd","Mon Mar 27 2023 14:13:34 GMT-0400 (Eastern Daylight Time)","339288","","null","","","","offerFB","","<div class='trialBorder'><div class='vertical-center'><img style='vertical-align:center; align:center' src=img/fixation3.jpg></div><div class='cl'><div class='vertical-center'><font style='color:orange'>$16<br>for<br>sure</font></div></div><div class='cr'><div class='vertical-center'>$38<br>with a<br>50% chance</div></div><div class='respDivL'><div class='vertical-center'><font style='color:orange'>(E)</font></div></div><div class='respDivR'><div class='vertical-center'>(I)</div></div></div>","null","$16","$38","0","16","38",""
"html-keyboard-response","28","113351","0.0-5.0-1.8","61282ca83be28773ac7c421f","bdp_rd","Mon Mar 27 2023 14:13:34 GMT-0400 (Eastern Daylight Time)","339288","","null","","","","FIX","","<div class='trialBorder'><div class='vertical-center'><img style='vertical-align:center; align:center' src=img/fixation3.jpg></div></div>","null","","","","","",""
"html-keyboard-response","29","117340","0.0-5.0-2.8","61282ca83be28773ac7c421f","bdp_rd","Mon Mar 27 2023 14:13:34 GMT-0400 (Eastern Daylight Time)","339288","","3988","","","","offer","","<div class='trialBorder'><div class='vertical-center'><img style='vertical-align:center; align:center' src=img/fixation3.jpg></div><div class='cl'><div class='vertical-center'>$12<br>for<br>sure</div></div><div class='cr'><div class='vertical-center'>$27<br>with a<br>50% chance</div></div><div class='respDivL'><div class='vertical-center'>(E)</div></div><div class='respDivR'><div class='vertical-center'>(I)</div></div></div>","E","$12","$27","0","12","27","SURE"
"html-keyboard-response","30","117600","0.0-5.0-3.8","61282ca83be28773ac7c421f","bdp_rd","Mon Mar 27 2023 14:13:34 GMT-0400 (Eastern Daylight Time)","339288","","null","","","","offerFB","","<div class='trialBorder'><div class='vertical-center'><img style='vertical-align:center; align:center' src=img/fixation3.jpg></div><div class='cl'><div class='vertical-center'><font style='color:orange'>$12<br>for<br>sure</font></div></div><div class='cr'><div class='vertical-center'>$27<br>with a<br>50% chance</div></div><div class='respDivL'><div class='vertical-center'><font style='color:orange'>(E)</font></div></div><div class='respDivR'><div class='vertical-center'>(I)</div></div></div>","null","$12","$27","0","12","27",""
"html-keyboard-response","31","118103","0.0-5.0-1.9","61282ca83be28773ac7c421f","bdp_rd","Mon Mar 27 2023 14:13:34 GMT-0400 (Eastern Daylight Time)","339288","","null","","","","FIX","","<div class='trialBorder'><div class='vertical-center'><img style='vertical-align:center; align:center' src=img/fixation3.jpg></div></div>","null","","","","","",""
"html-keyboard-response","32","121159","0.0-5.0-2.9","61282ca83be28773ac7c421f","bdp_rd","Mon Mar 27 2023 14:13:34 GMT-0400 (Eastern Daylight Time)","339288","","3055","","","","offer","","<div class='trialBorder'><div class='vertical-center'><img style='vertical-align:center; align:center' src=img/fixation3.jpg></div><div class='cl'><div class='vertical-center'>$37<br>with a<br>50% chance</div></div><div class='cr'><div class='vertical-center'>$20<br>for<br>sure</div></div><div class='respDivL'><div class='vertical-center'>(E)</div></div><div class='respDivR'><div class='vertical-center'>(I)</div></div></div>","I","$20","$37","1","20","37","SURE"
"html-keyboard-response","33","121416","0.0-5.0-3.9","61282ca83be28773ac7c421f","bdp_rd","Mon Mar 27 2023 14:13:34 GMT-0400 (Eastern Daylight Time)","339288","","null","","","","offerFB","","<div class='trialBorder'><div class='vertical-center'><img style='vertical-align:center; align:center' src=img/fixation3.jpg></div><div class='cl'><div class='vertical-center'>$37<br>with a<br>50% chance</div></div><div class='cr'><div class='vertical-center'><font style='color:orange'>$20<br>for<br>sure</font></div></div><div class='respDivL'><div class='vertical-center'>(E)</div></div><div class='respDivR'><div class='vertical-center'><font style='color:orange'>(I)</font></div></div></div>","null","$20","$37","1","20","37",""
"html-keyboard-response","34","121919","0.0-5.0-1.10","61282ca83be28773ac7c421f","bdp_rd","Mon Mar 27 2023 14:13:34 GMT-0400 (Eastern Daylight Time)","339288","","null","","","","FIX","","<div class='trialBorder'><div class='vertical-center'><img style='vertical-align:center; align:center' src=img/fixation3.jpg></div></div>","null","","","","","",""
"html-keyboard-response","35","124483","0.0-5.0-2.10","61282ca83be28773ac7c421f","bdp_rd","Mon Mar 27 2023 14:13:34 GMT-0400 (Eastern Daylight Time)","339288","","2563","","","","offer","","<div class='trialBorder'><div class='vertical-center'><img style='vertical-align:center; align:center' src=img/fixation3.jpg></div><div class='cl'><div class='vertical-center'>$1<br>for<br>sure</div></div><div class='cr'><div class='vertical-center'>$33<br>with a<br>50% chance</div></div><div class='respDivL'><div class='vertical-center'>(E)</div></div><div class='respDivR'><div class='vertical-center'>(I)</div></div></div>","I","$1","$33","0","1","33","RISKY"
"html-keyboard-response","36","124735","0.0-5.0-3.10","61282ca83be28773ac7c421f","bdp_rd","Mon Mar 27 2023 14:13:34 GMT-0400 (Eastern Daylight Time)","339288","","null","","","","offerFB","","<div class='trialBorder'><div class='vertical-center'><img style='vertical-align:center; align:center' src=img/fixation3.jpg></div><div class='cl'><div class='vertical-center'>$1<br>for<br>sure</div></div><div class='cr'><div class='vertical-center'><font style='color:orange'>$33<br>with a<br>50% chance</font></div></div><div class='respDivL'><div class='vertical-center'>(E)</div></div><div class='respDivR'><div class='vertical-center'><font style='color:orange'>(I)</font></div></div></div>","null","$1","$33","0","1","33",""
"html-keyboard-response","37","125239","0.0-5.0-1.11","61282ca83be28773ac7c421f","bdp_rd","Mon Mar 27 2023 14:13:34 GMT-0400 (Eastern Daylight Time)","339288","","null","","","","FIX","","<div class='trialBorder'><div class='vertical-center'><img style='vertical-align:center; align:center' src=img/fixation3.jpg></div></div>","null","","","","","",""
"html-keyboard-response","38","130864","0.0-5.0-2.11","61282ca83be28773ac7c421f","bdp_rd","Mon Mar 27 2023 14:13:34 GMT-0400 (Eastern Daylight Time)","339288","","5624","","","","offer","","<div class='trialBorder'><div class='vertical-center'><img style='vertical-align:center; align:center' src=img/fixation3.jpg></div><div class='cl'><div class='vertical-center'>$23<br>with a<br>50% chance</div></div><div class='cr'><div class='vertical-center'>$8<br>for<br>sure</div></div><div class='respDivL'><div class='vertical-center'>(E)</div></div><div class='respDivR'><div class='vertical-center'>(I)</div></div></div>","I","$8","$23","1","8","23","SURE"
"html-keyboard-response","39","131120","0.0-5.0-3.11","61282ca83be28773ac7c421f","bdp_rd","Mon Mar 27 2023 14:13:34 GMT-0400 (Eastern Daylight Time)","339288","","null","","","","offerFB","","<div class='trialBorder'><div class='vertical-center'><img style='vertical-align:center; align:center' src=img/fixation3.jpg></div><div class='cl'><div class='vertical-center'>$23<br>with a<br>50% chance</div></div><div class='cr'><div class='vertical-center'><font style='color:orange'>$8<br>for<br>sure</font></div></div><div class='respDivL'><div class='vertical-center'>(E)</div></div><div class='respDivR'><div class='vertical-center'><font style='color:orange'>(I)</font></div></div></div>","null","$8","$23","1","8","23",""
"html-keyboard-response","40","131623","0.0-5.0-1.12","61282ca83be28773ac7c421f","bdp_rd","Mon Mar 27 2023 14:13:34 GMT-0400 (Eastern Daylight Time)","339288","","null","","","","FIX","","<div class='trialBorder'><div class='vertical-center'><img style='vertical-align:center; align:center' src=img/fixation3.jpg></div></div>","null","","","","","",""
"html-keyboard-response","41","136011","0.0-5.0-2.12","61282ca83be28773ac7c421f","bdp_rd","Mon Mar 27 2023 14:13:34 GMT-0400 (Eastern Daylight Time)","339288","","4387","","","","offer","","<div class='trialBorder'><div class='vertical-center'><img style='vertical-align:center; align:center' src=img/fixation3.jpg></div><div class='cl'><div class='vertical-center'>$12<br>for<br>sure</div></div><div class='cr'><div class='vertical-center'>$35<br>with a<br>50% chance</div></div><div class='respDivL'><div class='vertical-center'>(E)</div></div><div class='respDivR'><div class='vertical-center'>(I)</div></div></div>","E","$12","$35","0","12","35","SURE"
"html-keyboard-response","42","136272","0.0-5.0-3.12","61282ca83be28773ac7c421f","bdp_rd","Mon Mar 27 2023 14:13:34 GMT-0400 (Eastern Daylight Time)","339288","","null","","","","offerFB","","<div class='trialBorder'><div class='vertical-center'><img style='vertical-align:center; align:center' src=img/fixation3.jpg></div><div class='cl'><div class='vertical-center'><font style='color:orange'>$12<br>for<br>sure</font></div></div><div class='cr'><div class='vertical-center'>$35<br>with a<br>50% chance</div></div><div class='respDivL'><div class='vertical-center'><font style='color:orange'>(E)</font></div></div><div class='respDivR'><div class='vertical-center'>(I)</div></div></div>","null","$12","$35","0","12","35",""
"html-keyboard-response","43","136775","0.0-5.0-1.13","61282ca83be28773ac7c421f","bdp_rd","Mon Mar 27 2023 14:13:34 GMT-0400 (Eastern Daylight Time)","339288","","null","","","","FIX","","<div class='trialBorder'><div class='vertical-center'><img style='vertical-align:center; align:center' src=img/fixation3.jpg></div></div>","null","","","","","",""
"html-keyboard-response","44","139211","0.0-5.0-2.13","61282ca83be28773ac7c421f","bdp_rd","Mon Mar 27 2023 14:13:34 GMT-0400 (Eastern Daylight Time)","339288","","2435","","","","offer","","<div class='trialBorder'><div class='vertical-center'><img style='vertical-align:center; align:center' src=img/fixation3.jpg></div><div class='cl'><div class='vertical-center'>$18<br>for<br>sure</div></div><div class='cr'><div class='vertical-center'>$39<br>with a<br>50% chance</div></div><div class='respDivL'><div class='vertical-center'>(E)</div></div><div class='respDivR'><div class='vertical-center'>(I)</div></div></div>","E","$18","$39","0","18","39","SURE"
"html-keyboard-response","45","139464","0.0-5.0-3.13","61282ca83be28773ac7c421f","bdp_rd","Mon Mar 27 2023 14:13:34 GMT-0400 (Eastern Daylight Time)","339288","","null","","","","offerFB","","<div class='trialBorder'><div class='vertical-center'><img style='vertical-align:center; align:center' src=img/fixation3.jpg></div><div class='cl'><div class='vertical-center'><font style='color:orange'>$18<br>for<br>sure</font></div></div><div class='cr'><div class='vertical-center'>$39<br>with a<br>50% chance</div></div><div class='respDivL'><div class='vertical-center'><font style='color:orange'>(E)</font></div></div><div class='respDivR'><div class='vertical-center'>(I)</div></div></div>","null","$18","$39","0","18","39",""
"html-keyboard-response","46","139967","0.0-5.0-1.14","61282ca83be28773ac7c421f","bdp_rd","Mon Mar 27 2023 14:13:34 GMT-0400 (Eastern Daylight Time)","339288","","null","","","","FIX","","<div class='trialBorder'><div class='vertical-center'><img style='vertical-align:center; align:center' src=img/fixation3.jpg></div></div>","null","","","","","",""
"html-keyboard-response","47","149542","0.0-5.0-2.14","61282ca83be28773ac7c421f","bdp_rd","Mon Mar 27 2023 14:13:34 GMT-0400 (Eastern Daylight Time)","339288","","9574","","","","offer","","<div class='trialBorder'><div class='vertical-center'><img style='vertical-align:center; align:center' src=img/fixation3.jpg></div><div class='cl'><div class='vertical-center'>$17<br>for<br>sure</div></div><div class='cr'><div class='vertical-center'>$43<br>with a<br>50% chance</div></div><div class='respDivL'><div class='vertical-center'>(E)</div></div><div class='respDivR'><div class='vertical-center'>(I)</div></div></div>","E","$17","$43","0","17","43","SURE"
"html-keyboard-response","48","149800","0.0-5.0-3.14","61282ca83be28773ac7c421f","bdp_rd","Mon Mar 27 2023 14:13:34 GMT-0400 (Eastern Daylight Time)","339288","","null","","","","offerFB","","<div class='trialBorder'><div class='vertical-center'><img style='vertical-align:center; align:center' src=img/fixation3.jpg></div><div class='cl'><div class='vertical-center'><font style='color:orange'>$17<br>for<br>sure</font></div></div><div class='cr'><div class='vertical-center'>$43<br>with a<br>50% chance</div></div><div class='respDivL'><div class='vertical-center'><font style='color:orange'>(E)</font></div></div><div class='respDivR'><div class='vertical-center'>(I)</div></div></div>","null","$17","$43","0","17","43",""
"html-keyboard-response","49","150303","0.0-5.0-1.15","61282ca83be28773ac7c421f","bdp_rd","Mon Mar 27 2023 14:13:34 GMT-0400 (Eastern Daylight Time)","339288","","null","","","","FIX","","<div class='trialBorder'><div class='vertical-center'><img style='vertical-align:center; align:center' src=img/fixation3.jpg></div></div>","null","","","","","",""
"html-keyboard-response","50","152831","0.0-5.0-2.15","61282ca83be28773ac7c421f","bdp_rd","Mon Mar 27 2023 14:13:34 GMT-0400 (Eastern Daylight Time)","339288","","2527","","","","offer","","<div class='trialBorder'><div class='vertical-center'><img style='vertical-align:center; align:center' src=img/fixation3.jpg></div><div class='cl'><div class='vertical-center'>$29<br>for<br>sure</div></div><div class='cr'><div class='vertical-center'>$46<br>with a<br>50% chance</div></div><div class='respDivL'><div class='vertical-center'>(E)</div></div><div class='respDivR'><div class='vertical-center'>(I)</div></div></div>","E","$29","$46","0","29","46","SURE"
"html-keyboard-response","51","153087","0.0-5.0-3.15","61282ca83be28773ac7c421f","bdp_rd","Mon Mar 27 2023 14:13:34 GMT-0400 (Eastern Daylight Time)","339288","","null","","","","offerFB","","<div class='trialBorder'><div class='vertical-center'><img style='vertical-align:center; align:center' src=img/fixation3.jpg></div><div class='cl'><div class='vertical-center'><font style='color:orange'>$29<br>for<br>sure</font></div></div><div class='cr'><div class='vertical-center'>$46<br>with a<br>50% chance</div></div><div class='respDivL'><div class='vertical-center'><font style='color:orange'>(E)</font></div></div><div class='respDivR'><div class='vertical-center'>(I)</div></div></div>","null","$29","$46","0","29","46",""
"html-keyboard-response","52","153592","0.0-5.0-1.16","61282ca83be28773ac7c421f","bdp_rd","Mon Mar 27 2023 14:13:34 GMT-0400 (Eastern Daylight Time)","339288","","null","","","","FIX","","<div class='trialBorder'><div class='vertical-center'><img style='vertical-align:center; align:center' src=img/fixation3.jpg></div></div>","null","","","","","",""
"html-keyboard-response","53","158982","0.0-5.0-2.16","61282ca83be28773ac7c421f","bdp_rd","Mon Mar 27 2023 14:13:34 GMT-0400 (Eastern Daylight Time)","339288","","5389","","","","offer","","<div class='trialBorder'><div class='vertical-center'><img style='vertical-align:center; align:center' src=img/fixation3.jpg></div><div class='cl'><div class='vertical-center'>$18<br>for<br>sure</div></div><div class='cr'><div class='vertical-center'>$36<br>with a<br>50% chance</div></div><div class='respDivL'><div class='vertical-center'>(E)</div></div><div class='respDivR'><div class='vertical-center'>(I)</div></div></div>","E","$18","$36","0","18","36","SURE"
"html-keyboard-response","54","159239","0.0-5.0-3.16","61282ca83be28773ac7c421f","bdp_rd","Mon Mar 27 2023 14:13:34 GMT-0400 (Eastern Daylight Time)","339288","","null","","","","offerFB","","<div class='trialBorder'><div class='vertical-center'><img style='vertical-align:center; align:center' src=img/fixation3.jpg></div><div class='cl'><div class='vertical-center'><font style='color:orange'>$18<br>for<br>sure</font></div></div><div class='cr'><div class='vertical-center'>$36<br>with a<br>50% chance</div></div><div class='respDivL'><div class='vertical-center'><font style='color:orange'>(E)</font></div></div><div class='respDivR'><div class='vertical-center'>(I)</div></div></div>","null","$18","$36","0","18","36",""
"html-keyboard-response","55","159743","0.0-5.0-1.17","61282ca83be28773ac7c421f","bdp_rd","Mon Mar 27 2023 14:13:34 GMT-0400 (Eastern Daylight Time)","339288","","null","","","","FIX","","<div class='trialBorder'><div class='vertical-center'><img style='vertical-align:center; align:center' src=img/fixation3.jpg></div></div>","null","","","","","",""
"html-keyboard-response","56","162652","0.0-5.0-2.17","61282ca83be28773ac7c421f","bdp_rd","Mon Mar 27 2023 14:13:34 GMT-0400 (Eastern Daylight Time)","339288","","2907","","","","offer","","<div class='trialBorder'><div class='vertical-center'><img style='vertical-align:center; align:center' src=img/fixation3.jpg></div><div class='cl'><div class='vertical-center'>$62<br>with a<br>50% chance</div></div><div class='cr'><div class='vertical-center'>$11<br>for<br>sure</div></div><div class='respDivL'><div class='vertical-center'>(E)</div></div><div class='respDivR'><div class='vertical-center'>(I)</div></div></div>","E","$11","$62","1","11","62","RISKY"
"html-keyboard-response","57","162912","0.0-5.0-3.17","61282ca83be28773ac7c421f","bdp_rd","Mon Mar 27 2023 14:13:34 GMT-0400 (Eastern Daylight Time)","339288","","null","","","","offerFB","","<div class='trialBorder'><div class='vertical-center'><img style='vertical-align:center; align:center' src=img/fixation3.jpg></div><div class='cl'><div class='vertical-center'><font style='color:orange'>$62<br>with a<br>50% chance</font></div></div><div class='cr'><div class='vertical-center'>$11<br>for<br>sure</div></div><div class='respDivL'><div class='vertical-center'><font style='color:orange'>(E)</font></div></div><div class='respDivR'><div class='vertical-center'>(I)</div></div></div>","null","$11","$62","1","11","62",""
"html-keyboard-response","58","163415","0.0-5.0-1.18","61282ca83be28773ac7c421f","bdp_rd","Mon Mar 27 2023 14:13:34 GMT-0400 (Eastern Daylight Time)","339288","","null","","","","FIX","","<div class='trialBorder'><div class='vertical-center'><img style='vertical-align:center; align:center' src=img/fixation3.jpg></div></div>","null","","","","","",""
"html-keyboard-response","59","166789","0.0-5.0-2.18","61282ca83be28773ac7c421f","bdp_rd","Mon Mar 27 2023 14:13:34 GMT-0400 (Eastern Daylight Time)","339288","","3373","","","","offer","","<div class='trialBorder'><div class='vertical-center'><img style='vertical-align:center; align:center' src=img/fixation3.jpg></div><div class='cl'><div class='vertical-center'>$10<br>for<br>sure</div></div><div class='cr'><div class='vertical-center'>$40<br>with a<br>50% chance</div></div><div class='respDivL'><div class='vertical-center'>(E)</div></div><div class='respDivR'><div class='vertical-center'>(I)</div></div></div>","I","$10","$40","0","10","40","RISKY"
"html-keyboard-response","60","167047","0.0-5.0-3.18","61282ca83be28773ac7c421f","bdp_rd","Mon Mar 27 2023 14:13:34 GMT-0400 (Eastern Daylight Time)","339288","","null","","","","offerFB","","<div class='trialBorder'><div class='vertical-center'><img style='vertical-align:center; align:center' src=img/fixation3.jpg></div><div class='cl'><div class='vertical-center'>$10<br>for<br>sure</div></div><div class='cr'><div class='vertical-center'><font style='color:orange'>$40<br>with a<br>50% chance</font></div></div><div class='respDivL'><div class='vertical-center'>(E)</div></div><div class='respDivR'><div class='vertical-center'><font style='color:orange'>(I)</font></div></div></div>","null","$10","$40","0","10","40",""
"html-keyboard-response","61","167552","0.0-5.0-1.19","61282ca83be28773ac7c421f","bdp_rd","Mon Mar 27 2023 14:13:34 GMT-0400 (Eastern Daylight Time)","339288","","null","","","","FIX","","<div class='trialBorder'><div class='vertical-center'><img style='vertical-align:center; align:center' src=img/fixation3.jpg></div></div>","null","","","","","",""
"html-keyboard-response","62","169467","0.0-5.0-2.19","61282ca83be28773ac7c421f","bdp_rd","Mon Mar 27 2023 14:13:34 GMT-0400 (Eastern Daylight Time)","339288","","1914","","","","offer","","<div class='trialBorder'><div class='vertical-center'><img style='vertical-align:center; align:center' src=img/fixation3.jpg></div><div class='cl'><div class='vertical-center'>$24<br>for<br>sure</div></div><div class='cr'><div class='vertical-center'>$70<br>with a<br>50% chance</div></div><div class='respDivL'><div class='vertical-center'>(E)</div></div><div class='respDivR'><div class='vertical-center'>(I)</div></div></div>","I","$24","$70","0","24","70","RISKY"
"html-keyboard-response","63","169720","0.0-5.0-3.19","61282ca83be28773ac7c421f","bdp_rd","Mon Mar 27 2023 14:13:34 GMT-0400 (Eastern Daylight Time)","339288","","null","","","","offerFB","","<div class='trialBorder'><div class='vertical-center'><img style='vertical-align:center; align:center' src=img/fixation3.jpg></div><div class='cl'><div class='vertical-center'>$24<br>for<br>sure</div></div><div class='cr'><div class='vertical-center'><font style='color:orange'>$70<br>with a<br>50% chance</font></div></div><div class='respDivL'><div class='vertical-center'>(E)</div></div><div class='respDivR'><div class='vertical-center'><font style='color:orange'>(I)</font></div></div></div>","null","$24","$70","0","24","70",""
"html-keyboard-response","64","170223","0.0-5.0-1.20","61282ca83be28773ac7c421f","bdp_rd","Mon Mar 27 2023 14:13:34 GMT-0400 (Eastern Daylight Time)","339288","","null","","","","FIX","","<div class='trialBorder'><div class='vertical-center'><img style='vertical-align:center; align:center' src=img/fixation3.jpg></div></div>","null","","","","","",""
"html-keyboard-response","65","172274","0.0-5.0-2.20","61282ca83be28773ac7c421f","bdp_rd","Mon Mar 27 2023 14:13:34 GMT-0400 (Eastern Daylight Time)","339288","","2049","","","","offer","","<div class='trialBorder'><div class='vertical-center'><img style='vertical-align:center; align:center' src=img/fixation3.jpg></div><div class='cl'><div class='vertical-center'>$42<br>with a<br>50% chance</div></div><div class='cr'><div class='vertical-center'>$22<br>for<br>sure</div></div><div class='respDivL'><div class='vertical-center'>(E)</div></div><div class='respDivR'><div class='vertical-center'>(I)</div></div></div>","I","$22","$42","1","22","42","SURE"
"html-keyboard-response","66","172527","0.0-5.0-3.20","61282ca83be28773ac7c421f","bdp_rd","Mon Mar 27 2023 14:13:34 GMT-0400 (Eastern Daylight Time)","339288","","null","","","","offerFB","","<div class='trialBorder'><div class='vertical-center'><img style='vertical-align:center; align:center' src=img/fixation3.jpg></div><div class='cl'><div class='vertical-center'>$42<br>with a<br>50% chance</div></div><div class='cr'><div class='vertical-center'><font style='color:orange'>$22<br>for<br>sure</font></div></div><div class='respDivL'><div class='vertical-center'>(E)</div></div><div class='respDivR'><div class='vertical-center'><font style='color:orange'>(I)</font></div></div></div>","null","$22","$42","1","22","42",""
"html-keyboard-response","67","173032","0.0-5.0-1.21","61282ca83be28773ac7c421f","bdp_rd","Mon Mar 27 2023 14:13:34 GMT-0400 (Eastern Daylight Time)","339288","","null","","","","FIX","","<div class='trialBorder'><div class='vertical-center'><img style='vertical-align:center; align:center' src=img/fixation3.jpg></div></div>","null","","","","","",""
"html-keyboard-response","68","184136","0.0-5.0-2.21","61282ca83be28773ac7c421f","bdp_rd","Mon Mar 27 2023 14:13:34 GMT-0400 (Eastern Daylight Time)","339288","","11103","","","","offer","","<div class='trialBorder'><div class='vertical-center'><img style='vertical-align:center; align:center' src=img/fixation3.jpg></div><div class='cl'><div class='vertical-center'>$95<br>with a<br>50% chance</div></div><div class='cr'><div class='vertical-center'>$40<br>for<br>sure</div></div><div class='respDivL'><div class='vertical-center'>(E)</div></div><div class='respDivR'><div class='vertical-center'>(I)</div></div></div>","I","$40","$95","1","40","95","SURE"
"html-keyboard-response","69","184392","0.0-5.0-3.21","61282ca83be28773ac7c421f","bdp_rd","Mon Mar 27 2023 14:13:34 GMT-0400 (Eastern Daylight Time)","339288","","null","","","","offerFB","","<div class='trialBorder'><div class='vertical-center'><img style='vertical-align:center; align:center' src=img/fixation3.jpg></div><div class='cl'><div class='vertical-center'>$95<br>with a<br>50% chance</div></div><div class='cr'><div class='vertical-center'><font style='color:orange'>$40<br>for<br>sure</font></div></div><div class='respDivL'><div class='vertical-center'>(E)</div></div><div class='respDivR'><div class='vertical-center'><font style='color:orange'>(I)</font></div></div></div>","null","$40","$95","1","40","95",""
"html-keyboard-response","70","184895","0.0-5.0-1.22","61282ca83be28773ac7c421f","bdp_rd","Mon Mar 27 2023 14:13:34 GMT-0400 (Eastern Daylight Time)","339288","","null","","","","FIX","","<div class='trialBorder'><div class='vertical-center'><img style='vertical-align:center; align:center' src=img/fixation3.jpg></div></div>","null","","","","","",""
"html-keyboard-response","71","187798","0.0-5.0-2.22","61282ca83be28773ac7c421f","bdp_rd","Mon Mar 27 2023 14:13:34 GMT-0400 (Eastern Daylight Time)","339288","","2902","","","","offer","","<div class='trialBorder'><div class='vertical-center'><img style='vertical-align:center; align:center' src=img/fixation3.jpg></div><div class='cl'><div class='vertical-center'>$2<br>for<br>sure</div></div><div class='cr'><div class='vertical-center'>$21<br>with a<br>50% chance</div></div><div class='respDivL'><div class='vertical-center'>(E)</div></div><div class='respDivR'><div class='vertical-center'>(I)</div></div></div>","I","$2","$21","0","2","21","RISKY"
"html-keyboard-response","72","188056","0.0-5.0-3.22","61282ca83be28773ac7c421f","bdp_rd","Mon Mar 27 2023 14:13:34 GMT-0400 (Eastern Daylight Time)","339288","","null","","","","offerFB","","<div class='trialBorder'><div class='vertical-center'><img style='vertical-align:center; align:center' src=img/fixation3.jpg></div><div class='cl'><div class='vertical-center'>$2<br>for<br>sure</div></div><div class='cr'><div class='vertical-center'><font style='color:orange'>$21<br>with a<br>50% chance</font></div></div><div class='respDivL'><div class='vertical-center'>(E)</div></div><div class='respDivR'><div class='vertical-center'><font style='color:orange'>(I)</font></div></div></div>","null","$2","$21","0","2","21",""
"html-keyboard-response","73","188560","0.0-5.0-1.23","61282ca83be28773ac7c421f","bdp_rd","Mon Mar 27 2023 14:13:34 GMT-0400 (Eastern Daylight Time)","339288","","null","","","","FIX","","<div class='trialBorder'><div class='vertical-center'><img style='vertical-align:center; align:center' src=img/fixation3.jpg></div></div>","null","","","","","",""
"html-keyboard-response","74","192327","0.0-5.0-2.23","61282ca83be28773ac7c421f","bdp_rd","Mon Mar 27 2023 14:13:34 GMT-0400 (Eastern Daylight Time)","339288","","3765","","","","offer","","<div class='trialBorder'><div class='vertical-center'><img style='vertical-align:center; align:center' src=img/fixation3.jpg></div><div class='cl'><div class='vertical-center'>$31<br>with a<br>50% chance</div></div><div class='cr'><div class='vertical-center'>$15<br>for<br>sure</div></div><div class='respDivL'><div class='vertical-center'>(E)</div></div><div class='respDivR'><div class='vertical-center'>(I)</div></div></div>","I","$15","$31","1","15","31","SURE"
"html-keyboard-response","75","192583","0.0-5.0-3.23","61282ca83be28773ac7c421f","bdp_rd","Mon Mar 27 2023 14:13:34 GMT-0400 (Eastern Daylight Time)","339288","","null","","","","offerFB","","<div class='trialBorder'><div class='vertical-center'><img style='vertical-align:center; align:center' src=img/fixation3.jpg></div><div class='cl'><div class='vertical-center'>$31<br>with a<br>50% chance</div></div><div class='cr'><div class='vertical-center'><font style='color:orange'>$15<br>for<br>sure</font></div></div><div class='respDivL'><div class='vertical-center'>(E)</div></div><div class='respDivR'><div class='vertical-center'><font style='color:orange'>(I)</font></div></div></div>","null","$15","$31","1","15","31",""
"html-keyboard-response","76","193087","0.0-5.0-1.24","61282ca83be28773ac7c421f","bdp_rd","Mon Mar 27 2023 14:13:34 GMT-0400 (Eastern Daylight Time)","339288","","null","","","","FIX","","<div class='trialBorder'><div class='vertical-center'><img style='vertical-align:center; align:center' src=img/fixation3.jpg></div></div>","null","","","","","",""
"html-keyboard-response","77","201953","0.0-5.0-2.24","61282ca83be28773ac7c421f","bdp_rd","Mon Mar 27 2023 14:13:34 GMT-0400 (Eastern Daylight Time)","339288","","8865","","","","offer","","<div class='trialBorder'><div class='vertical-center'><img style='vertical-align:center; align:center' src=img/fixation3.jpg></div><div class='cl'><div class='vertical-center'>$78<br>with a<br>50% chance</div></div><div class='cr'><div class='vertical-center'>$31<br>for<br>sure</div></div><div class='respDivL'><div class='vertical-center'>(E)</div></div><div class='respDivR'><div class='vertical-center'>(I)</div></div></div>","I","$31","$78","1","31","78","SURE"
"html-keyboard-response","78","202207","0.0-5.0-3.24","61282ca83be28773ac7c421f","bdp_rd","Mon Mar 27 2023 14:13:34 GMT-0400 (Eastern Daylight Time)","339288","","null","","","","offerFB","","<div class='trialBorder'><div class='vertical-center'><img style='vertical-align:center; align:center' src=img/fixation3.jpg></div><div class='cl'><div class='vertical-center'>$78<br>with a<br>50% chance</div></div><div class='cr'><div class='vertical-center'><font style='color:orange'>$31<br>for<br>sure</font></div></div><div class='respDivL'><div class='vertical-center'>(E)</div></div><div class='respDivR'><div class='vertical-center'><font style='color:orange'>(I)</font></div></div></div>","null","$31","$78","1","31","78",""
"html-keyboard-response","79","202712","0.0-5.0-1.25","61282ca83be28773ac7c421f","bdp_rd","Mon Mar 27 2023 14:13:34 GMT-0400 (Eastern Daylight Time)","339288","","null","","","","FIX","","<div class='trialBorder'><div class='vertical-center'><img style='vertical-align:center; align:center' src=img/fixation3.jpg></div></div>","null","","","","","",""
"html-keyboard-response","80","212110","0.0-5.0-2.25","61282ca83be28773ac7c421f","bdp_rd","Mon Mar 27 2023 14:13:34 GMT-0400 (Eastern Daylight Time)","339288","","9397","","","","offer","","<div class='trialBorder'><div class='vertical-center'><img style='vertical-align:center; align:center' src=img/fixation3.jpg></div><div class='cl'><div class='vertical-center'>$39<br>for<br>sure</div></div><div class='cr'><div class='vertical-center'>$81<br>with a<br>50% chance</div></div><div class='respDivL'><div class='vertical-center'>(E)</div></div><div class='respDivR'><div class='vertical-center'>(I)</div></div></div>","E","$39","$81","0","39","81","SURE"
"html-keyboard-response","81","212368","0.0-5.0-3.25","61282ca83be28773ac7c421f","bdp_rd","Mon Mar 27 2023 14:13:34 GMT-0400 (Eastern Daylight Time)","339288","","null","","","","offerFB","","<div class='trialBorder'><div class='vertical-center'><img style='vertical-align:center; align:center' src=img/fixation3.jpg></div><div class='cl'><div class='vertical-center'><font style='color:orange'>$39<br>for<br>sure</font></div></div><div class='cr'><div class='vertical-center'>$81<br>with a<br>50% chance</div></div><div class='respDivL'><div class='vertical-center'><font style='color:orange'>(E)</font></div></div><div class='respDivR'><div class='vertical-center'>(I)</div></div></div>","null","$39","$81","0","39","81",""
"html-keyboard-response","82","212871","0.0-5.0-1.26","61282ca83be28773ac7c421f","bdp_rd","Mon Mar 27 2023 14:13:34 GMT-0400 (Eastern Daylight Time)","339288","","null","","","","FIX","","<div class='trialBorder'><div class='vertical-center'><img style='vertical-align:center; align:center' src=img/fixation3.jpg></div></div>","null","","","","","",""
"html-keyboard-response","83","216194","0.0-5.0-2.26","61282ca83be28773ac7c421f","bdp_rd","Mon Mar 27 2023 14:13:34 GMT-0400 (Eastern Daylight Time)","339288","","3321","","","","offer","","<div class='trialBorder'><div class='vertical-center'><img style='vertical-align:center; align:center' src=img/fixation3.jpg></div><div class='cl'><div class='vertical-center'>$30<br>for<br>sure</div></div><div class='cr'><div class='vertical-center'>$68<br>with a<br>50% chance</div></div><div class='respDivL'><div class='vertical-center'>(E)</div></div><div class='respDivR'><div class='vertical-center'>(I)</div></div></div>","E","$30","$68","0","30","68","SURE"
"html-keyboard-response","84","216447","0.0-5.0-3.26","61282ca83be28773ac7c421f","bdp_rd","Mon Mar 27 2023 14:13:34 GMT-0400 (Eastern Daylight Time)","339288","","null","","","","offerFB","","<div class='trialBorder'><div class='vertical-center'><img style='vertical-align:center; align:center' src=img/fixation3.jpg></div><div class='cl'><div class='vertical-center'><font style='color:orange'>$30<br>for<br>sure</font></div></div><div class='cr'><div class='vertical-center'>$68<br>with a<br>50% chance</div></div><div class='respDivL'><div class='vertical-center'><font style='color:orange'>(E)</font></div></div><div class='respDivR'><div class='vertical-center'>(I)</div></div></div>","null","$30","$68","0","30","68",""
"html-keyboard-response","85","216951","0.0-5.0-1.27","61282ca83be28773ac7c421f","bdp_rd","Mon Mar 27 2023 14:13:34 GMT-0400 (Eastern Daylight Time)","339288","","null","","","","FIX","","<div class='trialBorder'><div class='vertical-center'><img style='vertical-align:center; align:center' src=img/fixation3.jpg></div></div>","null","","","","","",""
"html-keyboard-response","86","219821","0.0-5.0-2.27","61282ca83be28773ac7c421f","bdp_rd","Mon Mar 27 2023 14:13:34 GMT-0400 (Eastern Daylight Time)","339288","","2869","","","","offer","","<div class='trialBorder'><div class='vertical-center'><img style='vertical-align:center; align:center' src=img/fixation3.jpg></div><div class='cl'><div class='vertical-center'>$73<br>with a<br>50% chance</div></div><div class='cr'><div class='vertical-center'>$42<br>for<br>sure</div></div><div class='respDivL'><div class='vertical-center'>(E)</div></div><div class='respDivR'><div class='vertical-center'>(I)</div></div></div>","I","$42","$73","1","42","73","SURE"
"html-keyboard-response","87","220080","0.0-5.0-3.27","61282ca83be28773ac7c421f","bdp_rd","Mon Mar 27 2023 14:13:34 GMT-0400 (Eastern Daylight Time)","339288","","null","","","","offerFB","","<div class='trialBorder'><div class='vertical-center'><img style='vertical-align:center; align:center' src=img/fixation3.jpg></div><div class='cl'><div class='vertical-center'>$73<br>with a<br>50% chance</div></div><div class='cr'><div class='vertical-center'><font style='color:orange'>$42<br>for<br>sure</font></div></div><div class='respDivL'><div class='vertical-center'>(E)</div></div><div class='respDivR'><div class='vertical-center'><font style='color:orange'>(I)</font></div></div></div>","null","$42","$73","1","42","73",""
"html-keyboard-response","88","220584","0.0-5.0-1.28","61282ca83be28773ac7c421f","bdp_rd","Mon Mar 27 2023 14:13:34 GMT-0400 (Eastern Daylight Time)","339288","","null","","","","FIX","","<div class='trialBorder'><div class='vertical-center'><img style='vertical-align:center; align:center' src=img/fixation3.jpg></div></div>","null","","","","","",""
"html-keyboard-response","89","226663","0.0-5.0-2.28","61282ca83be28773ac7c421f","bdp_rd","Mon Mar 27 2023 14:13:34 GMT-0400 (Eastern Daylight Time)","339288","","6078","","","","offer","","<div class='trialBorder'><div class='vertical-center'><img style='vertical-align:center; align:center' src=img/fixation3.jpg></div><div class='cl'><div class='vertical-center'>$25<br>for<br>sure</div></div><div class='cr'><div class='vertical-center'>$54<br>with a<br>50% chance</div></div><div class='respDivL'><div class='vertical-center'>(E)</div></div><div class='respDivR'><div class='vertical-center'>(I)</div></div></div>","E","$25","$54","0","25","54","SURE"
"html-keyboard-response","90","226919","0.0-5.0-3.28","61282ca83be28773ac7c421f","bdp_rd","Mon Mar 27 2023 14:13:34 GMT-0400 (Eastern Daylight Time)","339288","","null","","","","offerFB","","<div class='trialBorder'><div class='vertical-center'><img style='vertical-align:center; align:center' src=img/fixation3.jpg></div><div class='cl'><div class='vertical-center'><font style='color:orange'>$25<br>for<br>sure</font></div></div><div class='cr'><div class='vertical-center'>$54<br>with a<br>50% chance</div></div><div class='respDivL'><div class='vertical-center'><font style='color:orange'>(E)</font></div></div><div class='respDivR'><div class='vertical-center'>(I)</div></div></div>","null","$25","$54","0","25","54",""
"html-keyboard-response","91","227423","0.0-5.0-1.29","61282ca83be28773ac7c421f","bdp_rd","Mon Mar 27 2023 14:13:34 GMT-0400 (Eastern Daylight Time)","339288","","null","","","","FIX","","<div class='trialBorder'><div class='vertical-center'><img style='vertical-align:center; align:center' src=img/fixation3.jpg></div></div>","null","","","","","",""
"html-keyboard-response","92","229654","0.0-5.0-2.29","61282ca83be28773ac7c421f","bdp_rd","Mon Mar 27 2023 14:13:34 GMT-0400 (Eastern Daylight Time)","339288","","2230","","","","offer","","<div class='trialBorder'><div class='vertical-center'><img style='vertical-align:center; align:center' src=img/fixation3.jpg></div><div class='cl'><div class='vertical-center'>$30<br>with a<br>50% chance</div></div><div class='cr'><div class='vertical-center'>$1<br>for<br>sure</div></div><div class='respDivL'><div class='vertical-center'>(E)</div></div><div class='respDivR'><div class='vertical-center'>(I)</div></div></div>","E","$1","$30","1","1","30","RISKY"
"html-keyboard-response","93","229912","0.0-5.0-3.29","61282ca83be28773ac7c421f","bdp_rd","Mon Mar 27 2023 14:13:34 GMT-0400 (Eastern Daylight Time)","339288","","null","","","","offerFB","","<div class='trialBorder'><div class='vertical-center'><img style='vertical-align:center; align:center' src=img/fixation3.jpg></div><div class='cl'><div class='vertical-center'><font style='color:orange'>$30<br>with a<br>50% chance</font></div></div><div class='cr'><div class='vertical-center'>$1<br>for<br>sure</div></div><div class='respDivL'><div class='vertical-center'><font style='color:orange'>(E)</font></div></div><div class='respDivR'><div class='vertical-center'>(I)</div></div></div>","null","$1","$30","1","1","30",""
"html-keyboard-response","94","230416","0.0-5.0-1.30","61282ca83be28773ac7c421f","bdp_rd","Mon Mar 27 2023 14:13:34 GMT-0400 (Eastern Daylight Time)","339288","","null","","","","FIX","","<div class='trialBorder'><div class='vertical-center'><img style='vertical-align:center; align:center' src=img/fixation3.jpg></div></div>","null","","","","","",""
"html-keyboard-response","95","233463","0.0-5.0-2.30","61282ca83be28773ac7c421f","bdp_rd","Mon Mar 27 2023 14:13:34 GMT-0400 (Eastern Daylight Time)","339288","","3046","","","","offer","","<div class='trialBorder'><div class='vertical-center'><img style='vertical-align:center; align:center' src=img/fixation3.jpg></div><div class='cl'><div class='vertical-center'>$15<br>with a<br>50% chance</div></div><div class='cr'><div class='vertical-center'>$6<br>for<br>sure</div></div><div class='respDivL'><div class='vertical-center'>(E)</div></div><div class='respDivR'><div class='vertical-center'>(I)</div></div></div>","I","$6","$15","1","6","15","SURE"
"html-keyboard-response","96","233720","0.0-5.0-3.30","61282ca83be28773ac7c421f","bdp_rd","Mon Mar 27 2023 14:13:34 GMT-0400 (Eastern Daylight Time)","339288","","null","","","","offerFB","","<div class='trialBorder'><div class='vertical-center'><img style='vertical-align:center; align:center' src=img/fixation3.jpg></div><div class='cl'><div class='vertical-center'>$15<br>with a<br>50% chance</div></div><div class='cr'><div class='vertical-center'><font style='color:orange'>$6<br>for<br>sure</font></div></div><div class='respDivL'><div class='vertical-center'>(E)</div></div><div class='respDivR'><div class='vertical-center'><font style='color:orange'>(I)</font></div></div></div>","null","$6","$15","1","6","15",""
"html-keyboard-response","97","234224","0.0-5.0-1.31","61282ca83be28773ac7c421f","bdp_rd","Mon Mar 27 2023 14:13:34 GMT-0400 (Eastern Daylight Time)","339288","","null","","","","FIX","","<div class='trialBorder'><div class='vertical-center'><img style='vertical-align:center; align:center' src=img/fixation3.jpg></div></div>","null","","","","","",""
"html-keyboard-response","98","236535","0.0-5.0-2.31","61282ca83be28773ac7c421f","bdp_rd","Mon Mar 27 2023 14:13:34 GMT-0400 (Eastern Daylight Time)","339288","","2310","","","","offer","","<div class='trialBorder'><div class='vertical-center'><img style='vertical-align:center; align:center' src=img/fixation3.jpg></div><div class='cl'><div class='vertical-center'>$47<br>with a<br>50% chance</div></div><div class='cr'><div class='vertical-center'>$27<br>for<br>sure</div></div><div class='respDivL'><div class='vertical-center'>(E)</div></div><div class='respDivR'><div class='vertical-center'>(I)</div></div></div>","I","$27","$47","1","27","47","SURE"
"html-keyboard-response","99","236791","0.0-5.0-3.31","61282ca83be28773ac7c421f","bdp_rd","Mon Mar 27 2023 14:13:34 GMT-0400 (Eastern Daylight Time)","339288","","null","","","","offerFB","","<div class='trialBorder'><div class='vertical-center'><img style='vertical-align:center; align:center' src=img/fixation3.jpg></div><div class='cl'><div class='vertical-center'>$47<br>with a<br>50% chance</div></div><div class='cr'><div class='vertical-center'><font style='color:orange'>$27<br>for<br>sure</font></div></div><div class='respDivL'><div class='vertical-center'>(E)</div></div><div class='respDivR'><div class='vertical-center'><font style='color:orange'>(I)</font></div></div></div>","null","$27","$47","1","27","47",""
"html-keyboard-response","100","237296","0.0-5.0-1.32","61282ca83be28773ac7c421f","bdp_rd","Mon Mar 27 2023 14:13:34 GMT-0400 (Eastern Daylight Time)","339288","","null","","","","FIX","","<div class='trialBorder'><div class='vertical-center'><img style='vertical-align:center; align:center' src=img/fixation3.jpg></div></div>","null","","","","","",""
"html-keyboard-response","101","240255","0.0-5.0-2.32","61282ca83be28773ac7c421f","bdp_rd","Mon Mar 27 2023 14:13:34 GMT-0400 (Eastern Daylight Time)","339288","","2957","","","","offer","","<div class='trialBorder'><div class='vertical-center'><img style='vertical-align:center; align:center' src=img/fixation3.jpg></div><div class='cl'><div class='vertical-center'>$89<br>with a<br>50% chance</div></div><div class='cr'><div class='vertical-center'>$28<br>for<br>sure</div></div><div class='respDivL'><div class='vertical-center'>(E)</div></div><div class='respDivR'><div class='vertical-center'>(I)</div></div></div>","E","$28","$89","1","28","89","RISKY"
"html-keyboard-response","102","240511","0.0-5.0-3.32","61282ca83be28773ac7c421f","bdp_rd","Mon Mar 27 2023 14:13:34 GMT-0400 (Eastern Daylight Time)","339288","","null","","","","offerFB","","<div class='trialBorder'><div class='vertical-center'><img style='vertical-align:center; align:center' src=img/fixation3.jpg></div><div class='cl'><div class='vertical-center'><font style='color:orange'>$89<br>with a<br>50% chance</font></div></div><div class='cr'><div class='vertical-center'>$28<br>for<br>sure</div></div><div class='respDivL'><div class='vertical-center'><font style='color:orange'>(E)</font></div></div><div class='respDivR'><div class='vertical-center'>(I)</div></div></div>","null","$28","$89","1","28","89",""
"html-keyboard-response","103","241016","0.0-5.0-1.33","61282ca83be28773ac7c421f","bdp_rd","Mon Mar 27 2023 14:13:34 GMT-0400 (Eastern Daylight Time)","339288","","null","","","","FIX","","<div class='trialBorder'><div class='vertical-center'><img style='vertical-align:center; align:center' src=img/fixation3.jpg></div></div>","null","","","","","",""
"html-keyboard-response","104","244870","0.0-5.0-2.33","61282ca83be28773ac7c421f","bdp_rd","Mon Mar 27 2023 14:13:34 GMT-0400 (Eastern Daylight Time)","339288","","3853","","","","offer","","<div class='trialBorder'><div class='vertical-center'><img style='vertical-align:center; align:center' src=img/fixation3.jpg></div><div class='cl'><div class='vertical-center'>$26<br>for<br>sure</div></div><div class='cr'><div class='vertical-center'>$92<br>with a<br>50% chance</div></div><div class='respDivL'><div class='vertical-center'>(E)</div></div><div class='respDivR'><div class='vertical-center'>(I)</div></div></div>","I","$26","$92","0","26","92","RISKY"
"html-keyboard-response","105","245128","0.0-5.0-3.33","61282ca83be28773ac7c421f","bdp_rd","Mon Mar 27 2023 14:13:34 GMT-0400 (Eastern Daylight Time)","339288","","null","","","","offerFB","","<div class='trialBorder'><div class='vertical-center'><img style='vertical-align:center; align:center' src=img/fixation3.jpg></div><div class='cl'><div class='vertical-center'>$26<br>for<br>sure</div></div><div class='cr'><div class='vertical-center'><font style='color:orange'>$92<br>with a<br>50% chance</font></div></div><div class='respDivL'><div class='vertical-center'>(E)</div></div><div class='respDivR'><div class='vertical-center'><font style='color:orange'>(I)</font></div></div></div>","null","$26","$92","0","26","92",""
"html-keyboard-response","106","245631","0.0-5.0-1.34","61282ca83be28773ac7c421f","bdp_rd","Mon Mar 27 2023 14:13:34 GMT-0400 (Eastern Daylight Time)","339288","","null","","","","FIX","","<div class='trialBorder'><div class='vertical-center'><img style='vertical-align:center; align:center' src=img/fixation3.jpg></div></div>","null","","","","","",""
"html-keyboard-response","107","247942","0.0-5.0-2.34","61282ca83be28773ac7c421f","bdp_rd","Mon Mar 27 2023 14:13:34 GMT-0400 (Eastern Daylight Time)","339288","","2310","","","","offer","","<div class='trialBorder'><div class='vertical-center'><img style='vertical-align:center; align:center' src=img/fixation3.jpg></div><div class='cl'><div class='vertical-center'>$41<br>with a<br>50% chance</div></div><div class='cr'><div class='vertical-center'>$13<br>for<br>sure</div></div><div class='respDivL'><div class='vertical-center'>(E)</div></div><div class='respDivR'><div class='vertical-center'>(I)</div></div></div>","I","$13","$41","1","13","41","SURE"
"html-keyboard-response","108","248200","0.0-5.0-3.34","61282ca83be28773ac7c421f","bdp_rd","Mon Mar 27 2023 14:13:34 GMT-0400 (Eastern Daylight Time)","339288","","null","","","","offerFB","","<div class='trialBorder'><div class='vertical-center'><img style='vertical-align:center; align:center' src=img/fixation3.jpg></div><div class='cl'><div class='vertical-center'>$41<br>with a<br>50% chance</div></div><div class='cr'><div class='vertical-center'><font style='color:orange'>$13<br>for<br>sure</font></div></div><div class='respDivL'><div class='vertical-center'>(E)</div></div><div class='respDivR'><div class='vertical-center'><font style='color:orange'>(I)</font></div></div></div>","null","$13","$41","1","13","41",""
"html-keyboard-response","109","248703","0.0-5.0-1.35","61282ca83be28773ac7c421f","bdp_rd","Mon Mar 27 2023 14:13:34 GMT-0400 (Eastern Daylight Time)","339288","","null","","","","FIX","","<div class='trialBorder'><div class='vertical-center'><img style='vertical-align:center; align:center' src=img/fixation3.jpg></div></div>","null","","","","","",""
"html-keyboard-response","110","250745","0.0-5.0-2.35","61282ca83be28773ac7c421f","bdp_rd","Mon Mar 27 2023 14:13:34 GMT-0400 (Eastern Daylight Time)","339288","","2041","","","","offer","","<div class='trialBorder'><div class='vertical-center'><img style='vertical-align:center; align:center' src=img/fixation3.jpg></div><div class='cl'><div class='vertical-center'>$29<br>with a<br>50% chance</div></div><div class='cr'><div class='vertical-center'>$14<br>for<br>sure</div></div><div class='respDivL'><div class='vertical-center'>(E)</div></div><div class='respDivR'><div class='vertical-center'>(I)</div></div></div>","I","$14","$29","1","14","29","SURE"
"html-keyboard-response","111","251000","0.0-5.0-3.35","61282ca83be28773ac7c421f","bdp_rd","Mon Mar 27 2023 14:13:34 GMT-0400 (Eastern Daylight Time)","339288","","null","","","","offerFB","","<div class='trialBorder'><div class='vertical-center'><img style='vertical-align:center; align:center' src=img/fixation3.jpg></div><div class='cl'><div class='vertical-center'>$29<br>with a<br>50% chance</div></div><div class='cr'><div class='vertical-center'><font style='color:orange'>$14<br>for<br>sure</font></div></div><div class='respDivL'><div class='vertical-center'>(E)</div></div><div class='respDivR'><div class='vertical-center'><font style='color:orange'>(I)</font></div></div></div>","null","$14","$29","1","14","29",""
"html-keyboard-response","112","251503","0.0-5.0-1.36","61282ca83be28773ac7c421f","bdp_rd","Mon Mar 27 2023 14:13:34 GMT-0400 (Eastern Daylight Time)","339288","","null","","","","FIX","","<div class='trialBorder'><div class='vertical-center'><img style='vertical-align:center; align:center' src=img/fixation3.jpg></div></div>","null","","","","","",""
"html-keyboard-response","113","253682","0.0-5.0-2.36","61282ca83be28773ac7c421f","bdp_rd","Mon Mar 27 2023 14:13:34 GMT-0400 (Eastern Daylight Time)","339288","","2177","","","","offer","","<div class='trialBorder'><div class='vertical-center'><img style='vertical-align:center; align:center' src=img/fixation3.jpg></div><div class='cl'><div class='vertical-center'>$34<br>for<br>sure</div></div><div class='cr'><div class='vertical-center'>$48<br>with a<br>50% chance</div></div><div class='respDivL'><div class='vertical-center'>(E)</div></div><div class='respDivR'><div class='vertical-center'>(I)</div></div></div>","E","$34","$48","0","34","48","SURE"
"html-keyboard-response","114","253936","0.0-5.0-3.36","61282ca83be28773ac7c421f","bdp_rd","Mon Mar 27 2023 14:13:34 GMT-0400 (Eastern Daylight Time)","339288","","null","","","","offerFB","","<div class='trialBorder'><div class='vertical-center'><img style='vertical-align:center; align:center' src=img/fixation3.jpg></div><div class='cl'><div class='vertical-center'><font style='color:orange'>$34<br>for<br>sure</font></div></div><div class='cr'><div class='vertical-center'>$48<br>with a<br>50% chance</div></div><div class='respDivL'><div class='vertical-center'><font style='color:orange'>(E)</font></div></div><div class='respDivR'><div class='vertical-center'>(I)</div></div></div>","null","$34","$48","0","34","48",""
"html-keyboard-response","115","254439","0.0-5.0-1.37","61282ca83be28773ac7c421f","bdp_rd","Mon Mar 27 2023 14:13:34 GMT-0400 (Eastern Daylight Time)","339288","","null","","","","FIX","","<div class='trialBorder'><div class='vertical-center'><img style='vertical-align:center; align:center' src=img/fixation3.jpg></div></div>","null","","","","","",""
"html-keyboard-response","116","258441","0.0-5.0-2.37","61282ca83be28773ac7c421f","bdp_rd","Mon Mar 27 2023 14:13:34 GMT-0400 (Eastern Daylight Time)","339288","","4001","","","","offer","","<div class='trialBorder'><div class='vertical-center'><img style='vertical-align:center; align:center' src=img/fixation3.jpg></div><div class='cl'><div class='vertical-center'>$12<br>with a<br>50% chance</div></div><div class='cr'><div class='vertical-center'>$3<br>for<br>sure</div></div><div class='respDivL'><div class='vertical-center'>(E)</div></div><div class='respDivR'><div class='vertical-center'>(I)</div></div></div>","I","$3","$12","1","3","12","SURE"
"html-keyboard-response","117","258695","0.0-5.0-3.37","61282ca83be28773ac7c421f","bdp_rd","Mon Mar 27 2023 14:13:34 GMT-0400 (Eastern Daylight Time)","339288","","null","","","","offerFB","","<div class='trialBorder'><div class='vertical-center'><img style='vertical-align:center; align:center' src=img/fixation3.jpg></div><div class='cl'><div class='vertical-center'>$12<br>with a<br>50% chance</div></div><div class='cr'><div class='vertical-center'><font style='color:orange'>$3<br>for<br>sure</font></div></div><div class='respDivL'><div class='vertical-center'>(E)</div></div><div class='respDivR'><div class='vertical-center'><font style='color:orange'>(I)</font></div></div></div>","null","$3","$12","1","3","12",""
"html-keyboard-response","118","259199","0.0-5.0-1.38","61282ca83be28773ac7c421f","bdp_rd","Mon Mar 27 2023 14:13:34 GMT-0400 (Eastern Daylight Time)","339288","","null","","","","FIX","","<div class='trialBorder'><div class='vertical-center'><img style='vertical-align:center; align:center' src=img/fixation3.jpg></div></div>","null","","","","","",""
"html-keyboard-response","119","262081","0.0-5.0-2.38","61282ca83be28773ac7c421f","bdp_rd","Mon Mar 27 2023 14:13:34 GMT-0400 (Eastern Daylight Time)","339288","","2880","","","","offer","","<div class='trialBorder'><div class='vertical-center'><img style='vertical-align:center; align:center' src=img/fixation3.jpg></div><div class='cl'><div class='vertical-center'>$65<br>with a<br>50% chance</div></div><div class='cr'><div class='vertical-center'>$46<br>for<br>sure</div></div><div class='respDivL'><div class='vertical-center'>(E)</div></div><div class='respDivR'><div class='vertical-center'>(I)</div></div></div>","I","$46","$65","1","46","65","SURE"
"html-keyboard-response","120","262336","0.0-5.0-3.38","61282ca83be28773ac7c421f","bdp_rd","Mon Mar 27 2023 14:13:34 GMT-0400 (Eastern Daylight Time)","339288","","null","","","","offerFB","","<div class='trialBorder'><div class='vertical-center'><img style='vertical-align:center; align:center' src=img/fixation3.jpg></div><div class='cl'><div class='vertical-center'>$65<br>with a<br>50% chance</div></div><div class='cr'><div class='vertical-center'><font style='color:orange'>$46<br>for<br>sure</font></div></div><div class='respDivL'><div class='vertical-center'>(E)</div></div><div class='respDivR'><div class='vertical-center'><font style='color:orange'>(I)</font></div></div></div>","null","$46","$65","1","46","65",""
"html-keyboard-response","121","262839","0.0-5.0-1.39","61282ca83be28773ac7c421f","bdp_rd","Mon Mar 27 2023 14:13:34 GMT-0400 (Eastern Daylight Time)","339288","","null","","","","FIX","","<div class='trialBorder'><div class='vertical-center'><img style='vertical-align:center; align:center' src=img/fixation3.jpg></div></div>","null","","","","","",""
"html-keyboard-response","122","265302","0.0-5.0-2.39","61282ca83be28773ac7c421f","bdp_rd","Mon Mar 27 2023 14:13:34 GMT-0400 (Eastern Daylight Time)","339288","","2461","","","","offer","","<div class='trialBorder'><div class='vertical-center'><img style='vertical-align:center; align:center' src=img/fixation3.jpg></div><div class='cl'><div class='vertical-center'>$100<br>with a<br>50% chance</div></div><div class='cr'><div class='vertical-center'>$63<br>for<br>sure</div></div><div class='respDivL'><div class='vertical-center'>(E)</div></div><div class='respDivR'><div class='vertical-center'>(I)</div></div></div>","I","$63","$100","1","63","10","SURE"
"html-keyboard-response","123","265560","0.0-5.0-3.39","61282ca83be28773ac7c421f","bdp_rd","Mon Mar 27 2023 14:13:34 GMT-0400 (Eastern Daylight Time)","339288","","null","","","","offerFB","","<div class='trialBorder'><div class='vertical-center'><img style='vertical-align:center; align:center' src=img/fixation3.jpg></div><div class='cl'><div class='vertical-center'>$100<br>with a<br>50% chance</div></div><div class='cr'><div class='vertical-center'><font style='color:orange'>$63<br>for<br>sure</font></div></div><div class='respDivL'><div class='vertical-center'>(E)</div></div><div class='respDivR'><div class='vertical-center'><font style='color:orange'>(I)</font></div></div></div>","null","$63","$100","1","63","10",""
"html-keyboard-response","124","266064","0.0-5.0-1.40","61282ca83be28773ac7c421f","bdp_rd","Mon Mar 27 2023 14:13:34 GMT-0400 (Eastern Daylight Time)","339288","","null","","","","FIX","","<div class='trialBorder'><div class='vertical-center'><img style='vertical-align:center; align:center' src=img/fixation3.jpg></div></div>","null","","","","","",""
"html-keyboard-response","125","268627","0.0-5.0-2.40","61282ca83be28773ac7c421f","bdp_rd","Mon Mar 27 2023 14:13:34 GMT-0400 (Eastern Daylight Time)","339288","","2561","","","","offer","","<div class='trialBorder'><div class='vertical-center'><img style='vertical-align:center; align:center' src=img/fixation3.jpg></div><div class='cl'><div class='vertical-center'>$53<br>for<br>sure</div></div><div class='cr'><div class='vertical-center'>$98<br>with a<br>50% chance</div></div><div class='respDivL'><div class='vertical-center'>(E)</div></div><div class='respDivR'><div class='vertical-center'>(I)</div></div></div>","E","$53","$98","0","53","98","SURE"
"html-keyboard-response","126","268880","0.0-5.0-3.40","61282ca83be28773ac7c421f","bdp_rd","Mon Mar 27 2023 14:13:34 GMT-0400 (Eastern Daylight Time)","339288","","null","","","","offerFB","","<div class='trialBorder'><div class='vertical-center'><img style='vertical-align:center; align:center' src=img/fixation3.jpg></div><div class='cl'><div class='vertical-center'><font style='color:orange'>$53<br>for<br>sure</font></div></div><div class='cr'><div class='vertical-center'>$98<br>with a<br>50% chance</div></div><div class='respDivL'><div class='vertical-center'><font style='color:orange'>(E)</font></div></div><div class='respDivR'><div class='vertical-center'>(I)</div></div></div>","null","$53","$98","0","53","98",""
"html-keyboard-response","127","269383","0.0-5.0-1.41","61282ca83be28773ac7c421f","bdp_rd","Mon Mar 27 2023 14:13:34 GMT-0400 (Eastern Daylight Time)","339288","","null","","","","FIX","","<div class='trialBorder'><div class='vertical-center'><img style='vertical-align:center; align:center' src=img/fixation3.jpg></div></div>","null","","","","","",""
"html-keyboard-response","128","272206","0.0-5.0-2.41","61282ca83be28773ac7c421f","bdp_rd","Mon Mar 27 2023 14:13:34 GMT-0400 (Eastern Daylight Time)","339288","","2822","","","","offer","","<div class='trialBorder'><div class='vertical-center'><img style='vertical-align:center; align:center' src=img/fixation3.jpg></div><div class='cl'><div class='vertical-center'>$17<br>with a<br>50% chance</div></div><div class='cr'><div class='vertical-center'>$3<br>for<br>sure</div></div><div class='respDivL'><div class='vertical-center'>(E)</div></div><div class='respDivR'><div class='vertical-center'>(I)</div></div></div>","I","$3","$17","1","3","17","SURE"
"html-keyboard-response","129","272464","0.0-5.0-3.41","61282ca83be28773ac7c421f","bdp_rd","Mon Mar 27 2023 14:13:34 GMT-0400 (Eastern Daylight Time)","339288","","null","","","","offerFB","","<div class='trialBorder'><div class='vertical-center'><img style='vertical-align:center; align:center' src=img/fixation3.jpg></div><div class='cl'><div class='vertical-center'>$17<br>with a<br>50% chance</div></div><div class='cr'><div class='vertical-center'><font style='color:orange'>$3<br>for<br>sure</font></div></div><div class='respDivL'><div class='vertical-center'>(E)</div></div><div class='respDivR'><div class='vertical-center'><font style='color:orange'>(I)</font></div></div></div>","null","$3","$17","1","3","17",""
"html-keyboard-response","130","272968","0.0-5.0-1.42","61282ca83be28773ac7c421f","bdp_rd","Mon Mar 27 2023 14:13:34 GMT-0400 (Eastern Daylight Time)","339288","","null","","","","FIX","","<div class='trialBorder'><div class='vertical-center'><img style='vertical-align:center; align:center' src=img/fixation3.jpg></div></div>","null","","","","","",""
"html-keyboard-response","131","276411","0.0-5.0-2.42","61282ca83be28773ac7c421f","bdp_rd","Mon Mar 27 2023 14:13:34 GMT-0400 (Eastern Daylight Time)","339288","","3443","","","","offer","","<div class='trialBorder'><div class='vertical-center'><img style='vertical-align:center; align:center' src=img/fixation3.jpg></div><div class='cl'><div class='vertical-center'>$44<br>with a<br>50% chance</div></div><div class='cr'><div class='vertical-center'>$37<br>for<br>sure</div></div><div class='respDivL'><div class='vertical-center'>(E)</div></div><div class='respDivR'><div class='vertical-center'>(I)</div></div></div>","I","$37","$44","1","37","44","SURE"
"html-keyboard-response","132","276671","0.0-5.0-3.42","61282ca83be28773ac7c421f","bdp_rd","Mon Mar 27 2023 14:13:34 GMT-0400 (Eastern Daylight Time)","339288","","null","","","","offerFB","","<div class='trialBorder'><div class='vertical-center'><img style='vertical-align:center; align:center' src=img/fixation3.jpg></div><div class='cl'><div class='vertical-center'>$44<br>with a<br>50% chance</div></div><div class='cr'><div class='vertical-center'><font style='color:orange'>$37<br>for<br>sure</font></div></div><div class='respDivL'><div class='vertical-center'>(E)</div></div><div class='respDivR'><div class='vertical-center'><font style='color:orange'>(I)</font></div></div></div>","null","$37","$44","1","37","44",""
"html-keyboard-response","133","277176","0.0-5.0-1.43","61282ca83be28773ac7c421f","bdp_rd","Mon Mar 27 2023 14:13:34 GMT-0400 (Eastern Daylight Time)","339288","","null","","","","FIX","","<div class='trialBorder'><div class='vertical-center'><img style='vertical-align:center; align:center' src=img/fixation3.jpg></div></div>","null","","","","","",""
"html-keyboard-response","134","280278","0.0-5.0-2.43","61282ca83be28773ac7c421f","bdp_rd","Mon Mar 27 2023 14:13:34 GMT-0400 (Eastern Daylight Time)","339288","","3101","","","","offer","","<div class='trialBorder'><div class='vertical-center'><img style='vertical-align:center; align:center' src=img/fixation3.jpg></div><div class='cl'><div class='vertical-center'>$45<br>with a<br>50% chance</div></div><div class='cr'><div class='vertical-center'>$8<br>for<br>sure</div></div><div class='respDivL'><div class='vertical-center'>(E)</div></div><div class='respDivR'><div class='vertical-center'>(I)</div></div></div>","E","$8","$45","1","8","45","RISKY"
"html-keyboard-response","135","280536","0.0-5.0-3.43","61282ca83be28773ac7c421f","bdp_rd","Mon Mar 27 2023 14:13:34 GMT-0400 (Eastern Daylight Time)","339288","","null","","","","offerFB","","<div class='trialBorder'><div class='vertical-center'><img style='vertical-align:center; align:center' src=img/fixation3.jpg></div><div class='cl'><div class='vertical-center'><font style='color:orange'>$45<br>with a<br>50% chance</font></div></div><div class='cr'><div class='vertical-center'>$8<br>for<br>sure</div></div><div class='respDivL'><div class='vertical-center'><font style='color:orange'>(E)</font></div></div><div class='respDivR'><div class='vertical-center'>(I)</div></div></div>","null","$8","$45","1","8","45",""
"html-keyboard-response","136","281040","0.0-5.0-1.44","61282ca83be28773ac7c421f","bdp_rd","Mon Mar 27 2023 14:13:34 GMT-0400 (Eastern Daylight Time)","339288","","null","","","","FIX","","<div class='trialBorder'><div class='vertical-center'><img style='vertical-align:center; align:center' src=img/fixation3.jpg></div></div>","null","","","","","",""
"html-keyboard-response","137","283584","0.0-5.0-2.44","61282ca83be28773ac7c421f","bdp_rd","Mon Mar 27 2023 14:13:34 GMT-0400 (Eastern Daylight Time)","339288","","2543","","","","offer","","<div class='trialBorder'><div class='vertical-center'><img style='vertical-align:center; align:center' src=img/fixation3.jpg></div><div class='cl'><div class='vertical-center'>$16<br>with a<br>50% chance</div></div><div class='cr'><div class='vertical-center'>$5<br>for<br>sure</div></div><div class='respDivL'><div class='vertical-center'>(E)</div></div><div class='respDivR'><div class='vertical-center'>(I)</div></div></div>","I","$5","$16","1","5","16","SURE"
"html-keyboard-response","138","283839","0.0-5.0-3.44","61282ca83be28773ac7c421f","bdp_rd","Mon Mar 27 2023 14:13:34 GMT-0400 (Eastern Daylight Time)","339288","","null","","","","offerFB","","<div class='trialBorder'><div class='vertical-center'><img style='vertical-align:center; align:center' src=img/fixation3.jpg></div><div class='cl'><div class='vertical-center'>$16<br>with a<br>50% chance</div></div><div class='cr'><div class='vertical-center'><font style='color:orange'>$5<br>for<br>sure</font></div></div><div class='respDivL'><div class='vertical-center'>(E)</div></div><div class='respDivR'><div class='vertical-center'><font style='color:orange'>(I)</font></div></div></div>","null","$5","$16","1","5","16",""
"html-keyboard-response","139","284343","0.0-5.0-1.45","61282ca83be28773ac7c421f","bdp_rd","Mon Mar 27 2023 14:13:34 GMT-0400 (Eastern Daylight Time)","339288","","null","","","","FIX","","<div class='trialBorder'><div class='vertical-center'><img style='vertical-align:center; align:center' src=img/fixation3.jpg></div></div>","null","","","","","",""
"html-keyboard-response","140","286684","0.0-5.0-2.45","61282ca83be28773ac7c421f","bdp_rd","Mon Mar 27 2023 14:13:34 GMT-0400 (Eastern Daylight Time)","339288","","2340","","","","offer","","<div class='trialBorder'><div class='vertical-center'><img style='vertical-align:center; align:center' src=img/fixation3.jpg></div><div class='cl'><div class='vertical-center'>$16<br>for<br>sure</div></div><div class='cr'><div class='vertical-center'>$28<br>with a<br>50% chance</div></div><div class='respDivL'><div class='vertical-center'>(E)</div></div><div class='respDivR'><div class='vertical-center'>(I)</div></div></div>","E","$16","$28","0","16","28","SURE"
"html-keyboard-response","141","286944","0.0-5.0-3.45","61282ca83be28773ac7c421f","bdp_rd","Mon Mar 27 2023 14:13:34 GMT-0400 (Eastern Daylight Time)","339288","","null","","","","offerFB","","<div class='trialBorder'><div class='vertical-center'><img style='vertical-align:center; align:center' src=img/fixation3.jpg></div><div class='cl'><div class='vertical-center'><font style='color:orange'>$16<br>for<br>sure</font></div></div><div class='cr'><div class='vertical-center'>$28<br>with a<br>50% chance</div></div><div class='respDivL'><div class='vertical-center'><font style='color:orange'>(E)</font></div></div><div class='respDivR'><div class='vertical-center'>(I)</div></div></div>","null","$16","$28","0","16","28",""
"html-keyboard-response","142","287448","0.0-5.0-1.46","61282ca83be28773ac7c421f","bdp_rd","Mon Mar 27 2023 14:13:34 GMT-0400 (Eastern Daylight Time)","339288","","null","","","","FIX","","<div class='trialBorder'><div class='vertical-center'><img style='vertical-align:center; align:center' src=img/fixation3.jpg></div></div>","null","","","","","",""
"html-keyboard-response","143","291544","0.0-5.0-2.46","61282ca83be28773ac7c421f","bdp_rd","Mon Mar 27 2023 14:13:34 GMT-0400 (Eastern Daylight Time)","339288","","4096","","","","offer","","<div class='trialBorder'><div class='vertical-center'><img style='vertical-align:center; align:center' src=img/fixation3.jpg></div><div class='cl'><div class='vertical-center'>$32<br>with a<br>50% chance</div></div><div class='cr'><div class='vertical-center'>$9<br>for<br>sure</div></div><div class='respDivL'><div class='vertical-center'>(E)</div></div><div class='respDivR'><div class='vertical-center'>(I)</div></div></div>","E","$9","$32","1","9","32","RISKY"
"html-keyboard-response","144","291800","0.0-5.0-3.46","61282ca83be28773ac7c421f","bdp_rd","Mon Mar 27 2023 14:13:34 GMT-0400 (Eastern Daylight Time)","339288","","null","","","","offerFB","","<div class='trialBorder'><div class='vertical-center'><img style='vertical-align:center; align:center' src=img/fixation3.jpg></div><div class='cl'><div class='vertical-center'><font style='color:orange'>$32<br>with a<br>50% chance</font></div></div><div class='cr'><div class='vertical-center'>$9<br>for<br>sure</div></div><div class='respDivL'><div class='vertical-center'><font style='color:orange'>(E)</font></div></div><div class='respDivR'><div class='vertical-center'>(I)</div></div></div>","null","$9","$32","1","9","32",""
"html-keyboard-response","145","292304","0.0-5.0-1.47","61282ca83be28773ac7c421f","bdp_rd","Mon Mar 27 2023 14:13:34 GMT-0400 (Eastern Daylight Time)","339288","","null","","","","FIX","","<div class='trialBorder'><div class='vertical-center'><img style='vertical-align:center; align:center' src=img/fixation3.jpg></div></div>","null","","","","","",""
"html-keyboard-response","146","294159","0.0-5.0-2.47","61282ca83be28773ac7c421f","bdp_rd","Mon Mar 27 2023 14:13:34 GMT-0400 (Eastern Daylight Time)","339288","","1854","","","","offer","","<div class='trialBorder'><div class='vertical-center'><img style='vertical-align:center; align:center' src=img/fixation3.jpg></div><div class='cl'><div class='vertical-center'>$69<br>with a<br>50% chance</div></div><div class='cr'><div class='vertical-center'>$58<br>for<br>sure</div></div><div class='respDivL'><div class='vertical-center'>(E)</div></div><div class='respDivR'><div class='vertical-center'>(I)</div></div></div>","I","$58","$69","1","58","69","SURE"
"html-keyboard-response","147","294416","0.0-5.0-3.47","61282ca83be28773ac7c421f","bdp_rd","Mon Mar 27 2023 14:13:34 GMT-0400 (Eastern Daylight Time)","339288","","null","","","","offerFB","","<div class='trialBorder'><div class='vertical-center'><img style='vertical-align:center; align:center' src=img/fixation3.jpg></div><div class='cl'><div class='vertical-center'>$69<br>with a<br>50% chance</div></div><div class='cr'><div class='vertical-center'><font style='color:orange'>$58<br>for<br>sure</font></div></div><div class='respDivL'><div class='vertical-center'>(E)</div></div><div class='respDivR'><div class='vertical-center'><font style='color:orange'>(I)</font></div></div></div>","null","$58","$69","1","58","69",""
"html-keyboard-response","148","294920","0.0-5.0-1.48","61282ca83be28773ac7c421f","bdp_rd","Mon Mar 27 2023 14:13:34 GMT-0400 (Eastern Daylight Time)","339288","","null","","","","FIX","","<div class='trialBorder'><div class='vertical-center'><img style='vertical-align:center; align:center' src=img/fixation3.jpg></div></div>","null","","","","","",""
"html-keyboard-response","149","297324","0.0-5.0-2.48","61282ca83be28773ac7c421f","bdp_rd","Mon Mar 27 2023 14:13:34 GMT-0400 (Eastern Daylight Time)","339288","","2403","","","","offer","","<div class='trialBorder'><div class='vertical-center'><img style='vertical-align:center; align:center' src=img/fixation3.jpg></div><div class='cl'><div class='vertical-center'>$13<br>for<br>sure</div></div><div class='cr'><div class='vertical-center'>$24<br>with a<br>50% chance</div></div><div class='respDivL'><div class='vertical-center'>(E)</div></div><div class='respDivR'><div class='vertical-center'>(I)</div></div></div>","E","$13","$24","0","13","24","SURE"
"html-keyboard-response","150","297576","0.0-5.0-3.48","61282ca83be28773ac7c421f","bdp_rd","Mon Mar 27 2023 14:13:34 GMT-0400 (Eastern Daylight Time)","339288","","null","","","","offerFB","","<div class='trialBorder'><div class='vertical-center'><img style='vertical-align:center; align:center' src=img/fixation3.jpg></div><div class='cl'><div class='vertical-center'><font style='color:orange'>$13<br>for<br>sure</font></div></div><div class='cr'><div class='vertical-center'>$24<br>with a<br>50% chance</div></div><div class='respDivL'><div class='vertical-center'><font style='color:orange'>(E)</font></div></div><div class='respDivR'><div class='vertical-center'>(I)</div></div></div>","null","$13","$24","0","13","24",""
"html-keyboard-response","151","298080","0.0-5.0-1.49","61282ca83be28773ac7c421f","bdp_rd","Mon Mar 27 2023 14:13:34 GMT-0400 (Eastern Daylight Time)","339288","","null","","","","FIX","","<div class='trialBorder'><div class='vertical-center'><img style='vertical-align:center; align:center' src=img/fixation3.jpg></div></div>","null","","","","","",""
"html-keyboard-response","152","300001","0.0-5.0-2.49","61282ca83be28773ac7c421f","bdp_rd","Mon Mar 27 2023 14:13:34 GMT-0400 (Eastern Daylight Time)","339288","","1919","","","","offer","","<div class='trialBorder'><div class='vertical-center'><img style='vertical-align:center; align:center' src=img/fixation3.jpg></div><div class='cl'><div class='vertical-center'>$50<br>with a<br>50% chance</div></div><div class='cr'><div class='vertical-center'>$5<br>for<br>sure</div></div><div class='respDivL'><div class='vertical-center'>(E)</div></div><div class='respDivR'><div class='vertical-center'>(I)</div></div></div>","E","$5","$50","1","5","50","RISKY"
"html-keyboard-response","153","300255","0.0-5.0-3.49","61282ca83be28773ac7c421f","bdp_rd","Mon Mar 27 2023 14:13:34 GMT-0400 (Eastern Daylight Time)","339288","","null","","","","offerFB","","<div class='trialBorder'><div class='vertical-center'><img style='vertical-align:center; align:center' src=img/fixation3.jpg></div><div class='cl'><div class='vertical-center'><font style='color:orange'>$50<br>with a<br>50% chance</font></div></div><div class='cr'><div class='vertical-center'>$5<br>for<br>sure</div></div><div class='respDivL'><div class='vertical-center'><font style='color:orange'>(E)</font></div></div><div class='respDivR'><div class='vertical-center'>(I)</div></div></div>","null","$5","$50","1","5","50",""
"html-keyboard-response","154","300760","0.0-5.0-1.50","61282ca83be28773ac7c421f","bdp_rd","Mon Mar 27 2023 14:13:34 GMT-0400 (Eastern Daylight Time)","339288","","null","","","","FIX","","<div class='trialBorder'><div class='vertical-center'><img style='vertical-align:center; align:center' src=img/fixation3.jpg></div></div>","null","","","","","",""
"html-keyboard-response","155","302671","0.0-5.0-2.50","61282ca83be28773ac7c421f","bdp_rd","Mon Mar 27 2023 14:13:34 GMT-0400 (Eastern Daylight Time)","339288","","1910","","","","offer","","<div class='trialBorder'><div class='vertical-center'><img style='vertical-align:center; align:center' src=img/fixation3.jpg></div><div class='cl'><div class='vertical-center'>$80<br>with a<br>50% chance</div></div><div class='cr'><div class='vertical-center'>$20<br>for<br>sure</div></div><div class='respDivL'><div class='vertical-center'>(E)</div></div><div class='respDivR'><div class='vertical-center'>(I)</div></div></div>","E","$20","$80","1","20","80","RISKY"
"html-keyboard-response","156","302928","0.0-5.0-3.50","61282ca83be28773ac7c421f","bdp_rd","Mon Mar 27 2023 14:13:34 GMT-0400 (Eastern Daylight Time)","339288","","null","","","","offerFB","","<div class='trialBorder'><div class='vertical-center'><img style='vertical-align:center; align:center' src=img/fixation3.jpg></div><div class='cl'><div class='vertical-center'><font style='color:orange'>$80<br>with a<br>50% chance</font></div></div><div class='cr'><div class='vertical-center'>$20<br>for<br>sure</div></div><div class='respDivL'><div class='vertical-center'><font style='color:orange'>(E)</font></div></div><div class='respDivR'><div class='vertical-center'>(I)</div></div></div>","null","$20","$80","1","20","80",""
"html-keyboard-response","157","303431","0.0-5.0-1.51","61282ca83be28773ac7c421f","bdp_rd","Mon Mar 27 2023 14:13:34 GMT-0400 (Eastern Daylight Time)","339288","","null","","","","FIX","","<div class='trialBorder'><div class='vertical-center'><img style='vertical-align:center; align:center' src=img/fixation3.jpg></div></div>","null","","","","","",""
"html-keyboard-response","158","305949","0.0-5.0-2.51","61282ca83be28773ac7c421f","bdp_rd","Mon Mar 27 2023 14:13:34 GMT-0400 (Eastern Daylight Time)","339288","","2516","","","","offer","","<div class='trialBorder'><div class='vertical-center'><img style='vertical-align:center; align:center' src=img/fixation3.jpg></div><div class='cl'><div class='vertical-center'>$2<br>for<br>sure</div></div><div class='cr'><div class='vertical-center'>$64<br>with a<br>50% chance</div></div><div class='respDivL'><div class='vertical-center'>(E)</div></div><div class='respDivR'><div class='vertical-center'>(I)</div></div></div>","I","$2","$64","0","2","64","RISKY"
"html-keyboard-response","159","306208","0.0-5.0-3.51","61282ca83be28773ac7c421f","bdp_rd","Mon Mar 27 2023 14:13:34 GMT-0400 (Eastern Daylight Time)","339288","","null","","","","offerFB","","<div class='trialBorder'><div class='vertical-center'><img style='vertical-align:center; align:center' src=img/fixation3.jpg></div><div class='cl'><div class='vertical-center'>$2<br>for<br>sure</div></div><div class='cr'><div class='vertical-center'><font style='color:orange'>$64<br>with a<br>50% chance</font></div></div><div class='respDivL'><div class='vertical-center'>(E)</div></div><div class='respDivR'><div class='vertical-center'><font style='color:orange'>(I)</font></div></div></div>","null","$2","$64","0","2","64",""
"html-keyboard-response","160","306711","0.0-5.0-1.52","61282ca83be28773ac7c421f","bdp_rd","Mon Mar 27 2023 14:13:34 GMT-0400 (Eastern Daylight Time)","339288","","null","","","","FIX","","<div class='trialBorder'><div class='vertical-center'><img style='vertical-align:center; align:center' src=img/fixation3.jpg></div></div>","null","","","","","",""
"html-keyboard-response","161","309764","0.0-5.0-2.52","61282ca83be28773ac7c421f","bdp_rd","Mon Mar 27 2023 14:13:34 GMT-0400 (Eastern Daylight Time)","339288","","3052","","","","offer","","<div class='trialBorder'><div class='vertical-center'><img style='vertical-align:center; align:center' src=img/fixation3.jpg></div><div class='cl'><div class='vertical-center'>$51<br>with a<br>50% chance</div></div><div class='cr'><div class='vertical-center'>$19<br>for<br>sure</div></div><div class='respDivL'><div class='vertical-center'>(E)</div></div><div class='respDivR'><div class='vertical-center'>(I)</div></div></div>","E","$19","$51","1","19","51","RISKY"
"html-keyboard-response","162","310024","0.0-5.0-3.52","61282ca83be28773ac7c421f","bdp_rd","Mon Mar 27 2023 14:13:34 GMT-0400 (Eastern Daylight Time)","339288","","null","","","","offerFB","","<div class='trialBorder'><div class='vertical-center'><img style='vertical-align:center; align:center' src=img/fixation3.jpg></div><div class='cl'><div class='vertical-center'><font style='color:orange'>$51<br>with a<br>50% chance</font></div></div><div class='cr'><div class='vertical-center'>$19<br>for<br>sure</div></div><div class='respDivL'><div class='vertical-center'><font style='color:orange'>(E)</font></div></div><div class='respDivR'><div class='vertical-center'>(I)</div></div></div>","null","$19","$51","1","19","51",""
"html-keyboard-response","163","310527","0.0-5.0-1.53","61282ca83be28773ac7c421f","bdp_rd","Mon Mar 27 2023 14:13:34 GMT-0400 (Eastern Daylight Time)","339288","","null","","","","FIX","","<div class='trialBorder'><div class='vertical-center'><img style='vertical-align:center; align:center' src=img/fixation3.jpg></div></div>","null","","","","","",""
"html-keyboard-response","164","312501","0.0-5.0-2.53","61282ca83be28773ac7c421f","bdp_rd","Mon Mar 27 2023 14:13:34 GMT-0400 (Eastern Daylight Time)","339288","","1973","","","","offer","","<div class='trialBorder'><div class='vertical-center'><img style='vertical-align:center; align:center' src=img/fixation3.jpg></div><div class='cl'><div class='vertical-center'>$33<br>for<br>sure</div></div><div class='cr'><div class='vertical-center'>$66<br>with a<br>50% chance</div></div><div class='respDivL'><div class='vertical-center'>(E)</div></div><div class='respDivR'><div class='vertical-center'>(I)</div></div></div>","E","$33","$66","0","33","66","SURE"
"html-keyboard-response","165","312760","0.0-5.0-3.53","61282ca83be28773ac7c421f","bdp_rd","Mon Mar 27 2023 14:13:34 GMT-0400 (Eastern Daylight Time)","339288","","null","","","","offerFB","","<div class='trialBorder'><div class='vertical-center'><img style='vertical-align:center; align:center' src=img/fixation3.jpg></div><div class='cl'><div class='vertical-center'><font style='color:orange'>$33<br>for<br>sure</font></div></div><div class='cr'><div class='vertical-center'>$66<br>with a<br>50% chance</div></div><div class='respDivL'><div class='vertical-center'><font style='color:orange'>(E)</font></div></div><div class='respDivR'><div class='vertical-center'>(I)</div></div></div>","null","$33","$66","0","33","66",""
"html-keyboard-response","166","313264","0.0-5.0-1.54","61282ca83be28773ac7c421f","bdp_rd","Mon Mar 27 2023 14:13:34 GMT-0400 (Eastern Daylight Time)","339288","","null","","","","FIX","","<div class='trialBorder'><div class='vertical-center'><img style='vertical-align:center; align:center' src=img/fixation3.jpg></div></div>","null","","","","","",""
"html-keyboard-response","167","320553","0.0-5.0-2.54","61282ca83be28773ac7c421f","bdp_rd","Mon Mar 27 2023 14:13:34 GMT-0400 (Eastern Daylight Time)","339288","","7289","","","","offer","","<div class='trialBorder'><div class='vertical-center'><img style='vertical-align:center; align:center' src=img/fixation3.jpg></div><div class='cl'><div class='vertical-center'>$22<br>for<br>sure</div></div><div class='cr'><div class='vertical-center'>$59<br>with a<br>50% chance</div></div><div class='respDivL'><div class='vertical-center'>(E)</div></div><div class='respDivR'><div class='vertical-center'>(I)</div></div></div>","I","$22","$59","0","22","59","RISKY"
"html-keyboard-response","168","320807","0.0-5.0-3.54","61282ca83be28773ac7c421f","bdp_rd","Mon Mar 27 2023 14:13:34 GMT-0400 (Eastern Daylight Time)","339288","","null","","","","offerFB","","<div class='trialBorder'><div class='vertical-center'><img style='vertical-align:center; align:center' src=img/fixation3.jpg></div><div class='cl'><div class='vertical-center'>$22<br>for<br>sure</div></div><div class='cr'><div class='vertical-center'><font style='color:orange'>$59<br>with a<br>50% chance</font></div></div><div class='respDivL'><div class='vertical-center'>(E)</div></div><div class='respDivR'><div class='vertical-center'><font style='color:orange'>(I)</font></div></div></div>","null","$22","$59","0","22","59",""
"html-keyboard-response","169","321311","0.0-5.0-1.55","61282ca83be28773ac7c421f","bdp_rd","Mon Mar 27 2023 14:13:34 GMT-0400 (Eastern Daylight Time)","339288","","null","","","","FIX","","<div class='trialBorder'><div class='vertical-center'><img style='vertical-align:center; align:center' src=img/fixation3.jpg></div></div>","null","","","","","",""
"html-keyboard-response","170","324486","0.0-5.0-2.55","61282ca83be28773ac7c421f","bdp_rd","Mon Mar 27 2023 14:13:34 GMT-0400 (Eastern Daylight Time)","339288","","3174","","","","offer","","<div class='trialBorder'><div class='vertical-center'><img style='vertical-align:center; align:center' src=img/fixation3.jpg></div><div class='cl'><div class='vertical-center'>$4<br>for<br>sure</div></div><div class='cr'><div class='vertical-center'>$14<br>with a<br>50% chance</div></div><div class='respDivL'><div class='vertical-center'>(E)</div></div><div class='respDivR'><div class='vertical-center'>(I)</div></div></div>","E","$4","$14","0","4","14","SURE"
"html-keyboard-response","171","324744","0.0-5.0-3.55","61282ca83be28773ac7c421f","bdp_rd","Mon Mar 27 2023 14:13:34 GMT-0400 (Eastern Daylight Time)","339288","","null","","","","offerFB","","<div class='trialBorder'><div class='vertical-center'><img style='vertical-align:center; align:center' src=img/fixation3.jpg></div><div class='cl'><div class='vertical-center'><font style='color:orange'>$4<br>for<br>sure</font></div></div><div class='cr'><div class='vertical-center'>$14<br>with a<br>50% chance</div></div><div class='respDivL'><div class='vertical-center'><font style='color:orange'>(E)</font></div></div><div class='respDivR'><div class='vertical-center'>(I)</div></div></div>","null","$4","$14","0","4","14",""
"html-keyboard-response","172","325247","0.0-5.0-1.56","61282ca83be28773ac7c421f","bdp_rd","Mon Mar 27 2023 14:13:34 GMT-0400 (Eastern Daylight Time)","339288","","null","","","","FIX","","<div class='trialBorder'><div class='vertical-center'><img style='vertical-align:center; align:center' src=img/fixation3.jpg></div></div>","null","","","","","",""
"html-keyboard-response","173","327423","0.0-5.0-2.56","61282ca83be28773ac7c421f","bdp_rd","Mon Mar 27 2023 14:13:34 GMT-0400 (Eastern Daylight Time)","339288","","2175","","","","offer","","<div class='trialBorder'><div class='vertical-center'><img style='vertical-align:center; align:center' src=img/fixation3.jpg></div><div class='cl'><div class='vertical-center'>$15<br>for<br>sure</div></div><div class='cr'><div class='vertical-center'>$34<br>with a<br>50% chance</div></div><div class='respDivL'><div class='vertical-center'>(E)</div></div><div class='respDivR'><div class='vertical-center'>(I)</div></div></div>","E","$15","$34","0","15","34","SURE"
