"event","trial","time","trialtype","subject_id","task","startTime","totalTime","trial_type","trial_index","time_elapsed","internal_node_id","view_history","rt","success","stimulus","key_press","sureOffer","riskyOffer","riskyLeft","sureAmt","riskyAmt","chosen"
"focus","0","0","focusevent","6400f1783058946c2b4780cd","bdp_rd","Wed Mar 29 2023 10:28:11 GMT-0500 (Central Daylight Time)","322036","","","","","","","","","","","","","","",""
"","","","","6400f1783058946c2b4780cd","bdp_rd","Wed Mar 29 2023 10:28:11 GMT-0500 (Central Daylight Time)","322036","pavlovia","0","3","0.0-0.0","","","","","","","","","","",""
"","","","","6400f1783058946c2b4780cd","bdp_rd","Wed Mar 29 2023 10:28:11 GMT-0500 (Central Daylight Time)","322036","instructions","1","9773","0.0-1.0","[{""page_index"":0,""viewing_time"":9769}]","9769","","","","","","","","",""
"fullscreenexit","2","19630","fullscreenexit","6400f1783058946c2b4780cd","bdp_rd","Wed Mar 29 2023 10:28:11 GMT-0500 (Central Daylight Time)","322036","","","","","","","","","","","","","","",""
"","","","","6400f1783058946c2b4780cd","bdp_rd","Wed Mar 29 2023 10:28:11 GMT-0500 (Central Daylight Time)","322036","fullscreen","2","20390","0.0-2.0","","","true","","","","","","","",""
"","","","fullscreenfail","6400f1783058946c2b4780cd","bdp_rd","Wed Mar 29 2023 10:28:11 GMT-0500 (Central Daylight Time)","322036","image-keyboard-response","3","21486","0.0-3.0-0.0","","1093","","","32","","","","","",""
"","","","","6400f1783058946c2b4780cd","bdp_rd","Wed Mar 29 2023 10:28:11 GMT-0500 (Central Daylight Time)","322036","instructions","4","59158","0.0-4.0","[{""page_index"":0,""viewing_time"":28310},{""page_index"":1,""viewing_time"":6635},{""page_index"":2,""viewing_time"":2463}]","37408","","","","","","","","",""
"","","","FIX","6400f1783058946c2b4780cd","bdp_rd","Wed Mar 29 2023 10:28:11 GMT-0500 (Central Daylight Time)","322036","html-keyboard-response","5","59675","0.0-5.0-1.0","","null","","<div class='trialBorder'><div class='vertical-center'><img style='vertical-align:center; align:center' src=img/fixation3.jpg></div></div>","null","","","","","",""
"","","","offer","6400f1783058946c2b4780cd","bdp_rd","Wed Mar 29 2023 10:28:11 GMT-0500 (Central Daylight Time)","322036","html-keyboard-response","6","65123","0.0-5.0-2.0","","5446","","<div class='trialBorder'><div class='vertical-center'><img style='vertical-align:center; align:center' src=img/fixation3.jpg></div><div class='cl'><div class='vertical-center'>$7<br>for<br>sure</div></div><div class='cr'><div class='vertical-center'>$71<br>with a<br>50% chance</div></div><div class='respDivL'><div class='vertical-center'>(E)</div></div><div class='respDivR'><div class='vertical-center'>(I)</div></div></div>","I","$7","$71","0","7","71","RISKY"
"","","","offerFB","6400f1783058946c2b4780cd","bdp_rd","Wed Mar 29 2023 10:28:11 GMT-0500 (Central Daylight Time)","322036","html-keyboard-response","7","65385","0.0-5.0-3.0","","null","","<div class='trialBorder'><div class='vertical-center'><img style='vertical-align:center; align:center' src=img/fixation3.jpg></div><div class='cl'><div class='vertical-center'>$7<br>for<br>sure</div></div><div class='cr'><div class='vertical-center'><font style='color:orange'>$71<br>with a<br>50% chance</font></div></div><div class='respDivL'><div class='vertical-center'>(E)</div></div><div class='respDivR'><div class='vertical-center'><font style='color:orange'>(I)</font></div></div></div>","null","$7","$71","0","7","71",""
"","","","FIX","6400f1783058946c2b4780cd","bdp_rd","Wed Mar 29 2023 10:28:11 GMT-0500 (Central Daylight Time)","322036","html-keyboard-response","8","65906","0.0-5.0-1.1","","null","","<div class='trialBorder'><div class='vertical-center'><img style='vertical-align:center; align:center' src=img/fixation3.jpg></div></div>","null","","","","","",""
"","","","offer","6400f1783058946c2b4780cd","bdp_rd","Wed Mar 29 2023 10:28:11 GMT-0500 (Central Daylight Time)","322036","html-keyboard-response","9","71509","0.0-5.0-2.1","","5602","","<div class='trialBorder'><div class='vertical-center'><img style='vertical-align:center; align:center' src=img/fixation3.jpg></div><div class='cl'><div class='vertical-center'>$92<br>with a<br>50% chance</div></div><div class='cr'><div class='vertical-center'>$26<br>for<br>sure</div></div><div class='respDivL'><div class='vertical-center'>(E)</div></div><div class='respDivR'><div class='vertical-center'>(I)</div></div></div>","E","$26","$92","1","26","92","RISKY"
"","","","offerFB","6400f1783058946c2b4780cd","bdp_rd","Wed Mar 29 2023 10:28:11 GMT-0500 (Central Daylight Time)","322036","html-keyboard-response","10","71776","0.0-5.0-3.1","","null","","<div class='trialBorder'><div class='vertical-center'><img style='vertical-align:center; align:center' src=img/fixation3.jpg></div><div class='cl'><div class='vertical-center'><font style='color:orange'>$92<br>with a<br>50% chance</font></div></div><div class='cr'><div class='vertical-center'>$26<br>for<br>sure</div></div><div class='respDivL'><div class='vertical-center'><font style='color:orange'>(E)</font></div></div><div class='respDivR'><div class='vertical-center'>(I)</div></div></div>","null","$26","$92","1","26","92",""
"","","","FIX","6400f1783058946c2b4780cd","bdp_rd","Wed Mar 29 2023 10:28:11 GMT-0500 (Central Daylight Time)","322036","html-keyboard-response","11","72295","0.0-5.0-1.2","","null","","<div class='trialBorder'><div class='vertical-center'><img style='vertical-align:center; align:center' src=img/fixation3.jpg></div></div>","null","","","","","",""
"","","","offer","6400f1783058946c2b4780cd","bdp_rd","Wed Mar 29 2023 10:28:11 GMT-0500 (Central Daylight Time)","322036","html-keyboard-response","12","74933","0.0-5.0-2.2","","2638","","<div class='trialBorder'><div class='vertical-center'><img style='vertical-align:center; align:center' src=img/fixation3.jpg></div><div class='cl'><div class='vertical-center'>$33<br>with a<br>50% chance</div></div><div class='cr'><div class='vertical-center'>$1<br>for<br>sure</div></div><div class='respDivL'><div class='vertical-center'>(E)</div></div><div class='respDivR'><div class='vertical-center'>(I)</div></div></div>","E","$1","$33","1","1","33","RISKY"
"","","","offerFB","6400f1783058946c2b4780cd","bdp_rd","Wed Mar 29 2023 10:28:11 GMT-0500 (Central Daylight Time)","322036","html-keyboard-response","13","75196","0.0-5.0-3.2","","null","","<div class='trialBorder'><div class='vertical-center'><img style='vertical-align:center; align:center' src=img/fixation3.jpg></div><div class='cl'><div class='vertical-center'><font style='color:orange'>$33<br>with a<br>50% chance</font></div></div><div class='cr'><div class='vertical-center'>$1<br>for<br>sure</div></div><div class='respDivL'><div class='vertical-center'><font style='color:orange'>(E)</font></div></div><div class='respDivR'><div class='vertical-center'>(I)</div></div></div>","null","$1","$33","1","1","33",""
"","","","FIX","6400f1783058946c2b4780cd","bdp_rd","Wed Mar 29 2023 10:28:11 GMT-0500 (Central Daylight Time)","322036","html-keyboard-response","14","75705","0.0-5.0-1.3","","null","","<div class='trialBorder'><div class='vertical-center'><img style='vertical-align:center; align:center' src=img/fixation3.jpg></div></div>","null","","","","","",""
"","","","offer","6400f1783058946c2b4780cd","bdp_rd","Wed Mar 29 2023 10:28:11 GMT-0500 (Central Daylight Time)","322036","html-keyboard-response","15","80332","0.0-5.0-2.3","","4626","","<div class='trialBorder'><div class='vertical-center'><img style='vertical-align:center; align:center' src=img/fixation3.jpg></div><div class='cl'><div class='vertical-center'>$18<br>for<br>sure</div></div><div class='cr'><div class='vertical-center'>$36<br>with a<br>50% chance</div></div><div class='respDivL'><div class='vertical-center'>(E)</div></div><div class='respDivR'><div class='vertical-center'>(I)</div></div></div>","E","$18","$36","0","18","36","SURE"
"","","","offerFB","6400f1783058946c2b4780cd","bdp_rd","Wed Mar 29 2023 10:28:11 GMT-0500 (Central Daylight Time)","322036","html-keyboard-response","16","80585","0.0-5.0-3.3","","null","","<div class='trialBorder'><div class='vertical-center'><img style='vertical-align:center; align:center' src=img/fixation3.jpg></div><div class='cl'><div class='vertical-center'><font style='color:orange'>$18<br>for<br>sure</font></div></div><div class='cr'><div class='vertical-center'>$36<br>with a<br>50% chance</div></div><div class='respDivL'><div class='vertical-center'><font style='color:orange'>(E)</font></div></div><div class='respDivR'><div class='vertical-center'>(I)</div></div></div>","null","$18","$36","0","18","36",""
"","","","FIX","6400f1783058946c2b4780cd","bdp_rd","Wed Mar 29 2023 10:28:11 GMT-0500 (Central Daylight Time)","322036","html-keyboard-response","17","81106","0.0-5.0-1.4","","null","","<div class='trialBorder'><div class='vertical-center'><img style='vertical-align:center; align:center' src=img/fixation3.jpg></div></div>","null","","","","","",""
"","","","offer","6400f1783058946c2b4780cd","bdp_rd","Wed Mar 29 2023 10:28:11 GMT-0500 (Central Daylight Time)","322036","html-keyboard-response","18","83758","0.0-5.0-2.4","","2652","","<div class='trialBorder'><div class='vertical-center'><img style='vertical-align:center; align:center' src=img/fixation3.jpg></div><div class='cl'><div class='vertical-center'>$44<br>with a<br>50% chance</div></div><div class='cr'><div class='vertical-center'>$37<br>for<br>sure</div></div><div class='respDivL'><div class='vertical-center'>(E)</div></div><div class='respDivR'><div class='vertical-center'>(I)</div></div></div>","I","$37","$44","1","37","44","SURE"
"","","","offerFB","6400f1783058946c2b4780cd","bdp_rd","Wed Mar 29 2023 10:28:11 GMT-0500 (Central Daylight Time)","322036","html-keyboard-response","19","84025","0.0-5.0-3.4","","null","","<div class='trialBorder'><div class='vertical-center'><img style='vertical-align:center; align:center' src=img/fixation3.jpg></div><div class='cl'><div class='vertical-center'>$44<br>with a<br>50% chance</div></div><div class='cr'><div class='vertical-center'><font style='color:orange'>$37<br>for<br>sure</font></div></div><div class='respDivL'><div class='vertical-center'>(E)</div></div><div class='respDivR'><div class='vertical-center'><font style='color:orange'>(I)</font></div></div></div>","null","$37","$44","1","37","44",""
"","","","FIX","6400f1783058946c2b4780cd","bdp_rd","Wed Mar 29 2023 10:28:11 GMT-0500 (Central Daylight Time)","322036","html-keyboard-response","20","84545","0.0-5.0-1.5","","null","","<div class='trialBorder'><div class='vertical-center'><img style='vertical-align:center; align:center' src=img/fixation3.jpg></div></div>","null","","","","","",""
"","","","offer","6400f1783058946c2b4780cd","bdp_rd","Wed Mar 29 2023 10:28:11 GMT-0500 (Central Daylight Time)","322036","html-keyboard-response","21","89096","0.0-5.0-2.5","","4549","","<div class='trialBorder'><div class='vertical-center'><img style='vertical-align:center; align:center' src=img/fixation3.jpg></div><div class='cl'><div class='vertical-center'>$4<br>for<br>sure</div></div><div class='cr'><div class='vertical-center'>$14<br>with a<br>50% chance</div></div><div class='respDivL'><div class='vertical-center'>(E)</div></div><div class='respDivR'><div class='vertical-center'>(I)</div></div></div>","I","$4","$14","0","4","14","RISKY"
"","","","offerFB","6400f1783058946c2b4780cd","bdp_rd","Wed Mar 29 2023 10:28:11 GMT-0500 (Central Daylight Time)","322036","html-keyboard-response","22","89351","0.0-5.0-3.5","","null","","<div class='trialBorder'><div class='vertical-center'><img style='vertical-align:center; align:center' src=img/fixation3.jpg></div><div class='cl'><div class='vertical-center'>$4<br>for<br>sure</div></div><div class='cr'><div class='vertical-center'><font style='color:orange'>$14<br>with a<br>50% chance</font></div></div><div class='respDivL'><div class='vertical-center'>(E)</div></div><div class='respDivR'><div class='vertical-center'><font style='color:orange'>(I)</font></div></div></div>","null","$4","$14","0","4","14",""
"","","","FIX","6400f1783058946c2b4780cd","bdp_rd","Wed Mar 29 2023 10:28:11 GMT-0500 (Central Daylight Time)","322036","html-keyboard-response","23","89855","0.0-5.0-1.6","","null","","<div class='trialBorder'><div class='vertical-center'><img style='vertical-align:center; align:center' src=img/fixation3.jpg></div></div>","null","","","","","",""
"","","","offer","6400f1783058946c2b4780cd","bdp_rd","Wed Mar 29 2023 10:28:11 GMT-0500 (Central Daylight Time)","322036","html-keyboard-response","24","93496","0.0-5.0-2.6","","3641","","<div class='trialBorder'><div class='vertical-center'><img style='vertical-align:center; align:center' src=img/fixation3.jpg></div><div class='cl'><div class='vertical-center'>$40<br>with a<br>50% chance</div></div><div class='cr'><div class='vertical-center'>$10<br>for<br>sure</div></div><div class='respDivL'><div class='vertical-center'>(E)</div></div><div class='respDivR'><div class='vertical-center'>(I)</div></div></div>","E","$10","$40","1","10","40","RISKY"
"","","","offerFB","6400f1783058946c2b4780cd","bdp_rd","Wed Mar 29 2023 10:28:11 GMT-0500 (Central Daylight Time)","322036","html-keyboard-response","25","93755","0.0-5.0-3.6","","null","","<div class='trialBorder'><div class='vertical-center'><img style='vertical-align:center; align:center' src=img/fixation3.jpg></div><div class='cl'><div class='vertical-center'><font style='color:orange'>$40<br>with a<br>50% chance</font></div></div><div class='cr'><div class='vertical-center'>$10<br>for<br>sure</div></div><div class='respDivL'><div class='vertical-center'><font style='color:orange'>(E)</font></div></div><div class='respDivR'><div class='vertical-center'>(I)</div></div></div>","null","$10","$40","1","10","40",""
"","","","FIX","6400f1783058946c2b4780cd","bdp_rd","Wed Mar 29 2023 10:28:11 GMT-0500 (Central Daylight Time)","322036","html-keyboard-response","26","94271","0.0-5.0-1.7","","null","","<div class='trialBorder'><div class='vertical-center'><img style='vertical-align:center; align:center' src=img/fixation3.jpg></div></div>","null","","","","","",""
"","","","offer","6400f1783058946c2b4780cd","bdp_rd","Wed Mar 29 2023 10:28:11 GMT-0500 (Central Daylight Time)","322036","html-keyboard-response","27","96909","0.0-5.0-2.7","","2638","","<div class='trialBorder'><div class='vertical-center'><img style='vertical-align:center; align:center' src=img/fixation3.jpg></div><div class='cl'><div class='vertical-center'>$18<br>with a<br>50% chance</div></div><div class='cr'><div class='vertical-center'>$9<br>for<br>sure</div></div><div class='respDivL'><div class='vertical-center'>(E)</div></div><div class='respDivR'><div class='vertical-center'>(I)</div></div></div>","I","$9","$18","1","9","18","SURE"
"","","","offerFB","6400f1783058946c2b4780cd","bdp_rd","Wed Mar 29 2023 10:28:11 GMT-0500 (Central Daylight Time)","322036","html-keyboard-response","28","97174","0.0-5.0-3.7","","null","","<div class='trialBorder'><div class='vertical-center'><img style='vertical-align:center; align:center' src=img/fixation3.jpg></div><div class='cl'><div class='vertical-center'>$18<br>with a<br>50% chance</div></div><div class='cr'><div class='vertical-center'><font style='color:orange'>$9<br>for<br>sure</font></div></div><div class='respDivL'><div class='vertical-center'>(E)</div></div><div class='respDivR'><div class='vertical-center'><font style='color:orange'>(I)</font></div></div></div>","null","$9","$18","1","9","18",""
"","","","FIX","6400f1783058946c2b4780cd","bdp_rd","Wed Mar 29 2023 10:28:11 GMT-0500 (Central Daylight Time)","322036","html-keyboard-response","29","97677","0.0-5.0-1.8","","null","","<div class='trialBorder'><div class='vertical-center'><img style='vertical-align:center; align:center' src=img/fixation3.jpg></div></div>","null","","","","","",""
"","","","offer","6400f1783058946c2b4780cd","bdp_rd","Wed Mar 29 2023 10:28:11 GMT-0500 (Central Daylight Time)","322036","html-keyboard-response","30","103395","0.0-5.0-2.8","","5717","","<div class='trialBorder'><div class='vertical-center'><img style='vertical-align:center; align:center' src=img/fixation3.jpg></div><div class='cl'><div class='vertical-center'>$24<br>for<br>sure</div></div><div class='cr'><div class='vertical-center'>$70<br>with a<br>50% chance</div></div><div class='respDivL'><div class='vertical-center'>(E)</div></div><div class='respDivR'><div class='vertical-center'>(I)</div></div></div>","I","$24","$70","0","24","70","RISKY"
"","","","offerFB","6400f1783058946c2b4780cd","bdp_rd","Wed Mar 29 2023 10:28:11 GMT-0500 (Central Daylight Time)","322036","html-keyboard-response","31","103655","0.0-5.0-3.8","","null","","<div class='trialBorder'><div class='vertical-center'><img style='vertical-align:center; align:center' src=img/fixation3.jpg></div><div class='cl'><div class='vertical-center'>$24<br>for<br>sure</div></div><div class='cr'><div class='vertical-center'><font style='color:orange'>$70<br>with a<br>50% chance</font></div></div><div class='respDivL'><div class='vertical-center'>(E)</div></div><div class='respDivR'><div class='vertical-center'><font style='color:orange'>(I)</font></div></div></div>","null","$24","$70","0","24","70",""
"","","","FIX","6400f1783058946c2b4780cd","bdp_rd","Wed Mar 29 2023 10:28:11 GMT-0500 (Central Daylight Time)","322036","html-keyboard-response","32","104175","0.0-5.0-1.9","","null","","<div class='trialBorder'><div class='vertical-center'><img style='vertical-align:center; align:center' src=img/fixation3.jpg></div></div>","null","","","","","",""
"","","","offer","6400f1783058946c2b4780cd","bdp_rd","Wed Mar 29 2023 10:28:11 GMT-0500 (Central Daylight Time)","322036","html-keyboard-response","33","107459","0.0-5.0-2.9","","3284","","<div class='trialBorder'><div class='vertical-center'><img style='vertical-align:center; align:center' src=img/fixation3.jpg></div><div class='cl'><div class='vertical-center'>$14<br>for<br>sure</div></div><div class='cr'><div class='vertical-center'>$29<br>with a<br>50% chance</div></div><div class='respDivL'><div class='vertical-center'>(E)</div></div><div class='respDivR'><div class='vertical-center'>(I)</div></div></div>","E","$14","$29","0","14","29","SURE"
"","","","offerFB","6400f1783058946c2b4780cd","bdp_rd","Wed Mar 29 2023 10:28:11 GMT-0500 (Central Daylight Time)","322036","html-keyboard-response","34","107716","0.0-5.0-3.9","","null","","<div class='trialBorder'><div class='vertical-center'><img style='vertical-align:center; align:center' src=img/fixation3.jpg></div><div class='cl'><div class='vertical-center'><font style='color:orange'>$14<br>for<br>sure</font></div></div><div class='cr'><div class='vertical-center'>$29<br>with a<br>50% chance</div></div><div class='respDivL'><div class='vertical-center'><font style='color:orange'>(E)</font></div></div><div class='respDivR'><div class='vertical-center'>(I)</div></div></div>","null","$14","$29","0","14","29",""
"","","","FIX","6400f1783058946c2b4780cd","bdp_rd","Wed Mar 29 2023 10:28:11 GMT-0500 (Central Daylight Time)","322036","html-keyboard-response","35","108235","0.0-5.0-1.10","","null","","<div class='trialBorder'><div class='vertical-center'><img style='vertical-align:center; align:center' src=img/fixation3.jpg></div></div>","null","","","","","",""
"","","","offer","6400f1783058946c2b4780cd","bdp_rd","Wed Mar 29 2023 10:28:11 GMT-0500 (Central Daylight Time)","322036","html-keyboard-response","36","111608","0.0-5.0-2.10","","3372","","<div class='trialBorder'><div class='vertical-center'><img style='vertical-align:center; align:center' src=img/fixation3.jpg></div><div class='cl'><div class='vertical-center'>$27<br>for<br>sure</div></div><div class='cr'><div class='vertical-center'>$47<br>with a<br>50% chance</div></div><div class='respDivL'><div class='vertical-center'>(E)</div></div><div class='respDivR'><div class='vertical-center'>(I)</div></div></div>","E","$27","$47","0","27","47","SURE"
"","","","offerFB","6400f1783058946c2b4780cd","bdp_rd","Wed Mar 29 2023 10:28:11 GMT-0500 (Central Daylight Time)","322036","html-keyboard-response","37","111865","0.0-5.0-3.10","","null","","<div class='trialBorder'><div class='vertical-center'><img style='vertical-align:center; align:center' src=img/fixation3.jpg></div><div class='cl'><div class='vertical-center'><font style='color:orange'>$27<br>for<br>sure</font></div></div><div class='cr'><div class='vertical-center'>$47<br>with a<br>50% chance</div></div><div class='respDivL'><div class='vertical-center'><font style='color:orange'>(E)</font></div></div><div class='respDivR'><div class='vertical-center'>(I)</div></div></div>","null","$27","$47","0","27","47",""
"","","","FIX","6400f1783058946c2b4780cd","bdp_rd","Wed Mar 29 2023 10:28:11 GMT-0500 (Central Daylight Time)","322036","html-keyboard-response","38","112383","0.0-5.0-1.11","","null","","<div class='trialBorder'><div class='vertical-center'><img style='vertical-align:center; align:center' src=img/fixation3.jpg></div></div>","null","","","","","",""
"","","","offer","6400f1783058946c2b4780cd","bdp_rd","Wed Mar 29 2023 10:28:11 GMT-0500 (Central Daylight Time)","322036","html-keyboard-response","39","119758","0.0-5.0-2.11","","7375","","<div class='trialBorder'><div class='vertical-center'><img style='vertical-align:center; align:center' src=img/fixation3.jpg></div><div class='cl'><div class='vertical-center'>$34<br>with a<br>50% chance</div></div><div class='cr'><div class='vertical-center'>$15<br>for<br>sure</div></div><div class='respDivL'><div class='vertical-center'>(E)</div></div><div class='respDivR'><div class='vertical-center'>(I)</div></div></div>","I","$15","$34","1","15","34","SURE"
"","","","offerFB","6400f1783058946c2b4780cd","bdp_rd","Wed Mar 29 2023 10:28:11 GMT-0500 (Central Daylight Time)","322036","html-keyboard-response","40","120015","0.0-5.0-3.11","","null","","<div class='trialBorder'><div class='vertical-center'><img style='vertical-align:center; align:center' src=img/fixation3.jpg></div><div class='cl'><div class='vertical-center'>$34<br>with a<br>50% chance</div></div><div class='cr'><div class='vertical-center'><font style='color:orange'>$15<br>for<br>sure</font></div></div><div class='respDivL'><div class='vertical-center'>(E)</div></div><div class='respDivR'><div class='vertical-center'><font style='color:orange'>(I)</font></div></div></div>","null","$15","$34","1","15","34",""
"","","","FIX","6400f1783058946c2b4780cd","bdp_rd","Wed Mar 29 2023 10:28:11 GMT-0500 (Central Daylight Time)","322036","html-keyboard-response","41","120526","0.0-5.0-1.12","","null","","<div class='trialBorder'><div class='vertical-center'><img style='vertical-align:center; align:center' src=img/fixation3.jpg></div></div>","null","","","","","",""
"","","","offer","6400f1783058946c2b4780cd","bdp_rd","Wed Mar 29 2023 10:28:11 GMT-0500 (Central Daylight Time)","322036","html-keyboard-response","42","127359","0.0-5.0-2.12","","6832","","<div class='trialBorder'><div class='vertical-center'><img style='vertical-align:center; align:center' src=img/fixation3.jpg></div><div class='cl'><div class='vertical-center'>$9<br>for<br>sure</div></div><div class='cr'><div class='vertical-center'>$32<br>with a<br>50% chance</div></div><div class='respDivL'><div class='vertical-center'>(E)</div></div><div class='respDivR'><div class='vertical-center'>(I)</div></div></div>","I","$9","$32","0","9","32","RISKY"
"","","","offerFB","6400f1783058946c2b4780cd","bdp_rd","Wed Mar 29 2023 10:28:11 GMT-0500 (Central Daylight Time)","322036","html-keyboard-response","43","127615","0.0-5.0-3.12","","null","","<div class='trialBorder'><div class='vertical-center'><img style='vertical-align:center; align:center' src=img/fixation3.jpg></div><div class='cl'><div class='vertical-center'>$9<br>for<br>sure</div></div><div class='cr'><div class='vertical-center'><font style='color:orange'>$32<br>with a<br>50% chance</font></div></div><div class='respDivL'><div class='vertical-center'>(E)</div></div><div class='respDivR'><div class='vertical-center'><font style='color:orange'>(I)</font></div></div></div>","null","$9","$32","0","9","32",""
"","","","FIX","6400f1783058946c2b4780cd","bdp_rd","Wed Mar 29 2023 10:28:11 GMT-0500 (Central Daylight Time)","322036","html-keyboard-response","44","128135","0.0-5.0-1.13","","null","","<div class='trialBorder'><div class='vertical-center'><img style='vertical-align:center; align:center' src=img/fixation3.jpg></div></div>","null","","","","","",""
"","","","offer","6400f1783058946c2b4780cd","bdp_rd","Wed Mar 29 2023 10:28:11 GMT-0500 (Central Daylight Time)","322036","html-keyboard-response","45","131658","0.0-5.0-2.13","","3523","","<div class='trialBorder'><div class='vertical-center'><img style='vertical-align:center; align:center' src=img/fixation3.jpg></div><div class='cl'><div class='vertical-center'>$17<br>with a<br>50% chance</div></div><div class='cr'><div class='vertical-center'>$3<br>for<br>sure</div></div><div class='respDivL'><div class='vertical-center'>(E)</div></div><div class='respDivR'><div class='vertical-center'>(I)</div></div></div>","I","$3","$17","1","3","17","SURE"
"","","","offerFB","6400f1783058946c2b4780cd","bdp_rd","Wed Mar 29 2023 10:28:11 GMT-0500 (Central Daylight Time)","322036","html-keyboard-response","46","131925","0.0-5.0-3.13","","null","","<div class='trialBorder'><div class='vertical-center'><img style='vertical-align:center; align:center' src=img/fixation3.jpg></div><div class='cl'><div class='vertical-center'>$17<br>with a<br>50% chance</div></div><div class='cr'><div class='vertical-center'><font style='color:orange'>$3<br>for<br>sure</font></div></div><div class='respDivL'><div class='vertical-center'>(E)</div></div><div class='respDivR'><div class='vertical-center'><font style='color:orange'>(I)</font></div></div></div>","null","$3","$17","1","3","17",""
"","","","FIX","6400f1783058946c2b4780cd","bdp_rd","Wed Mar 29 2023 10:28:11 GMT-0500 (Central Daylight Time)","322036","html-keyboard-response","47","132446","0.0-5.0-1.14","","null","","<div class='trialBorder'><div class='vertical-center'><img style='vertical-align:center; align:center' src=img/fixation3.jpg></div></div>","null","","","","","",""
"","","","offer","6400f1783058946c2b4780cd","bdp_rd","Wed Mar 29 2023 10:28:11 GMT-0500 (Central Daylight Time)","322036","html-keyboard-response","48","139233","0.0-5.0-2.14","","6787","","<div class='trialBorder'><div class='vertical-center'><img style='vertical-align:center; align:center' src=img/fixation3.jpg></div><div class='cl'><div class='vertical-center'>$98<br>with a<br>50% chance</div></div><div class='cr'><div class='vertical-center'>$53<br>for<br>sure</div></div><div class='respDivL'><div class='vertical-center'>(E)</div></div><div class='respDivR'><div class='vertical-center'>(I)</div></div></div>","I","$53","$98","1","53","98","SURE"
"","","","offerFB","6400f1783058946c2b4780cd","bdp_rd","Wed Mar 29 2023 10:28:11 GMT-0500 (Central Daylight Time)","322036","html-keyboard-response","49","139486","0.0-5.0-3.14","","null","","<div class='trialBorder'><div class='vertical-center'><img style='vertical-align:center; align:center' src=img/fixation3.jpg></div><div class='cl'><div class='vertical-center'>$98<br>with a<br>50% chance</div></div><div class='cr'><div class='vertical-center'><font style='color:orange'>$53<br>for<br>sure</font></div></div><div class='respDivL'><div class='vertical-center'>(E)</div></div><div class='respDivR'><div class='vertical-center'><font style='color:orange'>(I)</font></div></div></div>","null","$53","$98","1","53","98",""
"","","","FIX","6400f1783058946c2b4780cd","bdp_rd","Wed Mar 29 2023 10:28:11 GMT-0500 (Central Daylight Time)","322036","html-keyboard-response","50","140006","0.0-5.0-1.15","","null","","<div class='trialBorder'><div class='vertical-center'><img style='vertical-align:center; align:center' src=img/fixation3.jpg></div></div>","null","","","","","",""
"","","","offer","6400f1783058946c2b4780cd","bdp_rd","Wed Mar 29 2023 10:28:11 GMT-0500 (Central Daylight Time)","322036","html-keyboard-response","51","144760","0.0-5.0-2.15","","4754","","<div class='trialBorder'><div class='vertical-center'><img style='vertical-align:center; align:center' src=img/fixation3.jpg></div><div class='cl'><div class='vertical-center'>$12<br>for<br>sure</div></div><div class='cr'><div class='vertical-center'>$27<br>with a<br>50% chance</div></div><div class='respDivL'><div class='vertical-center'>(E)</div></div><div class='respDivR'><div class='vertical-center'>(I)</div></div></div>","E","$12","$27","0","12","27","SURE"
"","","","offerFB","6400f1783058946c2b4780cd","bdp_rd","Wed Mar 29 2023 10:28:11 GMT-0500 (Central Daylight Time)","322036","html-keyboard-response","52","145013","0.0-5.0-3.15","","null","","<div class='trialBorder'><div class='vertical-center'><img style='vertical-align:center; align:center' src=img/fixation3.jpg></div><div class='cl'><div class='vertical-center'><font style='color:orange'>$12<br>for<br>sure</font></div></div><div class='cr'><div class='vertical-center'>$27<br>with a<br>50% chance</div></div><div class='respDivL'><div class='vertical-center'><font style='color:orange'>(E)</font></div></div><div class='respDivR'><div class='vertical-center'>(I)</div></div></div>","null","$12","$27","0","12","27",""
"","","","FIX","6400f1783058946c2b4780cd","bdp_rd","Wed Mar 29 2023 10:28:11 GMT-0500 (Central Daylight Time)","322036","html-keyboard-response","53","145525","0.0-5.0-1.16","","null","","<div class='trialBorder'><div class='vertical-center'><img style='vertical-align:center; align:center' src=img/fixation3.jpg></div></div>","null","","","","","",""
"","","","offer","6400f1783058946c2b4780cd","bdp_rd","Wed Mar 29 2023 10:28:11 GMT-0500 (Central Daylight Time)","322036","html-keyboard-response","54","146895","0.0-5.0-2.16","","1370","","<div class='trialBorder'><div class='vertical-center'><img style='vertical-align:center; align:center' src=img/fixation3.jpg></div><div class='cl'><div class='vertical-center'>$100<br>with a<br>50% chance</div></div><div class='cr'><div class='vertical-center'>$63<br>for<br>sure</div></div><div class='respDivL'><div class='vertical-center'>(E)</div></div><div class='respDivR'><div class='vertical-center'>(I)</div></div></div>","I","$63","$100","1","63","10","SURE"
"","","","offerFB","6400f1783058946c2b4780cd","bdp_rd","Wed Mar 29 2023 10:28:11 GMT-0500 (Central Daylight Time)","322036","html-keyboard-response","55","147166","0.0-5.0-3.16","","null","","<div class='trialBorder'><div class='vertical-center'><img style='vertical-align:center; align:center' src=img/fixation3.jpg></div><div class='cl'><div class='vertical-center'>$100<br>with a<br>50% chance</div></div><div class='cr'><div class='vertical-center'><font style='color:orange'>$63<br>for<br>sure</font></div></div><div class='respDivL'><div class='vertical-center'>(E)</div></div><div class='respDivR'><div class='vertical-center'><font style='color:orange'>(I)</font></div></div></div>","null","$63","$100","1","63","10",""
"","","","FIX","6400f1783058946c2b4780cd","bdp_rd","Wed Mar 29 2023 10:28:11 GMT-0500 (Central Daylight Time)","322036","html-keyboard-response","56","147685","0.0-5.0-1.17","","null","","<div class='trialBorder'><div class='vertical-center'><img style='vertical-align:center; align:center' src=img/fixation3.jpg></div></div>","null","","","","","",""
"","","","offer","6400f1783058946c2b4780cd","bdp_rd","Wed Mar 29 2023 10:28:11 GMT-0500 (Central Daylight Time)","322036","html-keyboard-response","57","151396","0.0-5.0-2.17","","3709","","<div class='trialBorder'><div class='vertical-center'><img style='vertical-align:center; align:center' src=img/fixation3.jpg></div><div class='cl'><div class='vertical-center'>$1<br>for<br>sure</div></div><div class='cr'><div class='vertical-center'>$30<br>with a<br>50% chance</div></div><div class='respDivL'><div class='vertical-center'>(E)</div></div><div class='respDivR'><div class='vertical-center'>(I)</div></div></div>","I","$1","$30","0","1","30","RISKY"
"","","","offerFB","6400f1783058946c2b4780cd","bdp_rd","Wed Mar 29 2023 10:28:11 GMT-0500 (Central Daylight Time)","322036","html-keyboard-response","58","151665","0.0-5.0-3.17","","null","","<div class='trialBorder'><div class='vertical-center'><img style='vertical-align:center; align:center' src=img/fixation3.jpg></div><div class='cl'><div class='vertical-center'>$1<br>for<br>sure</div></div><div class='cr'><div class='vertical-center'><font style='color:orange'>$30<br>with a<br>50% chance</font></div></div><div class='respDivL'><div class='vertical-center'>(E)</div></div><div class='respDivR'><div class='vertical-center'><font style='color:orange'>(I)</font></div></div></div>","null","$1","$30","0","1","30",""
"","","","FIX","6400f1783058946c2b4780cd","bdp_rd","Wed Mar 29 2023 10:28:11 GMT-0500 (Central Daylight Time)","322036","html-keyboard-response","59","152185","0.0-5.0-1.18","","null","","<div class='trialBorder'><div class='vertical-center'><img style='vertical-align:center; align:center' src=img/fixation3.jpg></div></div>","null","","","","","",""
"","","","offer","6400f1783058946c2b4780cd","bdp_rd","Wed Mar 29 2023 10:28:11 GMT-0500 (Central Daylight Time)","322036","html-keyboard-response","60","156133","0.0-5.0-2.18","","3947","","<div class='trialBorder'><div class='vertical-center'><img style='vertical-align:center; align:center' src=img/fixation3.jpg></div><div class='cl'><div class='vertical-center'>$38<br>with a<br>50% chance</div></div><div class='cr'><div class='vertical-center'>$16<br>for<br>sure</div></div><div class='respDivL'><div class='vertical-center'>(E)</div></div><div class='respDivR'><div class='vertical-center'>(I)</div></div></div>","E","$16","$38","1","16","38","RISKY"
"","","","offerFB","6400f1783058946c2b4780cd","bdp_rd","Wed Mar 29 2023 10:28:11 GMT-0500 (Central Daylight Time)","322036","html-keyboard-response","61","156395","0.0-5.0-3.18","","null","","<div class='trialBorder'><div class='vertical-center'><img style='vertical-align:center; align:center' src=img/fixation3.jpg></div><div class='cl'><div class='vertical-center'><font style='color:orange'>$38<br>with a<br>50% chance</font></div></div><div class='cr'><div class='vertical-center'>$16<br>for<br>sure</div></div><div class='respDivL'><div class='vertical-center'><font style='color:orange'>(E)</font></div></div><div class='respDivR'><div class='vertical-center'>(I)</div></div></div>","null","$16","$38","1","16","38",""
"","","","FIX","6400f1783058946c2b4780cd","bdp_rd","Wed Mar 29 2023 10:28:11 GMT-0500 (Central Daylight Time)","322036","html-keyboard-response","62","156915","0.0-5.0-1.19","","null","","<div class='trialBorder'><div class='vertical-center'><img style='vertical-align:center; align:center' src=img/fixation3.jpg></div></div>","null","","","","","",""
"","","","offer","6400f1783058946c2b4780cd","bdp_rd","Wed Mar 29 2023 10:28:11 GMT-0500 (Central Daylight Time)","322036","html-keyboard-response","63","160070","0.0-5.0-2.19","","3155","","<div class='trialBorder'><div class='vertical-center'><img style='vertical-align:center; align:center' src=img/fixation3.jpg></div><div class='cl'><div class='vertical-center'>$12<br>for<br>sure</div></div><div class='cr'><div class='vertical-center'>$35<br>with a<br>50% chance</div></div><div class='respDivL'><div class='vertical-center'>(E)</div></div><div class='respDivR'><div class='vertical-center'>(I)</div></div></div>","I","$12","$35","0","12","35","RISKY"
"","","","offerFB","6400f1783058946c2b4780cd","bdp_rd","Wed Mar 29 2023 10:28:11 GMT-0500 (Central Daylight Time)","322036","html-keyboard-response","64","160325","0.0-5.0-3.19","","null","","<div class='trialBorder'><div class='vertical-center'><img style='vertical-align:center; align:center' src=img/fixation3.jpg></div><div class='cl'><div class='vertical-center'>$12<br>for<br>sure</div></div><div class='cr'><div class='vertical-center'><font style='color:orange'>$35<br>with a<br>50% chance</font></div></div><div class='respDivL'><div class='vertical-center'>(E)</div></div><div class='respDivR'><div class='vertical-center'><font style='color:orange'>(I)</font></div></div></div>","null","$12","$35","0","12","35",""
"","","","FIX","6400f1783058946c2b4780cd","bdp_rd","Wed Mar 29 2023 10:28:11 GMT-0500 (Central Daylight Time)","322036","html-keyboard-response","65","160845","0.0-5.0-1.20","","null","","<div class='trialBorder'><div class='vertical-center'><img style='vertical-align:center; align:center' src=img/fixation3.jpg></div></div>","null","","","","","",""
"","","","offer","6400f1783058946c2b4780cd","bdp_rd","Wed Mar 29 2023 10:28:11 GMT-0500 (Central Daylight Time)","322036","html-keyboard-response","66","165070","0.0-5.0-2.20","","4224","","<div class='trialBorder'><div class='vertical-center'><img style='vertical-align:center; align:center' src=img/fixation3.jpg></div><div class='cl'><div class='vertical-center'>$65<br>with a<br>50% chance</div></div><div class='cr'><div class='vertical-center'>$46<br>for<br>sure</div></div><div class='respDivL'><div class='vertical-center'>(E)</div></div><div class='respDivR'><div class='vertical-center'>(I)</div></div></div>","I","$46","$65","1","46","65","SURE"
"","","","offerFB","6400f1783058946c2b4780cd","bdp_rd","Wed Mar 29 2023 10:28:11 GMT-0500 (Central Daylight Time)","322036","html-keyboard-response","67","165336","0.0-5.0-3.20","","null","","<div class='trialBorder'><div class='vertical-center'><img style='vertical-align:center; align:center' src=img/fixation3.jpg></div><div class='cl'><div class='vertical-center'>$65<br>with a<br>50% chance</div></div><div class='cr'><div class='vertical-center'><font style='color:orange'>$46<br>for<br>sure</font></div></div><div class='respDivL'><div class='vertical-center'>(E)</div></div><div class='respDivR'><div class='vertical-center'><font style='color:orange'>(I)</font></div></div></div>","null","$46","$65","1","46","65",""
"","","","FIX","6400f1783058946c2b4780cd","bdp_rd","Wed Mar 29 2023 10:28:11 GMT-0500 (Central Daylight Time)","322036","html-keyboard-response","68","165855","0.0-5.0-1.21","","null","","<div class='trialBorder'><div class='vertical-center'><img style='vertical-align:center; align:center' src=img/fixation3.jpg></div></div>","null","","","","","",""
"","","","offer","6400f1783058946c2b4780cd","bdp_rd","Wed Mar 29 2023 10:28:11 GMT-0500 (Central Daylight Time)","322036","html-keyboard-response","69","167620","0.0-5.0-2.21","","1764","","<div class='trialBorder'><div class='vertical-center'><img style='vertical-align:center; align:center' src=img/fixation3.jpg></div><div class='cl'><div class='vertical-center'>$64<br>with a<br>50% chance</div></div><div class='cr'><div class='vertical-center'>$2<br>for<br>sure</div></div><div class='respDivL'><div class='vertical-center'>(E)</div></div><div class='respDivR'><div class='vertical-center'>(I)</div></div></div>","E","$2","$64","1","2","64","RISKY"
"","","","offerFB","6400f1783058946c2b4780cd","bdp_rd","Wed Mar 29 2023 10:28:11 GMT-0500 (Central Daylight Time)","322036","html-keyboard-response","70","167875","0.0-5.0-3.21","","null","","<div class='trialBorder'><div class='vertical-center'><img style='vertical-align:center; align:center' src=img/fixation3.jpg></div><div class='cl'><div class='vertical-center'><font style='color:orange'>$64<br>with a<br>50% chance</font></div></div><div class='cr'><div class='vertical-center'>$2<br>for<br>sure</div></div><div class='respDivL'><div class='vertical-center'><font style='color:orange'>(E)</font></div></div><div class='respDivR'><div class='vertical-center'>(I)</div></div></div>","null","$2","$64","1","2","64",""
"","","","FIX","6400f1783058946c2b4780cd","bdp_rd","Wed Mar 29 2023 10:28:11 GMT-0500 (Central Daylight Time)","322036","html-keyboard-response","71","168385","0.0-5.0-1.22","","null","","<div class='trialBorder'><div class='vertical-center'><img style='vertical-align:center; align:center' src=img/fixation3.jpg></div></div>","null","","","","","",""
"","","","offer","6400f1783058946c2b4780cd","bdp_rd","Wed Mar 29 2023 10:28:11 GMT-0500 (Central Daylight Time)","322036","html-keyboard-response","72","170671","0.0-5.0-2.22","","2286","","<div class='trialBorder'><div class='vertical-center'><img style='vertical-align:center; align:center' src=img/fixation3.jpg></div><div class='cl'><div class='vertical-center'>$45<br>for<br>sure</div></div><div class='cr'><div class='vertical-center'>$86<br>with a<br>50% chance</div></div><div class='respDivL'><div class='vertical-center'>(E)</div></div><div class='respDivR'><div class='vertical-center'>(I)</div></div></div>","E","$45","$86","0","45","86","SURE"
"","","","offerFB","6400f1783058946c2b4780cd","bdp_rd","Wed Mar 29 2023 10:28:11 GMT-0500 (Central Daylight Time)","322036","html-keyboard-response","73","170934","0.0-5.0-3.22","","null","","<div class='trialBorder'><div class='vertical-center'><img style='vertical-align:center; align:center' src=img/fixation3.jpg></div><div class='cl'><div class='vertical-center'><font style='color:orange'>$45<br>for<br>sure</font></div></div><div class='cr'><div class='vertical-center'>$86<br>with a<br>50% chance</div></div><div class='respDivL'><div class='vertical-center'><font style='color:orange'>(E)</font></div></div><div class='respDivR'><div class='vertical-center'>(I)</div></div></div>","null","$45","$86","0","45","86",""
"","","","FIX","6400f1783058946c2b4780cd","bdp_rd","Wed Mar 29 2023 10:28:11 GMT-0500 (Central Daylight Time)","322036","html-keyboard-response","74","171435","0.0-5.0-1.23","","null","","<div class='trialBorder'><div class='vertical-center'><img style='vertical-align:center; align:center' src=img/fixation3.jpg></div></div>","null","","","","","",""
"","","","offer","6400f1783058946c2b4780cd","bdp_rd","Wed Mar 29 2023 10:28:11 GMT-0500 (Central Daylight Time)","322036","html-keyboard-response","75","174271","0.0-5.0-2.23","","2835","","<div class='trialBorder'><div class='vertical-center'><img style='vertical-align:center; align:center' src=img/fixation3.jpg></div><div class='cl'><div class='vertical-center'>$29<br>for<br>sure</div></div><div class='cr'><div class='vertical-center'>$46<br>with a<br>50% chance</div></div><div class='respDivL'><div class='vertical-center'>(E)</div></div><div class='respDivR'><div class='vertical-center'>(I)</div></div></div>","E","$29","$46","0","29","46","SURE"
"","","","offerFB","6400f1783058946c2b4780cd","bdp_rd","Wed Mar 29 2023 10:28:11 GMT-0500 (Central Daylight Time)","322036","html-keyboard-response","76","174525","0.0-5.0-3.23","","null","","<div class='trialBorder'><div class='vertical-center'><img style='vertical-align:center; align:center' src=img/fixation3.jpg></div><div class='cl'><div class='vertical-center'><font style='color:orange'>$29<br>for<br>sure</font></div></div><div class='cr'><div class='vertical-center'>$46<br>with a<br>50% chance</div></div><div class='respDivL'><div class='vertical-center'><font style='color:orange'>(E)</font></div></div><div class='respDivR'><div class='vertical-center'>(I)</div></div></div>","null","$29","$46","0","29","46",""
"","","","FIX","6400f1783058946c2b4780cd","bdp_rd","Wed Mar 29 2023 10:28:11 GMT-0500 (Central Daylight Time)","322036","html-keyboard-response","77","175046","0.0-5.0-1.24","","null","","<div class='trialBorder'><div class='vertical-center'><img style='vertical-align:center; align:center' src=img/fixation3.jpg></div></div>","null","","","","","",""
"","","","offer","6400f1783058946c2b4780cd","bdp_rd","Wed Mar 29 2023 10:28:11 GMT-0500 (Central Daylight Time)","322036","html-keyboard-response","78","176820","0.0-5.0-2.24","","1774","","<div class='trialBorder'><div class='vertical-center'><img style='vertical-align:center; align:center' src=img/fixation3.jpg></div><div class='cl'><div class='vertical-center'>$81<br>with a<br>50% chance</div></div><div class='cr'><div class='vertical-center'>$39<br>for<br>sure</div></div><div class='respDivL'><div class='vertical-center'>(E)</div></div><div class='respDivR'><div class='vertical-center'>(I)</div></div></div>","I","$39","$81","1","39","81","SURE"
"","","","offerFB","6400f1783058946c2b4780cd","bdp_rd","Wed Mar 29 2023 10:28:11 GMT-0500 (Central Daylight Time)","322036","html-keyboard-response","79","177081","0.0-5.0-3.24","","null","","<div class='trialBorder'><div class='vertical-center'><img style='vertical-align:center; align:center' src=img/fixation3.jpg></div><div class='cl'><div class='vertical-center'>$81<br>with a<br>50% chance</div></div><div class='cr'><div class='vertical-center'><font style='color:orange'>$39<br>for<br>sure</font></div></div><div class='respDivL'><div class='vertical-center'>(E)</div></div><div class='respDivR'><div class='vertical-center'><font style='color:orange'>(I)</font></div></div></div>","null","$39","$81","1","39","81",""
"","","","FIX","6400f1783058946c2b4780cd","bdp_rd","Wed Mar 29 2023 10:28:11 GMT-0500 (Central Daylight Time)","322036","html-keyboard-response","80","177595","0.0-5.0-1.25","","null","","<div class='trialBorder'><div class='vertical-center'><img style='vertical-align:center; align:center' src=img/fixation3.jpg></div></div>","null","","","","","",""
"","","","offer","6400f1783058946c2b4780cd","bdp_rd","Wed Mar 29 2023 10:28:11 GMT-0500 (Central Daylight Time)","322036","html-keyboard-response","81","182133","0.0-5.0-2.25","","4538","","<div class='trialBorder'><div class='vertical-center'><img style='vertical-align:center; align:center' src=img/fixation3.jpg></div><div class='cl'><div class='vertical-center'>$22<br>for<br>sure</div></div><div class='cr'><div class='vertical-center'>$59<br>with a<br>50% chance</div></div><div class='respDivL'><div class='vertical-center'>(E)</div></div><div class='respDivR'><div class='vertical-center'>(I)</div></div></div>","E","$22","$59","0","22","59","SURE"
"","","","offerFB","6400f1783058946c2b4780cd","bdp_rd","Wed Mar 29 2023 10:28:11 GMT-0500 (Central Daylight Time)","322036","html-keyboard-response","82","182395","0.0-5.0-3.25","","null","","<div class='trialBorder'><div class='vertical-center'><img style='vertical-align:center; align:center' src=img/fixation3.jpg></div><div class='cl'><div class='vertical-center'><font style='color:orange'>$22<br>for<br>sure</font></div></div><div class='cr'><div class='vertical-center'>$59<br>with a<br>50% chance</div></div><div class='respDivL'><div class='vertical-center'><font style='color:orange'>(E)</font></div></div><div class='respDivR'><div class='vertical-center'>(I)</div></div></div>","null","$22","$59","0","22","59",""
"","","","FIX","6400f1783058946c2b4780cd","bdp_rd","Wed Mar 29 2023 10:28:11 GMT-0500 (Central Daylight Time)","322036","html-keyboard-response","83","182905","0.0-5.0-1.26","","null","","<div class='trialBorder'><div class='vertical-center'><img style='vertical-align:center; align:center' src=img/fixation3.jpg></div></div>","null","","","","","",""
"","","","offer","6400f1783058946c2b4780cd","bdp_rd","Wed Mar 29 2023 10:28:11 GMT-0500 (Central Daylight Time)","322036","html-keyboard-response","84","185421","0.0-5.0-2.26","","2515","","<div class='trialBorder'><div class='vertical-center'><img style='vertical-align:center; align:center' src=img/fixation3.jpg></div><div class='cl'><div class='vertical-center'>$42<br>with a<br>50% chance</div></div><div class='cr'><div class='vertical-center'>$22<br>for<br>sure</div></div><div class='respDivL'><div class='vertical-center'>(E)</div></div><div class='respDivR'><div class='vertical-center'>(I)</div></div></div>","I","$22","$42","1","22","42","SURE"
"","","","offerFB","6400f1783058946c2b4780cd","bdp_rd","Wed Mar 29 2023 10:28:11 GMT-0500 (Central Daylight Time)","322036","html-keyboard-response","85","185685","0.0-5.0-3.26","","null","","<div class='trialBorder'><div class='vertical-center'><img style='vertical-align:center; align:center' src=img/fixation3.jpg></div><div class='cl'><div class='vertical-center'>$42<br>with a<br>50% chance</div></div><div class='cr'><div class='vertical-center'><font style='color:orange'>$22<br>for<br>sure</font></div></div><div class='respDivL'><div class='vertical-center'>(E)</div></div><div class='respDivR'><div class='vertical-center'><font style='color:orange'>(I)</font></div></div></div>","null","$22","$42","1","22","42",""
"","","","FIX","6400f1783058946c2b4780cd","bdp_rd","Wed Mar 29 2023 10:28:11 GMT-0500 (Central Daylight Time)","322036","html-keyboard-response","86","186205","0.0-5.0-1.27","","null","","<div class='trialBorder'><div class='vertical-center'><img style='vertical-align:center; align:center' src=img/fixation3.jpg></div></div>","null","","","","","",""
"","","","offer","6400f1783058946c2b4780cd","bdp_rd","Wed Mar 29 2023 10:28:11 GMT-0500 (Central Daylight Time)","322036","html-keyboard-response","87","190508","0.0-5.0-2.27","","4302","","<div class='trialBorder'><div class='vertical-center'><img style='vertical-align:center; align:center' src=img/fixation3.jpg></div><div class='cl'><div class='vertical-center'>$62<br>with a<br>50% chance</div></div><div class='cr'><div class='vertical-center'>$11<br>for<br>sure</div></div><div class='respDivL'><div class='vertical-center'>(E)</div></div><div class='respDivR'><div class='vertical-center'>(I)</div></div></div>","E","$11","$62","1","11","62","RISKY"
"","","","offerFB","6400f1783058946c2b4780cd","bdp_rd","Wed Mar 29 2023 10:28:11 GMT-0500 (Central Daylight Time)","322036","html-keyboard-response","88","190765","0.0-5.0-3.27","","null","","<div class='trialBorder'><div class='vertical-center'><img style='vertical-align:center; align:center' src=img/fixation3.jpg></div><div class='cl'><div class='vertical-center'><font style='color:orange'>$62<br>with a<br>50% chance</font></div></div><div class='cr'><div class='vertical-center'>$11<br>for<br>sure</div></div><div class='respDivL'><div class='vertical-center'><font style='color:orange'>(E)</font></div></div><div class='respDivR'><div class='vertical-center'>(I)</div></div></div>","null","$11","$62","1","11","62",""
"","","","FIX","6400f1783058946c2b4780cd","bdp_rd","Wed Mar 29 2023 10:28:11 GMT-0500 (Central Daylight Time)","322036","html-keyboard-response","89","191285","0.0-5.0-1.28","","null","","<div class='trialBorder'><div class='vertical-center'><img style='vertical-align:center; align:center' src=img/fixation3.jpg></div></div>","null","","","","","",""
"","","","offer","6400f1783058946c2b4780cd","bdp_rd","Wed Mar 29 2023 10:28:11 GMT-0500 (Central Daylight Time)","322036","html-keyboard-response","90","194221","0.0-5.0-2.28","","2934","","<div class='trialBorder'><div class='vertical-center'><img style='vertical-align:center; align:center' src=img/fixation3.jpg></div><div class='cl'><div class='vertical-center'>$25<br>with a<br>50% chance</div></div><div class='cr'><div class='vertical-center'>$21<br>for<br>sure</div></div><div class='respDivL'><div class='vertical-center'>(E)</div></div><div class='respDivR'><div class='vertical-center'>(I)</div></div></div>","I","$21","$25","1","21","25","SURE"
"","","","offerFB","6400f1783058946c2b4780cd","bdp_rd","Wed Mar 29 2023 10:28:11 GMT-0500 (Central Daylight Time)","322036","html-keyboard-response","91","194485","0.0-5.0-3.28","","null","","<div class='trialBorder'><div class='vertical-center'><img style='vertical-align:center; align:center' src=img/fixation3.jpg></div><div class='cl'><div class='vertical-center'>$25<br>with a<br>50% chance</div></div><div class='cr'><div class='vertical-center'><font style='color:orange'>$21<br>for<br>sure</font></div></div><div class='respDivL'><div class='vertical-center'>(E)</div></div><div class='respDivR'><div class='vertical-center'><font style='color:orange'>(I)</font></div></div></div>","null","$21","$25","1","21","25",""
"","","","FIX","6400f1783058946c2b4780cd","bdp_rd","Wed Mar 29 2023 10:28:11 GMT-0500 (Central Daylight Time)","322036","html-keyboard-response","92","195006","0.0-5.0-1.29","","null","","<div class='trialBorder'><div class='vertical-center'><img style='vertical-align:center; align:center' src=img/fixation3.jpg></div></div>","null","","","","","",""
"","","","offer","6400f1783058946c2b4780cd","bdp_rd","Wed Mar 29 2023 10:28:11 GMT-0500 (Central Daylight Time)","322036","html-keyboard-response","93","196545","0.0-5.0-2.29","","1539","","<div class='trialBorder'><div class='vertical-center'><img style='vertical-align:center; align:center' src=img/fixation3.jpg></div><div class='cl'><div class='vertical-center'>$58<br>for<br>sure</div></div><div class='cr'><div class='vertical-center'>$69<br>with a<br>50% chance</div></div><div class='respDivL'><div class='vertical-center'>(E)</div></div><div class='respDivR'><div class='vertical-center'>(I)</div></div></div>","E","$58","$69","0","58","69","SURE"
"","","","offerFB","6400f1783058946c2b4780cd","bdp_rd","Wed Mar 29 2023 10:28:11 GMT-0500 (Central Daylight Time)","322036","html-keyboard-response","94","196815","0.0-5.0-3.29","","null","","<div class='trialBorder'><div class='vertical-center'><img style='vertical-align:center; align:center' src=img/fixation3.jpg></div><div class='cl'><div class='vertical-center'><font style='color:orange'>$58<br>for<br>sure</font></div></div><div class='cr'><div class='vertical-center'>$69<br>with a<br>50% chance</div></div><div class='respDivL'><div class='vertical-center'><font style='color:orange'>(E)</font></div></div><div class='respDivR'><div class='vertical-center'>(I)</div></div></div>","null","$58","$69","0","58","69",""
"","","","FIX","6400f1783058946c2b4780cd","bdp_rd","Wed Mar 29 2023 10:28:11 GMT-0500 (Central Daylight Time)","322036","html-keyboard-response","95","197335","0.0-5.0-1.30","","null","","<div class='trialBorder'><div class='vertical-center'><img style='vertical-align:center; align:center' src=img/fixation3.jpg></div></div>","null","","","","","",""
"","","","offer","6400f1783058946c2b4780cd","bdp_rd","Wed Mar 29 2023 10:28:11 GMT-0500 (Central Daylight Time)","322036","html-keyboard-response","96","198909","0.0-5.0-2.30","","1573","","<div class='trialBorder'><div class='vertical-center'><img style='vertical-align:center; align:center' src=img/fixation3.jpg></div><div class='cl'><div class='vertical-center'>$16<br>for<br>sure</div></div><div class='cr'><div class='vertical-center'>$28<br>with a<br>50% chance</div></div><div class='respDivL'><div class='vertical-center'>(E)</div></div><div class='respDivR'><div class='vertical-center'>(I)</div></div></div>","E","$16","$28","0","16","28","SURE"
"","","","offerFB","6400f1783058946c2b4780cd","bdp_rd","Wed Mar 29 2023 10:28:11 GMT-0500 (Central Daylight Time)","322036","html-keyboard-response","97","199165","0.0-5.0-3.30","","null","","<div class='trialBorder'><div class='vertical-center'><img style='vertical-align:center; align:center' src=img/fixation3.jpg></div><div class='cl'><div class='vertical-center'><font style='color:orange'>$16<br>for<br>sure</font></div></div><div class='cr'><div class='vertical-center'>$28<br>with a<br>50% chance</div></div><div class='respDivL'><div class='vertical-center'><font style='color:orange'>(E)</font></div></div><div class='respDivR'><div class='vertical-center'>(I)</div></div></div>","null","$16","$28","0","16","28",""
"","","","FIX","6400f1783058946c2b4780cd","bdp_rd","Wed Mar 29 2023 10:28:11 GMT-0500 (Central Daylight Time)","322036","html-keyboard-response","98","199675","0.0-5.0-1.31","","null","","<div class='trialBorder'><div class='vertical-center'><img style='vertical-align:center; align:center' src=img/fixation3.jpg></div></div>","null","","","","","",""
"","","","offer","6400f1783058946c2b4780cd","bdp_rd","Wed Mar 29 2023 10:28:11 GMT-0500 (Central Daylight Time)","322036","html-keyboard-response","99","202233","0.0-5.0-2.31","","2556","","<div class='trialBorder'><div class='vertical-center'><img style='vertical-align:center; align:center' src=img/fixation3.jpg></div><div class='cl'><div class='vertical-center'>$25<br>for<br>sure</div></div><div class='cr'><div class='vertical-center'>$54<br>with a<br>50% chance</div></div><div class='respDivL'><div class='vertical-center'>(E)</div></div><div class='respDivR'><div class='vertical-center'>(I)</div></div></div>","E","$25","$54","0","25","54","SURE"
"","","","offerFB","6400f1783058946c2b4780cd","bdp_rd","Wed Mar 29 2023 10:28:11 GMT-0500 (Central Daylight Time)","322036","html-keyboard-response","100","202485","0.0-5.0-3.31","","null","","<div class='trialBorder'><div class='vertical-center'><img style='vertical-align:center; align:center' src=img/fixation3.jpg></div><div class='cl'><div class='vertical-center'><font style='color:orange'>$25<br>for<br>sure</font></div></div><div class='cr'><div class='vertical-center'>$54<br>with a<br>50% chance</div></div><div class='respDivL'><div class='vertical-center'><font style='color:orange'>(E)</font></div></div><div class='respDivR'><div class='vertical-center'>(I)</div></div></div>","null","$25","$54","0","25","54",""
"","","","FIX","6400f1783058946c2b4780cd","bdp_rd","Wed Mar 29 2023 10:28:11 GMT-0500 (Central Daylight Time)","322036","html-keyboard-response","101","202995","0.0-5.0-1.32","","null","","<div class='trialBorder'><div class='vertical-center'><img style='vertical-align:center; align:center' src=img/fixation3.jpg></div></div>","null","","","","","",""
"","","","offer","6400f1783058946c2b4780cd","bdp_rd","Wed Mar 29 2023 10:28:11 GMT-0500 (Central Daylight Time)","322036","html-keyboard-response","102","208857","0.0-5.0-2.32","","5861","","<div class='trialBorder'><div class='vertical-center'><img style='vertical-align:center; align:center' src=img/fixation3.jpg></div><div class='cl'><div class='vertical-center'>$4<br>for<br>sure</div></div><div class='cr'><div class='vertical-center'>$11<br>with a<br>50% chance</div></div><div class='respDivL'><div class='vertical-center'>(E)</div></div><div class='respDivR'><div class='vertical-center'>(I)</div></div></div>","I","$4","$11","0","4","11","RISKY"
"","","","offerFB","6400f1783058946c2b4780cd","bdp_rd","Wed Mar 29 2023 10:28:11 GMT-0500 (Central Daylight Time)","322036","html-keyboard-response","103","209125","0.0-5.0-3.32","","null","","<div class='trialBorder'><div class='vertical-center'><img style='vertical-align:center; align:center' src=img/fixation3.jpg></div><div class='cl'><div class='vertical-center'>$4<br>for<br>sure</div></div><div class='cr'><div class='vertical-center'><font style='color:orange'>$11<br>with a<br>50% chance</font></div></div><div class='respDivL'><div class='vertical-center'>(E)</div></div><div class='respDivR'><div class='vertical-center'><font style='color:orange'>(I)</font></div></div></div>","null","$4","$11","0","4","11",""
"","","","FIX","6400f1783058946c2b4780cd","bdp_rd","Wed Mar 29 2023 10:28:11 GMT-0500 (Central Daylight Time)","322036","html-keyboard-response","104","209645","0.0-5.0-1.33","","null","","<div class='trialBorder'><div class='vertical-center'><img style='vertical-align:center; align:center' src=img/fixation3.jpg></div></div>","null","","","","","",""
"","","","offer","6400f1783058946c2b4780cd","bdp_rd","Wed Mar 29 2023 10:28:11 GMT-0500 (Central Daylight Time)","322036","html-keyboard-response","105","211345","0.0-5.0-2.33","","1699","","<div class='trialBorder'><div class='vertical-center'><img style='vertical-align:center; align:center' src=img/fixation3.jpg></div><div class='cl'><div class='vertical-center'>$30<br>for<br>sure</div></div><div class='cr'><div class='vertical-center'>$68<br>with a<br>50% chance</div></div><div class='respDivL'><div class='vertical-center'>(E)</div></div><div class='respDivR'><div class='vertical-center'>(I)</div></div></div>","E","$30","$68","0","30","68","SURE"
"","","","offerFB","6400f1783058946c2b4780cd","bdp_rd","Wed Mar 29 2023 10:28:11 GMT-0500 (Central Daylight Time)","322036","html-keyboard-response","106","211615","0.0-5.0-3.33","","null","","<div class='trialBorder'><div class='vertical-center'><img style='vertical-align:center; align:center' src=img/fixation3.jpg></div><div class='cl'><div class='vertical-center'><font style='color:orange'>$30<br>for<br>sure</font></div></div><div class='cr'><div class='vertical-center'>$68<br>with a<br>50% chance</div></div><div class='respDivL'><div class='vertical-center'><font style='color:orange'>(E)</font></div></div><div class='respDivR'><div class='vertical-center'>(I)</div></div></div>","null","$30","$68","0","30","68",""
"","","","FIX","6400f1783058946c2b4780cd","bdp_rd","Wed Mar 29 2023 10:28:11 GMT-0500 (Central Daylight Time)","322036","html-keyboard-response","107","212135","0.0-5.0-1.34","","null","","<div class='trialBorder'><div class='vertical-center'><img style='vertical-align:center; align:center' src=img/fixation3.jpg></div></div>","null","","","","","",""
"","","","offer","6400f1783058946c2b4780cd","bdp_rd","Wed Mar 29 2023 10:28:11 GMT-0500 (Central Daylight Time)","322036","html-keyboard-response","108","216146","0.0-5.0-2.34","","4010","","<div class='trialBorder'><div class='vertical-center'><img style='vertical-align:center; align:center' src=img/fixation3.jpg></div><div class='cl'><div class='vertical-center'>$78<br>with a<br>50% chance</div></div><div class='cr'><div class='vertical-center'>$31<br>for<br>sure</div></div><div class='respDivL'><div class='vertical-center'>(E)</div></div><div class='respDivR'><div class='vertical-center'>(I)</div></div></div>","I","$31","$78","1","31","78","SURE"
"","","","offerFB","6400f1783058946c2b4780cd","bdp_rd","Wed Mar 29 2023 10:28:11 GMT-0500 (Central Daylight Time)","322036","html-keyboard-response","109","216406","0.0-5.0-3.34","","null","","<div class='trialBorder'><div class='vertical-center'><img style='vertical-align:center; align:center' src=img/fixation3.jpg></div><div class='cl'><div class='vertical-center'>$78<br>with a<br>50% chance</div></div><div class='cr'><div class='vertical-center'><font style='color:orange'>$31<br>for<br>sure</font></div></div><div class='respDivL'><div class='vertical-center'>(E)</div></div><div class='respDivR'><div class='vertical-center'><font style='color:orange'>(I)</font></div></div></div>","null","$31","$78","1","31","78",""
"","","","FIX","6400f1783058946c2b4780cd","bdp_rd","Wed Mar 29 2023 10:28:11 GMT-0500 (Central Daylight Time)","322036","html-keyboard-response","110","216926","0.0-5.0-1.35","","null","","<div class='trialBorder'><div class='vertical-center'><img style='vertical-align:center; align:center' src=img/fixation3.jpg></div></div>","null","","","","","",""
"","","","offer","6400f1783058946c2b4780cd","bdp_rd","Wed Mar 29 2023 10:28:11 GMT-0500 (Central Daylight Time)","322036","html-keyboard-response","111","222933","0.0-5.0-2.35","","6006","","<div class='trialBorder'><div class='vertical-center'><img style='vertical-align:center; align:center' src=img/fixation3.jpg></div><div class='cl'><div class='vertical-center'>$23<br>with a<br>50% chance</div></div><div class='cr'><div class='vertical-center'>$8<br>for<br>sure</div></div><div class='respDivL'><div class='vertical-center'>(E)</div></div><div class='respDivR'><div class='vertical-center'>(I)</div></div></div>","I","$8","$23","1","8","23","SURE"
"","","","offerFB","6400f1783058946c2b4780cd","bdp_rd","Wed Mar 29 2023 10:28:11 GMT-0500 (Central Daylight Time)","322036","html-keyboard-response","112","223196","0.0-5.0-3.35","","null","","<div class='trialBorder'><div class='vertical-center'><img style='vertical-align:center; align:center' src=img/fixation3.jpg></div><div class='cl'><div class='vertical-center'>$23<br>with a<br>50% chance</div></div><div class='cr'><div class='vertical-center'><font style='color:orange'>$8<br>for<br>sure</font></div></div><div class='respDivL'><div class='vertical-center'>(E)</div></div><div class='respDivR'><div class='vertical-center'><font style='color:orange'>(I)</font></div></div></div>","null","$8","$23","1","8","23",""
"","","","FIX","6400f1783058946c2b4780cd","bdp_rd","Wed Mar 29 2023 10:28:11 GMT-0500 (Central Daylight Time)","322036","html-keyboard-response","113","223706","0.0-5.0-1.36","","null","","<div class='trialBorder'><div class='vertical-center'><img style='vertical-align:center; align:center' src=img/fixation3.jpg></div></div>","null","","","","","",""
"","","","offer","6400f1783058946c2b4780cd","bdp_rd","Wed Mar 29 2023 10:28:11 GMT-0500 (Central Daylight Time)","322036","html-keyboard-response","114","227633","0.0-5.0-2.36","","3926","","<div class='trialBorder'><div class='vertical-center'><img style='vertical-align:center; align:center' src=img/fixation3.jpg></div><div class='cl'><div class='vertical-center'>$7<br>for<br>sure</div></div><div class='cr'><div class='vertical-center'>$10<br>with a<br>50% chance</div></div><div class='respDivL'><div class='vertical-center'>(E)</div></div><div class='respDivR'><div class='vertical-center'>(I)</div></div></div>","E","$7","$10","0","7","10","SURE"
"","","","offerFB","6400f1783058946c2b4780cd","bdp_rd","Wed Mar 29 2023 10:28:11 GMT-0500 (Central Daylight Time)","322036","html-keyboard-response","115","227885","0.0-5.0-3.36","","null","","<div class='trialBorder'><div class='vertical-center'><img style='vertical-align:center; align:center' src=img/fixation3.jpg></div><div class='cl'><div class='vertical-center'><font style='color:orange'>$7<br>for<br>sure</font></div></div><div class='cr'><div class='vertical-center'>$10<br>with a<br>50% chance</div></div><div class='respDivL'><div class='vertical-center'><font style='color:orange'>(E)</font></div></div><div class='respDivR'><div class='vertical-center'>(I)</div></div></div>","null","$7","$10","0","7","10",""
"","","","FIX","6400f1783058946c2b4780cd","bdp_rd","Wed Mar 29 2023 10:28:11 GMT-0500 (Central Daylight Time)","322036","html-keyboard-response","116","228395","0.0-5.0-1.37","","null","","<div class='trialBorder'><div class='vertical-center'><img style='vertical-align:center; align:center' src=img/fixation3.jpg></div></div>","null","","","","","",""
"","","","offer","6400f1783058946c2b4780cd","bdp_rd","Wed Mar 29 2023 10:28:11 GMT-0500 (Central Daylight Time)","322036","html-keyboard-response","117","230308","0.0-5.0-2.37","","1912","","<div class='trialBorder'><div class='vertical-center'><img style='vertical-align:center; align:center' src=img/fixation3.jpg></div><div class='cl'><div class='vertical-center'>$22<br>with a<br>50% chance</div></div><div class='cr'><div class='vertical-center'>$14<br>for<br>sure</div></div><div class='respDivL'><div class='vertical-center'>(E)</div></div><div class='respDivR'><div class='vertical-center'>(I)</div></div></div>","I","$14","$22","1","14","22","SURE"
"","","","offerFB","6400f1783058946c2b4780cd","bdp_rd","Wed Mar 29 2023 10:28:11 GMT-0500 (Central Daylight Time)","322036","html-keyboard-response","118","230575","0.0-5.0-3.37","","null","","<div class='trialBorder'><div class='vertical-center'><img style='vertical-align:center; align:center' src=img/fixation3.jpg></div><div class='cl'><div class='vertical-center'>$22<br>with a<br>50% chance</div></div><div class='cr'><div class='vertical-center'><font style='color:orange'>$14<br>for<br>sure</font></div></div><div class='respDivL'><div class='vertical-center'>(E)</div></div><div class='respDivR'><div class='vertical-center'><font style='color:orange'>(I)</font></div></div></div>","null","$14","$22","1","14","22",""
"","","","FIX","6400f1783058946c2b4780cd","bdp_rd","Wed Mar 29 2023 10:28:11 GMT-0500 (Central Daylight Time)","322036","html-keyboard-response","119","231096","0.0-5.0-1.38","","null","","<div class='trialBorder'><div class='vertical-center'><img style='vertical-align:center; align:center' src=img/fixation3.jpg></div></div>","null","","","","","",""
"","","","offer","6400f1783058946c2b4780cd","bdp_rd","Wed Mar 29 2023 10:28:11 GMT-0500 (Central Daylight Time)","322036","html-keyboard-response","120","233145","0.0-5.0-2.38","","2049","","<div class='trialBorder'><div class='vertical-center'><img style='vertical-align:center; align:center' src=img/fixation3.jpg></div><div class='cl'><div class='vertical-center'>$33<br>for<br>sure</div></div><div class='cr'><div class='vertical-center'>$66<br>with a<br>50% chance</div></div><div class='respDivL'><div class='vertical-center'>(E)</div></div><div class='respDivR'><div class='vertical-center'>(I)</div></div></div>","E","$33","$66","0","33","66","SURE"
"","","","offerFB","6400f1783058946c2b4780cd","bdp_rd","Wed Mar 29 2023 10:28:11 GMT-0500 (Central Daylight Time)","322036","html-keyboard-response","121","233416","0.0-5.0-3.38","","null","","<div class='trialBorder'><div class='vertical-center'><img style='vertical-align:center; align:center' src=img/fixation3.jpg></div><div class='cl'><div class='vertical-center'><font style='color:orange'>$33<br>for<br>sure</font></div></div><div class='cr'><div class='vertical-center'>$66<br>with a<br>50% chance</div></div><div class='respDivL'><div class='vertical-center'><font style='color:orange'>(E)</font></div></div><div class='respDivR'><div class='vertical-center'>(I)</div></div></div>","null","$33","$66","0","33","66",""
"","","","FIX","6400f1783058946c2b4780cd","bdp_rd","Wed Mar 29 2023 10:28:11 GMT-0500 (Central Daylight Time)","322036","html-keyboard-response","122","233936","0.0-5.0-1.39","","null","","<div class='trialBorder'><div class='vertical-center'><img style='vertical-align:center; align:center' src=img/fixation3.jpg></div></div>","null","","","","","",""
"","","","offer","6400f1783058946c2b4780cd","bdp_rd","Wed Mar 29 2023 10:28:11 GMT-0500 (Central Daylight Time)","322036","html-keyboard-response","123","236870","0.0-5.0-2.39","","2934","","<div class='trialBorder'><div class='vertical-center'><img style='vertical-align:center; align:center' src=img/fixation3.jpg></div><div class='cl'><div class='vertical-center'>$45<br>with a<br>50% chance</div></div><div class='cr'><div class='vertical-center'>$8<br>for<br>sure</div></div><div class='respDivL'><div class='vertical-center'>(E)</div></div><div class='respDivR'><div class='vertical-center'>(I)</div></div></div>","E","$8","$45","1","8","45","RISKY"
"","","","offerFB","6400f1783058946c2b4780cd","bdp_rd","Wed Mar 29 2023 10:28:11 GMT-0500 (Central Daylight Time)","322036","html-keyboard-response","124","237136","0.0-5.0-3.39","","null","","<div class='trialBorder'><div class='vertical-center'><img style='vertical-align:center; align:center' src=img/fixation3.jpg></div><div class='cl'><div class='vertical-center'><font style='color:orange'>$45<br>with a<br>50% chance</font></div></div><div class='cr'><div class='vertical-center'>$8<br>for<br>sure</div></div><div class='respDivL'><div class='vertical-center'><font style='color:orange'>(E)</font></div></div><div class='respDivR'><div class='vertical-center'>(I)</div></div></div>","null","$8","$45","1","8","45",""
"","","","FIX","6400f1783058946c2b4780cd","bdp_rd","Wed Mar 29 2023 10:28:11 GMT-0500 (Central Daylight Time)","322036","html-keyboard-response","125","237645","0.0-5.0-1.40","","null","","<div class='trialBorder'><div class='vertical-center'><img style='vertical-align:center; align:center' src=img/fixation3.jpg></div></div>","null","","","","","",""
"","","","offer","6400f1783058946c2b4780cd","bdp_rd","Wed Mar 29 2023 10:28:11 GMT-0500 (Central Daylight Time)","322036","html-keyboard-response","126","239819","0.0-5.0-2.40","","2173","","<div class='trialBorder'><div class='vertical-center'><img style='vertical-align:center; align:center' src=img/fixation3.jpg></div><div class='cl'><div class='vertical-center'>$37<br>with a<br>50% chance</div></div><div class='cr'><div class='vertical-center'>$20<br>for<br>sure</div></div><div class='respDivL'><div class='vertical-center'>(E)</div></div><div class='respDivR'><div class='vertical-center'>(I)</div></div></div>","I","$20","$37","1","20","37","SURE"
"","","","offerFB","6400f1783058946c2b4780cd","bdp_rd","Wed Mar 29 2023 10:28:11 GMT-0500 (Central Daylight Time)","322036","html-keyboard-response","127","240086","0.0-5.0-3.40","","null","","<div class='trialBorder'><div class='vertical-center'><img style='vertical-align:center; align:center' src=img/fixation3.jpg></div><div class='cl'><div class='vertical-center'>$37<br>with a<br>50% chance</div></div><div class='cr'><div class='vertical-center'><font style='color:orange'>$20<br>for<br>sure</font></div></div><div class='respDivL'><div class='vertical-center'>(E)</div></div><div class='respDivR'><div class='vertical-center'><font style='color:orange'>(I)</font></div></div></div>","null","$20","$37","1","20","37",""
"","","","FIX","6400f1783058946c2b4780cd","bdp_rd","Wed Mar 29 2023 10:28:11 GMT-0500 (Central Daylight Time)","322036","html-keyboard-response","128","240606","0.0-5.0-1.41","","null","","<div class='trialBorder'><div class='vertical-center'><img style='vertical-align:center; align:center' src=img/fixation3.jpg></div></div>","null","","","","","",""
"","","","offer","6400f1783058946c2b4780cd","bdp_rd","Wed Mar 29 2023 10:28:11 GMT-0500 (Central Daylight Time)","322036","html-keyboard-response","129","244395","0.0-5.0-2.41","","3789","","<div class='trialBorder'><div class='vertical-center'><img style='vertical-align:center; align:center' src=img/fixation3.jpg></div><div class='cl'><div class='vertical-center'>$10<br>for<br>sure</div></div><div class='cr'><div class='vertical-center'>$19<br>with a<br>50% chance</div></div><div class='respDivL'><div class='vertical-center'>(E)</div></div><div class='respDivR'><div class='vertical-center'>(I)</div></div></div>","E","$10","$19","0","10","19","SURE"
"","","","offerFB","6400f1783058946c2b4780cd","bdp_rd","Wed Mar 29 2023 10:28:11 GMT-0500 (Central Daylight Time)","322036","html-keyboard-response","130","244656","0.0-5.0-3.41","","null","","<div class='trialBorder'><div class='vertical-center'><img style='vertical-align:center; align:center' src=img/fixation3.jpg></div><div class='cl'><div class='vertical-center'><font style='color:orange'>$10<br>for<br>sure</font></div></div><div class='cr'><div class='vertical-center'>$19<br>with a<br>50% chance</div></div><div class='respDivL'><div class='vertical-center'><font style='color:orange'>(E)</font></div></div><div class='respDivR'><div class='vertical-center'>(I)</div></div></div>","null","$10","$19","0","10","19",""
"","","","FIX","6400f1783058946c2b4780cd","bdp_rd","Wed Mar 29 2023 10:28:11 GMT-0500 (Central Daylight Time)","322036","html-keyboard-response","131","245166","0.0-5.0-1.42","","null","","<div class='trialBorder'><div class='vertical-center'><img style='vertical-align:center; align:center' src=img/fixation3.jpg></div></div>","null","","","","","",""
"","","","offer","6400f1783058946c2b4780cd","bdp_rd","Wed Mar 29 2023 10:28:11 GMT-0500 (Central Daylight Time)","322036","html-keyboard-response","132","248757","0.0-5.0-2.42","","3591","","<div class='trialBorder'><div class='vertical-center'><img style='vertical-align:center; align:center' src=img/fixation3.jpg></div><div class='cl'><div class='vertical-center'>$80<br>with a<br>50% chance</div></div><div class='cr'><div class='vertical-center'>$20<br>for<br>sure</div></div><div class='respDivL'><div class='vertical-center'>(E)</div></div><div class='respDivR'><div class='vertical-center'>(I)</div></div></div>","E","$20","$80","1","20","80","RISKY"
"","","","offerFB","6400f1783058946c2b4780cd","bdp_rd","Wed Mar 29 2023 10:28:11 GMT-0500 (Central Daylight Time)","322036","html-keyboard-response","133","249025","0.0-5.0-3.42","","null","","<div class='trialBorder'><div class='vertical-center'><img style='vertical-align:center; align:center' src=img/fixation3.jpg></div><div class='cl'><div class='vertical-center'><font style='color:orange'>$80<br>with a<br>50% chance</font></div></div><div class='cr'><div class='vertical-center'>$20<br>for<br>sure</div></div><div class='respDivL'><div class='vertical-center'><font style='color:orange'>(E)</font></div></div><div class='respDivR'><div class='vertical-center'>(I)</div></div></div>","null","$20","$80","1","20","80",""
"","","","FIX","6400f1783058946c2b4780cd","bdp_rd","Wed Mar 29 2023 10:28:11 GMT-0500 (Central Daylight Time)","322036","html-keyboard-response","134","249545","0.0-5.0-1.43","","null","","<div class='trialBorder'><div class='vertical-center'><img style='vertical-align:center; align:center' src=img/fixation3.jpg></div></div>","null","","","","","",""
"","","","offer","6400f1783058946c2b4780cd","bdp_rd","Wed Mar 29 2023 10:28:11 GMT-0500 (Central Daylight Time)","322036","html-keyboard-response","135","256945","0.0-5.0-2.43","","7399","","<div class='trialBorder'><div class='vertical-center'><img style='vertical-align:center; align:center' src=img/fixation3.jpg></div><div class='cl'><div class='vertical-center'>$13<br>with a<br>50% chance</div></div><div class='cr'><div class='vertical-center'>$6<br>for<br>sure</div></div><div class='respDivL'><div class='vertical-center'>(E)</div></div><div class='respDivR'><div class='vertical-center'>(I)</div></div></div>","I","$6","$13","1","6","13","SURE"
"","","","offerFB","6400f1783058946c2b4780cd","bdp_rd","Wed Mar 29 2023 10:28:11 GMT-0500 (Central Daylight Time)","322036","html-keyboard-response","136","257202","0.0-5.0-3.43","","null","","<div class='trialBorder'><div class='vertical-center'><img style='vertical-align:center; align:center' src=img/fixation3.jpg></div><div class='cl'><div class='vertical-center'>$13<br>with a<br>50% chance</div></div><div class='cr'><div class='vertical-center'><font style='color:orange'>$6<br>for<br>sure</font></div></div><div class='respDivL'><div class='vertical-center'>(E)</div></div><div class='respDivR'><div class='vertical-center'><font style='color:orange'>(I)</font></div></div></div>","null","$6","$13","1","6","13",""
"","","","FIX","6400f1783058946c2b4780cd","bdp_rd","Wed Mar 29 2023 10:28:11 GMT-0500 (Central Daylight Time)","322036","html-keyboard-response","137","257725","0.0-5.0-1.44","","null","","<div class='trialBorder'><div class='vertical-center'><img style='vertical-align:center; align:center' src=img/fixation3.jpg></div></div>","null","","","","","",""
"","","","offer","6400f1783058946c2b4780cd","bdp_rd","Wed Mar 29 2023 10:28:11 GMT-0500 (Central Daylight Time)","322036","html-keyboard-response","138","260307","0.0-5.0-2.44","","2581","","<div class='trialBorder'><div class='vertical-center'><img style='vertical-align:center; align:center' src=img/fixation3.jpg></div><div class='cl'><div class='vertical-center'>$48<br>with a<br>50% chance</div></div><div class='cr'><div class='vertical-center'>$34<br>for<br>sure</div></div><div class='respDivL'><div class='vertical-center'>(E)</div></div><div class='respDivR'><div class='vertical-center'>(I)</div></div></div>","I","$34","$48","1","34","48","SURE"
"","","","offerFB","6400f1783058946c2b4780cd","bdp_rd","Wed Mar 29 2023 10:28:11 GMT-0500 (Central Daylight Time)","322036","html-keyboard-response","139","260570","0.0-5.0-3.44","","null","","<div class='trialBorder'><div class='vertical-center'><img style='vertical-align:center; align:center' src=img/fixation3.jpg></div><div class='cl'><div class='vertical-center'>$48<br>with a<br>50% chance</div></div><div class='cr'><div class='vertical-center'><font style='color:orange'>$34<br>for<br>sure</font></div></div><div class='respDivL'><div class='vertical-center'>(E)</div></div><div class='respDivR'><div class='vertical-center'><font style='color:orange'>(I)</font></div></div></div>","null","$34","$48","1","34","48",""
"","","","FIX","6400f1783058946c2b4780cd","bdp_rd","Wed Mar 29 2023 10:28:11 GMT-0500 (Central Daylight Time)","322036","html-keyboard-response","140","261076","0.0-5.0-1.45","","null","","<div class='trialBorder'><div class='vertical-center'><img style='vertical-align:center; align:center' src=img/fixation3.jpg></div></div>","null","","","","","",""
"","","","offer","6400f1783058946c2b4780cd","bdp_rd","Wed Mar 29 2023 10:28:11 GMT-0500 (Central Daylight Time)","322036","html-keyboard-response","141","262495","0.0-5.0-2.45","","1419","","<div class='trialBorder'><div class='vertical-center'><img style='vertical-align:center; align:center' src=img/fixation3.jpg></div><div class='cl'><div class='vertical-center'>$51<br>with a<br>50% chance</div></div><div class='cr'><div class='vertical-center'>$19<br>for<br>sure</div></div><div class='respDivL'><div class='vertical-center'>(E)</div></div><div class='respDivR'><div class='vertical-center'>(I)</div></div></div>","E","$19","$51","1","19","51","RISKY"
"","","","offerFB","6400f1783058946c2b4780cd","bdp_rd","Wed Mar 29 2023 10:28:11 GMT-0500 (Central Daylight Time)","322036","html-keyboard-response","142","262755","0.0-5.0-3.45","","null","","<div class='trialBorder'><div class='vertical-center'><img style='vertical-align:center; align:center' src=img/fixation3.jpg></div><div class='cl'><div class='vertical-center'><font style='color:orange'>$51<br>with a<br>50% chance</font></div></div><div class='cr'><div class='vertical-center'>$19<br>for<br>sure</div></div><div class='respDivL'><div class='vertical-center'><font style='color:orange'>(E)</font></div></div><div class='respDivR'><div class='vertical-center'>(I)</div></div></div>","null","$19","$51","1","19","51",""
"","","","FIX","6400f1783058946c2b4780cd","bdp_rd","Wed Mar 29 2023 10:28:11 GMT-0500 (Central Daylight Time)","322036","html-keyboard-response","143","263266","0.0-5.0-1.46","","null","","<div class='trialBorder'><div class='vertical-center'><img style='vertical-align:center; align:center' src=img/fixation3.jpg></div></div>","null","","","","","",""
"","","","offer","6400f1783058946c2b4780cd","bdp_rd","Wed Mar 29 2023 10:28:11 GMT-0500 (Central Daylight Time)","322036","html-keyboard-response","144","265808","0.0-5.0-2.46","","2542","","<div class='trialBorder'><div class='vertical-center'><img style='vertical-align:center; align:center' src=img/fixation3.jpg></div><div class='cl'><div class='vertical-center'>$12<br>with a<br>50% chance</div></div><div class='cr'><div class='vertical-center'>$3<br>for<br>sure</div></div><div class='respDivL'><div class='vertical-center'>(E)</div></div><div class='respDivR'><div class='vertical-center'>(I)</div></div></div>","E","$3","$12","1","3","12","RISKY"
"","","","offerFB","6400f1783058946c2b4780cd","bdp_rd","Wed Mar 29 2023 10:28:11 GMT-0500 (Central Daylight Time)","322036","html-keyboard-response","145","266075","0.0-5.0-3.46","","null","","<div class='trialBorder'><div class='vertical-center'><img style='vertical-align:center; align:center' src=img/fixation3.jpg></div><div class='cl'><div class='vertical-center'><font style='color:orange'>$12<br>with a<br>50% chance</font></div></div><div class='cr'><div class='vertical-center'>$3<br>for<br>sure</div></div><div class='respDivL'><div class='vertical-center'><font style='color:orange'>(E)</font></div></div><div class='respDivR'><div class='vertical-center'>(I)</div></div></div>","null","$3","$12","1","3","12",""
"","","","FIX","6400f1783058946c2b4780cd","bdp_rd","Wed Mar 29 2023 10:28:11 GMT-0500 (Central Daylight Time)","322036","html-keyboard-response","146","266582","0.0-5.0-1.47","","null","","<div class='trialBorder'><div class='vertical-center'><img style='vertical-align:center; align:center' src=img/fixation3.jpg></div></div>","null","","","","","",""
"","","","offer","6400f1783058946c2b4780cd","bdp_rd","Wed Mar 29 2023 10:28:11 GMT-0500 (Central Daylight Time)","322036","html-keyboard-response","147","271144","0.0-5.0-2.47","","4562","","<div class='trialBorder'><div class='vertical-center'><img style='vertical-align:center; align:center' src=img/fixation3.jpg></div><div class='cl'><div class='vertical-center'>$95<br>with a<br>50% chance</div></div><div class='cr'><div class='vertical-center'>$40<br>for<br>sure</div></div><div class='respDivL'><div class='vertical-center'>(E)</div></div><div class='respDivR'><div class='vertical-center'>(I)</div></div></div>","I","$40","$95","1","40","95","SURE"
"","","","offerFB","6400f1783058946c2b4780cd","bdp_rd","Wed Mar 29 2023 10:28:11 GMT-0500 (Central Daylight Time)","322036","html-keyboard-response","148","271396","0.0-5.0-3.47","","null","","<div class='trialBorder'><div class='vertical-center'><img style='vertical-align:center; align:center' src=img/fixation3.jpg></div><div class='cl'><div class='vertical-center'>$95<br>with a<br>50% chance</div></div><div class='cr'><div class='vertical-center'><font style='color:orange'>$40<br>for<br>sure</font></div></div><div class='respDivL'><div class='vertical-center'>(E)</div></div><div class='respDivR'><div class='vertical-center'><font style='color:orange'>(I)</font></div></div></div>","null","$40","$95","1","40","95",""
"","","","FIX","6400f1783058946c2b4780cd","bdp_rd","Wed Mar 29 2023 10:28:11 GMT-0500 (Central Daylight Time)","322036","html-keyboard-response","149","271906","0.0-5.0-1.48","","null","","<div class='trialBorder'><div class='vertical-center'><img style='vertical-align:center; align:center' src=img/fixation3.jpg></div></div>","null","","","","","",""
"","","","offer","6400f1783058946c2b4780cd","bdp_rd","Wed Mar 29 2023 10:28:11 GMT-0500 (Central Daylight Time)","322036","html-keyboard-response","150","278844","0.0-5.0-2.48","","6938","","<div class='trialBorder'><div class='vertical-center'><img style='vertical-align:center; align:center' src=img/fixation3.jpg></div><div class='cl'><div class='vertical-center'>$15<br>for<br>sure</div></div><div class='cr'><div class='vertical-center'>$31<br>with a<br>50% chance</div></div><div class='respDivL'><div class='vertical-center'>(E)</div></div><div class='respDivR'><div class='vertical-center'>(I)</div></div></div>","E","$15","$31","0","15","31","SURE"
"","","","offerFB","6400f1783058946c2b4780cd","bdp_rd","Wed Mar 29 2023 10:28:11 GMT-0500 (Central Daylight Time)","322036","html-keyboard-response","151","279105","0.0-5.0-3.48","","null","","<div class='trialBorder'><div class='vertical-center'><img style='vertical-align:center; align:center' src=img/fixation3.jpg></div><div class='cl'><div class='vertical-center'><font style='color:orange'>$15<br>for<br>sure</font></div></div><div class='cr'><div class='vertical-center'>$31<br>with a<br>50% chance</div></div><div class='respDivL'><div class='vertical-center'><font style='color:orange'>(E)</font></div></div><div class='respDivR'><div class='vertical-center'>(I)</div></div></div>","null","$15","$31","0","15","31",""
"","","","FIX","6400f1783058946c2b4780cd","bdp_rd","Wed Mar 29 2023 10:28:11 GMT-0500 (Central Daylight Time)","322036","html-keyboard-response","152","279616","0.0-5.0-1.49","","null","","<div class='trialBorder'><div class='vertical-center'><img style='vertical-align:center; align:center' src=img/fixation3.jpg></div></div>","null","","","","","",""
"","","","offer","6400f1783058946c2b4780cd","bdp_rd","Wed Mar 29 2023 10:28:11 GMT-0500 (Central Daylight Time)","322036","html-keyboard-response","153","285045","0.0-5.0-2.49","","5428","","<div class='trialBorder'><div class='vertical-center'><img style='vertical-align:center; align:center' src=img/fixation3.jpg></div><div class='cl'><div class='vertical-center'>$2<br>for<br>sure</div></div><div class='cr'><div class='vertical-center'>$21<br>with a<br>50% chance</div></div><div class='respDivL'><div class='vertical-center'>(E)</div></div><div class='respDivR'><div class='vertical-center'>(I)</div></div></div>","I","$2","$21","0","2","21","RISKY"
"","","","offerFB","6400f1783058946c2b4780cd","bdp_rd","Wed Mar 29 2023 10:28:11 GMT-0500 (Central Daylight Time)","322036","html-keyboard-response","154","285306","0.0-5.0-3.49","","null","","<div class='trialBorder'><div class='vertical-center'><img style='vertical-align:center; align:center' src=img/fixation3.jpg></div><div class='cl'><div class='vertical-center'>$2<br>for<br>sure</div></div><div class='cr'><div class='vertical-center'><font style='color:orange'>$21<br>with a<br>50% chance</font></div></div><div class='respDivL'><div class='vertical-center'>(E)</div></div><div class='respDivR'><div class='vertical-center'><font style='color:orange'>(I)</font></div></div></div>","null","$2","$21","0","2","21",""
"","","","FIX","6400f1783058946c2b4780cd","bdp_rd","Wed Mar 29 2023 10:28:11 GMT-0500 (Central Daylight Time)","322036","html-keyboard-response","155","285822","0.0-5.0-1.50","","null","","<div class='trialBorder'><div class='vertical-center'><img style='vertical-align:center; align:center' src=img/fixation3.jpg></div></div>","null","","","","","",""
"","","","offer","6400f1783058946c2b4780cd","bdp_rd","Wed Mar 29 2023 10:28:11 GMT-0500 (Central Daylight Time)","322036","html-keyboard-response","156","288407","0.0-5.0-2.50","","2585","","<div class='trialBorder'><div class='vertical-center'><img style='vertical-align:center; align:center' src=img/fixation3.jpg></div><div class='cl'><div class='vertical-center'>$11<br>for<br>sure</div></div><div class='cr'><div class='vertical-center'>$26<br>with a<br>50% chance</div></div><div class='respDivL'><div class='vertical-center'>(E)</div></div><div class='respDivR'><div class='vertical-center'>(I)</div></div></div>","E","$11","$26","0","11","26","SURE"
"","","","offerFB","6400f1783058946c2b4780cd","bdp_rd","Wed Mar 29 2023 10:28:11 GMT-0500 (Central Daylight Time)","322036","html-keyboard-response","157","288665","0.0-5.0-3.50","","null","","<div class='trialBorder'><div class='vertical-center'><img style='vertical-align:center; align:center' src=img/fixation3.jpg></div><div class='cl'><div class='vertical-center'><font style='color:orange'>$11<br>for<br>sure</font></div></div><div class='cr'><div class='vertical-center'>$26<br>with a<br>50% chance</div></div><div class='respDivL'><div class='vertical-center'><font style='color:orange'>(E)</font></div></div><div class='respDivR'><div class='vertical-center'>(I)</div></div></div>","null","$11","$26","0","11","26",""
"","","","FIX","6400f1783058946c2b4780cd","bdp_rd","Wed Mar 29 2023 10:28:11 GMT-0500 (Central Daylight Time)","322036","html-keyboard-response","158","289186","0.0-5.0-1.51","","null","","<div class='trialBorder'><div class='vertical-center'><img style='vertical-align:center; align:center' src=img/fixation3.jpg></div></div>","null","","","","","",""
"","","","offer","6400f1783058946c2b4780cd","bdp_rd","Wed Mar 29 2023 10:28:11 GMT-0500 (Central Daylight Time)","322036","html-keyboard-response","159","293770","0.0-5.0-2.51","","4584","","<div class='trialBorder'><div class='vertical-center'><img style='vertical-align:center; align:center' src=img/fixation3.jpg></div><div class='cl'><div class='vertical-center'>$16<br>with a<br>50% chance</div></div><div class='cr'><div class='vertical-center'>$5<br>for<br>sure</div></div><div class='respDivL'><div class='vertical-center'>(E)</div></div><div class='respDivR'><div class='vertical-center'>(I)</div></div></div>","I","$5","$16","1","5","16","SURE"
"","","","offerFB","6400f1783058946c2b4780cd","bdp_rd","Wed Mar 29 2023 10:28:11 GMT-0500 (Central Daylight Time)","322036","html-keyboard-response","160","294026","0.0-5.0-3.51","","null","","<div class='trialBorder'><div class='vertical-center'><img style='vertical-align:center; align:center' src=img/fixation3.jpg></div><div class='cl'><div class='vertical-center'>$16<br>with a<br>50% chance</div></div><div class='cr'><div class='vertical-center'><font style='color:orange'>$5<br>for<br>sure</font></div></div><div class='respDivL'><div class='vertical-center'>(E)</div></div><div class='respDivR'><div class='vertical-center'><font style='color:orange'>(I)</font></div></div></div>","null","$5","$16","1","5","16",""
"","","","FIX","6400f1783058946c2b4780cd","bdp_rd","Wed Mar 29 2023 10:28:11 GMT-0500 (Central Daylight Time)","322036","html-keyboard-response","161","294545","0.0-5.0-1.52","","null","","<div class='trialBorder'><div class='vertical-center'><img style='vertical-align:center; align:center' src=img/fixation3.jpg></div></div>","null","","","","","",""
"","","","offer","6400f1783058946c2b4780cd","bdp_rd","Wed Mar 29 2023 10:28:11 GMT-0500 (Central Daylight Time)","322036","html-keyboard-response","162","297707","0.0-5.0-2.52","","3161","","<div class='trialBorder'><div class='vertical-center'><img style='vertical-align:center; align:center' src=img/fixation3.jpg></div><div class='cl'><div class='vertical-center'>$18<br>for<br>sure</div></div><div class='cr'><div class='vertical-center'>$39<br>with a<br>50% chance</div></div><div class='respDivL'><div class='vertical-center'>(E)</div></div><div class='respDivR'><div class='vertical-center'>(I)</div></div></div>","E","$18","$39","0","18","39","SURE"
"","","","offerFB","6400f1783058946c2b4780cd","bdp_rd","Wed Mar 29 2023 10:28:11 GMT-0500 (Central Daylight Time)","322036","html-keyboard-response","163","297975","0.0-5.0-3.52","","null","","<div class='trialBorder'><div class='vertical-center'><img style='vertical-align:center; align:center' src=img/fixation3.jpg></div><div class='cl'><div class='vertical-center'><font style='color:orange'>$18<br>for<br>sure</font></div></div><div class='cr'><div class='vertical-center'>$39<br>with a<br>50% chance</div></div><div class='respDivL'><div class='vertical-center'><font style='color:orange'>(E)</font></div></div><div class='respDivR'><div class='vertical-center'>(I)</div></div></div>","null","$18","$39","0","18","39",""
"","","","FIX","6400f1783058946c2b4780cd","bdp_rd","Wed Mar 29 2023 10:28:11 GMT-0500 (Central Daylight Time)","322036","html-keyboard-response","164","298496","0.0-5.0-1.53","","null","","<div class='trialBorder'><div class='vertical-center'><img style='vertical-align:center; align:center' src=img/fixation3.jpg></div></div>","null","","","","","",""
"","","","offer","6400f1783058946c2b4780cd","bdp_rd","Wed Mar 29 2023 10:28:11 GMT-0500 (Central Daylight Time)","322036","html-keyboard-response","165","300182","0.0-5.0-2.53","","1686","","<div class='trialBorder'><div class='vertical-center'><img style='vertical-align:center; align:center' src=img/fixation3.jpg></div><div class='cl'><div class='vertical-center'>$13<br>for<br>sure</div></div><div class='cr'><div class='vertical-center'>$41<br>with a<br>50% chance</div></div><div class='respDivL'><div class='vertical-center'>(E)</div></div><div class='respDivR'><div class='vertical-center'>(I)</div></div></div>","I","$13","$41","0","13","41","RISKY"
"","","","offerFB","6400f1783058946c2b4780cd","bdp_rd","Wed Mar 29 2023 10:28:11 GMT-0500 (Central Daylight Time)","322036","html-keyboard-response","166","300435","0.0-5.0-3.53","","null","","<div class='trialBorder'><div class='vertical-center'><img style='vertical-align:center; align:center' src=img/fixation3.jpg></div><div class='cl'><div class='vertical-center'>$13<br>for<br>sure</div></div><div class='cr'><div class='vertical-center'><font style='color:orange'>$41<br>with a<br>50% chance</font></div></div><div class='respDivL'><div class='vertical-center'>(E)</div></div><div class='respDivR'><div class='vertical-center'><font style='color:orange'>(I)</font></div></div></div>","null","$13","$41","0","13","41",""
"","","","FIX","6400f1783058946c2b4780cd","bdp_rd","Wed Mar 29 2023 10:28:11 GMT-0500 (Central Daylight Time)","322036","html-keyboard-response","167","300945","0.0-5.0-1.54","","null","","<div class='trialBorder'><div class='vertical-center'><img style='vertical-align:center; align:center' src=img/fixation3.jpg></div></div>","null","","","","","",""
"","","","offer","6400f1783058946c2b4780cd","bdp_rd","Wed Mar 29 2023 10:28:11 GMT-0500 (Central Daylight Time)","322036","html-keyboard-response","168","302982","0.0-5.0-2.54","","2035","","<div class='trialBorder'><div class='vertical-center'><img style='vertical-align:center; align:center' src=img/fixation3.jpg></div><div class='cl'><div class='vertical-center'>$24<br>with a<br>50% chance</div></div><div class='cr'><div class='vertical-center'>$13<br>for<br>sure</div></div><div class='respDivL'><div class='vertical-center'>(E)</div></div><div class='respDivR'><div class='vertical-center'>(I)</div></div></div>","I","$13","$24","1","13","24","SURE"
"","","","offerFB","6400f1783058946c2b4780cd","bdp_rd","Wed Mar 29 2023 10:28:11 GMT-0500 (Central Daylight Time)","322036","html-keyboard-response","169","303236","0.0-5.0-3.54","","null","","<div class='trialBorder'><div class='vertical-center'><img style='vertical-align:center; align:center' src=img/fixation3.jpg></div><div class='cl'><div class='vertical-center'>$24<br>with a<br>50% chance</div></div><div class='cr'><div class='vertical-center'><font style='color:orange'>$13<br>for<br>sure</font></div></div><div class='respDivL'><div class='vertical-center'>(E)</div></div><div class='respDivR'><div class='vertical-center'><font style='color:orange'>(I)</font></div></div></div>","null","$13","$24","1","13","24",""
"","","","FIX","6400f1783058946c2b4780cd","bdp_rd","Wed Mar 29 2023 10:28:11 GMT-0500 (Central Daylight Time)","322036","html-keyboard-response","170","303745","0.0-5.0-1.55","","null","","<div class='trialBorder'><div class='vertical-center'><img style='vertical-align:center; align:center' src=img/fixation3.jpg></div></div>","null","","","","","",""
"","","","offer","6400f1783058946c2b4780cd","bdp_rd","Wed Mar 29 2023 10:28:11 GMT-0500 (Central Daylight Time)","322036","html-keyboard-response","171","305682","0.0-5.0-2.55","","1936","","<div class='trialBorder'><div class='vertical-center'><img style='vertical-align:center; align:center' src=img/fixation3.jpg></div><div class='cl'><div class='vertical-center'>$5<br>for<br>sure</div></div><div class='cr'><div class='vertical-center'>$50<br>with a<br>50% chance</div></div><div class='respDivL'><div class='vertical-center'>(E)</div></div><div class='respDivR'><div class='vertical-center'>(I)</div></div></div>","I","$5","$50","0","5","50","RISKY"
"","","","offerFB","6400f1783058946c2b4780cd","bdp_rd","Wed Mar 29 2023 10:28:11 GMT-0500 (Central Daylight Time)","322036","html-keyboard-response","172","305943","0.0-5.0-3.55","","null","","<div class='trialBorder'><div class='vertical-center'><img style='vertical-align:center; align:center' src=img/fixation3.jpg></div><div class='cl'><div class='vertical-center'>$5<br>for<br>sure</div></div><div class='cr'><div class='vertical-center'><font style='color:orange'>$50<br>with a<br>50% chance</font></div></div><div class='respDivL'><div class='vertical-center'>(E)</div></div><div class='respDivR'><div class='vertical-center'><font style='color:orange'>(I)</font></div></div></div>","null","$5","$50","0","5","50",""
"","","","FIX","6400f1783058946c2b4780cd","bdp_rd","Wed Mar 29 2023 10:28:11 GMT-0500 (Central Daylight Time)","322036","html-keyboard-response","173","306443","0.0-5.0-1.56","","null","","<div class='trialBorder'><div class='vertical-center'><img style='vertical-align:center; align:center' src=img/fixation3.jpg></div></div>","null","","","","","",""
"","","","offer","6400f1783058946c2b4780cd","bdp_rd","Wed Mar 29 2023 10:28:11 GMT-0500 (Central Daylight Time)","322036","html-keyboard-response","174","309844","0.0-5.0-2.56","","3401","","<div class='trialBorder'><div class='vertical-center'><img style='vertical-align:center; align:center' src=img/fixation3.jpg></div><div class='cl'><div class='vertical-center'>$15<br>with a<br>50% chance</div></div><div class='cr'><div class='vertical-center'>$6<br>for<br>sure</div></div><div class='respDivL'><div class='vertical-center'>(E)</div></div><div class='respDivR'><div class='vertical-center'>(I)</div></div></div>","I","$6","$15","1","6","15","SURE"
