"trial_type","trial_index","time_elapsed","internal_node_id","subject_id","task","startTime","totalTime","view_history","rt","event","trial","time","trialtype","success","stimulus","key_press","sureOffer","riskyOffer","riskyLeft","sureAmt","riskyAmt","chosen"
"pavlovia","0","1","0.0-0.0","60fcf7102d7c9907d95a0920","bdp_rd","Thu Apr 13 2023 10:07:36 GMT-0700 (PDT)","181909","","","","","","","","","","","","","","",""
"instructions","1","947","0.0-1.0","60fcf7102d7c9907d95a0920","bdp_rd","Thu Apr 13 2023 10:07:36 GMT-0700 (PDT)","181909","[{""page_index"":0,""viewing_time"":944}]","944","","","","","","","","","","","","",""
"","","","","60fcf7102d7c9907d95a0920","bdp_rd","Thu Apr 13 2023 10:07:36 GMT-0700 (PDT)","181909","","","fullscreenenter","2","3383","fullscreenenter","","","","","","","","",""
"fullscreen","2","4348","0.0-2.0","60fcf7102d7c9907d95a0920","bdp_rd","Thu Apr 13 2023 10:07:36 GMT-0700 (PDT)","181909","","","","","","","true","","","","","","","",""
"instructions","3","27181","0.0-4.0","60fcf7102d7c9907d95a0920","bdp_rd","Thu Apr 13 2023 10:07:36 GMT-0700 (PDT)","181909","[{""page_index"":0,""viewing_time"":11796},{""page_index"":1,""viewing_time"":8199},{""page_index"":2,""viewing_time"":2836}]","22831","","","","","","","","","","","","",""
"html-keyboard-response","4","27685","0.0-5.0-1.0","60fcf7102d7c9907d95a0920","bdp_rd","Thu Apr 13 2023 10:07:36 GMT-0700 (PDT)","181909","","null","","","","FIX","","<div class='trialBorder'><div class='vertical-center'><img style='vertical-align:center; align:center' src=img/fixation3.jpg></div></div>","null","","","","","",""
"html-keyboard-response","5","29329","0.0-5.0-2.0","60fcf7102d7c9907d95a0920","bdp_rd","Thu Apr 13 2023 10:07:36 GMT-0700 (PDT)","181909","","1641","","","","offer","","<div class='trialBorder'><div class='vertical-center'><img style='vertical-align:center; align:center' src=img/fixation3.jpg></div><div class='cl'><div class='vertical-center'>$13<br>for<br>sure</div></div><div class='cr'><div class='vertical-center'>$41<br>with a<br>50% chance</div></div><div class='respDivL'><div class='vertical-center'>(E)</div></div><div class='respDivR'><div class='vertical-center'>(I)</div></div></div>","I","$13","$41","0","13","41","RISKY"
"html-keyboard-response","6","29583","0.0-5.0-3.0","60fcf7102d7c9907d95a0920","bdp_rd","Thu Apr 13 2023 10:07:36 GMT-0700 (PDT)","181909","","null","","","","offerFB","","<div class='trialBorder'><div class='vertical-center'><img style='vertical-align:center; align:center' src=img/fixation3.jpg></div><div class='cl'><div class='vertical-center'>$13<br>for<br>sure</div></div><div class='cr'><div class='vertical-center'><font style='color:orange'>$41<br>with a<br>50% chance</font></div></div><div class='respDivL'><div class='vertical-center'>(E)</div></div><div class='respDivR'><div class='vertical-center'><font style='color:orange'>(I)</font></div></div></div>","null","$13","$41","0","13","41",""
"html-keyboard-response","7","30087","0.0-5.0-1.1","60fcf7102d7c9907d95a0920","bdp_rd","Thu Apr 13 2023 10:07:36 GMT-0700 (PDT)","181909","","null","","","","FIX","","<div class='trialBorder'><div class='vertical-center'><img style='vertical-align:center; align:center' src=img/fixation3.jpg></div></div>","null","","","","","",""
"html-keyboard-response","8","32184","0.0-5.0-2.1","60fcf7102d7c9907d95a0920","bdp_rd","Thu Apr 13 2023 10:07:36 GMT-0700 (PDT)","181909","","2094","","","","offer","","<div class='trialBorder'><div class='vertical-center'><img style='vertical-align:center; align:center' src=img/fixation3.jpg></div><div class='cl'><div class='vertical-center'>$46<br>with a<br>50% chance</div></div><div class='cr'><div class='vertical-center'>$29<br>for<br>sure</div></div><div class='respDivL'><div class='vertical-center'>(E)</div></div><div class='respDivR'><div class='vertical-center'>(I)</div></div></div>","E","$29","$46","1","29","46","RISKY"
"html-keyboard-response","9","32438","0.0-5.0-3.1","60fcf7102d7c9907d95a0920","bdp_rd","Thu Apr 13 2023 10:07:36 GMT-0700 (PDT)","181909","","null","","","","offerFB","","<div class='trialBorder'><div class='vertical-center'><img style='vertical-align:center; align:center' src=img/fixation3.jpg></div><div class='cl'><div class='vertical-center'><font style='color:orange'>$46<br>with a<br>50% chance</font></div></div><div class='cr'><div class='vertical-center'>$29<br>for<br>sure</div></div><div class='respDivL'><div class='vertical-center'><font style='color:orange'>(E)</font></div></div><div class='respDivR'><div class='vertical-center'>(I)</div></div></div>","null","$29","$46","1","29","46",""
"html-keyboard-response","10","32941","0.0-5.0-1.2","60fcf7102d7c9907d95a0920","bdp_rd","Thu Apr 13 2023 10:07:36 GMT-0700 (PDT)","181909","","null","","","","FIX","","<div class='trialBorder'><div class='vertical-center'><img style='vertical-align:center; align:center' src=img/fixation3.jpg></div></div>","null","","","","","",""
"html-keyboard-response","11","34274","0.0-5.0-2.2","60fcf7102d7c9907d95a0920","bdp_rd","Thu Apr 13 2023 10:07:36 GMT-0700 (PDT)","181909","","1330","","","","offer","","<div class='trialBorder'><div class='vertical-center'><img style='vertical-align:center; align:center' src=img/fixation3.jpg></div><div class='cl'><div class='vertical-center'>$26<br>for<br>sure</div></div><div class='cr'><div class='vertical-center'>$92<br>with a<br>50% chance</div></div><div class='respDivL'><div class='vertical-center'>(E)</div></div><div class='respDivR'><div class='vertical-center'>(I)</div></div></div>","I","$26","$92","0","26","92","RISKY"
"html-keyboard-response","12","34528","0.0-5.0-3.2","60fcf7102d7c9907d95a0920","bdp_rd","Thu Apr 13 2023 10:07:36 GMT-0700 (PDT)","181909","","null","","","","offerFB","","<div class='trialBorder'><div class='vertical-center'><img style='vertical-align:center; align:center' src=img/fixation3.jpg></div><div class='cl'><div class='vertical-center'>$26<br>for<br>sure</div></div><div class='cr'><div class='vertical-center'><font style='color:orange'>$92<br>with a<br>50% chance</font></div></div><div class='respDivL'><div class='vertical-center'>(E)</div></div><div class='respDivR'><div class='vertical-center'><font style='color:orange'>(I)</font></div></div></div>","null","$26","$92","0","26","92",""
"html-keyboard-response","13","35031","0.0-5.0-1.3","60fcf7102d7c9907d95a0920","bdp_rd","Thu Apr 13 2023 10:07:36 GMT-0700 (PDT)","181909","","null","","","","FIX","","<div class='trialBorder'><div class='vertical-center'><img style='vertical-align:center; align:center' src=img/fixation3.jpg></div></div>","null","","","","","",""
"html-keyboard-response","14","38005","0.0-5.0-2.3","60fcf7102d7c9907d95a0920","bdp_rd","Thu Apr 13 2023 10:07:36 GMT-0700 (PDT)","181909","","2972","","","","offer","","<div class='trialBorder'><div class='vertical-center'><img style='vertical-align:center; align:center' src=img/fixation3.jpg></div><div class='cl'><div class='vertical-center'>$14<br>for<br>sure</div></div><div class='cr'><div class='vertical-center'>$22<br>with a<br>50% chance</div></div><div class='respDivL'><div class='vertical-center'>(E)</div></div><div class='respDivR'><div class='vertical-center'>(I)</div></div></div>","I","$14","$22","0","14","22","RISKY"
"html-keyboard-response","15","38259","0.0-5.0-3.3","60fcf7102d7c9907d95a0920","bdp_rd","Thu Apr 13 2023 10:07:36 GMT-0700 (PDT)","181909","","null","","","","offerFB","","<div class='trialBorder'><div class='vertical-center'><img style='vertical-align:center; align:center' src=img/fixation3.jpg></div><div class='cl'><div class='vertical-center'>$14<br>for<br>sure</div></div><div class='cr'><div class='vertical-center'><font style='color:orange'>$22<br>with a<br>50% chance</font></div></div><div class='respDivL'><div class='vertical-center'>(E)</div></div><div class='respDivR'><div class='vertical-center'><font style='color:orange'>(I)</font></div></div></div>","null","$14","$22","0","14","22",""
"html-keyboard-response","16","38762","0.0-5.0-1.4","60fcf7102d7c9907d95a0920","bdp_rd","Thu Apr 13 2023 10:07:36 GMT-0700 (PDT)","181909","","null","","","","FIX","","<div class='trialBorder'><div class='vertical-center'><img style='vertical-align:center; align:center' src=img/fixation3.jpg></div></div>","null","","","","","",""
"html-keyboard-response","17","39980","0.0-5.0-2.4","60fcf7102d7c9907d95a0920","bdp_rd","Thu Apr 13 2023 10:07:36 GMT-0700 (PDT)","181909","","1216","","","","offer","","<div class='trialBorder'><div class='vertical-center'><img style='vertical-align:center; align:center' src=img/fixation3.jpg></div><div class='cl'><div class='vertical-center'>$21<br>with a<br>50% chance</div></div><div class='cr'><div class='vertical-center'>$2<br>for<br>sure</div></div><div class='respDivL'><div class='vertical-center'>(E)</div></div><div class='respDivR'><div class='vertical-center'>(I)</div></div></div>","E","$2","$21","1","2","21","RISKY"
"html-keyboard-response","18","40234","0.0-5.0-3.4","60fcf7102d7c9907d95a0920","bdp_rd","Thu Apr 13 2023 10:07:36 GMT-0700 (PDT)","181909","","null","","","","offerFB","","<div class='trialBorder'><div class='vertical-center'><img style='vertical-align:center; align:center' src=img/fixation3.jpg></div><div class='cl'><div class='vertical-center'><font style='color:orange'>$21<br>with a<br>50% chance</font></div></div><div class='cr'><div class='vertical-center'>$2<br>for<br>sure</div></div><div class='respDivL'><div class='vertical-center'><font style='color:orange'>(E)</font></div></div><div class='respDivR'><div class='vertical-center'>(I)</div></div></div>","null","$2","$21","1","2","21",""
"html-keyboard-response","19","40737","0.0-5.0-1.5","60fcf7102d7c9907d95a0920","bdp_rd","Thu Apr 13 2023 10:07:36 GMT-0700 (PDT)","181909","","null","","","","FIX","","<div class='trialBorder'><div class='vertical-center'><img style='vertical-align:center; align:center' src=img/fixation3.jpg></div></div>","null","","","","","",""
"html-keyboard-response","20","41754","0.0-5.0-2.5","60fcf7102d7c9907d95a0920","bdp_rd","Thu Apr 13 2023 10:07:36 GMT-0700 (PDT)","181909","","1015","","","","offer","","<div class='trialBorder'><div class='vertical-center'><img style='vertical-align:center; align:center' src=img/fixation3.jpg></div><div class='cl'><div class='vertical-center'>$18<br>for<br>sure</div></div><div class='cr'><div class='vertical-center'>$39<br>with a<br>50% chance</div></div><div class='respDivL'><div class='vertical-center'>(E)</div></div><div class='respDivR'><div class='vertical-center'>(I)</div></div></div>","I","$18","$39","0","18","39","RISKY"
"html-keyboard-response","21","42008","0.0-5.0-3.5","60fcf7102d7c9907d95a0920","bdp_rd","Thu Apr 13 2023 10:07:36 GMT-0700 (PDT)","181909","","null","","","","offerFB","","<div class='trialBorder'><div class='vertical-center'><img style='vertical-align:center; align:center' src=img/fixation3.jpg></div><div class='cl'><div class='vertical-center'>$18<br>for<br>sure</div></div><div class='cr'><div class='vertical-center'><font style='color:orange'>$39<br>with a<br>50% chance</font></div></div><div class='respDivL'><div class='vertical-center'>(E)</div></div><div class='respDivR'><div class='vertical-center'><font style='color:orange'>(I)</font></div></div></div>","null","$18","$39","0","18","39",""
"html-keyboard-response","22","42511","0.0-5.0-1.6","60fcf7102d7c9907d95a0920","bdp_rd","Thu Apr 13 2023 10:07:36 GMT-0700 (PDT)","181909","","null","","","","FIX","","<div class='trialBorder'><div class='vertical-center'><img style='vertical-align:center; align:center' src=img/fixation3.jpg></div></div>","null","","","","","",""
"html-keyboard-response","23","43703","0.0-5.0-2.6","60fcf7102d7c9907d95a0920","bdp_rd","Thu Apr 13 2023 10:07:36 GMT-0700 (PDT)","181909","","1191","","","","offer","","<div class='trialBorder'><div class='vertical-center'><img style='vertical-align:center; align:center' src=img/fixation3.jpg></div><div class='cl'><div class='vertical-center'>$7<br>for<br>sure</div></div><div class='cr'><div class='vertical-center'>$71<br>with a<br>50% chance</div></div><div class='respDivL'><div class='vertical-center'>(E)</div></div><div class='respDivR'><div class='vertical-center'>(I)</div></div></div>","I","$7","$71","0","7","71","RISKY"
"html-keyboard-response","24","43957","0.0-5.0-3.6","60fcf7102d7c9907d95a0920","bdp_rd","Thu Apr 13 2023 10:07:36 GMT-0700 (PDT)","181909","","null","","","","offerFB","","<div class='trialBorder'><div class='vertical-center'><img style='vertical-align:center; align:center' src=img/fixation3.jpg></div><div class='cl'><div class='vertical-center'>$7<br>for<br>sure</div></div><div class='cr'><div class='vertical-center'><font style='color:orange'>$71<br>with a<br>50% chance</font></div></div><div class='respDivL'><div class='vertical-center'>(E)</div></div><div class='respDivR'><div class='vertical-center'><font style='color:orange'>(I)</font></div></div></div>","null","$7","$71","0","7","71",""
"html-keyboard-response","25","44460","0.0-5.0-1.7","60fcf7102d7c9907d95a0920","bdp_rd","Thu Apr 13 2023 10:07:36 GMT-0700 (PDT)","181909","","null","","","","FIX","","<div class='trialBorder'><div class='vertical-center'><img style='vertical-align:center; align:center' src=img/fixation3.jpg></div></div>","null","","","","","",""
"html-keyboard-response","26","46560","0.0-5.0-2.7","60fcf7102d7c9907d95a0920","bdp_rd","Thu Apr 13 2023 10:07:36 GMT-0700 (PDT)","181909","","2097","","","","offer","","<div class='trialBorder'><div class='vertical-center'><img style='vertical-align:center; align:center' src=img/fixation3.jpg></div><div class='cl'><div class='vertical-center'>$7<br>for<br>sure</div></div><div class='cr'><div class='vertical-center'>$10<br>with a<br>50% chance</div></div><div class='respDivL'><div class='vertical-center'>(E)</div></div><div class='respDivR'><div class='vertical-center'>(I)</div></div></div>","E","$7","$10","0","7","10","SURE"
"html-keyboard-response","27","46814","0.0-5.0-3.7","60fcf7102d7c9907d95a0920","bdp_rd","Thu Apr 13 2023 10:07:36 GMT-0700 (PDT)","181909","","null","","","","offerFB","","<div class='trialBorder'><div class='vertical-center'><img style='vertical-align:center; align:center' src=img/fixation3.jpg></div><div class='cl'><div class='vertical-center'><font style='color:orange'>$7<br>for<br>sure</font></div></div><div class='cr'><div class='vertical-center'>$10<br>with a<br>50% chance</div></div><div class='respDivL'><div class='vertical-center'><font style='color:orange'>(E)</font></div></div><div class='respDivR'><div class='vertical-center'>(I)</div></div></div>","null","$7","$10","0","7","10",""
"html-keyboard-response","28","47317","0.0-5.0-1.8","60fcf7102d7c9907d95a0920","bdp_rd","Thu Apr 13 2023 10:07:36 GMT-0700 (PDT)","181909","","null","","","","FIX","","<div class='trialBorder'><div class='vertical-center'><img style='vertical-align:center; align:center' src=img/fixation3.jpg></div></div>","null","","","","","",""
"html-keyboard-response","29","49518","0.0-5.0-2.8","60fcf7102d7c9907d95a0920","bdp_rd","Thu Apr 13 2023 10:07:36 GMT-0700 (PDT)","181909","","2199","","","","offer","","<div class='trialBorder'><div class='vertical-center'><img style='vertical-align:center; align:center' src=img/fixation3.jpg></div><div class='cl'><div class='vertical-center'>$31<br>with a<br>50% chance</div></div><div class='cr'><div class='vertical-center'>$15<br>for<br>sure</div></div><div class='respDivL'><div class='vertical-center'>(E)</div></div><div class='respDivR'><div class='vertical-center'>(I)</div></div></div>","E","$15","$31","1","15","31","RISKY"
"html-keyboard-response","30","49772","0.0-5.0-3.8","60fcf7102d7c9907d95a0920","bdp_rd","Thu Apr 13 2023 10:07:36 GMT-0700 (PDT)","181909","","null","","","","offerFB","","<div class='trialBorder'><div class='vertical-center'><img style='vertical-align:center; align:center' src=img/fixation3.jpg></div><div class='cl'><div class='vertical-center'><font style='color:orange'>$31<br>with a<br>50% chance</font></div></div><div class='cr'><div class='vertical-center'>$15<br>for<br>sure</div></div><div class='respDivL'><div class='vertical-center'><font style='color:orange'>(E)</font></div></div><div class='respDivR'><div class='vertical-center'>(I)</div></div></div>","null","$15","$31","1","15","31",""
"html-keyboard-response","31","50275","0.0-5.0-1.9","60fcf7102d7c9907d95a0920","bdp_rd","Thu Apr 13 2023 10:07:36 GMT-0700 (PDT)","181909","","null","","","","FIX","","<div class='trialBorder'><div class='vertical-center'><img style='vertical-align:center; align:center' src=img/fixation3.jpg></div></div>","null","","","","","",""
"html-keyboard-response","32","53075","0.0-5.0-2.9","60fcf7102d7c9907d95a0920","bdp_rd","Thu Apr 13 2023 10:07:36 GMT-0700 (PDT)","181909","","2797","","","","offer","","<div class='trialBorder'><div class='vertical-center'><img style='vertical-align:center; align:center' src=img/fixation3.jpg></div><div class='cl'><div class='vertical-center'>$3<br>for<br>sure</div></div><div class='cr'><div class='vertical-center'>$17<br>with a<br>50% chance</div></div><div class='respDivL'><div class='vertical-center'>(E)</div></div><div class='respDivR'><div class='vertical-center'>(I)</div></div></div>","I","$3","$17","0","3","17","RISKY"
"html-keyboard-response","33","53328","0.0-5.0-3.9","60fcf7102d7c9907d95a0920","bdp_rd","Thu Apr 13 2023 10:07:36 GMT-0700 (PDT)","181909","","null","","","","offerFB","","<div class='trialBorder'><div class='vertical-center'><img style='vertical-align:center; align:center' src=img/fixation3.jpg></div><div class='cl'><div class='vertical-center'>$3<br>for<br>sure</div></div><div class='cr'><div class='vertical-center'><font style='color:orange'>$17<br>with a<br>50% chance</font></div></div><div class='respDivL'><div class='vertical-center'>(E)</div></div><div class='respDivR'><div class='vertical-center'><font style='color:orange'>(I)</font></div></div></div>","null","$3","$17","0","3","17",""
"html-keyboard-response","34","53831","0.0-5.0-1.10","60fcf7102d7c9907d95a0920","bdp_rd","Thu Apr 13 2023 10:07:36 GMT-0700 (PDT)","181909","","null","","","","FIX","","<div class='trialBorder'><div class='vertical-center'><img style='vertical-align:center; align:center' src=img/fixation3.jpg></div></div>","null","","","","","",""
"html-keyboard-response","35","54990","0.0-5.0-2.10","60fcf7102d7c9907d95a0920","bdp_rd","Thu Apr 13 2023 10:07:36 GMT-0700 (PDT)","181909","","1157","","","","offer","","<div class='trialBorder'><div class='vertical-center'><img style='vertical-align:center; align:center' src=img/fixation3.jpg></div><div class='cl'><div class='vertical-center'>$3<br>for<br>sure</div></div><div class='cr'><div class='vertical-center'>$12<br>with a<br>50% chance</div></div><div class='respDivL'><div class='vertical-center'>(E)</div></div><div class='respDivR'><div class='vertical-center'>(I)</div></div></div>","I","$3","$12","0","3","12","RISKY"
"html-keyboard-response","36","55244","0.0-5.0-3.10","60fcf7102d7c9907d95a0920","bdp_rd","Thu Apr 13 2023 10:07:36 GMT-0700 (PDT)","181909","","null","","","","offerFB","","<div class='trialBorder'><div class='vertical-center'><img style='vertical-align:center; align:center' src=img/fixation3.jpg></div><div class='cl'><div class='vertical-center'>$3<br>for<br>sure</div></div><div class='cr'><div class='vertical-center'><font style='color:orange'>$12<br>with a<br>50% chance</font></div></div><div class='respDivL'><div class='vertical-center'>(E)</div></div><div class='respDivR'><div class='vertical-center'><font style='color:orange'>(I)</font></div></div></div>","null","$3","$12","0","3","12",""
"html-keyboard-response","37","55747","0.0-5.0-1.11","60fcf7102d7c9907d95a0920","bdp_rd","Thu Apr 13 2023 10:07:36 GMT-0700 (PDT)","181909","","null","","","","FIX","","<div class='trialBorder'><div class='vertical-center'><img style='vertical-align:center; align:center' src=img/fixation3.jpg></div></div>","null","","","","","",""
"html-keyboard-response","38","56934","0.0-5.0-2.11","60fcf7102d7c9907d95a0920","bdp_rd","Thu Apr 13 2023 10:07:36 GMT-0700 (PDT)","181909","","1184","","","","offer","","<div class='trialBorder'><div class='vertical-center'><img style='vertical-align:center; align:center' src=img/fixation3.jpg></div><div class='cl'><div class='vertical-center'>$40<br>for<br>sure</div></div><div class='cr'><div class='vertical-center'>$95<br>with a<br>50% chance</div></div><div class='respDivL'><div class='vertical-center'>(E)</div></div><div class='respDivR'><div class='vertical-center'>(I)</div></div></div>","I","$40","$95","0","40","95","RISKY"
"html-keyboard-response","39","57188","0.0-5.0-3.11","60fcf7102d7c9907d95a0920","bdp_rd","Thu Apr 13 2023 10:07:36 GMT-0700 (PDT)","181909","","null","","","","offerFB","","<div class='trialBorder'><div class='vertical-center'><img style='vertical-align:center; align:center' src=img/fixation3.jpg></div><div class='cl'><div class='vertical-center'>$40<br>for<br>sure</div></div><div class='cr'><div class='vertical-center'><font style='color:orange'>$95<br>with a<br>50% chance</font></div></div><div class='respDivL'><div class='vertical-center'>(E)</div></div><div class='respDivR'><div class='vertical-center'><font style='color:orange'>(I)</font></div></div></div>","null","$40","$95","0","40","95",""
"html-keyboard-response","40","57690","0.0-5.0-1.12","60fcf7102d7c9907d95a0920","bdp_rd","Thu Apr 13 2023 10:07:36 GMT-0700 (PDT)","181909","","null","","","","FIX","","<div class='trialBorder'><div class='vertical-center'><img style='vertical-align:center; align:center' src=img/fixation3.jpg></div></div>","null","","","","","",""
"html-keyboard-response","41","59266","0.0-5.0-2.12","60fcf7102d7c9907d95a0920","bdp_rd","Thu Apr 13 2023 10:07:36 GMT-0700 (PDT)","181909","","1573","","","","offer","","<div class='trialBorder'><div class='vertical-center'><img style='vertical-align:center; align:center' src=img/fixation3.jpg></div><div class='cl'><div class='vertical-center'>$27<br>with a<br>50% chance</div></div><div class='cr'><div class='vertical-center'>$12<br>for<br>sure</div></div><div class='respDivL'><div class='vertical-center'>(E)</div></div><div class='respDivR'><div class='vertical-center'>(I)</div></div></div>","E","$12","$27","1","12","27","RISKY"
"html-keyboard-response","42","59519","0.0-5.0-3.12","60fcf7102d7c9907d95a0920","bdp_rd","Thu Apr 13 2023 10:07:36 GMT-0700 (PDT)","181909","","null","","","","offerFB","","<div class='trialBorder'><div class='vertical-center'><img style='vertical-align:center; align:center' src=img/fixation3.jpg></div><div class='cl'><div class='vertical-center'><font style='color:orange'>$27<br>with a<br>50% chance</font></div></div><div class='cr'><div class='vertical-center'>$12<br>for<br>sure</div></div><div class='respDivL'><div class='vertical-center'><font style='color:orange'>(E)</font></div></div><div class='respDivR'><div class='vertical-center'>(I)</div></div></div>","null","$12","$27","1","12","27",""
"html-keyboard-response","43","60022","0.0-5.0-1.13","60fcf7102d7c9907d95a0920","bdp_rd","Thu Apr 13 2023 10:07:36 GMT-0700 (PDT)","181909","","null","","","","FIX","","<div class='trialBorder'><div class='vertical-center'><img style='vertical-align:center; align:center' src=img/fixation3.jpg></div></div>","null","","","","","",""
"html-keyboard-response","44","61504","0.0-5.0-2.13","60fcf7102d7c9907d95a0920","bdp_rd","Thu Apr 13 2023 10:07:36 GMT-0700 (PDT)","181909","","1480","","","","offer","","<div class='trialBorder'><div class='vertical-center'><img style='vertical-align:center; align:center' src=img/fixation3.jpg></div><div class='cl'><div class='vertical-center'>$81<br>with a<br>50% chance</div></div><div class='cr'><div class='vertical-center'>$39<br>for<br>sure</div></div><div class='respDivL'><div class='vertical-center'>(E)</div></div><div class='respDivR'><div class='vertical-center'>(I)</div></div></div>","E","$39","$81","1","39","81","RISKY"
"html-keyboard-response","45","61758","0.0-5.0-3.13","60fcf7102d7c9907d95a0920","bdp_rd","Thu Apr 13 2023 10:07:36 GMT-0700 (PDT)","181909","","null","","","","offerFB","","<div class='trialBorder'><div class='vertical-center'><img style='vertical-align:center; align:center' src=img/fixation3.jpg></div><div class='cl'><div class='vertical-center'><font style='color:orange'>$81<br>with a<br>50% chance</font></div></div><div class='cr'><div class='vertical-center'>$39<br>for<br>sure</div></div><div class='respDivL'><div class='vertical-center'><font style='color:orange'>(E)</font></div></div><div class='respDivR'><div class='vertical-center'>(I)</div></div></div>","null","$39","$81","1","39","81",""
"html-keyboard-response","46","62263","0.0-5.0-1.14","60fcf7102d7c9907d95a0920","bdp_rd","Thu Apr 13 2023 10:07:36 GMT-0700 (PDT)","181909","","null","","","","FIX","","<div class='trialBorder'><div class='vertical-center'><img style='vertical-align:center; align:center' src=img/fixation3.jpg></div></div>","null","","","","","",""
"html-keyboard-response","47","63700","0.0-5.0-2.14","60fcf7102d7c9907d95a0920","bdp_rd","Thu Apr 13 2023 10:07:36 GMT-0700 (PDT)","181909","","1434","","","","offer","","<div class='trialBorder'><div class='vertical-center'><img style='vertical-align:center; align:center' src=img/fixation3.jpg></div><div class='cl'><div class='vertical-center'>$44<br>with a<br>50% chance</div></div><div class='cr'><div class='vertical-center'>$37<br>for<br>sure</div></div><div class='respDivL'><div class='vertical-center'>(E)</div></div><div class='respDivR'><div class='vertical-center'>(I)</div></div></div>","E","$37","$44","1","37","44","RISKY"
"html-keyboard-response","48","63954","0.0-5.0-3.14","60fcf7102d7c9907d95a0920","bdp_rd","Thu Apr 13 2023 10:07:36 GMT-0700 (PDT)","181909","","null","","","","offerFB","","<div class='trialBorder'><div class='vertical-center'><img style='vertical-align:center; align:center' src=img/fixation3.jpg></div><div class='cl'><div class='vertical-center'><font style='color:orange'>$44<br>with a<br>50% chance</font></div></div><div class='cr'><div class='vertical-center'>$37<br>for<br>sure</div></div><div class='respDivL'><div class='vertical-center'><font style='color:orange'>(E)</font></div></div><div class='respDivR'><div class='vertical-center'>(I)</div></div></div>","null","$37","$44","1","37","44",""
"html-keyboard-response","49","64457","0.0-5.0-1.15","60fcf7102d7c9907d95a0920","bdp_rd","Thu Apr 13 2023 10:07:36 GMT-0700 (PDT)","181909","","null","","","","FIX","","<div class='trialBorder'><div class='vertical-center'><img style='vertical-align:center; align:center' src=img/fixation3.jpg></div></div>","null","","","","","",""
"html-keyboard-response","50","65862","0.0-5.0-2.15","60fcf7102d7c9907d95a0920","bdp_rd","Thu Apr 13 2023 10:07:36 GMT-0700 (PDT)","181909","","1402","","","","offer","","<div class='trialBorder'><div class='vertical-center'><img style='vertical-align:center; align:center' src=img/fixation3.jpg></div><div class='cl'><div class='vertical-center'>$64<br>with a<br>50% chance</div></div><div class='cr'><div class='vertical-center'>$2<br>for<br>sure</div></div><div class='respDivL'><div class='vertical-center'>(E)</div></div><div class='respDivR'><div class='vertical-center'>(I)</div></div></div>","E","$2","$64","1","2","64","RISKY"
"html-keyboard-response","51","66115","0.0-5.0-3.15","60fcf7102d7c9907d95a0920","bdp_rd","Thu Apr 13 2023 10:07:36 GMT-0700 (PDT)","181909","","null","","","","offerFB","","<div class='trialBorder'><div class='vertical-center'><img style='vertical-align:center; align:center' src=img/fixation3.jpg></div><div class='cl'><div class='vertical-center'><font style='color:orange'>$64<br>with a<br>50% chance</font></div></div><div class='cr'><div class='vertical-center'>$2<br>for<br>sure</div></div><div class='respDivL'><div class='vertical-center'><font style='color:orange'>(E)</font></div></div><div class='respDivR'><div class='vertical-center'>(I)</div></div></div>","null","$2","$64","1","2","64",""
"html-keyboard-response","52","66618","0.0-5.0-1.16","60fcf7102d7c9907d95a0920","bdp_rd","Thu Apr 13 2023 10:07:36 GMT-0700 (PDT)","181909","","null","","","","FIX","","<div class='trialBorder'><div class='vertical-center'><img style='vertical-align:center; align:center' src=img/fixation3.jpg></div></div>","null","","","","","",""
"html-keyboard-response","53","67934","0.0-5.0-2.16","60fcf7102d7c9907d95a0920","bdp_rd","Thu Apr 13 2023 10:07:36 GMT-0700 (PDT)","181909","","1313","","","","offer","","<div class='trialBorder'><div class='vertical-center'><img style='vertical-align:center; align:center' src=img/fixation3.jpg></div><div class='cl'><div class='vertical-center'>$78<br>with a<br>50% chance</div></div><div class='cr'><div class='vertical-center'>$31<br>for<br>sure</div></div><div class='respDivL'><div class='vertical-center'>(E)</div></div><div class='respDivR'><div class='vertical-center'>(I)</div></div></div>","E","$31","$78","1","31","78","RISKY"
"html-keyboard-response","54","68186","0.0-5.0-3.16","60fcf7102d7c9907d95a0920","bdp_rd","Thu Apr 13 2023 10:07:36 GMT-0700 (PDT)","181909","","null","","","","offerFB","","<div class='trialBorder'><div class='vertical-center'><img style='vertical-align:center; align:center' src=img/fixation3.jpg></div><div class='cl'><div class='vertical-center'><font style='color:orange'>$78<br>with a<br>50% chance</font></div></div><div class='cr'><div class='vertical-center'>$31<br>for<br>sure</div></div><div class='respDivL'><div class='vertical-center'><font style='color:orange'>(E)</font></div></div><div class='respDivR'><div class='vertical-center'>(I)</div></div></div>","null","$31","$78","1","31","78",""
"html-keyboard-response","55","68689","0.0-5.0-1.17","60fcf7102d7c9907d95a0920","bdp_rd","Thu Apr 13 2023 10:07:36 GMT-0700 (PDT)","181909","","null","","","","FIX","","<div class='trialBorder'><div class='vertical-center'><img style='vertical-align:center; align:center' src=img/fixation3.jpg></div></div>","null","","","","","",""
"html-keyboard-response","56","73442","0.0-5.0-2.17","60fcf7102d7c9907d95a0920","bdp_rd","Thu Apr 13 2023 10:07:36 GMT-0700 (PDT)","181909","","4752","","","","offer","","<div class='trialBorder'><div class='vertical-center'><img style='vertical-align:center; align:center' src=img/fixation3.jpg></div><div class='cl'><div class='vertical-center'>$29<br>with a<br>50% chance</div></div><div class='cr'><div class='vertical-center'>$14<br>for<br>sure</div></div><div class='respDivL'><div class='vertical-center'>(E)</div></div><div class='respDivR'><div class='vertical-center'>(I)</div></div></div>","E","$14","$29","1","14","29","RISKY"
"html-keyboard-response","57","73695","0.0-5.0-3.17","60fcf7102d7c9907d95a0920","bdp_rd","Thu Apr 13 2023 10:07:36 GMT-0700 (PDT)","181909","","null","","","","offerFB","","<div class='trialBorder'><div class='vertical-center'><img style='vertical-align:center; align:center' src=img/fixation3.jpg></div><div class='cl'><div class='vertical-center'><font style='color:orange'>$29<br>with a<br>50% chance</font></div></div><div class='cr'><div class='vertical-center'>$14<br>for<br>sure</div></div><div class='respDivL'><div class='vertical-center'><font style='color:orange'>(E)</font></div></div><div class='respDivR'><div class='vertical-center'>(I)</div></div></div>","null","$14","$29","1","14","29",""
"html-keyboard-response","58","74197","0.0-5.0-1.18","60fcf7102d7c9907d95a0920","bdp_rd","Thu Apr 13 2023 10:07:36 GMT-0700 (PDT)","181909","","null","","","","FIX","","<div class='trialBorder'><div class='vertical-center'><img style='vertical-align:center; align:center' src=img/fixation3.jpg></div></div>","null","","","","","",""
"html-keyboard-response","59","77357","0.0-5.0-2.18","60fcf7102d7c9907d95a0920","bdp_rd","Thu Apr 13 2023 10:07:36 GMT-0700 (PDT)","181909","","3158","","","","offer","","<div class='trialBorder'><div class='vertical-center'><img style='vertical-align:center; align:center' src=img/fixation3.jpg></div><div class='cl'><div class='vertical-center'>$16<br>for<br>sure</div></div><div class='cr'><div class='vertical-center'>$38<br>with a<br>50% chance</div></div><div class='respDivL'><div class='vertical-center'>(E)</div></div><div class='respDivR'><div class='vertical-center'>(I)</div></div></div>","I","$16","$38","0","16","38","RISKY"
"html-keyboard-response","60","77610","0.0-5.0-3.18","60fcf7102d7c9907d95a0920","bdp_rd","Thu Apr 13 2023 10:07:36 GMT-0700 (PDT)","181909","","null","","","","offerFB","","<div class='trialBorder'><div class='vertical-center'><img style='vertical-align:center; align:center' src=img/fixation3.jpg></div><div class='cl'><div class='vertical-center'>$16<br>for<br>sure</div></div><div class='cr'><div class='vertical-center'><font style='color:orange'>$38<br>with a<br>50% chance</font></div></div><div class='respDivL'><div class='vertical-center'>(E)</div></div><div class='respDivR'><div class='vertical-center'><font style='color:orange'>(I)</font></div></div></div>","null","$16","$38","0","16","38",""
"html-keyboard-response","61","78112","0.0-5.0-1.19","60fcf7102d7c9907d95a0920","bdp_rd","Thu Apr 13 2023 10:07:36 GMT-0700 (PDT)","181909","","null","","","","FIX","","<div class='trialBorder'><div class='vertical-center'><img style='vertical-align:center; align:center' src=img/fixation3.jpg></div></div>","null","","","","","",""
"html-keyboard-response","62","87472","0.0-5.0-2.19","60fcf7102d7c9907d95a0920","bdp_rd","Thu Apr 13 2023 10:07:36 GMT-0700 (PDT)","181909","","9356","","","","offer","","<div class='trialBorder'><div class='vertical-center'><img style='vertical-align:center; align:center' src=img/fixation3.jpg></div><div class='cl'><div class='vertical-center'>$36<br>with a<br>50% chance</div></div><div class='cr'><div class='vertical-center'>$18<br>for<br>sure</div></div><div class='respDivL'><div class='vertical-center'>(E)</div></div><div class='respDivR'><div class='vertical-center'>(I)</div></div></div>","E","$18","$36","1","18","36","RISKY"
"html-keyboard-response","63","87726","0.0-5.0-3.19","60fcf7102d7c9907d95a0920","bdp_rd","Thu Apr 13 2023 10:07:36 GMT-0700 (PDT)","181909","","null","","","","offerFB","","<div class='trialBorder'><div class='vertical-center'><img style='vertical-align:center; align:center' src=img/fixation3.jpg></div><div class='cl'><div class='vertical-center'><font style='color:orange'>$36<br>with a<br>50% chance</font></div></div><div class='cr'><div class='vertical-center'>$18<br>for<br>sure</div></div><div class='respDivL'><div class='vertical-center'><font style='color:orange'>(E)</font></div></div><div class='respDivR'><div class='vertical-center'>(I)</div></div></div>","null","$18","$36","1","18","36",""
"html-keyboard-response","64","88229","0.0-5.0-1.20","60fcf7102d7c9907d95a0920","bdp_rd","Thu Apr 13 2023 10:07:36 GMT-0700 (PDT)","181909","","null","","","","FIX","","<div class='trialBorder'><div class='vertical-center'><img style='vertical-align:center; align:center' src=img/fixation3.jpg></div></div>","null","","","","","",""
"html-keyboard-response","65","93895","0.0-5.0-2.20","60fcf7102d7c9907d95a0920","bdp_rd","Thu Apr 13 2023 10:07:36 GMT-0700 (PDT)","181909","","5663","","","","offer","","<div class='trialBorder'><div class='vertical-center'><img style='vertical-align:center; align:center' src=img/fixation3.jpg></div><div class='cl'><div class='vertical-center'>$24<br>for<br>sure</div></div><div class='cr'><div class='vertical-center'>$70<br>with a<br>50% chance</div></div><div class='respDivL'><div class='vertical-center'>(E)</div></div><div class='respDivR'><div class='vertical-center'>(I)</div></div></div>","I","$24","$70","0","24","70","RISKY"
"html-keyboard-response","66","94149","0.0-5.0-3.20","60fcf7102d7c9907d95a0920","bdp_rd","Thu Apr 13 2023 10:07:36 GMT-0700 (PDT)","181909","","null","","","","offerFB","","<div class='trialBorder'><div class='vertical-center'><img style='vertical-align:center; align:center' src=img/fixation3.jpg></div><div class='cl'><div class='vertical-center'>$24<br>for<br>sure</div></div><div class='cr'><div class='vertical-center'><font style='color:orange'>$70<br>with a<br>50% chance</font></div></div><div class='respDivL'><div class='vertical-center'>(E)</div></div><div class='respDivR'><div class='vertical-center'><font style='color:orange'>(I)</font></div></div></div>","null","$24","$70","0","24","70",""
"html-keyboard-response","67","94652","0.0-5.0-1.21","60fcf7102d7c9907d95a0920","bdp_rd","Thu Apr 13 2023 10:07:36 GMT-0700 (PDT)","181909","","null","","","","FIX","","<div class='trialBorder'><div class='vertical-center'><img style='vertical-align:center; align:center' src=img/fixation3.jpg></div></div>","null","","","","","",""
"html-keyboard-response","68","95910","0.0-5.0-2.21","60fcf7102d7c9907d95a0920","bdp_rd","Thu Apr 13 2023 10:07:36 GMT-0700 (PDT)","181909","","1256","","","","offer","","<div class='trialBorder'><div class='vertical-center'><img style='vertical-align:center; align:center' src=img/fixation3.jpg></div><div class='cl'><div class='vertical-center'>$35<br>with a<br>50% chance</div></div><div class='cr'><div class='vertical-center'>$12<br>for<br>sure</div></div><div class='respDivL'><div class='vertical-center'>(E)</div></div><div class='respDivR'><div class='vertical-center'>(I)</div></div></div>","E","$12","$35","1","12","35","RISKY"
"html-keyboard-response","69","96164","0.0-5.0-3.21","60fcf7102d7c9907d95a0920","bdp_rd","Thu Apr 13 2023 10:07:36 GMT-0700 (PDT)","181909","","null","","","","offerFB","","<div class='trialBorder'><div class='vertical-center'><img style='vertical-align:center; align:center' src=img/fixation3.jpg></div><div class='cl'><div class='vertical-center'><font style='color:orange'>$35<br>with a<br>50% chance</font></div></div><div class='cr'><div class='vertical-center'>$12<br>for<br>sure</div></div><div class='respDivL'><div class='vertical-center'><font style='color:orange'>(E)</font></div></div><div class='respDivR'><div class='vertical-center'>(I)</div></div></div>","null","$12","$35","1","12","35",""
"html-keyboard-response","70","96667","0.0-5.0-1.22","60fcf7102d7c9907d95a0920","bdp_rd","Thu Apr 13 2023 10:07:36 GMT-0700 (PDT)","181909","","null","","","","FIX","","<div class='trialBorder'><div class='vertical-center'><img style='vertical-align:center; align:center' src=img/fixation3.jpg></div></div>","null","","","","","",""
"html-keyboard-response","71","97472","0.0-5.0-2.22","60fcf7102d7c9907d95a0920","bdp_rd","Thu Apr 13 2023 10:07:36 GMT-0700 (PDT)","181909","","802","","","","offer","","<div class='trialBorder'><div class='vertical-center'><img style='vertical-align:center; align:center' src=img/fixation3.jpg></div><div class='cl'><div class='vertical-center'>$5<br>for<br>sure</div></div><div class='cr'><div class='vertical-center'>$50<br>with a<br>50% chance</div></div><div class='respDivL'><div class='vertical-center'>(E)</div></div><div class='respDivR'><div class='vertical-center'>(I)</div></div></div>","I","$5","$50","0","5","50","RISKY"
"html-keyboard-response","72","97726","0.0-5.0-3.22","60fcf7102d7c9907d95a0920","bdp_rd","Thu Apr 13 2023 10:07:36 GMT-0700 (PDT)","181909","","null","","","","offerFB","","<div class='trialBorder'><div class='vertical-center'><img style='vertical-align:center; align:center' src=img/fixation3.jpg></div><div class='cl'><div class='vertical-center'>$5<br>for<br>sure</div></div><div class='cr'><div class='vertical-center'><font style='color:orange'>$50<br>with a<br>50% chance</font></div></div><div class='respDivL'><div class='vertical-center'>(E)</div></div><div class='respDivR'><div class='vertical-center'><font style='color:orange'>(I)</font></div></div></div>","null","$5","$50","0","5","50",""
"html-keyboard-response","73","98229","0.0-5.0-1.23","60fcf7102d7c9907d95a0920","bdp_rd","Thu Apr 13 2023 10:07:36 GMT-0700 (PDT)","181909","","null","","","","FIX","","<div class='trialBorder'><div class='vertical-center'><img style='vertical-align:center; align:center' src=img/fixation3.jpg></div></div>","null","","","","","",""
"html-keyboard-response","74","99393","0.0-5.0-2.23","60fcf7102d7c9907d95a0920","bdp_rd","Thu Apr 13 2023 10:07:36 GMT-0700 (PDT)","181909","","1162","","","","offer","","<div class='trialBorder'><div class='vertical-center'><img style='vertical-align:center; align:center' src=img/fixation3.jpg></div><div class='cl'><div class='vertical-center'>$13<br>with a<br>50% chance</div></div><div class='cr'><div class='vertical-center'>$6<br>for<br>sure</div></div><div class='respDivL'><div class='vertical-center'>(E)</div></div><div class='respDivR'><div class='vertical-center'>(I)</div></div></div>","E","$6","$13","1","6","13","RISKY"
"html-keyboard-response","75","99646","0.0-5.0-3.23","60fcf7102d7c9907d95a0920","bdp_rd","Thu Apr 13 2023 10:07:36 GMT-0700 (PDT)","181909","","null","","","","offerFB","","<div class='trialBorder'><div class='vertical-center'><img style='vertical-align:center; align:center' src=img/fixation3.jpg></div><div class='cl'><div class='vertical-center'><font style='color:orange'>$13<br>with a<br>50% chance</font></div></div><div class='cr'><div class='vertical-center'>$6<br>for<br>sure</div></div><div class='respDivL'><div class='vertical-center'><font style='color:orange'>(E)</font></div></div><div class='respDivR'><div class='vertical-center'>(I)</div></div></div>","null","$6","$13","1","6","13",""
"html-keyboard-response","76","100149","0.0-5.0-1.24","60fcf7102d7c9907d95a0920","bdp_rd","Thu Apr 13 2023 10:07:36 GMT-0700 (PDT)","181909","","null","","","","FIX","","<div class='trialBorder'><div class='vertical-center'><img style='vertical-align:center; align:center' src=img/fixation3.jpg></div></div>","null","","","","","",""
"html-keyboard-response","77","101246","0.0-5.0-2.24","60fcf7102d7c9907d95a0920","bdp_rd","Thu Apr 13 2023 10:07:36 GMT-0700 (PDT)","181909","","1095","","","","offer","","<div class='trialBorder'><div class='vertical-center'><img style='vertical-align:center; align:center' src=img/fixation3.jpg></div><div class='cl'><div class='vertical-center'>$8<br>for<br>sure</div></div><div class='cr'><div class='vertical-center'>$23<br>with a<br>50% chance</div></div><div class='respDivL'><div class='vertical-center'>(E)</div></div><div class='respDivR'><div class='vertical-center'>(I)</div></div></div>","I","$8","$23","0","8","23","RISKY"
"html-keyboard-response","78","101499","0.0-5.0-3.24","60fcf7102d7c9907d95a0920","bdp_rd","Thu Apr 13 2023 10:07:36 GMT-0700 (PDT)","181909","","null","","","","offerFB","","<div class='trialBorder'><div class='vertical-center'><img style='vertical-align:center; align:center' src=img/fixation3.jpg></div><div class='cl'><div class='vertical-center'>$8<br>for<br>sure</div></div><div class='cr'><div class='vertical-center'><font style='color:orange'>$23<br>with a<br>50% chance</font></div></div><div class='respDivL'><div class='vertical-center'>(E)</div></div><div class='respDivR'><div class='vertical-center'><font style='color:orange'>(I)</font></div></div></div>","null","$8","$23","0","8","23",""
"html-keyboard-response","79","102002","0.0-5.0-1.25","60fcf7102d7c9907d95a0920","bdp_rd","Thu Apr 13 2023 10:07:36 GMT-0700 (PDT)","181909","","null","","","","FIX","","<div class='trialBorder'><div class='vertical-center'><img style='vertical-align:center; align:center' src=img/fixation3.jpg></div></div>","null","","","","","",""
"html-keyboard-response","80","103331","0.0-5.0-2.25","60fcf7102d7c9907d95a0920","bdp_rd","Thu Apr 13 2023 10:07:36 GMT-0700 (PDT)","181909","","1326","","","","offer","","<div class='trialBorder'><div class='vertical-center'><img style='vertical-align:center; align:center' src=img/fixation3.jpg></div><div class='cl'><div class='vertical-center'>$6<br>for<br>sure</div></div><div class='cr'><div class='vertical-center'>$15<br>with a<br>50% chance</div></div><div class='respDivL'><div class='vertical-center'>(E)</div></div><div class='respDivR'><div class='vertical-center'>(I)</div></div></div>","I","$6","$15","0","6","15","RISKY"
"html-keyboard-response","81","103584","0.0-5.0-3.25","60fcf7102d7c9907d95a0920","bdp_rd","Thu Apr 13 2023 10:07:36 GMT-0700 (PDT)","181909","","null","","","","offerFB","","<div class='trialBorder'><div class='vertical-center'><img style='vertical-align:center; align:center' src=img/fixation3.jpg></div><div class='cl'><div class='vertical-center'>$6<br>for<br>sure</div></div><div class='cr'><div class='vertical-center'><font style='color:orange'>$15<br>with a<br>50% chance</font></div></div><div class='respDivL'><div class='vertical-center'>(E)</div></div><div class='respDivR'><div class='vertical-center'><font style='color:orange'>(I)</font></div></div></div>","null","$6","$15","0","6","15",""
"html-keyboard-response","82","104087","0.0-5.0-1.26","60fcf7102d7c9907d95a0920","bdp_rd","Thu Apr 13 2023 10:07:36 GMT-0700 (PDT)","181909","","null","","","","FIX","","<div class='trialBorder'><div class='vertical-center'><img style='vertical-align:center; align:center' src=img/fixation3.jpg></div></div>","null","","","","","",""
"html-keyboard-response","83","105047","0.0-5.0-2.26","60fcf7102d7c9907d95a0920","bdp_rd","Thu Apr 13 2023 10:07:36 GMT-0700 (PDT)","181909","","958","","","","offer","","<div class='trialBorder'><div class='vertical-center'><img style='vertical-align:center; align:center' src=img/fixation3.jpg></div><div class='cl'><div class='vertical-center'>$47<br>with a<br>50% chance</div></div><div class='cr'><div class='vertical-center'>$27<br>for<br>sure</div></div><div class='respDivL'><div class='vertical-center'>(E)</div></div><div class='respDivR'><div class='vertical-center'>(I)</div></div></div>","E","$27","$47","1","27","47","RISKY"
"html-keyboard-response","84","105300","0.0-5.0-3.26","60fcf7102d7c9907d95a0920","bdp_rd","Thu Apr 13 2023 10:07:36 GMT-0700 (PDT)","181909","","null","","","","offerFB","","<div class='trialBorder'><div class='vertical-center'><img style='vertical-align:center; align:center' src=img/fixation3.jpg></div><div class='cl'><div class='vertical-center'><font style='color:orange'>$47<br>with a<br>50% chance</font></div></div><div class='cr'><div class='vertical-center'>$27<br>for<br>sure</div></div><div class='respDivL'><div class='vertical-center'><font style='color:orange'>(E)</font></div></div><div class='respDivR'><div class='vertical-center'>(I)</div></div></div>","null","$27","$47","1","27","47",""
"html-keyboard-response","85","105803","0.0-5.0-1.27","60fcf7102d7c9907d95a0920","bdp_rd","Thu Apr 13 2023 10:07:36 GMT-0700 (PDT)","181909","","null","","","","FIX","","<div class='trialBorder'><div class='vertical-center'><img style='vertical-align:center; align:center' src=img/fixation3.jpg></div></div>","null","","","","","",""
"html-keyboard-response","86","107286","0.0-5.0-2.27","60fcf7102d7c9907d95a0920","bdp_rd","Thu Apr 13 2023 10:07:36 GMT-0700 (PDT)","181909","","1481","","","","offer","","<div class='trialBorder'><div class='vertical-center'><img style='vertical-align:center; align:center' src=img/fixation3.jpg></div><div class='cl'><div class='vertical-center'>$13<br>for<br>sure</div></div><div class='cr'><div class='vertical-center'>$24<br>with a<br>50% chance</div></div><div class='respDivL'><div class='vertical-center'>(E)</div></div><div class='respDivR'><div class='vertical-center'>(I)</div></div></div>","I","$13","$24","0","13","24","RISKY"
"html-keyboard-response","87","107539","0.0-5.0-3.27","60fcf7102d7c9907d95a0920","bdp_rd","Thu Apr 13 2023 10:07:36 GMT-0700 (PDT)","181909","","null","","","","offerFB","","<div class='trialBorder'><div class='vertical-center'><img style='vertical-align:center; align:center' src=img/fixation3.jpg></div><div class='cl'><div class='vertical-center'>$13<br>for<br>sure</div></div><div class='cr'><div class='vertical-center'><font style='color:orange'>$24<br>with a<br>50% chance</font></div></div><div class='respDivL'><div class='vertical-center'>(E)</div></div><div class='respDivR'><div class='vertical-center'><font style='color:orange'>(I)</font></div></div></div>","null","$13","$24","0","13","24",""
"html-keyboard-response","88","108042","0.0-5.0-1.28","60fcf7102d7c9907d95a0920","bdp_rd","Thu Apr 13 2023 10:07:36 GMT-0700 (PDT)","181909","","null","","","","FIX","","<div class='trialBorder'><div class='vertical-center'><img style='vertical-align:center; align:center' src=img/fixation3.jpg></div></div>","null","","","","","",""
"html-keyboard-response","89","109652","0.0-5.0-2.28","60fcf7102d7c9907d95a0920","bdp_rd","Thu Apr 13 2023 10:07:36 GMT-0700 (PDT)","181909","","1607","","","","offer","","<div class='trialBorder'><div class='vertical-center'><img style='vertical-align:center; align:center' src=img/fixation3.jpg></div><div class='cl'><div class='vertical-center'>$25<br>with a<br>50% chance</div></div><div class='cr'><div class='vertical-center'>$21<br>for<br>sure</div></div><div class='respDivL'><div class='vertical-center'>(E)</div></div><div class='respDivR'><div class='vertical-center'>(I)</div></div></div>","I","$21","$25","1","21","25","SURE"
"html-keyboard-response","90","109905","0.0-5.0-3.28","60fcf7102d7c9907d95a0920","bdp_rd","Thu Apr 13 2023 10:07:36 GMT-0700 (PDT)","181909","","null","","","","offerFB","","<div class='trialBorder'><div class='vertical-center'><img style='vertical-align:center; align:center' src=img/fixation3.jpg></div><div class='cl'><div class='vertical-center'>$25<br>with a<br>50% chance</div></div><div class='cr'><div class='vertical-center'><font style='color:orange'>$21<br>for<br>sure</font></div></div><div class='respDivL'><div class='vertical-center'>(E)</div></div><div class='respDivR'><div class='vertical-center'><font style='color:orange'>(I)</font></div></div></div>","null","$21","$25","1","21","25",""
"html-keyboard-response","91","110408","0.0-5.0-1.29","60fcf7102d7c9907d95a0920","bdp_rd","Thu Apr 13 2023 10:07:36 GMT-0700 (PDT)","181909","","null","","","","FIX","","<div class='trialBorder'><div class='vertical-center'><img style='vertical-align:center; align:center' src=img/fixation3.jpg></div></div>","null","","","","","",""
"html-keyboard-response","92","111544","0.0-5.0-2.29","60fcf7102d7c9907d95a0920","bdp_rd","Thu Apr 13 2023 10:07:36 GMT-0700 (PDT)","181909","","1135","","","","offer","","<div class='trialBorder'><div class='vertical-center'><img style='vertical-align:center; align:center' src=img/fixation3.jpg></div><div class='cl'><div class='vertical-center'>$40<br>with a<br>50% chance</div></div><div class='cr'><div class='vertical-center'>$10<br>for<br>sure</div></div><div class='respDivL'><div class='vertical-center'>(E)</div></div><div class='respDivR'><div class='vertical-center'>(I)</div></div></div>","E","$10","$40","1","10","40","RISKY"
"html-keyboard-response","93","111797","0.0-5.0-3.29","60fcf7102d7c9907d95a0920","bdp_rd","Thu Apr 13 2023 10:07:36 GMT-0700 (PDT)","181909","","null","","","","offerFB","","<div class='trialBorder'><div class='vertical-center'><img style='vertical-align:center; align:center' src=img/fixation3.jpg></div><div class='cl'><div class='vertical-center'><font style='color:orange'>$40<br>with a<br>50% chance</font></div></div><div class='cr'><div class='vertical-center'>$10<br>for<br>sure</div></div><div class='respDivL'><div class='vertical-center'><font style='color:orange'>(E)</font></div></div><div class='respDivR'><div class='vertical-center'>(I)</div></div></div>","null","$10","$40","1","10","40",""
"html-keyboard-response","94","112300","0.0-5.0-1.30","60fcf7102d7c9907d95a0920","bdp_rd","Thu Apr 13 2023 10:07:36 GMT-0700 (PDT)","181909","","null","","","","FIX","","<div class='trialBorder'><div class='vertical-center'><img style='vertical-align:center; align:center' src=img/fixation3.jpg></div></div>","null","","","","","",""
"html-keyboard-response","95","113738","0.0-5.0-2.30","60fcf7102d7c9907d95a0920","bdp_rd","Thu Apr 13 2023 10:07:36 GMT-0700 (PDT)","181909","","1437","","","","offer","","<div class='trialBorder'><div class='vertical-center'><img style='vertical-align:center; align:center' src=img/fixation3.jpg></div><div class='cl'><div class='vertical-center'>$34<br>with a<br>50% chance</div></div><div class='cr'><div class='vertical-center'>$15<br>for<br>sure</div></div><div class='respDivL'><div class='vertical-center'>(E)</div></div><div class='respDivR'><div class='vertical-center'>(I)</div></div></div>","E","$15","$34","1","15","34","RISKY"
"html-keyboard-response","96","113991","0.0-5.0-3.30","60fcf7102d7c9907d95a0920","bdp_rd","Thu Apr 13 2023 10:07:36 GMT-0700 (PDT)","181909","","null","","","","offerFB","","<div class='trialBorder'><div class='vertical-center'><img style='vertical-align:center; align:center' src=img/fixation3.jpg></div><div class='cl'><div class='vertical-center'><font style='color:orange'>$34<br>with a<br>50% chance</font></div></div><div class='cr'><div class='vertical-center'>$15<br>for<br>sure</div></div><div class='respDivL'><div class='vertical-center'><font style='color:orange'>(E)</font></div></div><div class='respDivR'><div class='vertical-center'>(I)</div></div></div>","null","$15","$34","1","15","34",""
"html-keyboard-response","97","114493","0.0-5.0-1.31","60fcf7102d7c9907d95a0920","bdp_rd","Thu Apr 13 2023 10:07:36 GMT-0700 (PDT)","181909","","null","","","","FIX","","<div class='trialBorder'><div class='vertical-center'><img style='vertical-align:center; align:center' src=img/fixation3.jpg></div></div>","null","","","","","",""
"html-keyboard-response","98","116669","0.0-5.0-2.31","60fcf7102d7c9907d95a0920","bdp_rd","Thu Apr 13 2023 10:07:36 GMT-0700 (PDT)","181909","","2174","","","","offer","","<div class='trialBorder'><div class='vertical-center'><img style='vertical-align:center; align:center' src=img/fixation3.jpg></div><div class='cl'><div class='vertical-center'>$98<br>with a<br>50% chance</div></div><div class='cr'><div class='vertical-center'>$53<br>for<br>sure</div></div><div class='respDivL'><div class='vertical-center'>(E)</div></div><div class='respDivR'><div class='vertical-center'>(I)</div></div></div>","E","$53","$98","1","53","98","RISKY"
"html-keyboard-response","99","116923","0.0-5.0-3.31","60fcf7102d7c9907d95a0920","bdp_rd","Thu Apr 13 2023 10:07:36 GMT-0700 (PDT)","181909","","null","","","","offerFB","","<div class='trialBorder'><div class='vertical-center'><img style='vertical-align:center; align:center' src=img/fixation3.jpg></div><div class='cl'><div class='vertical-center'><font style='color:orange'>$98<br>with a<br>50% chance</font></div></div><div class='cr'><div class='vertical-center'>$53<br>for<br>sure</div></div><div class='respDivL'><div class='vertical-center'><font style='color:orange'>(E)</font></div></div><div class='respDivR'><div class='vertical-center'>(I)</div></div></div>","null","$53","$98","1","53","98",""
"html-keyboard-response","100","117426","0.0-5.0-1.32","60fcf7102d7c9907d95a0920","bdp_rd","Thu Apr 13 2023 10:07:36 GMT-0700 (PDT)","181909","","null","","","","FIX","","<div class='trialBorder'><div class='vertical-center'><img style='vertical-align:center; align:center' src=img/fixation3.jpg></div></div>","null","","","","","",""
"html-keyboard-response","101","118678","0.0-5.0-2.32","60fcf7102d7c9907d95a0920","bdp_rd","Thu Apr 13 2023 10:07:36 GMT-0700 (PDT)","181909","","1251","","","","offer","","<div class='trialBorder'><div class='vertical-center'><img style='vertical-align:center; align:center' src=img/fixation3.jpg></div><div class='cl'><div class='vertical-center'>$63<br>for<br>sure</div></div><div class='cr'><div class='vertical-center'>$100<br>with a<br>50% chance</div></div><div class='respDivL'><div class='vertical-center'>(E)</div></div><div class='respDivR'><div class='vertical-center'>(I)</div></div></div>","I","$63","$100","0","63","10","RISKY"
"html-keyboard-response","102","118932","0.0-5.0-3.32","60fcf7102d7c9907d95a0920","bdp_rd","Thu Apr 13 2023 10:07:36 GMT-0700 (PDT)","181909","","null","","","","offerFB","","<div class='trialBorder'><div class='vertical-center'><img style='vertical-align:center; align:center' src=img/fixation3.jpg></div><div class='cl'><div class='vertical-center'>$63<br>for<br>sure</div></div><div class='cr'><div class='vertical-center'><font style='color:orange'>$100<br>with a<br>50% chance</font></div></div><div class='respDivL'><div class='vertical-center'>(E)</div></div><div class='respDivR'><div class='vertical-center'><font style='color:orange'>(I)</font></div></div></div>","null","$63","$100","0","63","10",""
"html-keyboard-response","103","119434","0.0-5.0-1.33","60fcf7102d7c9907d95a0920","bdp_rd","Thu Apr 13 2023 10:07:36 GMT-0700 (PDT)","181909","","null","","","","FIX","","<div class='trialBorder'><div class='vertical-center'><img style='vertical-align:center; align:center' src=img/fixation3.jpg></div></div>","null","","","","","",""
"html-keyboard-response","104","120491","0.0-5.0-2.33","60fcf7102d7c9907d95a0920","bdp_rd","Thu Apr 13 2023 10:07:36 GMT-0700 (PDT)","181909","","1055","","","","offer","","<div class='trialBorder'><div class='vertical-center'><img style='vertical-align:center; align:center' src=img/fixation3.jpg></div><div class='cl'><div class='vertical-center'>$45<br>with a<br>50% chance</div></div><div class='cr'><div class='vertical-center'>$8<br>for<br>sure</div></div><div class='respDivL'><div class='vertical-center'>(E)</div></div><div class='respDivR'><div class='vertical-center'>(I)</div></div></div>","E","$8","$45","1","8","45","RISKY"
"html-keyboard-response","105","120750","0.0-5.0-3.33","60fcf7102d7c9907d95a0920","bdp_rd","Thu Apr 13 2023 10:07:36 GMT-0700 (PDT)","181909","","null","","","","offerFB","","<div class='trialBorder'><div class='vertical-center'><img style='vertical-align:center; align:center' src=img/fixation3.jpg></div><div class='cl'><div class='vertical-center'><font style='color:orange'>$45<br>with a<br>50% chance</font></div></div><div class='cr'><div class='vertical-center'>$8<br>for<br>sure</div></div><div class='respDivL'><div class='vertical-center'><font style='color:orange'>(E)</font></div></div><div class='respDivR'><div class='vertical-center'>(I)</div></div></div>","null","$8","$45","1","8","45",""
"html-keyboard-response","106","121253","0.0-5.0-1.34","60fcf7102d7c9907d95a0920","bdp_rd","Thu Apr 13 2023 10:07:36 GMT-0700 (PDT)","181909","","null","","","","FIX","","<div class='trialBorder'><div class='vertical-center'><img style='vertical-align:center; align:center' src=img/fixation3.jpg></div></div>","null","","","","","",""
"html-keyboard-response","107","125892","0.0-5.0-2.34","60fcf7102d7c9907d95a0920","bdp_rd","Thu Apr 13 2023 10:07:36 GMT-0700 (PDT)","181909","","4636","","","","offer","","<div class='trialBorder'><div class='vertical-center'><img style='vertical-align:center; align:center' src=img/fixation3.jpg></div><div class='cl'><div class='vertical-center'>$51<br>with a<br>50% chance</div></div><div class='cr'><div class='vertical-center'>$19<br>for<br>sure</div></div><div class='respDivL'><div class='vertical-center'>(E)</div></div><div class='respDivR'><div class='vertical-center'>(I)</div></div></div>","E","$19","$51","1","19","51","RISKY"
"html-keyboard-response","108","126145","0.0-5.0-3.34","60fcf7102d7c9907d95a0920","bdp_rd","Thu Apr 13 2023 10:07:36 GMT-0700 (PDT)","181909","","null","","","","offerFB","","<div class='trialBorder'><div class='vertical-center'><img style='vertical-align:center; align:center' src=img/fixation3.jpg></div><div class='cl'><div class='vertical-center'><font style='color:orange'>$51<br>with a<br>50% chance</font></div></div><div class='cr'><div class='vertical-center'>$19<br>for<br>sure</div></div><div class='respDivL'><div class='vertical-center'><font style='color:orange'>(E)</font></div></div><div class='respDivR'><div class='vertical-center'>(I)</div></div></div>","null","$19","$51","1","19","51",""
"html-keyboard-response","109","126648","0.0-5.0-1.35","60fcf7102d7c9907d95a0920","bdp_rd","Thu Apr 13 2023 10:07:36 GMT-0700 (PDT)","181909","","null","","","","FIX","","<div class='trialBorder'><div class='vertical-center'><img style='vertical-align:center; align:center' src=img/fixation3.jpg></div></div>","null","","","","","",""
"html-keyboard-response","110","128003","0.0-5.0-2.35","60fcf7102d7c9907d95a0920","bdp_rd","Thu Apr 13 2023 10:07:36 GMT-0700 (PDT)","181909","","1352","","","","offer","","<div class='trialBorder'><div class='vertical-center'><img style='vertical-align:center; align:center' src=img/fixation3.jpg></div><div class='cl'><div class='vertical-center'>$30<br>with a<br>50% chance</div></div><div class='cr'><div class='vertical-center'>$1<br>for<br>sure</div></div><div class='respDivL'><div class='vertical-center'>(E)</div></div><div class='respDivR'><div class='vertical-center'>(I)</div></div></div>","E","$1","$30","1","1","30","RISKY"
"html-keyboard-response","111","128255","0.0-5.0-3.35","60fcf7102d7c9907d95a0920","bdp_rd","Thu Apr 13 2023 10:07:36 GMT-0700 (PDT)","181909","","null","","","","offerFB","","<div class='trialBorder'><div class='vertical-center'><img style='vertical-align:center; align:center' src=img/fixation3.jpg></div><div class='cl'><div class='vertical-center'><font style='color:orange'>$30<br>with a<br>50% chance</font></div></div><div class='cr'><div class='vertical-center'>$1<br>for<br>sure</div></div><div class='respDivL'><div class='vertical-center'><font style='color:orange'>(E)</font></div></div><div class='respDivR'><div class='vertical-center'>(I)</div></div></div>","null","$1","$30","1","1","30",""
"html-keyboard-response","112","128757","0.0-5.0-1.36","60fcf7102d7c9907d95a0920","bdp_rd","Thu Apr 13 2023 10:07:36 GMT-0700 (PDT)","181909","","null","","","","FIX","","<div class='trialBorder'><div class='vertical-center'><img style='vertical-align:center; align:center' src=img/fixation3.jpg></div></div>","null","","","","","",""
"html-keyboard-response","113","130112","0.0-5.0-2.36","60fcf7102d7c9907d95a0920","bdp_rd","Thu Apr 13 2023 10:07:36 GMT-0700 (PDT)","181909","","1353","","","","offer","","<div class='trialBorder'><div class='vertical-center'><img style='vertical-align:center; align:center' src=img/fixation3.jpg></div><div class='cl'><div class='vertical-center'>$16<br>for<br>sure</div></div><div class='cr'><div class='vertical-center'>$28<br>with a<br>50% chance</div></div><div class='respDivL'><div class='vertical-center'>(E)</div></div><div class='respDivR'><div class='vertical-center'>(I)</div></div></div>","I","$16","$28","0","16","28","RISKY"
"html-keyboard-response","114","130366","0.0-5.0-3.36","60fcf7102d7c9907d95a0920","bdp_rd","Thu Apr 13 2023 10:07:36 GMT-0700 (PDT)","181909","","null","","","","offerFB","","<div class='trialBorder'><div class='vertical-center'><img style='vertical-align:center; align:center' src=img/fixation3.jpg></div><div class='cl'><div class='vertical-center'>$16<br>for<br>sure</div></div><div class='cr'><div class='vertical-center'><font style='color:orange'>$28<br>with a<br>50% chance</font></div></div><div class='respDivL'><div class='vertical-center'>(E)</div></div><div class='respDivR'><div class='vertical-center'><font style='color:orange'>(I)</font></div></div></div>","null","$16","$28","0","16","28",""
"html-keyboard-response","115","130869","0.0-5.0-1.37","60fcf7102d7c9907d95a0920","bdp_rd","Thu Apr 13 2023 10:07:36 GMT-0700 (PDT)","181909","","null","","","","FIX","","<div class='trialBorder'><div class='vertical-center'><img style='vertical-align:center; align:center' src=img/fixation3.jpg></div></div>","null","","","","","",""
"html-keyboard-response","116","131739","0.0-5.0-2.37","60fcf7102d7c9907d95a0920","bdp_rd","Thu Apr 13 2023 10:07:36 GMT-0700 (PDT)","181909","","869","","","","offer","","<div class='trialBorder'><div class='vertical-center'><img style='vertical-align:center; align:center' src=img/fixation3.jpg></div><div class='cl'><div class='vertical-center'>$4<br>for<br>sure</div></div><div class='cr'><div class='vertical-center'>$11<br>with a<br>50% chance</div></div><div class='respDivL'><div class='vertical-center'>(E)</div></div><div class='respDivR'><div class='vertical-center'>(I)</div></div></div>","I","$4","$11","0","4","11","RISKY"
"html-keyboard-response","117","131993","0.0-5.0-3.37","60fcf7102d7c9907d95a0920","bdp_rd","Thu Apr 13 2023 10:07:36 GMT-0700 (PDT)","181909","","null","","","","offerFB","","<div class='trialBorder'><div class='vertical-center'><img style='vertical-align:center; align:center' src=img/fixation3.jpg></div><div class='cl'><div class='vertical-center'>$4<br>for<br>sure</div></div><div class='cr'><div class='vertical-center'><font style='color:orange'>$11<br>with a<br>50% chance</font></div></div><div class='respDivL'><div class='vertical-center'>(E)</div></div><div class='respDivR'><div class='vertical-center'><font style='color:orange'>(I)</font></div></div></div>","null","$4","$11","0","4","11",""
"html-keyboard-response","118","132496","0.0-5.0-1.38","60fcf7102d7c9907d95a0920","bdp_rd","Thu Apr 13 2023 10:07:36 GMT-0700 (PDT)","181909","","null","","","","FIX","","<div class='trialBorder'><div class='vertical-center'><img style='vertical-align:center; align:center' src=img/fixation3.jpg></div></div>","null","","","","","",""
"html-keyboard-response","119","134081","0.0-5.0-2.38","60fcf7102d7c9907d95a0920","bdp_rd","Thu Apr 13 2023 10:07:36 GMT-0700 (PDT)","181909","","1582","","","","offer","","<div class='trialBorder'><div class='vertical-center'><img style='vertical-align:center; align:center' src=img/fixation3.jpg></div><div class='cl'><div class='vertical-center'>$69<br>with a<br>50% chance</div></div><div class='cr'><div class='vertical-center'>$58<br>for<br>sure</div></div><div class='respDivL'><div class='vertical-center'>(E)</div></div><div class='respDivR'><div class='vertical-center'>(I)</div></div></div>","E","$58","$69","1","58","69","RISKY"
"html-keyboard-response","120","134334","0.0-5.0-3.38","60fcf7102d7c9907d95a0920","bdp_rd","Thu Apr 13 2023 10:07:36 GMT-0700 (PDT)","181909","","null","","","","offerFB","","<div class='trialBorder'><div class='vertical-center'><img style='vertical-align:center; align:center' src=img/fixation3.jpg></div><div class='cl'><div class='vertical-center'><font style='color:orange'>$69<br>with a<br>50% chance</font></div></div><div class='cr'><div class='vertical-center'>$58<br>for<br>sure</div></div><div class='respDivL'><div class='vertical-center'><font style='color:orange'>(E)</font></div></div><div class='respDivR'><div class='vertical-center'>(I)</div></div></div>","null","$58","$69","1","58","69",""
"html-keyboard-response","121","134837","0.0-5.0-1.39","60fcf7102d7c9907d95a0920","bdp_rd","Thu Apr 13 2023 10:07:36 GMT-0700 (PDT)","181909","","null","","","","FIX","","<div class='trialBorder'><div class='vertical-center'><img style='vertical-align:center; align:center' src=img/fixation3.jpg></div></div>","null","","","","","",""
"html-keyboard-response","122","136151","0.0-5.0-2.39","60fcf7102d7c9907d95a0920","bdp_rd","Thu Apr 13 2023 10:07:36 GMT-0700 (PDT)","181909","","1311","","","","offer","","<div class='trialBorder'><div class='vertical-center'><img style='vertical-align:center; align:center' src=img/fixation3.jpg></div><div class='cl'><div class='vertical-center'>$18<br>with a<br>50% chance</div></div><div class='cr'><div class='vertical-center'>$9<br>for<br>sure</div></div><div class='respDivL'><div class='vertical-center'>(E)</div></div><div class='respDivR'><div class='vertical-center'>(I)</div></div></div>","I","$9","$18","1","9","18","SURE"
"html-keyboard-response","123","136405","0.0-5.0-3.39","60fcf7102d7c9907d95a0920","bdp_rd","Thu Apr 13 2023 10:07:36 GMT-0700 (PDT)","181909","","null","","","","offerFB","","<div class='trialBorder'><div class='vertical-center'><img style='vertical-align:center; align:center' src=img/fixation3.jpg></div><div class='cl'><div class='vertical-center'>$18<br>with a<br>50% chance</div></div><div class='cr'><div class='vertical-center'><font style='color:orange'>$9<br>for<br>sure</font></div></div><div class='respDivL'><div class='vertical-center'>(E)</div></div><div class='respDivR'><div class='vertical-center'><font style='color:orange'>(I)</font></div></div></div>","null","$9","$18","1","9","18",""
"html-keyboard-response","124","136907","0.0-5.0-1.40","60fcf7102d7c9907d95a0920","bdp_rd","Thu Apr 13 2023 10:07:36 GMT-0700 (PDT)","181909","","null","","","","FIX","","<div class='trialBorder'><div class='vertical-center'><img style='vertical-align:center; align:center' src=img/fixation3.jpg></div></div>","null","","","","","",""
"html-keyboard-response","125","138235","0.0-5.0-2.40","60fcf7102d7c9907d95a0920","bdp_rd","Thu Apr 13 2023 10:07:36 GMT-0700 (PDT)","181909","","1326","","","","offer","","<div class='trialBorder'><div class='vertical-center'><img style='vertical-align:center; align:center' src=img/fixation3.jpg></div><div class='cl'><div class='vertical-center'>$45<br>for<br>sure</div></div><div class='cr'><div class='vertical-center'>$86<br>with a<br>50% chance</div></div><div class='respDivL'><div class='vertical-center'>(E)</div></div><div class='respDivR'><div class='vertical-center'>(I)</div></div></div>","I","$45","$86","0","45","86","RISKY"
"html-keyboard-response","126","138489","0.0-5.0-3.40","60fcf7102d7c9907d95a0920","bdp_rd","Thu Apr 13 2023 10:07:36 GMT-0700 (PDT)","181909","","null","","","","offerFB","","<div class='trialBorder'><div class='vertical-center'><img style='vertical-align:center; align:center' src=img/fixation3.jpg></div><div class='cl'><div class='vertical-center'>$45<br>for<br>sure</div></div><div class='cr'><div class='vertical-center'><font style='color:orange'>$86<br>with a<br>50% chance</font></div></div><div class='respDivL'><div class='vertical-center'>(E)</div></div><div class='respDivR'><div class='vertical-center'><font style='color:orange'>(I)</font></div></div></div>","null","$45","$86","0","45","86",""
"html-keyboard-response","127","138992","0.0-5.0-1.41","60fcf7102d7c9907d95a0920","bdp_rd","Thu Apr 13 2023 10:07:36 GMT-0700 (PDT)","181909","","null","","","","FIX","","<div class='trialBorder'><div class='vertical-center'><img style='vertical-align:center; align:center' src=img/fixation3.jpg></div></div>","null","","","","","",""
"html-keyboard-response","128","140782","0.0-5.0-2.41","60fcf7102d7c9907d95a0920","bdp_rd","Thu Apr 13 2023 10:07:36 GMT-0700 (PDT)","181909","","1787","","","","offer","","<div class='trialBorder'><div class='vertical-center'><img style='vertical-align:center; align:center' src=img/fixation3.jpg></div><div class='cl'><div class='vertical-center'>$5<br>for<br>sure</div></div><div class='cr'><div class='vertical-center'>$16<br>with a<br>50% chance</div></div><div class='respDivL'><div class='vertical-center'>(E)</div></div><div class='respDivR'><div class='vertical-center'>(I)</div></div></div>","I","$5","$16","0","5","16","RISKY"
"html-keyboard-response","129","141040","0.0-5.0-3.41","60fcf7102d7c9907d95a0920","bdp_rd","Thu Apr 13 2023 10:07:36 GMT-0700 (PDT)","181909","","null","","","","offerFB","","<div class='trialBorder'><div class='vertical-center'><img style='vertical-align:center; align:center' src=img/fixation3.jpg></div><div class='cl'><div class='vertical-center'>$5<br>for<br>sure</div></div><div class='cr'><div class='vertical-center'><font style='color:orange'>$16<br>with a<br>50% chance</font></div></div><div class='respDivL'><div class='vertical-center'>(E)</div></div><div class='respDivR'><div class='vertical-center'><font style='color:orange'>(I)</font></div></div></div>","null","$5","$16","0","5","16",""
"html-keyboard-response","130","141543","0.0-5.0-1.42","60fcf7102d7c9907d95a0920","bdp_rd","Thu Apr 13 2023 10:07:36 GMT-0700 (PDT)","181909","","null","","","","FIX","","<div class='trialBorder'><div class='vertical-center'><img style='vertical-align:center; align:center' src=img/fixation3.jpg></div></div>","null","","","","","",""
"html-keyboard-response","131","142680","0.0-5.0-2.42","60fcf7102d7c9907d95a0920","bdp_rd","Thu Apr 13 2023 10:07:36 GMT-0700 (PDT)","181909","","1134","","","","offer","","<div class='trialBorder'><div class='vertical-center'><img style='vertical-align:center; align:center' src=img/fixation3.jpg></div><div class='cl'><div class='vertical-center'>$20<br>for<br>sure</div></div><div class='cr'><div class='vertical-center'>$37<br>with a<br>50% chance</div></div><div class='respDivL'><div class='vertical-center'>(E)</div></div><div class='respDivR'><div class='vertical-center'>(I)</div></div></div>","I","$20","$37","0","20","37","RISKY"
"html-keyboard-response","132","142934","0.0-5.0-3.42","60fcf7102d7c9907d95a0920","bdp_rd","Thu Apr 13 2023 10:07:36 GMT-0700 (PDT)","181909","","null","","","","offerFB","","<div class='trialBorder'><div class='vertical-center'><img style='vertical-align:center; align:center' src=img/fixation3.jpg></div><div class='cl'><div class='vertical-center'>$20<br>for<br>sure</div></div><div class='cr'><div class='vertical-center'><font style='color:orange'>$37<br>with a<br>50% chance</font></div></div><div class='respDivL'><div class='vertical-center'>(E)</div></div><div class='respDivR'><div class='vertical-center'><font style='color:orange'>(I)</font></div></div></div>","null","$20","$37","0","20","37",""
"html-keyboard-response","133","143437","0.0-5.0-1.43","60fcf7102d7c9907d95a0920","bdp_rd","Thu Apr 13 2023 10:07:36 GMT-0700 (PDT)","181909","","null","","","","FIX","","<div class='trialBorder'><div class='vertical-center'><img style='vertical-align:center; align:center' src=img/fixation3.jpg></div></div>","null","","","","","",""
"html-keyboard-response","134","144967","0.0-5.0-2.43","60fcf7102d7c9907d95a0920","bdp_rd","Thu Apr 13 2023 10:07:36 GMT-0700 (PDT)","181909","","1527","","","","offer","","<div class='trialBorder'><div class='vertical-center'><img style='vertical-align:center; align:center' src=img/fixation3.jpg></div><div class='cl'><div class='vertical-center'>$42<br>with a<br>50% chance</div></div><div class='cr'><div class='vertical-center'>$22<br>for<br>sure</div></div><div class='respDivL'><div class='vertical-center'>(E)</div></div><div class='respDivR'><div class='vertical-center'>(I)</div></div></div>","E","$22","$42","1","22","42","RISKY"
"html-keyboard-response","135","145221","0.0-5.0-3.43","60fcf7102d7c9907d95a0920","bdp_rd","Thu Apr 13 2023 10:07:36 GMT-0700 (PDT)","181909","","null","","","","offerFB","","<div class='trialBorder'><div class='vertical-center'><img style='vertical-align:center; align:center' src=img/fixation3.jpg></div><div class='cl'><div class='vertical-center'><font style='color:orange'>$42<br>with a<br>50% chance</font></div></div><div class='cr'><div class='vertical-center'>$22<br>for<br>sure</div></div><div class='respDivL'><div class='vertical-center'><font style='color:orange'>(E)</font></div></div><div class='respDivR'><div class='vertical-center'>(I)</div></div></div>","null","$22","$42","1","22","42",""
"html-keyboard-response","136","145724","0.0-5.0-1.44","60fcf7102d7c9907d95a0920","bdp_rd","Thu Apr 13 2023 10:07:36 GMT-0700 (PDT)","181909","","null","","","","FIX","","<div class='trialBorder'><div class='vertical-center'><img style='vertical-align:center; align:center' src=img/fixation3.jpg></div></div>","null","","","","","",""
"html-keyboard-response","137","147412","0.0-5.0-2.44","60fcf7102d7c9907d95a0920","bdp_rd","Thu Apr 13 2023 10:07:36 GMT-0700 (PDT)","181909","","1685","","","","offer","","<div class='trialBorder'><div class='vertical-center'><img style='vertical-align:center; align:center' src=img/fixation3.jpg></div><div class='cl'><div class='vertical-center'>$68<br>with a<br>50% chance</div></div><div class='cr'><div class='vertical-center'>$30<br>for<br>sure</div></div><div class='respDivL'><div class='vertical-center'>(E)</div></div><div class='respDivR'><div class='vertical-center'>(I)</div></div></div>","E","$30","$68","1","30","68","RISKY"
"html-keyboard-response","138","147666","0.0-5.0-3.44","60fcf7102d7c9907d95a0920","bdp_rd","Thu Apr 13 2023 10:07:36 GMT-0700 (PDT)","181909","","null","","","","offerFB","","<div class='trialBorder'><div class='vertical-center'><img style='vertical-align:center; align:center' src=img/fixation3.jpg></div><div class='cl'><div class='vertical-center'><font style='color:orange'>$68<br>with a<br>50% chance</font></div></div><div class='cr'><div class='vertical-center'>$30<br>for<br>sure</div></div><div class='respDivL'><div class='vertical-center'><font style='color:orange'>(E)</font></div></div><div class='respDivR'><div class='vertical-center'>(I)</div></div></div>","null","$30","$68","1","30","68",""
"html-keyboard-response","139","148169","0.0-5.0-1.45","60fcf7102d7c9907d95a0920","bdp_rd","Thu Apr 13 2023 10:07:36 GMT-0700 (PDT)","181909","","null","","","","FIX","","<div class='trialBorder'><div class='vertical-center'><img style='vertical-align:center; align:center' src=img/fixation3.jpg></div></div>","null","","","","","",""
"html-keyboard-response","140","149150","0.0-5.0-2.45","60fcf7102d7c9907d95a0920","bdp_rd","Thu Apr 13 2023 10:07:36 GMT-0700 (PDT)","181909","","979","","","","offer","","<div class='trialBorder'><div class='vertical-center'><img style='vertical-align:center; align:center' src=img/fixation3.jpg></div><div class='cl'><div class='vertical-center'>$1<br>for<br>sure</div></div><div class='cr'><div class='vertical-center'>$33<br>with a<br>50% chance</div></div><div class='respDivL'><div class='vertical-center'>(E)</div></div><div class='respDivR'><div class='vertical-center'>(I)</div></div></div>","I","$1","$33","0","1","33","RISKY"
"html-keyboard-response","141","149404","0.0-5.0-3.45","60fcf7102d7c9907d95a0920","bdp_rd","Thu Apr 13 2023 10:07:36 GMT-0700 (PDT)","181909","","null","","","","offerFB","","<div class='trialBorder'><div class='vertical-center'><img style='vertical-align:center; align:center' src=img/fixation3.jpg></div><div class='cl'><div class='vertical-center'>$1<br>for<br>sure</div></div><div class='cr'><div class='vertical-center'><font style='color:orange'>$33<br>with a<br>50% chance</font></div></div><div class='respDivL'><div class='vertical-center'>(E)</div></div><div class='respDivR'><div class='vertical-center'><font style='color:orange'>(I)</font></div></div></div>","null","$1","$33","0","1","33",""
"html-keyboard-response","142","149907","0.0-5.0-1.46","60fcf7102d7c9907d95a0920","bdp_rd","Thu Apr 13 2023 10:07:36 GMT-0700 (PDT)","181909","","null","","","","FIX","","<div class='trialBorder'><div class='vertical-center'><img style='vertical-align:center; align:center' src=img/fixation3.jpg></div></div>","null","","","","","",""
"html-keyboard-response","143","152683","0.0-5.0-2.46","60fcf7102d7c9907d95a0920","bdp_rd","Thu Apr 13 2023 10:07:36 GMT-0700 (PDT)","181909","","2774","","","","offer","","<div class='trialBorder'><div class='vertical-center'><img style='vertical-align:center; align:center' src=img/fixation3.jpg></div><div class='cl'><div class='vertical-center'>$33<br>for<br>sure</div></div><div class='cr'><div class='vertical-center'>$66<br>with a<br>50% chance</div></div><div class='respDivL'><div class='vertical-center'>(E)</div></div><div class='respDivR'><div class='vertical-center'>(I)</div></div></div>","I","$33","$66","0","33","66","RISKY"
"html-keyboard-response","144","152937","0.0-5.0-3.46","60fcf7102d7c9907d95a0920","bdp_rd","Thu Apr 13 2023 10:07:36 GMT-0700 (PDT)","181909","","null","","","","offerFB","","<div class='trialBorder'><div class='vertical-center'><img style='vertical-align:center; align:center' src=img/fixation3.jpg></div><div class='cl'><div class='vertical-center'>$33<br>for<br>sure</div></div><div class='cr'><div class='vertical-center'><font style='color:orange'>$66<br>with a<br>50% chance</font></div></div><div class='respDivL'><div class='vertical-center'>(E)</div></div><div class='respDivR'><div class='vertical-center'><font style='color:orange'>(I)</font></div></div></div>","null","$33","$66","0","33","66",""
"html-keyboard-response","145","153440","0.0-5.0-1.47","60fcf7102d7c9907d95a0920","bdp_rd","Thu Apr 13 2023 10:07:36 GMT-0700 (PDT)","181909","","null","","","","FIX","","<div class='trialBorder'><div class='vertical-center'><img style='vertical-align:center; align:center' src=img/fixation3.jpg></div></div>","null","","","","","",""
"html-keyboard-response","146","154590","0.0-5.0-2.47","60fcf7102d7c9907d95a0920","bdp_rd","Thu Apr 13 2023 10:07:36 GMT-0700 (PDT)","181909","","1149","","","","offer","","<div class='trialBorder'><div class='vertical-center'><img style='vertical-align:center; align:center' src=img/fixation3.jpg></div><div class='cl'><div class='vertical-center'>$73<br>with a<br>50% chance</div></div><div class='cr'><div class='vertical-center'>$42<br>for<br>sure</div></div><div class='respDivL'><div class='vertical-center'>(E)</div></div><div class='respDivR'><div class='vertical-center'>(I)</div></div></div>","E","$42","$73","1","42","73","RISKY"
"html-keyboard-response","147","154843","0.0-5.0-3.47","60fcf7102d7c9907d95a0920","bdp_rd","Thu Apr 13 2023 10:07:36 GMT-0700 (PDT)","181909","","null","","","","offerFB","","<div class='trialBorder'><div class='vertical-center'><img style='vertical-align:center; align:center' src=img/fixation3.jpg></div><div class='cl'><div class='vertical-center'><font style='color:orange'>$73<br>with a<br>50% chance</font></div></div><div class='cr'><div class='vertical-center'>$42<br>for<br>sure</div></div><div class='respDivL'><div class='vertical-center'><font style='color:orange'>(E)</font></div></div><div class='respDivR'><div class='vertical-center'>(I)</div></div></div>","null","$42","$73","1","42","73",""
"html-keyboard-response","148","155346","0.0-5.0-1.48","60fcf7102d7c9907d95a0920","bdp_rd","Thu Apr 13 2023 10:07:36 GMT-0700 (PDT)","181909","","null","","","","FIX","","<div class='trialBorder'><div class='vertical-center'><img style='vertical-align:center; align:center' src=img/fixation3.jpg></div></div>","null","","","","","",""
"html-keyboard-response","149","156341","0.0-5.0-2.48","60fcf7102d7c9907d95a0920","bdp_rd","Thu Apr 13 2023 10:07:36 GMT-0700 (PDT)","181909","","992","","","","offer","","<div class='trialBorder'><div class='vertical-center'><img style='vertical-align:center; align:center' src=img/fixation3.jpg></div><div class='cl'><div class='vertical-center'>$28<br>for<br>sure</div></div><div class='cr'><div class='vertical-center'>$89<br>with a<br>50% chance</div></div><div class='respDivL'><div class='vertical-center'>(E)</div></div><div class='respDivR'><div class='vertical-center'>(I)</div></div></div>","I","$28","$89","0","28","89","RISKY"
"html-keyboard-response","150","156594","0.0-5.0-3.48","60fcf7102d7c9907d95a0920","bdp_rd","Thu Apr 13 2023 10:07:36 GMT-0700 (PDT)","181909","","null","","","","offerFB","","<div class='trialBorder'><div class='vertical-center'><img style='vertical-align:center; align:center' src=img/fixation3.jpg></div><div class='cl'><div class='vertical-center'>$28<br>for<br>sure</div></div><div class='cr'><div class='vertical-center'><font style='color:orange'>$89<br>with a<br>50% chance</font></div></div><div class='respDivL'><div class='vertical-center'>(E)</div></div><div class='respDivR'><div class='vertical-center'><font style='color:orange'>(I)</font></div></div></div>","null","$28","$89","0","28","89",""
"html-keyboard-response","151","157097","0.0-5.0-1.49","60fcf7102d7c9907d95a0920","bdp_rd","Thu Apr 13 2023 10:07:36 GMT-0700 (PDT)","181909","","null","","","","FIX","","<div class='trialBorder'><div class='vertical-center'><img style='vertical-align:center; align:center' src=img/fixation3.jpg></div></div>","null","","","","","",""
"html-keyboard-response","152","158174","0.0-5.0-2.49","60fcf7102d7c9907d95a0920","bdp_rd","Thu Apr 13 2023 10:07:36 GMT-0700 (PDT)","181909","","1074","","","","offer","","<div class='trialBorder'><div class='vertical-center'><img style='vertical-align:center; align:center' src=img/fixation3.jpg></div><div class='cl'><div class='vertical-center'>$80<br>with a<br>50% chance</div></div><div class='cr'><div class='vertical-center'>$20<br>for<br>sure</div></div><div class='respDivL'><div class='vertical-center'>(E)</div></div><div class='respDivR'><div class='vertical-center'>(I)</div></div></div>","E","$20","$80","1","20","80","RISKY"
"html-keyboard-response","153","158427","0.0-5.0-3.49","60fcf7102d7c9907d95a0920","bdp_rd","Thu Apr 13 2023 10:07:36 GMT-0700 (PDT)","181909","","null","","","","offerFB","","<div class='trialBorder'><div class='vertical-center'><img style='vertical-align:center; align:center' src=img/fixation3.jpg></div><div class='cl'><div class='vertical-center'><font style='color:orange'>$80<br>with a<br>50% chance</font></div></div><div class='cr'><div class='vertical-center'>$20<br>for<br>sure</div></div><div class='respDivL'><div class='vertical-center'><font style='color:orange'>(E)</font></div></div><div class='respDivR'><div class='vertical-center'>(I)</div></div></div>","null","$20","$80","1","20","80",""
"html-keyboard-response","154","158930","0.0-5.0-1.50","60fcf7102d7c9907d95a0920","bdp_rd","Thu Apr 13 2023 10:07:36 GMT-0700 (PDT)","181909","","null","","","","FIX","","<div class='trialBorder'><div class='vertical-center'><img style='vertical-align:center; align:center' src=img/fixation3.jpg></div></div>","null","","","","","",""
"html-keyboard-response","155","160308","0.0-5.0-2.50","60fcf7102d7c9907d95a0920","bdp_rd","Thu Apr 13 2023 10:07:36 GMT-0700 (PDT)","181909","","1375","","","","offer","","<div class='trialBorder'><div class='vertical-center'><img style='vertical-align:center; align:center' src=img/fixation3.jpg></div><div class='cl'><div class='vertical-center'>$62<br>with a<br>50% chance</div></div><div class='cr'><div class='vertical-center'>$11<br>for<br>sure</div></div><div class='respDivL'><div class='vertical-center'>(E)</div></div><div class='respDivR'><div class='vertical-center'>(I)</div></div></div>","E","$11","$62","1","11","62","RISKY"
"html-keyboard-response","156","160562","0.0-5.0-3.50","60fcf7102d7c9907d95a0920","bdp_rd","Thu Apr 13 2023 10:07:36 GMT-0700 (PDT)","181909","","null","","","","offerFB","","<div class='trialBorder'><div class='vertical-center'><img style='vertical-align:center; align:center' src=img/fixation3.jpg></div><div class='cl'><div class='vertical-center'><font style='color:orange'>$62<br>with a<br>50% chance</font></div></div><div class='cr'><div class='vertical-center'>$11<br>for<br>sure</div></div><div class='respDivL'><div class='vertical-center'><font style='color:orange'>(E)</font></div></div><div class='respDivR'><div class='vertical-center'>(I)</div></div></div>","null","$11","$62","1","11","62",""
"html-keyboard-response","157","161065","0.0-5.0-1.51","60fcf7102d7c9907d95a0920","bdp_rd","Thu Apr 13 2023 10:07:36 GMT-0700 (PDT)","181909","","null","","","","FIX","","<div class='trialBorder'><div class='vertical-center'><img style='vertical-align:center; align:center' src=img/fixation3.jpg></div></div>","null","","","","","",""
"html-keyboard-response","158","162274","0.0-5.0-2.51","60fcf7102d7c9907d95a0920","bdp_rd","Thu Apr 13 2023 10:07:36 GMT-0700 (PDT)","181909","","1204","","","","offer","","<div class='trialBorder'><div class='vertical-center'><img style='vertical-align:center; align:center' src=img/fixation3.jpg></div><div class='cl'><div class='vertical-center'>$43<br>with a<br>50% chance</div></div><div class='cr'><div class='vertical-center'>$17<br>for<br>sure</div></div><div class='respDivL'><div class='vertical-center'>(E)</div></div><div class='respDivR'><div class='vertical-center'>(I)</div></div></div>","E","$17","$43","1","17","43","RISKY"
"html-keyboard-response","159","162528","0.0-5.0-3.51","60fcf7102d7c9907d95a0920","bdp_rd","Thu Apr 13 2023 10:07:36 GMT-0700 (PDT)","181909","","null","","","","offerFB","","<div class='trialBorder'><div class='vertical-center'><img style='vertical-align:center; align:center' src=img/fixation3.jpg></div><div class='cl'><div class='vertical-center'><font style='color:orange'>$43<br>with a<br>50% chance</font></div></div><div class='cr'><div class='vertical-center'>$17<br>for<br>sure</div></div><div class='respDivL'><div class='vertical-center'><font style='color:orange'>(E)</font></div></div><div class='respDivR'><div class='vertical-center'>(I)</div></div></div>","null","$17","$43","1","17","43",""
"html-keyboard-response","160","163031","0.0-5.0-1.52","60fcf7102d7c9907d95a0920","bdp_rd","Thu Apr 13 2023 10:07:36 GMT-0700 (PDT)","181909","","null","","","","FIX","","<div class='trialBorder'><div class='vertical-center'><img style='vertical-align:center; align:center' src=img/fixation3.jpg></div></div>","null","","","","","",""
"html-keyboard-response","161","164605","0.0-5.0-2.52","60fcf7102d7c9907d95a0920","bdp_rd","Thu Apr 13 2023 10:07:36 GMT-0700 (PDT)","181909","","1571","","","","offer","","<div class='trialBorder'><div class='vertical-center'><img style='vertical-align:center; align:center' src=img/fixation3.jpg></div><div class='cl'><div class='vertical-center'>$34<br>for<br>sure</div></div><div class='cr'><div class='vertical-center'>$48<br>with a<br>50% chance</div></div><div class='respDivL'><div class='vertical-center'>(E)</div></div><div class='respDivR'><div class='vertical-center'>(I)</div></div></div>","I","$34","$48","0","34","48","RISKY"
"html-keyboard-response","162","164859","0.0-5.0-3.52","60fcf7102d7c9907d95a0920","bdp_rd","Thu Apr 13 2023 10:07:36 GMT-0700 (PDT)","181909","","null","","","","offerFB","","<div class='trialBorder'><div class='vertical-center'><img style='vertical-align:center; align:center' src=img/fixation3.jpg></div><div class='cl'><div class='vertical-center'>$34<br>for<br>sure</div></div><div class='cr'><div class='vertical-center'><font style='color:orange'>$48<br>with a<br>50% chance</font></div></div><div class='respDivL'><div class='vertical-center'>(E)</div></div><div class='respDivR'><div class='vertical-center'><font style='color:orange'>(I)</font></div></div></div>","null","$34","$48","0","34","48",""
"html-keyboard-response","163","165362","0.0-5.0-1.53","60fcf7102d7c9907d95a0920","bdp_rd","Thu Apr 13 2023 10:07:36 GMT-0700 (PDT)","181909","","null","","","","FIX","","<div class='trialBorder'><div class='vertical-center'><img style='vertical-align:center; align:center' src=img/fixation3.jpg></div></div>","null","","","","","",""
"html-keyboard-response","164","167116","0.0-5.0-2.53","60fcf7102d7c9907d95a0920","bdp_rd","Thu Apr 13 2023 10:07:36 GMT-0700 (PDT)","181909","","1752","","","","offer","","<div class='trialBorder'><div class='vertical-center'><img style='vertical-align:center; align:center' src=img/fixation3.jpg></div><div class='cl'><div class='vertical-center'>$65<br>with a<br>50% chance</div></div><div class='cr'><div class='vertical-center'>$46<br>for<br>sure</div></div><div class='respDivL'><div class='vertical-center'>(E)</div></div><div class='respDivR'><div class='vertical-center'>(I)</div></div></div>","E","$46","$65","1","46","65","RISKY"
"html-keyboard-response","165","167369","0.0-5.0-3.53","60fcf7102d7c9907d95a0920","bdp_rd","Thu Apr 13 2023 10:07:36 GMT-0700 (PDT)","181909","","null","","","","offerFB","","<div class='trialBorder'><div class='vertical-center'><img style='vertical-align:center; align:center' src=img/fixation3.jpg></div><div class='cl'><div class='vertical-center'><font style='color:orange'>$65<br>with a<br>50% chance</font></div></div><div class='cr'><div class='vertical-center'>$46<br>for<br>sure</div></div><div class='respDivL'><div class='vertical-center'><font style='color:orange'>(E)</font></div></div><div class='respDivR'><div class='vertical-center'>(I)</div></div></div>","null","$46","$65","1","46","65",""
"html-keyboard-response","166","167872","0.0-5.0-1.54","60fcf7102d7c9907d95a0920","bdp_rd","Thu Apr 13 2023 10:07:36 GMT-0700 (PDT)","181909","","null","","","","FIX","","<div class='trialBorder'><div class='vertical-center'><img style='vertical-align:center; align:center' src=img/fixation3.jpg></div></div>","null","","","","","",""
"html-keyboard-response","167","169221","0.0-5.0-2.54","60fcf7102d7c9907d95a0920","bdp_rd","Thu Apr 13 2023 10:07:36 GMT-0700 (PDT)","181909","","1346","","","","offer","","<div class='trialBorder'><div class='vertical-center'><img style='vertical-align:center; align:center' src=img/fixation3.jpg></div><div class='cl'><div class='vertical-center'>$22<br>for<br>sure</div></div><div class='cr'><div class='vertical-center'>$59<br>with a<br>50% chance</div></div><div class='respDivL'><div class='vertical-center'>(E)</div></div><div class='respDivR'><div class='vertical-center'>(I)</div></div></div>","I","$22","$59","0","22","59","RISKY"
"html-keyboard-response","168","169474","0.0-5.0-3.54","60fcf7102d7c9907d95a0920","bdp_rd","Thu Apr 13 2023 10:07:36 GMT-0700 (PDT)","181909","","null","","","","offerFB","","<div class='trialBorder'><div class='vertical-center'><img style='vertical-align:center; align:center' src=img/fixation3.jpg></div><div class='cl'><div class='vertical-center'>$22<br>for<br>sure</div></div><div class='cr'><div class='vertical-center'><font style='color:orange'>$59<br>with a<br>50% chance</font></div></div><div class='respDivL'><div class='vertical-center'>(E)</div></div><div class='respDivR'><div class='vertical-center'><font style='color:orange'>(I)</font></div></div></div>","null","$22","$59","0","22","59",""
"html-keyboard-response","169","169977","0.0-5.0-1.55","60fcf7102d7c9907d95a0920","bdp_rd","Thu Apr 13 2023 10:07:36 GMT-0700 (PDT)","181909","","null","","","","FIX","","<div class='trialBorder'><div class='vertical-center'><img style='vertical-align:center; align:center' src=img/fixation3.jpg></div></div>","null","","","","","",""
"html-keyboard-response","170","172017","0.0-5.0-2.55","60fcf7102d7c9907d95a0920","bdp_rd","Thu Apr 13 2023 10:07:36 GMT-0700 (PDT)","181909","","2037","","","","offer","","<div class='trialBorder'><div class='vertical-center'><img style='vertical-align:center; align:center' src=img/fixation3.jpg></div><div class='cl'><div class='vertical-center'>$11<br>for<br>sure</div></div><div class='cr'><div class='vertical-center'>$26<br>with a<br>50% chance</div></div><div class='respDivL'><div class='vertical-center'>(E)</div></div><div class='respDivR'><div class='vertical-center'>(I)</div></div></div>","I","$11","$26","0","11","26","RISKY"
"html-keyboard-response","171","172270","0.0-5.0-3.55","60fcf7102d7c9907d95a0920","bdp_rd","Thu Apr 13 2023 10:07:36 GMT-0700 (PDT)","181909","","null","","","","offerFB","","<div class='trialBorder'><div class='vertical-center'><img style='vertical-align:center; align:center' src=img/fixation3.jpg></div><div class='cl'><div class='vertical-center'>$11<br>for<br>sure</div></div><div class='cr'><div class='vertical-center'><font style='color:orange'>$26<br>with a<br>50% chance</font></div></div><div class='respDivL'><div class='vertical-center'>(E)</div></div><div class='respDivR'><div class='vertical-center'><font style='color:orange'>(I)</font></div></div></div>","null","$11","$26","0","11","26",""
"html-keyboard-response","172","172773","0.0-5.0-1.56","60fcf7102d7c9907d95a0920","bdp_rd","Thu Apr 13 2023 10:07:36 GMT-0700 (PDT)","181909","","null","","","","FIX","","<div class='trialBorder'><div class='vertical-center'><img style='vertical-align:center; align:center' src=img/fixation3.jpg></div></div>","null","","","","","",""
"html-keyboard-response","173","175011","0.0-5.0-2.56","60fcf7102d7c9907d95a0920","bdp_rd","Thu Apr 13 2023 10:07:36 GMT-0700 (PDT)","181909","","2236","","","","offer","","<div class='trialBorder'><div class='vertical-center'><img style='vertical-align:center; align:center' src=img/fixation3.jpg></div><div class='cl'><div class='vertical-center'>$14<br>with a<br>50% chance</div></div><div class='cr'><div class='vertical-center'>$4<br>for<br>sure</div></div><div class='respDivL'><div class='vertical-center'>(E)</div></div><div class='respDivR'><div class='vertical-center'>(I)</div></div></div>","E","$4","$14","1","4","14","RISKY"
"html-keyboard-response","174","175264","0.0-5.0-3.56","60fcf7102d7c9907d95a0920","bdp_rd","Thu Apr 13 2023 10:07:36 GMT-0700 (PDT)","181909","","null","","","","offerFB","","<div class='trialBorder'><div class='vertical-center'><img style='vertical-align:center; align:center' src=img/fixation3.jpg></div><div class='cl'><div class='vertical-center'><font style='color:orange'>$14<br>with a<br>50% chance</font></div></div><div class='cr'><div class='vertical-center'>$4<br>for<br>sure</div></div><div class='respDivL'><div class='vertical-center'><font style='color:orange'>(E)</font></div></div><div class='respDivR'><div class='vertical-center'>(I)</div></div></div>","null","$4","$14","1","4","14",""
"html-keyboard-response","175","175766","0.0-5.0-1.57","60fcf7102d7c9907d95a0920","bdp_rd","Thu Apr 13 2023 10:07:36 GMT-0700 (PDT)","181909","","null","","","","FIX","","<div class='trialBorder'><div class='vertical-center'><img style='vertical-align:center; align:center' src=img/fixation3.jpg></div></div>","null","","","","","",""
"html-keyboard-response","176","177160","0.0-5.0-2.57","60fcf7102d7c9907d95a0920","bdp_rd","Thu Apr 13 2023 10:07:36 GMT-0700 (PDT)","181909","","1392","","","","offer","","<div class='trialBorder'><div class='vertical-center'><img style='vertical-align:center; align:center' src=img/fixation3.jpg></div><div class='cl'><div class='vertical-center'>$10<br>for<br>sure</div></div><div class='cr'><div class='vertical-center'>$19<br>with a<br>50% chance</div></div><div class='respDivL'><div class='vertical-center'>(E)</div></div><div class='respDivR'><div class='vertical-center'>(I)</div></div></div>","I","$10","$19","0","10","19","RISKY"
"html-keyboard-response","177","177414","0.0-5.0-3.57","60fcf7102d7c9907d95a0920","bdp_rd","Thu Apr 13 2023 10:07:36 GMT-0700 (PDT)","181909","","null","","","","offerFB","","<div class='trialBorder'><div class='vertical-center'><img style='vertical-align:center; align:center' src=img/fixation3.jpg></div><div class='cl'><div class='vertical-center'>$10<br>for<br>sure</div></div><div class='cr'><div class='vertical-center'><font style='color:orange'>$19<br>with a<br>50% chance</font></div></div><div class='respDivL'><div class='vertical-center'>(E)</div></div><div class='respDivR'><div class='vertical-center'><font style='color:orange'>(I)</font></div></div></div>","null","$10","$19","0","10","19",""
"html-keyboard-response","178","177917","0.0-5.0-1.58","60fcf7102d7c9907d95a0920","bdp_rd","Thu Apr 13 2023 10:07:36 GMT-0700 (PDT)","181909","","null","","","","FIX","","<div class='trialBorder'><div class='vertical-center'><img style='vertical-align:center; align:center' src=img/fixation3.jpg></div></div>","null","","","","","",""
"html-keyboard-response","179","179138","0.0-5.0-2.58","60fcf7102d7c9907d95a0920","bdp_rd","Thu Apr 13 2023 10:07:36 GMT-0700 (PDT)","181909","","1218","","","","offer","","<div class='trialBorder'><div class='vertical-center'><img style='vertical-align:center; align:center' src=img/fixation3.jpg></div><div class='cl'><div class='vertical-center'>$25<br>for<br>sure</div></div><div class='cr'><div class='vertical-center'>$54<br>with a<br>50% chance</div></div><div class='respDivL'><div class='vertical-center'>(E)</div></div><div class='respDivR'><div class='vertical-center'>(I)</div></div></div>","I","$25","$54","0","25","54","RISKY"
