"trial_type","trial_index","time_elapsed","internal_node_id","subject_id","task","startTime","totalTime","view_history","rt","event","trial","time","trialtype","success","stimulus","key_press","sureOffer","riskyOffer","riskyLeft","sureAmt","riskyAmt","chosen"
"pavlovia","0","4","0.0-0.0","5ee71ce25f11c84a3e909b09","bdp_rd","Sun Apr 02 2023 11:47:06 GMT-0500 (Central Daylight Time)","298442","","","","","","","","","","","","","","",""
"instructions","1","2787","0.0-1.0","5ee71ce25f11c84a3e909b09","bdp_rd","Sun Apr 02 2023 11:47:06 GMT-0500 (Central Daylight Time)","298442","[{""page_index"":0,""viewing_time"":2782}]","2782","","","","","","","","","","","","",""
"","","","","5ee71ce25f11c84a3e909b09","bdp_rd","Sun Apr 02 2023 11:47:06 GMT-0500 (Central Daylight Time)","298442","","","fullscreenenter","2","5282","fullscreenenter","","","","","","","","",""
"fullscreen","2","6223","0.0-2.0","5ee71ce25f11c84a3e909b09","bdp_rd","Sun Apr 02 2023 11:47:06 GMT-0500 (Central Daylight Time)","298442","","","","","","","true","","","","","","","",""
"instructions","3","24341","0.0-4.0","5ee71ce25f11c84a3e909b09","bdp_rd","Sun Apr 02 2023 11:47:06 GMT-0500 (Central Daylight Time)","298442","[{""page_index"":0,""viewing_time"":13263},{""page_index"":1,""viewing_time"":3925},{""page_index"":2,""viewing_time"":929}]","18117","","","","","","","","","","","","",""
"html-keyboard-response","4","24844","0.0-5.0-1.0","5ee71ce25f11c84a3e909b09","bdp_rd","Sun Apr 02 2023 11:47:06 GMT-0500 (Central Daylight Time)","298442","","null","","","","FIX","","<div class='trialBorder'><div class='vertical-center'><img style='vertical-align:center; align:center' src=img/fixation3.jpg></div></div>","null","","","","","",""
"html-keyboard-response","5","30340","0.0-5.0-2.0","5ee71ce25f11c84a3e909b09","bdp_rd","Sun Apr 02 2023 11:47:06 GMT-0500 (Central Daylight Time)","298442","","5494","","","","offer","","<div class='trialBorder'><div class='vertical-center'><img style='vertical-align:center; align:center' src=img/fixation3.jpg></div><div class='cl'><div class='vertical-center'>$66<br>with a<br>50% chance</div></div><div class='cr'><div class='vertical-center'>$33<br>for<br>sure</div></div><div class='respDivL'><div class='vertical-center'>(E)</div></div><div class='respDivR'><div class='vertical-center'>(I)</div></div></div>","I","$33","$66","1","33","66","SURE"
"html-keyboard-response","6","30595","0.0-5.0-3.0","5ee71ce25f11c84a3e909b09","bdp_rd","Sun Apr 02 2023 11:47:06 GMT-0500 (Central Daylight Time)","298442","","null","","","","offerFB","","<div class='trialBorder'><div class='vertical-center'><img style='vertical-align:center; align:center' src=img/fixation3.jpg></div><div class='cl'><div class='vertical-center'>$66<br>with a<br>50% chance</div></div><div class='cr'><div class='vertical-center'><font style='color:orange'>$33<br>for<br>sure</font></div></div><div class='respDivL'><div class='vertical-center'>(E)</div></div><div class='respDivR'><div class='vertical-center'><font style='color:orange'>(I)</font></div></div></div>","null","$33","$66","1","33","66",""
"html-keyboard-response","7","31098","0.0-5.0-1.1","5ee71ce25f11c84a3e909b09","bdp_rd","Sun Apr 02 2023 11:47:06 GMT-0500 (Central Daylight Time)","298442","","null","","","","FIX","","<div class='trialBorder'><div class='vertical-center'><img style='vertical-align:center; align:center' src=img/fixation3.jpg></div></div>","null","","","","","",""
"html-keyboard-response","8","33353","0.0-5.0-2.1","5ee71ce25f11c84a3e909b09","bdp_rd","Sun Apr 02 2023 11:47:06 GMT-0500 (Central Daylight Time)","298442","","2254","","","","offer","","<div class='trialBorder'><div class='vertical-center'><img style='vertical-align:center; align:center' src=img/fixation3.jpg></div><div class='cl'><div class='vertical-center'>$45<br>for<br>sure</div></div><div class='cr'><div class='vertical-center'>$86<br>with a<br>50% chance</div></div><div class='respDivL'><div class='vertical-center'>(E)</div></div><div class='respDivR'><div class='vertical-center'>(I)</div></div></div>","E","$45","$86","0","45","86","SURE"
"html-keyboard-response","9","33606","0.0-5.0-3.1","5ee71ce25f11c84a3e909b09","bdp_rd","Sun Apr 02 2023 11:47:06 GMT-0500 (Central Daylight Time)","298442","","null","","","","offerFB","","<div class='trialBorder'><div class='vertical-center'><img style='vertical-align:center; align:center' src=img/fixation3.jpg></div><div class='cl'><div class='vertical-center'><font style='color:orange'>$45<br>for<br>sure</font></div></div><div class='cr'><div class='vertical-center'>$86<br>with a<br>50% chance</div></div><div class='respDivL'><div class='vertical-center'><font style='color:orange'>(E)</font></div></div><div class='respDivR'><div class='vertical-center'>(I)</div></div></div>","null","$45","$86","0","45","86",""
"html-keyboard-response","10","34110","0.0-5.0-1.2","5ee71ce25f11c84a3e909b09","bdp_rd","Sun Apr 02 2023 11:47:06 GMT-0500 (Central Daylight Time)","298442","","null","","","","FIX","","<div class='trialBorder'><div class='vertical-center'><img style='vertical-align:center; align:center' src=img/fixation3.jpg></div></div>","null","","","","","",""
"html-keyboard-response","11","35945","0.0-5.0-2.2","5ee71ce25f11c84a3e909b09","bdp_rd","Sun Apr 02 2023 11:47:06 GMT-0500 (Central Daylight Time)","298442","","1834","","","","offer","","<div class='trialBorder'><div class='vertical-center'><img style='vertical-align:center; align:center' src=img/fixation3.jpg></div><div class='cl'><div class='vertical-center'>$25<br>for<br>sure</div></div><div class='cr'><div class='vertical-center'>$54<br>with a<br>50% chance</div></div><div class='respDivL'><div class='vertical-center'>(E)</div></div><div class='respDivR'><div class='vertical-center'>(I)</div></div></div>","I","$25","$54","0","25","54","RISKY"
"html-keyboard-response","12","36201","0.0-5.0-3.2","5ee71ce25f11c84a3e909b09","bdp_rd","Sun Apr 02 2023 11:47:06 GMT-0500 (Central Daylight Time)","298442","","null","","","","offerFB","","<div class='trialBorder'><div class='vertical-center'><img style='vertical-align:center; align:center' src=img/fixation3.jpg></div><div class='cl'><div class='vertical-center'>$25<br>for<br>sure</div></div><div class='cr'><div class='vertical-center'><font style='color:orange'>$54<br>with a<br>50% chance</font></div></div><div class='respDivL'><div class='vertical-center'>(E)</div></div><div class='respDivR'><div class='vertical-center'><font style='color:orange'>(I)</font></div></div></div>","null","$25","$54","0","25","54",""
"html-keyboard-response","13","36705","0.0-5.0-1.3","5ee71ce25f11c84a3e909b09","bdp_rd","Sun Apr 02 2023 11:47:06 GMT-0500 (Central Daylight Time)","298442","","null","","","","FIX","","<div class='trialBorder'><div class='vertical-center'><img style='vertical-align:center; align:center' src=img/fixation3.jpg></div></div>","null","","","","","",""
"html-keyboard-response","14","39581","0.0-5.0-2.3","5ee71ce25f11c84a3e909b09","bdp_rd","Sun Apr 02 2023 11:47:06 GMT-0500 (Central Daylight Time)","298442","","2874","","","","offer","","<div class='trialBorder'><div class='vertical-center'><img style='vertical-align:center; align:center' src=img/fixation3.jpg></div><div class='cl'><div class='vertical-center'>$11<br>for<br>sure</div></div><div class='cr'><div class='vertical-center'>$62<br>with a<br>50% chance</div></div><div class='respDivL'><div class='vertical-center'>(E)</div></div><div class='respDivR'><div class='vertical-center'>(I)</div></div></div>","I","$11","$62","0","11","62","RISKY"
"html-keyboard-response","15","39836","0.0-5.0-3.3","5ee71ce25f11c84a3e909b09","bdp_rd","Sun Apr 02 2023 11:47:06 GMT-0500 (Central Daylight Time)","298442","","null","","","","offerFB","","<div class='trialBorder'><div class='vertical-center'><img style='vertical-align:center; align:center' src=img/fixation3.jpg></div><div class='cl'><div class='vertical-center'>$11<br>for<br>sure</div></div><div class='cr'><div class='vertical-center'><font style='color:orange'>$62<br>with a<br>50% chance</font></div></div><div class='respDivL'><div class='vertical-center'>(E)</div></div><div class='respDivR'><div class='vertical-center'><font style='color:orange'>(I)</font></div></div></div>","null","$11","$62","0","11","62",""
"html-keyboard-response","16","40337","0.0-5.0-1.4","5ee71ce25f11c84a3e909b09","bdp_rd","Sun Apr 02 2023 11:47:06 GMT-0500 (Central Daylight Time)","298442","","null","","","","FIX","","<div class='trialBorder'><div class='vertical-center'><img style='vertical-align:center; align:center' src=img/fixation3.jpg></div></div>","null","","","","","",""
"html-keyboard-response","17","42275","0.0-5.0-2.4","5ee71ce25f11c84a3e909b09","bdp_rd","Sun Apr 02 2023 11:47:06 GMT-0500 (Central Daylight Time)","298442","","1937","","","","offer","","<div class='trialBorder'><div class='vertical-center'><img style='vertical-align:center; align:center' src=img/fixation3.jpg></div><div class='cl'><div class='vertical-center'>$89<br>with a<br>50% chance</div></div><div class='cr'><div class='vertical-center'>$28<br>for<br>sure</div></div><div class='respDivL'><div class='vertical-center'>(E)</div></div><div class='respDivR'><div class='vertical-center'>(I)</div></div></div>","E","$28","$89","1","28","89","RISKY"
"html-keyboard-response","18","42529","0.0-5.0-3.4","5ee71ce25f11c84a3e909b09","bdp_rd","Sun Apr 02 2023 11:47:06 GMT-0500 (Central Daylight Time)","298442","","null","","","","offerFB","","<div class='trialBorder'><div class='vertical-center'><img style='vertical-align:center; align:center' src=img/fixation3.jpg></div><div class='cl'><div class='vertical-center'><font style='color:orange'>$89<br>with a<br>50% chance</font></div></div><div class='cr'><div class='vertical-center'>$28<br>for<br>sure</div></div><div class='respDivL'><div class='vertical-center'><font style='color:orange'>(E)</font></div></div><div class='respDivR'><div class='vertical-center'>(I)</div></div></div>","null","$28","$89","1","28","89",""
"html-keyboard-response","19","43032","0.0-5.0-1.5","5ee71ce25f11c84a3e909b09","bdp_rd","Sun Apr 02 2023 11:47:06 GMT-0500 (Central Daylight Time)","298442","","null","","","","FIX","","<div class='trialBorder'><div class='vertical-center'><img style='vertical-align:center; align:center' src=img/fixation3.jpg></div></div>","null","","","","","",""
"html-keyboard-response","20","45551","0.0-5.0-2.5","5ee71ce25f11c84a3e909b09","bdp_rd","Sun Apr 02 2023 11:47:06 GMT-0500 (Central Daylight Time)","298442","","2517","","","","offer","","<div class='trialBorder'><div class='vertical-center'><img style='vertical-align:center; align:center' src=img/fixation3.jpg></div><div class='cl'><div class='vertical-center'>$63<br>for<br>sure</div></div><div class='cr'><div class='vertical-center'>$100<br>with a<br>50% chance</div></div><div class='respDivL'><div class='vertical-center'>(E)</div></div><div class='respDivR'><div class='vertical-center'>(I)</div></div></div>","E","$63","$100","0","63","10","SURE"
"html-keyboard-response","21","45803","0.0-5.0-3.5","5ee71ce25f11c84a3e909b09","bdp_rd","Sun Apr 02 2023 11:47:06 GMT-0500 (Central Daylight Time)","298442","","null","","","","offerFB","","<div class='trialBorder'><div class='vertical-center'><img style='vertical-align:center; align:center' src=img/fixation3.jpg></div><div class='cl'><div class='vertical-center'><font style='color:orange'>$63<br>for<br>sure</font></div></div><div class='cr'><div class='vertical-center'>$100<br>with a<br>50% chance</div></div><div class='respDivL'><div class='vertical-center'><font style='color:orange'>(E)</font></div></div><div class='respDivR'><div class='vertical-center'>(I)</div></div></div>","null","$63","$100","0","63","10",""
"html-keyboard-response","22","46306","0.0-5.0-1.6","5ee71ce25f11c84a3e909b09","bdp_rd","Sun Apr 02 2023 11:47:06 GMT-0500 (Central Daylight Time)","298442","","null","","","","FIX","","<div class='trialBorder'><div class='vertical-center'><img style='vertical-align:center; align:center' src=img/fixation3.jpg></div></div>","null","","","","","",""
"html-keyboard-response","23","48123","0.0-5.0-2.6","5ee71ce25f11c84a3e909b09","bdp_rd","Sun Apr 02 2023 11:47:06 GMT-0500 (Central Daylight Time)","298442","","1815","","","","offer","","<div class='trialBorder'><div class='vertical-center'><img style='vertical-align:center; align:center' src=img/fixation3.jpg></div><div class='cl'><div class='vertical-center'>$17<br>for<br>sure</div></div><div class='cr'><div class='vertical-center'>$43<br>with a<br>50% chance</div></div><div class='respDivL'><div class='vertical-center'>(E)</div></div><div class='respDivR'><div class='vertical-center'>(I)</div></div></div>","I","$17","$43","0","17","43","RISKY"
"html-keyboard-response","24","48377","0.0-5.0-3.6","5ee71ce25f11c84a3e909b09","bdp_rd","Sun Apr 02 2023 11:47:06 GMT-0500 (Central Daylight Time)","298442","","null","","","","offerFB","","<div class='trialBorder'><div class='vertical-center'><img style='vertical-align:center; align:center' src=img/fixation3.jpg></div><div class='cl'><div class='vertical-center'>$17<br>for<br>sure</div></div><div class='cr'><div class='vertical-center'><font style='color:orange'>$43<br>with a<br>50% chance</font></div></div><div class='respDivL'><div class='vertical-center'>(E)</div></div><div class='respDivR'><div class='vertical-center'><font style='color:orange'>(I)</font></div></div></div>","null","$17","$43","0","17","43",""
"html-keyboard-response","25","48881","0.0-5.0-1.7","5ee71ce25f11c84a3e909b09","bdp_rd","Sun Apr 02 2023 11:47:06 GMT-0500 (Central Daylight Time)","298442","","null","","","","FIX","","<div class='trialBorder'><div class='vertical-center'><img style='vertical-align:center; align:center' src=img/fixation3.jpg></div></div>","null","","","","","",""
"html-keyboard-response","26","50659","0.0-5.0-2.7","5ee71ce25f11c84a3e909b09","bdp_rd","Sun Apr 02 2023 11:47:06 GMT-0500 (Central Daylight Time)","298442","","1778","","","","offer","","<div class='trialBorder'><div class='vertical-center'><img style='vertical-align:center; align:center' src=img/fixation3.jpg></div><div class='cl'><div class='vertical-center'>$73<br>with a<br>50% chance</div></div><div class='cr'><div class='vertical-center'>$42<br>for<br>sure</div></div><div class='respDivL'><div class='vertical-center'>(E)</div></div><div class='respDivR'><div class='vertical-center'>(I)</div></div></div>","I","$42","$73","1","42","73","SURE"
"html-keyboard-response","27","50914","0.0-5.0-3.7","5ee71ce25f11c84a3e909b09","bdp_rd","Sun Apr 02 2023 11:47:06 GMT-0500 (Central Daylight Time)","298442","","null","","","","offerFB","","<div class='trialBorder'><div class='vertical-center'><img style='vertical-align:center; align:center' src=img/fixation3.jpg></div><div class='cl'><div class='vertical-center'>$73<br>with a<br>50% chance</div></div><div class='cr'><div class='vertical-center'><font style='color:orange'>$42<br>for<br>sure</font></div></div><div class='respDivL'><div class='vertical-center'>(E)</div></div><div class='respDivR'><div class='vertical-center'><font style='color:orange'>(I)</font></div></div></div>","null","$42","$73","1","42","73",""
"html-keyboard-response","28","51419","0.0-5.0-1.8","5ee71ce25f11c84a3e909b09","bdp_rd","Sun Apr 02 2023 11:47:06 GMT-0500 (Central Daylight Time)","298442","","null","","","","FIX","","<div class='trialBorder'><div class='vertical-center'><img style='vertical-align:center; align:center' src=img/fixation3.jpg></div></div>","null","","","","","",""
"html-keyboard-response","29","53446","0.0-5.0-2.8","5ee71ce25f11c84a3e909b09","bdp_rd","Sun Apr 02 2023 11:47:06 GMT-0500 (Central Daylight Time)","298442","","2025","","","","offer","","<div class='trialBorder'><div class='vertical-center'><img style='vertical-align:center; align:center' src=img/fixation3.jpg></div><div class='cl'><div class='vertical-center'>$29<br>with a<br>50% chance</div></div><div class='cr'><div class='vertical-center'>$14<br>for<br>sure</div></div><div class='respDivL'><div class='vertical-center'>(E)</div></div><div class='respDivR'><div class='vertical-center'>(I)</div></div></div>","E","$14","$29","1","14","29","RISKY"
"html-keyboard-response","30","53701","0.0-5.0-3.8","5ee71ce25f11c84a3e909b09","bdp_rd","Sun Apr 02 2023 11:47:06 GMT-0500 (Central Daylight Time)","298442","","null","","","","offerFB","","<div class='trialBorder'><div class='vertical-center'><img style='vertical-align:center; align:center' src=img/fixation3.jpg></div><div class='cl'><div class='vertical-center'><font style='color:orange'>$29<br>with a<br>50% chance</font></div></div><div class='cr'><div class='vertical-center'>$14<br>for<br>sure</div></div><div class='respDivL'><div class='vertical-center'><font style='color:orange'>(E)</font></div></div><div class='respDivR'><div class='vertical-center'>(I)</div></div></div>","null","$14","$29","1","14","29",""
"html-keyboard-response","31","54207","0.0-5.0-1.9","5ee71ce25f11c84a3e909b09","bdp_rd","Sun Apr 02 2023 11:47:06 GMT-0500 (Central Daylight Time)","298442","","null","","","","FIX","","<div class='trialBorder'><div class='vertical-center'><img style='vertical-align:center; align:center' src=img/fixation3.jpg></div></div>","null","","","","","",""
"html-keyboard-response","32","55987","0.0-5.0-2.9","5ee71ce25f11c84a3e909b09","bdp_rd","Sun Apr 02 2023 11:47:06 GMT-0500 (Central Daylight Time)","298442","","1778","","","","offer","","<div class='trialBorder'><div class='vertical-center'><img style='vertical-align:center; align:center' src=img/fixation3.jpg></div><div class='cl'><div class='vertical-center'>$59<br>with a<br>50% chance</div></div><div class='cr'><div class='vertical-center'>$22<br>for<br>sure</div></div><div class='respDivL'><div class='vertical-center'>(E)</div></div><div class='respDivR'><div class='vertical-center'>(I)</div></div></div>","I","$22","$59","1","22","59","SURE"
"html-keyboard-response","33","56239","0.0-5.0-3.9","5ee71ce25f11c84a3e909b09","bdp_rd","Sun Apr 02 2023 11:47:06 GMT-0500 (Central Daylight Time)","298442","","null","","","","offerFB","","<div class='trialBorder'><div class='vertical-center'><img style='vertical-align:center; align:center' src=img/fixation3.jpg></div><div class='cl'><div class='vertical-center'>$59<br>with a<br>50% chance</div></div><div class='cr'><div class='vertical-center'><font style='color:orange'>$22<br>for<br>sure</font></div></div><div class='respDivL'><div class='vertical-center'>(E)</div></div><div class='respDivR'><div class='vertical-center'><font style='color:orange'>(I)</font></div></div></div>","null","$22","$59","1","22","59",""
"html-keyboard-response","34","56744","0.0-5.0-1.10","5ee71ce25f11c84a3e909b09","bdp_rd","Sun Apr 02 2023 11:47:06 GMT-0500 (Central Daylight Time)","298442","","null","","","","FIX","","<div class='trialBorder'><div class='vertical-center'><img style='vertical-align:center; align:center' src=img/fixation3.jpg></div></div>","null","","","","","",""
"html-keyboard-response","35","60376","0.0-5.0-2.10","5ee71ce25f11c84a3e909b09","bdp_rd","Sun Apr 02 2023 11:47:06 GMT-0500 (Central Daylight Time)","298442","","3631","","","","offer","","<div class='trialBorder'><div class='vertical-center'><img style='vertical-align:center; align:center' src=img/fixation3.jpg></div><div class='cl'><div class='vertical-center'>$28<br>with a<br>50% chance</div></div><div class='cr'><div class='vertical-center'>$16<br>for<br>sure</div></div><div class='respDivL'><div class='vertical-center'>(E)</div></div><div class='respDivR'><div class='vertical-center'>(I)</div></div></div>","E","$16","$28","1","16","28","RISKY"
"html-keyboard-response","36","60632","0.0-5.0-3.10","5ee71ce25f11c84a3e909b09","bdp_rd","Sun Apr 02 2023 11:47:06 GMT-0500 (Central Daylight Time)","298442","","null","","","","offerFB","","<div class='trialBorder'><div class='vertical-center'><img style='vertical-align:center; align:center' src=img/fixation3.jpg></div><div class='cl'><div class='vertical-center'><font style='color:orange'>$28<br>with a<br>50% chance</font></div></div><div class='cr'><div class='vertical-center'>$16<br>for<br>sure</div></div><div class='respDivL'><div class='vertical-center'><font style='color:orange'>(E)</font></div></div><div class='respDivR'><div class='vertical-center'>(I)</div></div></div>","null","$16","$28","1","16","28",""
"html-keyboard-response","37","61135","0.0-5.0-1.11","5ee71ce25f11c84a3e909b09","bdp_rd","Sun Apr 02 2023 11:47:06 GMT-0500 (Central Daylight Time)","298442","","null","","","","FIX","","<div class='trialBorder'><div class='vertical-center'><img style='vertical-align:center; align:center' src=img/fixation3.jpg></div></div>","null","","","","","",""
"html-keyboard-response","38","62516","0.0-5.0-2.11","5ee71ce25f11c84a3e909b09","bdp_rd","Sun Apr 02 2023 11:47:06 GMT-0500 (Central Daylight Time)","298442","","1380","","","","offer","","<div class='trialBorder'><div class='vertical-center'><img style='vertical-align:center; align:center' src=img/fixation3.jpg></div><div class='cl'><div class='vertical-center'>$18<br>for<br>sure</div></div><div class='cr'><div class='vertical-center'>$36<br>with a<br>50% chance</div></div><div class='respDivL'><div class='vertical-center'>(E)</div></div><div class='respDivR'><div class='vertical-center'>(I)</div></div></div>","I","$18","$36","0","18","36","RISKY"
"html-keyboard-response","39","62769","0.0-5.0-3.11","5ee71ce25f11c84a3e909b09","bdp_rd","Sun Apr 02 2023 11:47:06 GMT-0500 (Central Daylight Time)","298442","","null","","","","offerFB","","<div class='trialBorder'><div class='vertical-center'><img style='vertical-align:center; align:center' src=img/fixation3.jpg></div><div class='cl'><div class='vertical-center'>$18<br>for<br>sure</div></div><div class='cr'><div class='vertical-center'><font style='color:orange'>$36<br>with a<br>50% chance</font></div></div><div class='respDivL'><div class='vertical-center'>(E)</div></div><div class='respDivR'><div class='vertical-center'><font style='color:orange'>(I)</font></div></div></div>","null","$18","$36","0","18","36",""
"html-keyboard-response","40","63273","0.0-5.0-1.12","5ee71ce25f11c84a3e909b09","bdp_rd","Sun Apr 02 2023 11:47:06 GMT-0500 (Central Daylight Time)","298442","","null","","","","FIX","","<div class='trialBorder'><div class='vertical-center'><img style='vertical-align:center; align:center' src=img/fixation3.jpg></div></div>","null","","","","","",""
"html-keyboard-response","41","64833","0.0-5.0-2.12","5ee71ce25f11c84a3e909b09","bdp_rd","Sun Apr 02 2023 11:47:06 GMT-0500 (Central Daylight Time)","298442","","1559","","","","offer","","<div class='trialBorder'><div class='vertical-center'><img style='vertical-align:center; align:center' src=img/fixation3.jpg></div><div class='cl'><div class='vertical-center'>$5<br>for<br>sure</div></div><div class='cr'><div class='vertical-center'>$16<br>with a<br>50% chance</div></div><div class='respDivL'><div class='vertical-center'>(E)</div></div><div class='respDivR'><div class='vertical-center'>(I)</div></div></div>","I","$5","$16","0","5","16","RISKY"
"html-keyboard-response","42","65088","0.0-5.0-3.12","5ee71ce25f11c84a3e909b09","bdp_rd","Sun Apr 02 2023 11:47:06 GMT-0500 (Central Daylight Time)","298442","","null","","","","offerFB","","<div class='trialBorder'><div class='vertical-center'><img style='vertical-align:center; align:center' src=img/fixation3.jpg></div><div class='cl'><div class='vertical-center'>$5<br>for<br>sure</div></div><div class='cr'><div class='vertical-center'><font style='color:orange'>$16<br>with a<br>50% chance</font></div></div><div class='respDivL'><div class='vertical-center'>(E)</div></div><div class='respDivR'><div class='vertical-center'><font style='color:orange'>(I)</font></div></div></div>","null","$5","$16","0","5","16",""
"html-keyboard-response","43","65591","0.0-5.0-1.13","5ee71ce25f11c84a3e909b09","bdp_rd","Sun Apr 02 2023 11:47:06 GMT-0500 (Central Daylight Time)","298442","","null","","","","FIX","","<div class='trialBorder'><div class='vertical-center'><img style='vertical-align:center; align:center' src=img/fixation3.jpg></div></div>","null","","","","","",""
"html-keyboard-response","44","67209","0.0-5.0-2.13","5ee71ce25f11c84a3e909b09","bdp_rd","Sun Apr 02 2023 11:47:06 GMT-0500 (Central Daylight Time)","298442","","1616","","","","offer","","<div class='trialBorder'><div class='vertical-center'><img style='vertical-align:center; align:center' src=img/fixation3.jpg></div><div class='cl'><div class='vertical-center'>$40<br>with a<br>50% chance</div></div><div class='cr'><div class='vertical-center'>$10<br>for<br>sure</div></div><div class='respDivL'><div class='vertical-center'>(E)</div></div><div class='respDivR'><div class='vertical-center'>(I)</div></div></div>","E","$10","$40","1","10","40","RISKY"
"html-keyboard-response","45","67464","0.0-5.0-3.13","5ee71ce25f11c84a3e909b09","bdp_rd","Sun Apr 02 2023 11:47:06 GMT-0500 (Central Daylight Time)","298442","","null","","","","offerFB","","<div class='trialBorder'><div class='vertical-center'><img style='vertical-align:center; align:center' src=img/fixation3.jpg></div><div class='cl'><div class='vertical-center'><font style='color:orange'>$40<br>with a<br>50% chance</font></div></div><div class='cr'><div class='vertical-center'>$10<br>for<br>sure</div></div><div class='respDivL'><div class='vertical-center'><font style='color:orange'>(E)</font></div></div><div class='respDivR'><div class='vertical-center'>(I)</div></div></div>","null","$10","$40","1","10","40",""
"html-keyboard-response","46","67965","0.0-5.0-1.14","5ee71ce25f11c84a3e909b09","bdp_rd","Sun Apr 02 2023 11:47:06 GMT-0500 (Central Daylight Time)","298442","","null","","","","FIX","","<div class='trialBorder'><div class='vertical-center'><img style='vertical-align:center; align:center' src=img/fixation3.jpg></div></div>","null","","","","","",""
"html-keyboard-response","47","69264","0.0-5.0-2.14","5ee71ce25f11c84a3e909b09","bdp_rd","Sun Apr 02 2023 11:47:06 GMT-0500 (Central Daylight Time)","298442","","1298","","","","offer","","<div class='trialBorder'><div class='vertical-center'><img style='vertical-align:center; align:center' src=img/fixation3.jpg></div><div class='cl'><div class='vertical-center'>$33<br>with a<br>50% chance</div></div><div class='cr'><div class='vertical-center'>$1<br>for<br>sure</div></div><div class='respDivL'><div class='vertical-center'>(E)</div></div><div class='respDivR'><div class='vertical-center'>(I)</div></div></div>","E","$1","$33","1","1","33","RISKY"
"html-keyboard-response","48","69519","0.0-5.0-3.14","5ee71ce25f11c84a3e909b09","bdp_rd","Sun Apr 02 2023 11:47:06 GMT-0500 (Central Daylight Time)","298442","","null","","","","offerFB","","<div class='trialBorder'><div class='vertical-center'><img style='vertical-align:center; align:center' src=img/fixation3.jpg></div><div class='cl'><div class='vertical-center'><font style='color:orange'>$33<br>with a<br>50% chance</font></div></div><div class='cr'><div class='vertical-center'>$1<br>for<br>sure</div></div><div class='respDivL'><div class='vertical-center'><font style='color:orange'>(E)</font></div></div><div class='respDivR'><div class='vertical-center'>(I)</div></div></div>","null","$1","$33","1","1","33",""
"html-keyboard-response","49","70021","0.0-5.0-1.15","5ee71ce25f11c84a3e909b09","bdp_rd","Sun Apr 02 2023 11:47:06 GMT-0500 (Central Daylight Time)","298442","","null","","","","FIX","","<div class='trialBorder'><div class='vertical-center'><img style='vertical-align:center; align:center' src=img/fixation3.jpg></div></div>","null","","","","","",""
"html-keyboard-response","50","71388","0.0-5.0-2.15","5ee71ce25f11c84a3e909b09","bdp_rd","Sun Apr 02 2023 11:47:06 GMT-0500 (Central Daylight Time)","298442","","1364","","","","offer","","<div class='trialBorder'><div class='vertical-center'><img style='vertical-align:center; align:center' src=img/fixation3.jpg></div><div class='cl'><div class='vertical-center'>$80<br>with a<br>50% chance</div></div><div class='cr'><div class='vertical-center'>$20<br>for<br>sure</div></div><div class='respDivL'><div class='vertical-center'>(E)</div></div><div class='respDivR'><div class='vertical-center'>(I)</div></div></div>","E","$20","$80","1","20","80","RISKY"
"html-keyboard-response","51","71642","0.0-5.0-3.15","5ee71ce25f11c84a3e909b09","bdp_rd","Sun Apr 02 2023 11:47:06 GMT-0500 (Central Daylight Time)","298442","","null","","","","offerFB","","<div class='trialBorder'><div class='vertical-center'><img style='vertical-align:center; align:center' src=img/fixation3.jpg></div><div class='cl'><div class='vertical-center'><font style='color:orange'>$80<br>with a<br>50% chance</font></div></div><div class='cr'><div class='vertical-center'>$20<br>for<br>sure</div></div><div class='respDivL'><div class='vertical-center'><font style='color:orange'>(E)</font></div></div><div class='respDivR'><div class='vertical-center'>(I)</div></div></div>","null","$20","$80","1","20","80",""
"html-keyboard-response","52","72144","0.0-5.0-1.16","5ee71ce25f11c84a3e909b09","bdp_rd","Sun Apr 02 2023 11:47:06 GMT-0500 (Central Daylight Time)","298442","","null","","","","FIX","","<div class='trialBorder'><div class='vertical-center'><img style='vertical-align:center; align:center' src=img/fixation3.jpg></div></div>","null","","","","","",""
"html-keyboard-response","53","73073","0.0-5.0-2.16","5ee71ce25f11c84a3e909b09","bdp_rd","Sun Apr 02 2023 11:47:06 GMT-0500 (Central Daylight Time)","298442","","927","","","","offer","","<div class='trialBorder'><div class='vertical-center'><img style='vertical-align:center; align:center' src=img/fixation3.jpg></div><div class='cl'><div class='vertical-center'>$32<br>with a<br>50% chance</div></div><div class='cr'><div class='vertical-center'>$9<br>for<br>sure</div></div><div class='respDivL'><div class='vertical-center'>(E)</div></div><div class='respDivR'><div class='vertical-center'>(I)</div></div></div>","E","$9","$32","1","9","32","RISKY"
"html-keyboard-response","54","73328","0.0-5.0-3.16","5ee71ce25f11c84a3e909b09","bdp_rd","Sun Apr 02 2023 11:47:06 GMT-0500 (Central Daylight Time)","298442","","null","","","","offerFB","","<div class='trialBorder'><div class='vertical-center'><img style='vertical-align:center; align:center' src=img/fixation3.jpg></div><div class='cl'><div class='vertical-center'><font style='color:orange'>$32<br>with a<br>50% chance</font></div></div><div class='cr'><div class='vertical-center'>$9<br>for<br>sure</div></div><div class='respDivL'><div class='vertical-center'><font style='color:orange'>(E)</font></div></div><div class='respDivR'><div class='vertical-center'>(I)</div></div></div>","null","$9","$32","1","9","32",""
"html-keyboard-response","55","73833","0.0-5.0-1.17","5ee71ce25f11c84a3e909b09","bdp_rd","Sun Apr 02 2023 11:47:06 GMT-0500 (Central Daylight Time)","298442","","null","","","","FIX","","<div class='trialBorder'><div class='vertical-center'><img style='vertical-align:center; align:center' src=img/fixation3.jpg></div></div>","null","","","","","",""
"html-keyboard-response","56","75346","0.0-5.0-2.17","5ee71ce25f11c84a3e909b09","bdp_rd","Sun Apr 02 2023 11:47:06 GMT-0500 (Central Daylight Time)","298442","","1511","","","","offer","","<div class='trialBorder'><div class='vertical-center'><img style='vertical-align:center; align:center' src=img/fixation3.jpg></div><div class='cl'><div class='vertical-center'>$46<br>with a<br>50% chance</div></div><div class='cr'><div class='vertical-center'>$29<br>for<br>sure</div></div><div class='respDivL'><div class='vertical-center'>(E)</div></div><div class='respDivR'><div class='vertical-center'>(I)</div></div></div>","E","$29","$46","1","29","46","RISKY"
"html-keyboard-response","57","75599","0.0-5.0-3.17","5ee71ce25f11c84a3e909b09","bdp_rd","Sun Apr 02 2023 11:47:06 GMT-0500 (Central Daylight Time)","298442","","null","","","","offerFB","","<div class='trialBorder'><div class='vertical-center'><img style='vertical-align:center; align:center' src=img/fixation3.jpg></div><div class='cl'><div class='vertical-center'><font style='color:orange'>$46<br>with a<br>50% chance</font></div></div><div class='cr'><div class='vertical-center'>$29<br>for<br>sure</div></div><div class='respDivL'><div class='vertical-center'><font style='color:orange'>(E)</font></div></div><div class='respDivR'><div class='vertical-center'>(I)</div></div></div>","null","$29","$46","1","29","46",""
"html-keyboard-response","58","76101","0.0-5.0-1.18","5ee71ce25f11c84a3e909b09","bdp_rd","Sun Apr 02 2023 11:47:06 GMT-0500 (Central Daylight Time)","298442","","null","","","","FIX","","<div class='trialBorder'><div class='vertical-center'><img style='vertical-align:center; align:center' src=img/fixation3.jpg></div></div>","null","","","","","",""
"html-keyboard-response","59","77665","0.0-5.0-2.18","5ee71ce25f11c84a3e909b09","bdp_rd","Sun Apr 02 2023 11:47:06 GMT-0500 (Central Daylight Time)","298442","","1562","","","","offer","","<div class='trialBorder'><div class='vertical-center'><img style='vertical-align:center; align:center' src=img/fixation3.jpg></div><div class='cl'><div class='vertical-center'>$37<br>for<br>sure</div></div><div class='cr'><div class='vertical-center'>$44<br>with a<br>50% chance</div></div><div class='respDivL'><div class='vertical-center'>(E)</div></div><div class='respDivR'><div class='vertical-center'>(I)</div></div></div>","E","$37","$44","0","37","44","SURE"
"html-keyboard-response","60","77917","0.0-5.0-3.18","5ee71ce25f11c84a3e909b09","bdp_rd","Sun Apr 02 2023 11:47:06 GMT-0500 (Central Daylight Time)","298442","","null","","","","offerFB","","<div class='trialBorder'><div class='vertical-center'><img style='vertical-align:center; align:center' src=img/fixation3.jpg></div><div class='cl'><div class='vertical-center'><font style='color:orange'>$37<br>for<br>sure</font></div></div><div class='cr'><div class='vertical-center'>$44<br>with a<br>50% chance</div></div><div class='respDivL'><div class='vertical-center'><font style='color:orange'>(E)</font></div></div><div class='respDivR'><div class='vertical-center'>(I)</div></div></div>","null","$37","$44","0","37","44",""
"html-keyboard-response","61","78421","0.0-5.0-1.19","5ee71ce25f11c84a3e909b09","bdp_rd","Sun Apr 02 2023 11:47:06 GMT-0500 (Central Daylight Time)","298442","","null","","","","FIX","","<div class='trialBorder'><div class='vertical-center'><img style='vertical-align:center; align:center' src=img/fixation3.jpg></div></div>","null","","","","","",""
"html-keyboard-response","62","80045","0.0-5.0-2.19","5ee71ce25f11c84a3e909b09","bdp_rd","Sun Apr 02 2023 11:47:06 GMT-0500 (Central Daylight Time)","298442","","1622","","","","offer","","<div class='trialBorder'><div class='vertical-center'><img style='vertical-align:center; align:center' src=img/fixation3.jpg></div><div class='cl'><div class='vertical-center'>$13<br>for<br>sure</div></div><div class='cr'><div class='vertical-center'>$41<br>with a<br>50% chance</div></div><div class='respDivL'><div class='vertical-center'>(E)</div></div><div class='respDivR'><div class='vertical-center'>(I)</div></div></div>","I","$13","$41","0","13","41","RISKY"
"html-keyboard-response","63","80300","0.0-5.0-3.19","5ee71ce25f11c84a3e909b09","bdp_rd","Sun Apr 02 2023 11:47:06 GMT-0500 (Central Daylight Time)","298442","","null","","","","offerFB","","<div class='trialBorder'><div class='vertical-center'><img style='vertical-align:center; align:center' src=img/fixation3.jpg></div><div class='cl'><div class='vertical-center'>$13<br>for<br>sure</div></div><div class='cr'><div class='vertical-center'><font style='color:orange'>$41<br>with a<br>50% chance</font></div></div><div class='respDivL'><div class='vertical-center'>(E)</div></div><div class='respDivR'><div class='vertical-center'><font style='color:orange'>(I)</font></div></div></div>","null","$13","$41","0","13","41",""
"html-keyboard-response","64","80804","0.0-5.0-1.20","5ee71ce25f11c84a3e909b09","bdp_rd","Sun Apr 02 2023 11:47:06 GMT-0500 (Central Daylight Time)","298442","","null","","","","FIX","","<div class='trialBorder'><div class='vertical-center'><img style='vertical-align:center; align:center' src=img/fixation3.jpg></div></div>","null","","","","","",""
"html-keyboard-response","65","84100","0.0-5.0-2.20","5ee71ce25f11c84a3e909b09","bdp_rd","Sun Apr 02 2023 11:47:06 GMT-0500 (Central Daylight Time)","298442","","3294","","","","offer","","<div class='trialBorder'><div class='vertical-center'><img style='vertical-align:center; align:center' src=img/fixation3.jpg></div><div class='cl'><div class='vertical-center'>$7<br>for<br>sure</div></div><div class='cr'><div class='vertical-center'>$10<br>with a<br>50% chance</div></div><div class='respDivL'><div class='vertical-center'>(E)</div></div><div class='respDivR'><div class='vertical-center'>(I)</div></div></div>","E","$7","$10","0","7","10","SURE"
"html-keyboard-response","66","84355","0.0-5.0-3.20","5ee71ce25f11c84a3e909b09","bdp_rd","Sun Apr 02 2023 11:47:06 GMT-0500 (Central Daylight Time)","298442","","null","","","","offerFB","","<div class='trialBorder'><div class='vertical-center'><img style='vertical-align:center; align:center' src=img/fixation3.jpg></div><div class='cl'><div class='vertical-center'><font style='color:orange'>$7<br>for<br>sure</font></div></div><div class='cr'><div class='vertical-center'>$10<br>with a<br>50% chance</div></div><div class='respDivL'><div class='vertical-center'><font style='color:orange'>(E)</font></div></div><div class='respDivR'><div class='vertical-center'>(I)</div></div></div>","null","$7","$10","0","7","10",""
"html-keyboard-response","67","84860","0.0-5.0-1.21","5ee71ce25f11c84a3e909b09","bdp_rd","Sun Apr 02 2023 11:47:06 GMT-0500 (Central Daylight Time)","298442","","null","","","","FIX","","<div class='trialBorder'><div class='vertical-center'><img style='vertical-align:center; align:center' src=img/fixation3.jpg></div></div>","null","","","","","",""
"html-keyboard-response","68","86473","0.0-5.0-2.21","5ee71ce25f11c84a3e909b09","bdp_rd","Sun Apr 02 2023 11:47:06 GMT-0500 (Central Daylight Time)","298442","","1612","","","","offer","","<div class='trialBorder'><div class='vertical-center'><img style='vertical-align:center; align:center' src=img/fixation3.jpg></div><div class='cl'><div class='vertical-center'>$30<br>with a<br>50% chance</div></div><div class='cr'><div class='vertical-center'>$1<br>for<br>sure</div></div><div class='respDivL'><div class='vertical-center'>(E)</div></div><div class='respDivR'><div class='vertical-center'>(I)</div></div></div>","E","$1","$30","1","1","30","RISKY"
"html-keyboard-response","69","86727","0.0-5.0-3.21","5ee71ce25f11c84a3e909b09","bdp_rd","Sun Apr 02 2023 11:47:06 GMT-0500 (Central Daylight Time)","298442","","null","","","","offerFB","","<div class='trialBorder'><div class='vertical-center'><img style='vertical-align:center; align:center' src=img/fixation3.jpg></div><div class='cl'><div class='vertical-center'><font style='color:orange'>$30<br>with a<br>50% chance</font></div></div><div class='cr'><div class='vertical-center'>$1<br>for<br>sure</div></div><div class='respDivL'><div class='vertical-center'><font style='color:orange'>(E)</font></div></div><div class='respDivR'><div class='vertical-center'>(I)</div></div></div>","null","$1","$30","1","1","30",""
"html-keyboard-response","70","87230","0.0-5.0-1.22","5ee71ce25f11c84a3e909b09","bdp_rd","Sun Apr 02 2023 11:47:06 GMT-0500 (Central Daylight Time)","298442","","null","","","","FIX","","<div class='trialBorder'><div class='vertical-center'><img style='vertical-align:center; align:center' src=img/fixation3.jpg></div></div>","null","","","","","",""
"html-keyboard-response","71","88713","0.0-5.0-2.22","5ee71ce25f11c84a3e909b09","bdp_rd","Sun Apr 02 2023 11:47:06 GMT-0500 (Central Daylight Time)","298442","","1481","","","","offer","","<div class='trialBorder'><div class='vertical-center'><img style='vertical-align:center; align:center' src=img/fixation3.jpg></div><div class='cl'><div class='vertical-center'>$92<br>with a<br>50% chance</div></div><div class='cr'><div class='vertical-center'>$26<br>for<br>sure</div></div><div class='respDivL'><div class='vertical-center'>(E)</div></div><div class='respDivR'><div class='vertical-center'>(I)</div></div></div>","E","$26","$92","1","26","92","RISKY"
"html-keyboard-response","72","88967","0.0-5.0-3.22","5ee71ce25f11c84a3e909b09","bdp_rd","Sun Apr 02 2023 11:47:06 GMT-0500 (Central Daylight Time)","298442","","null","","","","offerFB","","<div class='trialBorder'><div class='vertical-center'><img style='vertical-align:center; align:center' src=img/fixation3.jpg></div><div class='cl'><div class='vertical-center'><font style='color:orange'>$92<br>with a<br>50% chance</font></div></div><div class='cr'><div class='vertical-center'>$26<br>for<br>sure</div></div><div class='respDivL'><div class='vertical-center'><font style='color:orange'>(E)</font></div></div><div class='respDivR'><div class='vertical-center'>(I)</div></div></div>","null","$26","$92","1","26","92",""
"html-keyboard-response","73","89470","0.0-5.0-1.23","5ee71ce25f11c84a3e909b09","bdp_rd","Sun Apr 02 2023 11:47:06 GMT-0500 (Central Daylight Time)","298442","","null","","","","FIX","","<div class='trialBorder'><div class='vertical-center'><img style='vertical-align:center; align:center' src=img/fixation3.jpg></div></div>","null","","","","","",""
"html-keyboard-response","74","91021","0.0-5.0-2.23","5ee71ce25f11c84a3e909b09","bdp_rd","Sun Apr 02 2023 11:47:06 GMT-0500 (Central Daylight Time)","298442","","1550","","","","offer","","<div class='trialBorder'><div class='vertical-center'><img style='vertical-align:center; align:center' src=img/fixation3.jpg></div><div class='cl'><div class='vertical-center'>$45<br>with a<br>50% chance</div></div><div class='cr'><div class='vertical-center'>$8<br>for<br>sure</div></div><div class='respDivL'><div class='vertical-center'>(E)</div></div><div class='respDivR'><div class='vertical-center'>(I)</div></div></div>","E","$8","$45","1","8","45","RISKY"
"html-keyboard-response","75","91278","0.0-5.0-3.23","5ee71ce25f11c84a3e909b09","bdp_rd","Sun Apr 02 2023 11:47:06 GMT-0500 (Central Daylight Time)","298442","","null","","","","offerFB","","<div class='trialBorder'><div class='vertical-center'><img style='vertical-align:center; align:center' src=img/fixation3.jpg></div><div class='cl'><div class='vertical-center'><font style='color:orange'>$45<br>with a<br>50% chance</font></div></div><div class='cr'><div class='vertical-center'>$8<br>for<br>sure</div></div><div class='respDivL'><div class='vertical-center'><font style='color:orange'>(E)</font></div></div><div class='respDivR'><div class='vertical-center'>(I)</div></div></div>","null","$8","$45","1","8","45",""
"html-keyboard-response","76","91782","0.0-5.0-1.24","5ee71ce25f11c84a3e909b09","bdp_rd","Sun Apr 02 2023 11:47:06 GMT-0500 (Central Daylight Time)","298442","","null","","","","FIX","","<div class='trialBorder'><div class='vertical-center'><img style='vertical-align:center; align:center' src=img/fixation3.jpg></div></div>","null","","","","","",""
"html-keyboard-response","77","92716","0.0-5.0-2.24","5ee71ce25f11c84a3e909b09","bdp_rd","Sun Apr 02 2023 11:47:06 GMT-0500 (Central Daylight Time)","298442","","932","","","","offer","","<div class='trialBorder'><div class='vertical-center'><img style='vertical-align:center; align:center' src=img/fixation3.jpg></div><div class='cl'><div class='vertical-center'>$31<br>with a<br>50% chance</div></div><div class='cr'><div class='vertical-center'>$15<br>for<br>sure</div></div><div class='respDivL'><div class='vertical-center'>(E)</div></div><div class='respDivR'><div class='vertical-center'>(I)</div></div></div>","E","$15","$31","1","15","31","RISKY"
"html-keyboard-response","78","92972","0.0-5.0-3.24","5ee71ce25f11c84a3e909b09","bdp_rd","Sun Apr 02 2023 11:47:06 GMT-0500 (Central Daylight Time)","298442","","null","","","","offerFB","","<div class='trialBorder'><div class='vertical-center'><img style='vertical-align:center; align:center' src=img/fixation3.jpg></div><div class='cl'><div class='vertical-center'><font style='color:orange'>$31<br>with a<br>50% chance</font></div></div><div class='cr'><div class='vertical-center'>$15<br>for<br>sure</div></div><div class='respDivL'><div class='vertical-center'><font style='color:orange'>(E)</font></div></div><div class='respDivR'><div class='vertical-center'>(I)</div></div></div>","null","$15","$31","1","15","31",""
"html-keyboard-response","79","93476","0.0-5.0-1.25","5ee71ce25f11c84a3e909b09","bdp_rd","Sun Apr 02 2023 11:47:06 GMT-0500 (Central Daylight Time)","298442","","null","","","","FIX","","<div class='trialBorder'><div class='vertical-center'><img style='vertical-align:center; align:center' src=img/fixation3.jpg></div></div>","null","","","","","",""
"html-keyboard-response","80","94294","0.0-5.0-2.25","5ee71ce25f11c84a3e909b09","bdp_rd","Sun Apr 02 2023 11:47:06 GMT-0500 (Central Daylight Time)","298442","","816","","","","offer","","<div class='trialBorder'><div class='vertical-center'><img style='vertical-align:center; align:center' src=img/fixation3.jpg></div><div class='cl'><div class='vertical-center'>$34<br>with a<br>50% chance</div></div><div class='cr'><div class='vertical-center'>$15<br>for<br>sure</div></div><div class='respDivL'><div class='vertical-center'>(E)</div></div><div class='respDivR'><div class='vertical-center'>(I)</div></div></div>","E","$15","$34","1","15","34","RISKY"
"html-keyboard-response","81","94547","0.0-5.0-3.25","5ee71ce25f11c84a3e909b09","bdp_rd","Sun Apr 02 2023 11:47:06 GMT-0500 (Central Daylight Time)","298442","","null","","","","offerFB","","<div class='trialBorder'><div class='vertical-center'><img style='vertical-align:center; align:center' src=img/fixation3.jpg></div><div class='cl'><div class='vertical-center'><font style='color:orange'>$34<br>with a<br>50% chance</font></div></div><div class='cr'><div class='vertical-center'>$15<br>for<br>sure</div></div><div class='respDivL'><div class='vertical-center'><font style='color:orange'>(E)</font></div></div><div class='respDivR'><div class='vertical-center'>(I)</div></div></div>","null","$15","$34","1","15","34",""
"html-keyboard-response","82","95051","0.0-5.0-1.26","5ee71ce25f11c84a3e909b09","bdp_rd","Sun Apr 02 2023 11:47:06 GMT-0500 (Central Daylight Time)","298442","","null","","","","FIX","","<div class='trialBorder'><div class='vertical-center'><img style='vertical-align:center; align:center' src=img/fixation3.jpg></div></div>","null","","","","","",""
"html-keyboard-response","83","97003","0.0-5.0-2.26","5ee71ce25f11c84a3e909b09","bdp_rd","Sun Apr 02 2023 11:47:06 GMT-0500 (Central Daylight Time)","298442","","1950","","","","offer","","<div class='trialBorder'><div class='vertical-center'><img style='vertical-align:center; align:center' src=img/fixation3.jpg></div><div class='cl'><div class='vertical-center'>$34<br>for<br>sure</div></div><div class='cr'><div class='vertical-center'>$48<br>with a<br>50% chance</div></div><div class='respDivL'><div class='vertical-center'>(E)</div></div><div class='respDivR'><div class='vertical-center'>(I)</div></div></div>","E","$34","$48","0","34","48","SURE"
"html-keyboard-response","84","97256","0.0-5.0-3.26","5ee71ce25f11c84a3e909b09","bdp_rd","Sun Apr 02 2023 11:47:06 GMT-0500 (Central Daylight Time)","298442","","null","","","","offerFB","","<div class='trialBorder'><div class='vertical-center'><img style='vertical-align:center; align:center' src=img/fixation3.jpg></div><div class='cl'><div class='vertical-center'><font style='color:orange'>$34<br>for<br>sure</font></div></div><div class='cr'><div class='vertical-center'>$48<br>with a<br>50% chance</div></div><div class='respDivL'><div class='vertical-center'><font style='color:orange'>(E)</font></div></div><div class='respDivR'><div class='vertical-center'>(I)</div></div></div>","null","$34","$48","0","34","48",""
"html-keyboard-response","85","97761","0.0-5.0-1.27","5ee71ce25f11c84a3e909b09","bdp_rd","Sun Apr 02 2023 11:47:06 GMT-0500 (Central Daylight Time)","298442","","null","","","","FIX","","<div class='trialBorder'><div class='vertical-center'><img style='vertical-align:center; align:center' src=img/fixation3.jpg></div></div>","null","","","","","",""
"html-keyboard-response","86","98707","0.0-5.0-2.27","5ee71ce25f11c84a3e909b09","bdp_rd","Sun Apr 02 2023 11:47:06 GMT-0500 (Central Daylight Time)","298442","","944","","","","offer","","<div class='trialBorder'><div class='vertical-center'><img style='vertical-align:center; align:center' src=img/fixation3.jpg></div><div class='cl'><div class='vertical-center'>$21<br>with a<br>50% chance</div></div><div class='cr'><div class='vertical-center'>$2<br>for<br>sure</div></div><div class='respDivL'><div class='vertical-center'>(E)</div></div><div class='respDivR'><div class='vertical-center'>(I)</div></div></div>","E","$2","$21","1","2","21","RISKY"
"html-keyboard-response","87","98962","0.0-5.0-3.27","5ee71ce25f11c84a3e909b09","bdp_rd","Sun Apr 02 2023 11:47:06 GMT-0500 (Central Daylight Time)","298442","","null","","","","offerFB","","<div class='trialBorder'><div class='vertical-center'><img style='vertical-align:center; align:center' src=img/fixation3.jpg></div><div class='cl'><div class='vertical-center'><font style='color:orange'>$21<br>with a<br>50% chance</font></div></div><div class='cr'><div class='vertical-center'>$2<br>for<br>sure</div></div><div class='respDivL'><div class='vertical-center'><font style='color:orange'>(E)</font></div></div><div class='respDivR'><div class='vertical-center'>(I)</div></div></div>","null","$2","$21","1","2","21",""
"html-keyboard-response","88","99466","0.0-5.0-1.28","5ee71ce25f11c84a3e909b09","bdp_rd","Sun Apr 02 2023 11:47:06 GMT-0500 (Central Daylight Time)","298442","","null","","","","FIX","","<div class='trialBorder'><div class='vertical-center'><img style='vertical-align:center; align:center' src=img/fixation3.jpg></div></div>","null","","","","","",""
"html-keyboard-response","89","100660","0.0-5.0-2.28","5ee71ce25f11c84a3e909b09","bdp_rd","Sun Apr 02 2023 11:47:06 GMT-0500 (Central Daylight Time)","298442","","1193","","","","offer","","<div class='trialBorder'><div class='vertical-center'><img style='vertical-align:center; align:center' src=img/fixation3.jpg></div><div class='cl'><div class='vertical-center'>$19<br>for<br>sure</div></div><div class='cr'><div class='vertical-center'>$51<br>with a<br>50% chance</div></div><div class='respDivL'><div class='vertical-center'>(E)</div></div><div class='respDivR'><div class='vertical-center'>(I)</div></div></div>","I","$19","$51","0","19","51","RISKY"
"html-keyboard-response","90","100913","0.0-5.0-3.28","5ee71ce25f11c84a3e909b09","bdp_rd","Sun Apr 02 2023 11:47:06 GMT-0500 (Central Daylight Time)","298442","","null","","","","offerFB","","<div class='trialBorder'><div class='vertical-center'><img style='vertical-align:center; align:center' src=img/fixation3.jpg></div><div class='cl'><div class='vertical-center'>$19<br>for<br>sure</div></div><div class='cr'><div class='vertical-center'><font style='color:orange'>$51<br>with a<br>50% chance</font></div></div><div class='respDivL'><div class='vertical-center'>(E)</div></div><div class='respDivR'><div class='vertical-center'><font style='color:orange'>(I)</font></div></div></div>","null","$19","$51","0","19","51",""
"html-keyboard-response","91","101418","0.0-5.0-1.29","5ee71ce25f11c84a3e909b09","bdp_rd","Sun Apr 02 2023 11:47:06 GMT-0500 (Central Daylight Time)","298442","","null","","","","FIX","","<div class='trialBorder'><div class='vertical-center'><img style='vertical-align:center; align:center' src=img/fixation3.jpg></div></div>","null","","","","","",""
"html-keyboard-response","92","104840","0.0-5.0-2.29","5ee71ce25f11c84a3e909b09","bdp_rd","Sun Apr 02 2023 11:47:06 GMT-0500 (Central Daylight Time)","298442","","3421","","","","offer","","<div class='trialBorder'><div class='vertical-center'><img style='vertical-align:center; align:center' src=img/fixation3.jpg></div><div class='cl'><div class='vertical-center'>$95<br>with a<br>50% chance</div></div><div class='cr'><div class='vertical-center'>$40<br>for<br>sure</div></div><div class='respDivL'><div class='vertical-center'>(E)</div></div><div class='respDivR'><div class='vertical-center'>(I)</div></div></div>","I","$40","$95","1","40","95","SURE"
"html-keyboard-response","93","105094","0.0-5.0-3.29","5ee71ce25f11c84a3e909b09","bdp_rd","Sun Apr 02 2023 11:47:06 GMT-0500 (Central Daylight Time)","298442","","null","","","","offerFB","","<div class='trialBorder'><div class='vertical-center'><img style='vertical-align:center; align:center' src=img/fixation3.jpg></div><div class='cl'><div class='vertical-center'>$95<br>with a<br>50% chance</div></div><div class='cr'><div class='vertical-center'><font style='color:orange'>$40<br>for<br>sure</font></div></div><div class='respDivL'><div class='vertical-center'>(E)</div></div><div class='respDivR'><div class='vertical-center'><font style='color:orange'>(I)</font></div></div></div>","null","$40","$95","1","40","95",""
"html-keyboard-response","94","105600","0.0-5.0-1.30","5ee71ce25f11c84a3e909b09","bdp_rd","Sun Apr 02 2023 11:47:06 GMT-0500 (Central Daylight Time)","298442","","null","","","","FIX","","<div class='trialBorder'><div class='vertical-center'><img style='vertical-align:center; align:center' src=img/fixation3.jpg></div></div>","null","","","","","",""
"html-keyboard-response","95","107185","0.0-5.0-2.30","5ee71ce25f11c84a3e909b09","bdp_rd","Sun Apr 02 2023 11:47:06 GMT-0500 (Central Daylight Time)","298442","","1583","","","","offer","","<div class='trialBorder'><div class='vertical-center'><img style='vertical-align:center; align:center' src=img/fixation3.jpg></div><div class='cl'><div class='vertical-center'>$81<br>with a<br>50% chance</div></div><div class='cr'><div class='vertical-center'>$39<br>for<br>sure</div></div><div class='respDivL'><div class='vertical-center'>(E)</div></div><div class='respDivR'><div class='vertical-center'>(I)</div></div></div>","I","$39","$81","1","39","81","SURE"
"html-keyboard-response","96","107438","0.0-5.0-3.30","5ee71ce25f11c84a3e909b09","bdp_rd","Sun Apr 02 2023 11:47:06 GMT-0500 (Central Daylight Time)","298442","","null","","","","offerFB","","<div class='trialBorder'><div class='vertical-center'><img style='vertical-align:center; align:center' src=img/fixation3.jpg></div><div class='cl'><div class='vertical-center'>$81<br>with a<br>50% chance</div></div><div class='cr'><div class='vertical-center'><font style='color:orange'>$39<br>for<br>sure</font></div></div><div class='respDivL'><div class='vertical-center'>(E)</div></div><div class='respDivR'><div class='vertical-center'><font style='color:orange'>(I)</font></div></div></div>","null","$39","$81","1","39","81",""
"html-keyboard-response","97","107940","0.0-5.0-1.31","5ee71ce25f11c84a3e909b09","bdp_rd","Sun Apr 02 2023 11:47:06 GMT-0500 (Central Daylight Time)","298442","","null","","","","FIX","","<div class='trialBorder'><div class='vertical-center'><img style='vertical-align:center; align:center' src=img/fixation3.jpg></div></div>","null","","","","","",""
"html-keyboard-response","98","109533","0.0-5.0-2.31","5ee71ce25f11c84a3e909b09","bdp_rd","Sun Apr 02 2023 11:47:06 GMT-0500 (Central Daylight Time)","298442","","1591","","","","offer","","<div class='trialBorder'><div class='vertical-center'><img style='vertical-align:center; align:center' src=img/fixation3.jpg></div><div class='cl'><div class='vertical-center'>$8<br>for<br>sure</div></div><div class='cr'><div class='vertical-center'>$23<br>with a<br>50% chance</div></div><div class='respDivL'><div class='vertical-center'>(E)</div></div><div class='respDivR'><div class='vertical-center'>(I)</div></div></div>","I","$8","$23","0","8","23","RISKY"
"html-keyboard-response","99","109785","0.0-5.0-3.31","5ee71ce25f11c84a3e909b09","bdp_rd","Sun Apr 02 2023 11:47:06 GMT-0500 (Central Daylight Time)","298442","","null","","","","offerFB","","<div class='trialBorder'><div class='vertical-center'><img style='vertical-align:center; align:center' src=img/fixation3.jpg></div><div class='cl'><div class='vertical-center'>$8<br>for<br>sure</div></div><div class='cr'><div class='vertical-center'><font style='color:orange'>$23<br>with a<br>50% chance</font></div></div><div class='respDivL'><div class='vertical-center'>(E)</div></div><div class='respDivR'><div class='vertical-center'><font style='color:orange'>(I)</font></div></div></div>","null","$8","$23","0","8","23",""
"html-keyboard-response","100","110289","0.0-5.0-1.32","5ee71ce25f11c84a3e909b09","bdp_rd","Sun Apr 02 2023 11:47:06 GMT-0500 (Central Daylight Time)","298442","","null","","","","FIX","","<div class='trialBorder'><div class='vertical-center'><img style='vertical-align:center; align:center' src=img/fixation3.jpg></div></div>","null","","","","","",""
"html-keyboard-response","101","111310","0.0-5.0-2.32","5ee71ce25f11c84a3e909b09","bdp_rd","Sun Apr 02 2023 11:47:06 GMT-0500 (Central Daylight Time)","298442","","1019","","","","offer","","<div class='trialBorder'><div class='vertical-center'><img style='vertical-align:center; align:center' src=img/fixation3.jpg></div><div class='cl'><div class='vertical-center'>$70<br>with a<br>50% chance</div></div><div class='cr'><div class='vertical-center'>$24<br>for<br>sure</div></div><div class='respDivL'><div class='vertical-center'>(E)</div></div><div class='respDivR'><div class='vertical-center'>(I)</div></div></div>","E","$24","$70","1","24","70","RISKY"
"html-keyboard-response","102","111563","0.0-5.0-3.32","5ee71ce25f11c84a3e909b09","bdp_rd","Sun Apr 02 2023 11:47:06 GMT-0500 (Central Daylight Time)","298442","","null","","","","offerFB","","<div class='trialBorder'><div class='vertical-center'><img style='vertical-align:center; align:center' src=img/fixation3.jpg></div><div class='cl'><div class='vertical-center'><font style='color:orange'>$70<br>with a<br>50% chance</font></div></div><div class='cr'><div class='vertical-center'>$24<br>for<br>sure</div></div><div class='respDivL'><div class='vertical-center'><font style='color:orange'>(E)</font></div></div><div class='respDivR'><div class='vertical-center'>(I)</div></div></div>","null","$24","$70","1","24","70",""
"html-keyboard-response","103","112068","0.0-5.0-1.33","5ee71ce25f11c84a3e909b09","bdp_rd","Sun Apr 02 2023 11:47:06 GMT-0500 (Central Daylight Time)","298442","","null","","","","FIX","","<div class='trialBorder'><div class='vertical-center'><img style='vertical-align:center; align:center' src=img/fixation3.jpg></div></div>","null","","","","","",""
"html-keyboard-response","104","114836","0.0-5.0-2.33","5ee71ce25f11c84a3e909b09","bdp_rd","Sun Apr 02 2023 11:47:06 GMT-0500 (Central Daylight Time)","298442","","2766","","","","offer","","<div class='trialBorder'><div class='vertical-center'><img style='vertical-align:center; align:center' src=img/fixation3.jpg></div><div class='cl'><div class='vertical-center'>$68<br>with a<br>50% chance</div></div><div class='cr'><div class='vertical-center'>$30<br>for<br>sure</div></div><div class='respDivL'><div class='vertical-center'>(E)</div></div><div class='respDivR'><div class='vertical-center'>(I)</div></div></div>","E","$30","$68","1","30","68","RISKY"
"html-keyboard-response","105","115089","0.0-5.0-3.33","5ee71ce25f11c84a3e909b09","bdp_rd","Sun Apr 02 2023 11:47:06 GMT-0500 (Central Daylight Time)","298442","","null","","","","offerFB","","<div class='trialBorder'><div class='vertical-center'><img style='vertical-align:center; align:center' src=img/fixation3.jpg></div><div class='cl'><div class='vertical-center'><font style='color:orange'>$68<br>with a<br>50% chance</font></div></div><div class='cr'><div class='vertical-center'>$30<br>for<br>sure</div></div><div class='respDivL'><div class='vertical-center'><font style='color:orange'>(E)</font></div></div><div class='respDivR'><div class='vertical-center'>(I)</div></div></div>","null","$30","$68","1","30","68",""
"html-keyboard-response","106","115592","0.0-5.0-1.34","5ee71ce25f11c84a3e909b09","bdp_rd","Sun Apr 02 2023 11:47:06 GMT-0500 (Central Daylight Time)","298442","","null","","","","FIX","","<div class='trialBorder'><div class='vertical-center'><img style='vertical-align:center; align:center' src=img/fixation3.jpg></div></div>","null","","","","","",""
"html-keyboard-response","107","116512","0.0-5.0-2.34","5ee71ce25f11c84a3e909b09","bdp_rd","Sun Apr 02 2023 11:47:06 GMT-0500 (Central Daylight Time)","298442","","919","","","","offer","","<div class='trialBorder'><div class='vertical-center'><img style='vertical-align:center; align:center' src=img/fixation3.jpg></div><div class='cl'><div class='vertical-center'>$12<br>for<br>sure</div></div><div class='cr'><div class='vertical-center'>$35<br>with a<br>50% chance</div></div><div class='respDivL'><div class='vertical-center'>(E)</div></div><div class='respDivR'><div class='vertical-center'>(I)</div></div></div>","I","$12","$35","0","12","35","RISKY"
"html-keyboard-response","108","116766","0.0-5.0-3.34","5ee71ce25f11c84a3e909b09","bdp_rd","Sun Apr 02 2023 11:47:06 GMT-0500 (Central Daylight Time)","298442","","null","","","","offerFB","","<div class='trialBorder'><div class='vertical-center'><img style='vertical-align:center; align:center' src=img/fixation3.jpg></div><div class='cl'><div class='vertical-center'>$12<br>for<br>sure</div></div><div class='cr'><div class='vertical-center'><font style='color:orange'>$35<br>with a<br>50% chance</font></div></div><div class='respDivL'><div class='vertical-center'>(E)</div></div><div class='respDivR'><div class='vertical-center'><font style='color:orange'>(I)</font></div></div></div>","null","$12","$35","0","12","35",""
"html-keyboard-response","109","117270","0.0-5.0-1.35","5ee71ce25f11c84a3e909b09","bdp_rd","Sun Apr 02 2023 11:47:06 GMT-0500 (Central Daylight Time)","298442","","null","","","","FIX","","<div class='trialBorder'><div class='vertical-center'><img style='vertical-align:center; align:center' src=img/fixation3.jpg></div></div>","null","","","","","",""
"html-keyboard-response","110","118096","0.0-5.0-2.35","5ee71ce25f11c84a3e909b09","bdp_rd","Sun Apr 02 2023 11:47:06 GMT-0500 (Central Daylight Time)","298442","","824","","","","offer","","<div class='trialBorder'><div class='vertical-center'><img style='vertical-align:center; align:center' src=img/fixation3.jpg></div><div class='cl'><div class='vertical-center'>$42<br>with a<br>50% chance</div></div><div class='cr'><div class='vertical-center'>$22<br>for<br>sure</div></div><div class='respDivL'><div class='vertical-center'>(E)</div></div><div class='respDivR'><div class='vertical-center'>(I)</div></div></div>","E","$22","$42","1","22","42","RISKY"
"html-keyboard-response","111","118350","0.0-5.0-3.35","5ee71ce25f11c84a3e909b09","bdp_rd","Sun Apr 02 2023 11:47:06 GMT-0500 (Central Daylight Time)","298442","","null","","","","offerFB","","<div class='trialBorder'><div class='vertical-center'><img style='vertical-align:center; align:center' src=img/fixation3.jpg></div><div class='cl'><div class='vertical-center'><font style='color:orange'>$42<br>with a<br>50% chance</font></div></div><div class='cr'><div class='vertical-center'>$22<br>for<br>sure</div></div><div class='respDivL'><div class='vertical-center'><font style='color:orange'>(E)</font></div></div><div class='respDivR'><div class='vertical-center'>(I)</div></div></div>","null","$22","$42","1","22","42",""
"html-keyboard-response","112","118852","0.0-5.0-1.36","5ee71ce25f11c84a3e909b09","bdp_rd","Sun Apr 02 2023 11:47:06 GMT-0500 (Central Daylight Time)","298442","","null","","","","FIX","","<div class='trialBorder'><div class='vertical-center'><img style='vertical-align:center; align:center' src=img/fixation3.jpg></div></div>","null","","","","","",""
"html-keyboard-response","113","120097","0.0-5.0-2.36","5ee71ce25f11c84a3e909b09","bdp_rd","Sun Apr 02 2023 11:47:06 GMT-0500 (Central Daylight Time)","298442","","1243","","","","offer","","<div class='trialBorder'><div class='vertical-center'><img style='vertical-align:center; align:center' src=img/fixation3.jpg></div><div class='cl'><div class='vertical-center'>$6<br>for<br>sure</div></div><div class='cr'><div class='vertical-center'>$15<br>with a<br>50% chance</div></div><div class='respDivL'><div class='vertical-center'>(E)</div></div><div class='respDivR'><div class='vertical-center'>(I)</div></div></div>","I","$6","$15","0","6","15","RISKY"
"html-keyboard-response","114","120351","0.0-5.0-3.36","5ee71ce25f11c84a3e909b09","bdp_rd","Sun Apr 02 2023 11:47:06 GMT-0500 (Central Daylight Time)","298442","","null","","","","offerFB","","<div class='trialBorder'><div class='vertical-center'><img style='vertical-align:center; align:center' src=img/fixation3.jpg></div><div class='cl'><div class='vertical-center'>$6<br>for<br>sure</div></div><div class='cr'><div class='vertical-center'><font style='color:orange'>$15<br>with a<br>50% chance</font></div></div><div class='respDivL'><div class='vertical-center'>(E)</div></div><div class='respDivR'><div class='vertical-center'><font style='color:orange'>(I)</font></div></div></div>","null","$6","$15","0","6","15",""
"html-keyboard-response","115","120855","0.0-5.0-1.37","5ee71ce25f11c84a3e909b09","bdp_rd","Sun Apr 02 2023 11:47:06 GMT-0500 (Central Daylight Time)","298442","","null","","","","FIX","","<div class='trialBorder'><div class='vertical-center'><img style='vertical-align:center; align:center' src=img/fixation3.jpg></div></div>","null","","","","","",""
"html-keyboard-response","116","122703","0.0-5.0-2.37","5ee71ce25f11c84a3e909b09","bdp_rd","Sun Apr 02 2023 11:47:06 GMT-0500 (Central Daylight Time)","298442","","1846","","","","offer","","<div class='trialBorder'><div class='vertical-center'><img style='vertical-align:center; align:center' src=img/fixation3.jpg></div><div class='cl'><div class='vertical-center'>$25<br>with a<br>50% chance</div></div><div class='cr'><div class='vertical-center'>$21<br>for<br>sure</div></div><div class='respDivL'><div class='vertical-center'>(E)</div></div><div class='respDivR'><div class='vertical-center'>(I)</div></div></div>","I","$21","$25","1","21","25","SURE"
"html-keyboard-response","117","122959","0.0-5.0-3.37","5ee71ce25f11c84a3e909b09","bdp_rd","Sun Apr 02 2023 11:47:06 GMT-0500 (Central Daylight Time)","298442","","null","","","","offerFB","","<div class='trialBorder'><div class='vertical-center'><img style='vertical-align:center; align:center' src=img/fixation3.jpg></div><div class='cl'><div class='vertical-center'>$25<br>with a<br>50% chance</div></div><div class='cr'><div class='vertical-center'><font style='color:orange'>$21<br>for<br>sure</font></div></div><div class='respDivL'><div class='vertical-center'>(E)</div></div><div class='respDivR'><div class='vertical-center'><font style='color:orange'>(I)</font></div></div></div>","null","$21","$25","1","21","25",""
"html-keyboard-response","118","123463","0.0-5.0-1.38","5ee71ce25f11c84a3e909b09","bdp_rd","Sun Apr 02 2023 11:47:06 GMT-0500 (Central Daylight Time)","298442","","null","","","","FIX","","<div class='trialBorder'><div class='vertical-center'><img style='vertical-align:center; align:center' src=img/fixation3.jpg></div></div>","null","","","","","",""
"html-keyboard-response","119","124675","0.0-5.0-2.38","5ee71ce25f11c84a3e909b09","bdp_rd","Sun Apr 02 2023 11:47:06 GMT-0500 (Central Daylight Time)","298442","","1210","","","","offer","","<div class='trialBorder'><div class='vertical-center'><img style='vertical-align:center; align:center' src=img/fixation3.jpg></div><div class='cl'><div class='vertical-center'>$3<br>for<br>sure</div></div><div class='cr'><div class='vertical-center'>$17<br>with a<br>50% chance</div></div><div class='respDivL'><div class='vertical-center'>(E)</div></div><div class='respDivR'><div class='vertical-center'>(I)</div></div></div>","I","$3","$17","0","3","17","RISKY"
"html-keyboard-response","120","124927","0.0-5.0-3.38","5ee71ce25f11c84a3e909b09","bdp_rd","Sun Apr 02 2023 11:47:06 GMT-0500 (Central Daylight Time)","298442","","null","","","","offerFB","","<div class='trialBorder'><div class='vertical-center'><img style='vertical-align:center; align:center' src=img/fixation3.jpg></div><div class='cl'><div class='vertical-center'>$3<br>for<br>sure</div></div><div class='cr'><div class='vertical-center'><font style='color:orange'>$17<br>with a<br>50% chance</font></div></div><div class='respDivL'><div class='vertical-center'>(E)</div></div><div class='respDivR'><div class='vertical-center'><font style='color:orange'>(I)</font></div></div></div>","null","$3","$17","0","3","17",""
"html-keyboard-response","121","125431","0.0-5.0-1.39","5ee71ce25f11c84a3e909b09","bdp_rd","Sun Apr 02 2023 11:47:06 GMT-0500 (Central Daylight Time)","298442","","null","","","","FIX","","<div class='trialBorder'><div class='vertical-center'><img style='vertical-align:center; align:center' src=img/fixation3.jpg></div></div>","null","","","","","",""
"html-keyboard-response","122","126730","0.0-5.0-2.39","5ee71ce25f11c84a3e909b09","bdp_rd","Sun Apr 02 2023 11:47:06 GMT-0500 (Central Daylight Time)","298442","","1296","","","","offer","","<div class='trialBorder'><div class='vertical-center'><img style='vertical-align:center; align:center' src=img/fixation3.jpg></div><div class='cl'><div class='vertical-center'>$5<br>for<br>sure</div></div><div class='cr'><div class='vertical-center'>$50<br>with a<br>50% chance</div></div><div class='respDivL'><div class='vertical-center'>(E)</div></div><div class='respDivR'><div class='vertical-center'>(I)</div></div></div>","I","$5","$50","0","5","50","RISKY"
"html-keyboard-response","123","126982","0.0-5.0-3.39","5ee71ce25f11c84a3e909b09","bdp_rd","Sun Apr 02 2023 11:47:06 GMT-0500 (Central Daylight Time)","298442","","null","","","","offerFB","","<div class='trialBorder'><div class='vertical-center'><img style='vertical-align:center; align:center' src=img/fixation3.jpg></div><div class='cl'><div class='vertical-center'>$5<br>for<br>sure</div></div><div class='cr'><div class='vertical-center'><font style='color:orange'>$50<br>with a<br>50% chance</font></div></div><div class='respDivL'><div class='vertical-center'>(E)</div></div><div class='respDivR'><div class='vertical-center'><font style='color:orange'>(I)</font></div></div></div>","null","$5","$50","0","5","50",""
"html-keyboard-response","124","127483","0.0-5.0-1.40","5ee71ce25f11c84a3e909b09","bdp_rd","Sun Apr 02 2023 11:47:06 GMT-0500 (Central Daylight Time)","298442","","null","","","","FIX","","<div class='trialBorder'><div class='vertical-center'><img style='vertical-align:center; align:center' src=img/fixation3.jpg></div></div>","null","","","","","",""
"html-keyboard-response","125","128896","0.0-5.0-2.40","5ee71ce25f11c84a3e909b09","bdp_rd","Sun Apr 02 2023 11:47:06 GMT-0500 (Central Daylight Time)","298442","","1411","","","","offer","","<div class='trialBorder'><div class='vertical-center'><img style='vertical-align:center; align:center' src=img/fixation3.jpg></div><div class='cl'><div class='vertical-center'>$46<br>for<br>sure</div></div><div class='cr'><div class='vertical-center'>$65<br>with a<br>50% chance</div></div><div class='respDivL'><div class='vertical-center'>(E)</div></div><div class='respDivR'><div class='vertical-center'>(I)</div></div></div>","E","$46","$65","0","46","65","SURE"
"html-keyboard-response","126","129149","0.0-5.0-3.40","5ee71ce25f11c84a3e909b09","bdp_rd","Sun Apr 02 2023 11:47:06 GMT-0500 (Central Daylight Time)","298442","","null","","","","offerFB","","<div class='trialBorder'><div class='vertical-center'><img style='vertical-align:center; align:center' src=img/fixation3.jpg></div><div class='cl'><div class='vertical-center'><font style='color:orange'>$46<br>for<br>sure</font></div></div><div class='cr'><div class='vertical-center'>$65<br>with a<br>50% chance</div></div><div class='respDivL'><div class='vertical-center'><font style='color:orange'>(E)</font></div></div><div class='respDivR'><div class='vertical-center'>(I)</div></div></div>","null","$46","$65","0","46","65",""
"html-keyboard-response","127","129654","0.0-5.0-1.41","5ee71ce25f11c84a3e909b09","bdp_rd","Sun Apr 02 2023 11:47:06 GMT-0500 (Central Daylight Time)","298442","","null","","","","FIX","","<div class='trialBorder'><div class='vertical-center'><img style='vertical-align:center; align:center' src=img/fixation3.jpg></div></div>","null","","","","","",""
"html-keyboard-response","128","131076","0.0-5.0-2.41","5ee71ce25f11c84a3e909b09","bdp_rd","Sun Apr 02 2023 11:47:06 GMT-0500 (Central Daylight Time)","298442","","1420","","","","offer","","<div class='trialBorder'><div class='vertical-center'><img style='vertical-align:center; align:center' src=img/fixation3.jpg></div><div class='cl'><div class='vertical-center'>$6<br>for<br>sure</div></div><div class='cr'><div class='vertical-center'>$13<br>with a<br>50% chance</div></div><div class='respDivL'><div class='vertical-center'>(E)</div></div><div class='respDivR'><div class='vertical-center'>(I)</div></div></div>","I","$6","$13","0","6","13","RISKY"
"html-keyboard-response","129","131332","0.0-5.0-3.41","5ee71ce25f11c84a3e909b09","bdp_rd","Sun Apr 02 2023 11:47:06 GMT-0500 (Central Daylight Time)","298442","","null","","","","offerFB","","<div class='trialBorder'><div class='vertical-center'><img style='vertical-align:center; align:center' src=img/fixation3.jpg></div><div class='cl'><div class='vertical-center'>$6<br>for<br>sure</div></div><div class='cr'><div class='vertical-center'><font style='color:orange'>$13<br>with a<br>50% chance</font></div></div><div class='respDivL'><div class='vertical-center'>(E)</div></div><div class='respDivR'><div class='vertical-center'><font style='color:orange'>(I)</font></div></div></div>","null","$6","$13","0","6","13",""
"html-keyboard-response","130","131836","0.0-5.0-1.42","5ee71ce25f11c84a3e909b09","bdp_rd","Sun Apr 02 2023 11:47:06 GMT-0500 (Central Daylight Time)","298442","","null","","","","FIX","","<div class='trialBorder'><div class='vertical-center'><img style='vertical-align:center; align:center' src=img/fixation3.jpg></div></div>","null","","","","","",""
"html-keyboard-response","131","134091","0.0-5.0-2.42","5ee71ce25f11c84a3e909b09","bdp_rd","Sun Apr 02 2023 11:47:06 GMT-0500 (Central Daylight Time)","298442","","2253","","","","offer","","<div class='trialBorder'><div class='vertical-center'><img style='vertical-align:center; align:center' src=img/fixation3.jpg></div><div class='cl'><div class='vertical-center'>$98<br>with a<br>50% chance</div></div><div class='cr'><div class='vertical-center'>$53<br>for<br>sure</div></div><div class='respDivL'><div class='vertical-center'>(E)</div></div><div class='respDivR'><div class='vertical-center'>(I)</div></div></div>","E","$53","$98","1","53","98","RISKY"
"html-keyboard-response","132","134345","0.0-5.0-3.42","5ee71ce25f11c84a3e909b09","bdp_rd","Sun Apr 02 2023 11:47:06 GMT-0500 (Central Daylight Time)","298442","","null","","","","offerFB","","<div class='trialBorder'><div class='vertical-center'><img style='vertical-align:center; align:center' src=img/fixation3.jpg></div><div class='cl'><div class='vertical-center'><font style='color:orange'>$98<br>with a<br>50% chance</font></div></div><div class='cr'><div class='vertical-center'>$53<br>for<br>sure</div></div><div class='respDivL'><div class='vertical-center'><font style='color:orange'>(E)</font></div></div><div class='respDivR'><div class='vertical-center'>(I)</div></div></div>","null","$53","$98","1","53","98",""
"html-keyboard-response","133","134848","0.0-5.0-1.43","5ee71ce25f11c84a3e909b09","bdp_rd","Sun Apr 02 2023 11:47:06 GMT-0500 (Central Daylight Time)","298442","","null","","","","FIX","","<div class='trialBorder'><div class='vertical-center'><img style='vertical-align:center; align:center' src=img/fixation3.jpg></div></div>","null","","","","","",""
"html-keyboard-response","134","135855","0.0-5.0-2.43","5ee71ce25f11c84a3e909b09","bdp_rd","Sun Apr 02 2023 11:47:06 GMT-0500 (Central Daylight Time)","298442","","1005","","","","offer","","<div class='trialBorder'><div class='vertical-center'><img style='vertical-align:center; align:center' src=img/fixation3.jpg></div><div class='cl'><div class='vertical-center'>$20<br>for<br>sure</div></div><div class='cr'><div class='vertical-center'>$37<br>with a<br>50% chance</div></div><div class='respDivL'><div class='vertical-center'>(E)</div></div><div class='respDivR'><div class='vertical-center'>(I)</div></div></div>","I","$20","$37","0","20","37","RISKY"
"html-keyboard-response","135","136111","0.0-5.0-3.43","5ee71ce25f11c84a3e909b09","bdp_rd","Sun Apr 02 2023 11:47:06 GMT-0500 (Central Daylight Time)","298442","","null","","","","offerFB","","<div class='trialBorder'><div class='vertical-center'><img style='vertical-align:center; align:center' src=img/fixation3.jpg></div><div class='cl'><div class='vertical-center'>$20<br>for<br>sure</div></div><div class='cr'><div class='vertical-center'><font style='color:orange'>$37<br>with a<br>50% chance</font></div></div><div class='respDivL'><div class='vertical-center'>(E)</div></div><div class='respDivR'><div class='vertical-center'><font style='color:orange'>(I)</font></div></div></div>","null","$20","$37","0","20","37",""
"html-keyboard-response","136","136613","0.0-5.0-1.44","5ee71ce25f11c84a3e909b09","bdp_rd","Sun Apr 02 2023 11:47:06 GMT-0500 (Central Daylight Time)","298442","","null","","","","FIX","","<div class='trialBorder'><div class='vertical-center'><img style='vertical-align:center; align:center' src=img/fixation3.jpg></div></div>","null","","","","","",""
"html-keyboard-response","137","261928","0.0-5.0-2.44","5ee71ce25f11c84a3e909b09","bdp_rd","Sun Apr 02 2023 11:47:06 GMT-0500 (Central Daylight Time)","298442","","125313","","","","offer","","<div class='trialBorder'><div class='vertical-center'><img style='vertical-align:center; align:center' src=img/fixation3.jpg></div><div class='cl'><div class='vertical-center'>$27<br>for<br>sure</div></div><div class='cr'><div class='vertical-center'>$47<br>with a<br>50% chance</div></div><div class='respDivL'><div class='vertical-center'>(E)</div></div><div class='respDivR'><div class='vertical-center'>(I)</div></div></div>","I","$27","$47","0","27","47","RISKY"
"html-keyboard-response","138","262184","0.0-5.0-3.44","5ee71ce25f11c84a3e909b09","bdp_rd","Sun Apr 02 2023 11:47:06 GMT-0500 (Central Daylight Time)","298442","","null","","","","offerFB","","<div class='trialBorder'><div class='vertical-center'><img style='vertical-align:center; align:center' src=img/fixation3.jpg></div><div class='cl'><div class='vertical-center'>$27<br>for<br>sure</div></div><div class='cr'><div class='vertical-center'><font style='color:orange'>$47<br>with a<br>50% chance</font></div></div><div class='respDivL'><div class='vertical-center'>(E)</div></div><div class='respDivR'><div class='vertical-center'><font style='color:orange'>(I)</font></div></div></div>","null","$27","$47","0","27","47",""
"html-keyboard-response","139","262688","0.0-5.0-1.45","5ee71ce25f11c84a3e909b09","bdp_rd","Sun Apr 02 2023 11:47:06 GMT-0500 (Central Daylight Time)","298442","","null","","","","FIX","","<div class='trialBorder'><div class='vertical-center'><img style='vertical-align:center; align:center' src=img/fixation3.jpg></div></div>","null","","","","","",""
"html-keyboard-response","140","264216","0.0-5.0-2.45","5ee71ce25f11c84a3e909b09","bdp_rd","Sun Apr 02 2023 11:47:06 GMT-0500 (Central Daylight Time)","298442","","1527","","","","offer","","<div class='trialBorder'><div class='vertical-center'><img style='vertical-align:center; align:center' src=img/fixation3.jpg></div><div class='cl'><div class='vertical-center'>$11<br>for<br>sure</div></div><div class='cr'><div class='vertical-center'>$26<br>with a<br>50% chance</div></div><div class='respDivL'><div class='vertical-center'>(E)</div></div><div class='respDivR'><div class='vertical-center'>(I)</div></div></div>","I","$11","$26","0","11","26","RISKY"
"html-keyboard-response","141","264472","0.0-5.0-3.45","5ee71ce25f11c84a3e909b09","bdp_rd","Sun Apr 02 2023 11:47:06 GMT-0500 (Central Daylight Time)","298442","","null","","","","offerFB","","<div class='trialBorder'><div class='vertical-center'><img style='vertical-align:center; align:center' src=img/fixation3.jpg></div><div class='cl'><div class='vertical-center'>$11<br>for<br>sure</div></div><div class='cr'><div class='vertical-center'><font style='color:orange'>$26<br>with a<br>50% chance</font></div></div><div class='respDivL'><div class='vertical-center'>(E)</div></div><div class='respDivR'><div class='vertical-center'><font style='color:orange'>(I)</font></div></div></div>","null","$11","$26","0","11","26",""
"html-keyboard-response","142","264975","0.0-5.0-1.46","5ee71ce25f11c84a3e909b09","bdp_rd","Sun Apr 02 2023 11:47:06 GMT-0500 (Central Daylight Time)","298442","","null","","","","FIX","","<div class='trialBorder'><div class='vertical-center'><img style='vertical-align:center; align:center' src=img/fixation3.jpg></div></div>","null","","","","","",""
"html-keyboard-response","143","266947","0.0-5.0-2.46","5ee71ce25f11c84a3e909b09","bdp_rd","Sun Apr 02 2023 11:47:06 GMT-0500 (Central Daylight Time)","298442","","1970","","","","offer","","<div class='trialBorder'><div class='vertical-center'><img style='vertical-align:center; align:center' src=img/fixation3.jpg></div><div class='cl'><div class='vertical-center'>$10<br>for<br>sure</div></div><div class='cr'><div class='vertical-center'>$19<br>with a<br>50% chance</div></div><div class='respDivL'><div class='vertical-center'>(E)</div></div><div class='respDivR'><div class='vertical-center'>(I)</div></div></div>","E","$10","$19","0","10","19","SURE"
"html-keyboard-response","144","267200","0.0-5.0-3.46","5ee71ce25f11c84a3e909b09","bdp_rd","Sun Apr 02 2023 11:47:06 GMT-0500 (Central Daylight Time)","298442","","null","","","","offerFB","","<div class='trialBorder'><div class='vertical-center'><img style='vertical-align:center; align:center' src=img/fixation3.jpg></div><div class='cl'><div class='vertical-center'><font style='color:orange'>$10<br>for<br>sure</font></div></div><div class='cr'><div class='vertical-center'>$19<br>with a<br>50% chance</div></div><div class='respDivL'><div class='vertical-center'><font style='color:orange'>(E)</font></div></div><div class='respDivR'><div class='vertical-center'>(I)</div></div></div>","null","$10","$19","0","10","19",""
"html-keyboard-response","145","267704","0.0-5.0-1.47","5ee71ce25f11c84a3e909b09","bdp_rd","Sun Apr 02 2023 11:47:06 GMT-0500 (Central Daylight Time)","298442","","null","","","","FIX","","<div class='trialBorder'><div class='vertical-center'><img style='vertical-align:center; align:center' src=img/fixation3.jpg></div></div>","null","","","","","",""
"html-keyboard-response","146","269518","0.0-5.0-2.47","5ee71ce25f11c84a3e909b09","bdp_rd","Sun Apr 02 2023 11:47:06 GMT-0500 (Central Daylight Time)","298442","","1813","","","","offer","","<div class='trialBorder'><div class='vertical-center'><img style='vertical-align:center; align:center' src=img/fixation3.jpg></div><div class='cl'><div class='vertical-center'>$12<br>with a<br>50% chance</div></div><div class='cr'><div class='vertical-center'>$3<br>for<br>sure</div></div><div class='respDivL'><div class='vertical-center'>(E)</div></div><div class='respDivR'><div class='vertical-center'>(I)</div></div></div>","E","$3","$12","1","3","12","RISKY"
"html-keyboard-response","147","269771","0.0-5.0-3.47","5ee71ce25f11c84a3e909b09","bdp_rd","Sun Apr 02 2023 11:47:06 GMT-0500 (Central Daylight Time)","298442","","null","","","","offerFB","","<div class='trialBorder'><div class='vertical-center'><img style='vertical-align:center; align:center' src=img/fixation3.jpg></div><div class='cl'><div class='vertical-center'><font style='color:orange'>$12<br>with a<br>50% chance</font></div></div><div class='cr'><div class='vertical-center'>$3<br>for<br>sure</div></div><div class='respDivL'><div class='vertical-center'><font style='color:orange'>(E)</font></div></div><div class='respDivR'><div class='vertical-center'>(I)</div></div></div>","null","$3","$12","1","3","12",""
"html-keyboard-response","148","270277","0.0-5.0-1.48","5ee71ce25f11c84a3e909b09","bdp_rd","Sun Apr 02 2023 11:47:06 GMT-0500 (Central Daylight Time)","298442","","null","","","","FIX","","<div class='trialBorder'><div class='vertical-center'><img style='vertical-align:center; align:center' src=img/fixation3.jpg></div></div>","null","","","","","",""
"html-keyboard-response","149","270927","0.0-5.0-2.48","5ee71ce25f11c84a3e909b09","bdp_rd","Sun Apr 02 2023 11:47:06 GMT-0500 (Central Daylight Time)","298442","","650","","","","offer","","<div class='trialBorder'><div class='vertical-center'><img style='vertical-align:center; align:center' src=img/fixation3.jpg></div><div class='cl'><div class='vertical-center'>$2<br>for<br>sure</div></div><div class='cr'><div class='vertical-center'>$64<br>with a<br>50% chance</div></div><div class='respDivL'><div class='vertical-center'>(E)</div></div><div class='respDivR'><div class='vertical-center'>(I)</div></div></div>","I","$2","$64","0","2","64","RISKY"
"html-keyboard-response","150","271181","0.0-5.0-3.48","5ee71ce25f11c84a3e909b09","bdp_rd","Sun Apr 02 2023 11:47:06 GMT-0500 (Central Daylight Time)","298442","","null","","","","offerFB","","<div class='trialBorder'><div class='vertical-center'><img style='vertical-align:center; align:center' src=img/fixation3.jpg></div><div class='cl'><div class='vertical-center'>$2<br>for<br>sure</div></div><div class='cr'><div class='vertical-center'><font style='color:orange'>$64<br>with a<br>50% chance</font></div></div><div class='respDivL'><div class='vertical-center'>(E)</div></div><div class='respDivR'><div class='vertical-center'><font style='color:orange'>(I)</font></div></div></div>","null","$2","$64","0","2","64",""
"html-keyboard-response","151","271686","0.0-5.0-1.49","5ee71ce25f11c84a3e909b09","bdp_rd","Sun Apr 02 2023 11:47:06 GMT-0500 (Central Daylight Time)","298442","","null","","","","FIX","","<div class='trialBorder'><div class='vertical-center'><img style='vertical-align:center; align:center' src=img/fixation3.jpg></div></div>","null","","","","","",""
"html-keyboard-response","152","273023","0.0-5.0-2.49","5ee71ce25f11c84a3e909b09","bdp_rd","Sun Apr 02 2023 11:47:06 GMT-0500 (Central Daylight Time)","298442","","1335","","","","offer","","<div class='trialBorder'><div class='vertical-center'><img style='vertical-align:center; align:center' src=img/fixation3.jpg></div><div class='cl'><div class='vertical-center'>$22<br>with a<br>50% chance</div></div><div class='cr'><div class='vertical-center'>$14<br>for<br>sure</div></div><div class='respDivL'><div class='vertical-center'>(E)</div></div><div class='respDivR'><div class='vertical-center'>(I)</div></div></div>","E","$14","$22","1","14","22","RISKY"
"html-keyboard-response","153","273278","0.0-5.0-3.49","5ee71ce25f11c84a3e909b09","bdp_rd","Sun Apr 02 2023 11:47:06 GMT-0500 (Central Daylight Time)","298442","","null","","","","offerFB","","<div class='trialBorder'><div class='vertical-center'><img style='vertical-align:center; align:center' src=img/fixation3.jpg></div><div class='cl'><div class='vertical-center'><font style='color:orange'>$22<br>with a<br>50% chance</font></div></div><div class='cr'><div class='vertical-center'>$14<br>for<br>sure</div></div><div class='respDivL'><div class='vertical-center'><font style='color:orange'>(E)</font></div></div><div class='respDivR'><div class='vertical-center'>(I)</div></div></div>","null","$14","$22","1","14","22",""
"html-keyboard-response","154","273782","0.0-5.0-1.50","5ee71ce25f11c84a3e909b09","bdp_rd","Sun Apr 02 2023 11:47:06 GMT-0500 (Central Daylight Time)","298442","","null","","","","FIX","","<div class='trialBorder'><div class='vertical-center'><img style='vertical-align:center; align:center' src=img/fixation3.jpg></div></div>","null","","","","","",""
"html-keyboard-response","155","274540","0.0-5.0-2.50","5ee71ce25f11c84a3e909b09","bdp_rd","Sun Apr 02 2023 11:47:06 GMT-0500 (Central Daylight Time)","298442","","756","","","","offer","","<div class='trialBorder'><div class='vertical-center'><img style='vertical-align:center; align:center' src=img/fixation3.jpg></div><div class='cl'><div class='vertical-center'>$71<br>with a<br>50% chance</div></div><div class='cr'><div class='vertical-center'>$7<br>for<br>sure</div></div><div class='respDivL'><div class='vertical-center'>(E)</div></div><div class='respDivR'><div class='vertical-center'>(I)</div></div></div>","E","$7","$71","1","7","71","RISKY"
"html-keyboard-response","156","274794","0.0-5.0-3.50","5ee71ce25f11c84a3e909b09","bdp_rd","Sun Apr 02 2023 11:47:06 GMT-0500 (Central Daylight Time)","298442","","null","","","","offerFB","","<div class='trialBorder'><div class='vertical-center'><img style='vertical-align:center; align:center' src=img/fixation3.jpg></div><div class='cl'><div class='vertical-center'><font style='color:orange'>$71<br>with a<br>50% chance</font></div></div><div class='cr'><div class='vertical-center'>$7<br>for<br>sure</div></div><div class='respDivL'><div class='vertical-center'><font style='color:orange'>(E)</font></div></div><div class='respDivR'><div class='vertical-center'>(I)</div></div></div>","null","$7","$71","1","7","71",""
"html-keyboard-response","157","275299","0.0-5.0-1.51","5ee71ce25f11c84a3e909b09","bdp_rd","Sun Apr 02 2023 11:47:06 GMT-0500 (Central Daylight Time)","298442","","null","","","","FIX","","<div class='trialBorder'><div class='vertical-center'><img style='vertical-align:center; align:center' src=img/fixation3.jpg></div></div>","null","","","","","",""
"html-keyboard-response","158","277070","0.0-5.0-2.51","5ee71ce25f11c84a3e909b09","bdp_rd","Sun Apr 02 2023 11:47:06 GMT-0500 (Central Daylight Time)","298442","","1770","","","","offer","","<div class='trialBorder'><div class='vertical-center'><img style='vertical-align:center; align:center' src=img/fixation3.jpg></div><div class='cl'><div class='vertical-center'>$69<br>with a<br>50% chance</div></div><div class='cr'><div class='vertical-center'>$58<br>for<br>sure</div></div><div class='respDivL'><div class='vertical-center'>(E)</div></div><div class='respDivR'><div class='vertical-center'>(I)</div></div></div>","I","$58","$69","1","58","69","SURE"
"html-keyboard-response","159","277323","0.0-5.0-3.51","5ee71ce25f11c84a3e909b09","bdp_rd","Sun Apr 02 2023 11:47:06 GMT-0500 (Central Daylight Time)","298442","","null","","","","offerFB","","<div class='trialBorder'><div class='vertical-center'><img style='vertical-align:center; align:center' src=img/fixation3.jpg></div><div class='cl'><div class='vertical-center'>$69<br>with a<br>50% chance</div></div><div class='cr'><div class='vertical-center'><font style='color:orange'>$58<br>for<br>sure</font></div></div><div class='respDivL'><div class='vertical-center'>(E)</div></div><div class='respDivR'><div class='vertical-center'><font style='color:orange'>(I)</font></div></div></div>","null","$58","$69","1","58","69",""
"html-keyboard-response","160","277827","0.0-5.0-1.52","5ee71ce25f11c84a3e909b09","bdp_rd","Sun Apr 02 2023 11:47:06 GMT-0500 (Central Daylight Time)","298442","","null","","","","FIX","","<div class='trialBorder'><div class='vertical-center'><img style='vertical-align:center; align:center' src=img/fixation3.jpg></div></div>","null","","","","","",""
"html-keyboard-response","161","279047","0.0-5.0-2.52","5ee71ce25f11c84a3e909b09","bdp_rd","Sun Apr 02 2023 11:47:06 GMT-0500 (Central Daylight Time)","298442","","1219","","","","offer","","<div class='trialBorder'><div class='vertical-center'><img style='vertical-align:center; align:center' src=img/fixation3.jpg></div><div class='cl'><div class='vertical-center'>$4<br>for<br>sure</div></div><div class='cr'><div class='vertical-center'>$11<br>with a<br>50% chance</div></div><div class='respDivL'><div class='vertical-center'>(E)</div></div><div class='respDivR'><div class='vertical-center'>(I)</div></div></div>","I","$4","$11","0","4","11","RISKY"
"html-keyboard-response","162","279303","0.0-5.0-3.52","5ee71ce25f11c84a3e909b09","bdp_rd","Sun Apr 02 2023 11:47:06 GMT-0500 (Central Daylight Time)","298442","","null","","","","offerFB","","<div class='trialBorder'><div class='vertical-center'><img style='vertical-align:center; align:center' src=img/fixation3.jpg></div><div class='cl'><div class='vertical-center'>$4<br>for<br>sure</div></div><div class='cr'><div class='vertical-center'><font style='color:orange'>$11<br>with a<br>50% chance</font></div></div><div class='respDivL'><div class='vertical-center'>(E)</div></div><div class='respDivR'><div class='vertical-center'><font style='color:orange'>(I)</font></div></div></div>","null","$4","$11","0","4","11",""
"html-keyboard-response","163","279807","0.0-5.0-1.53","5ee71ce25f11c84a3e909b09","bdp_rd","Sun Apr 02 2023 11:47:06 GMT-0500 (Central Daylight Time)","298442","","null","","","","FIX","","<div class='trialBorder'><div class='vertical-center'><img style='vertical-align:center; align:center' src=img/fixation3.jpg></div></div>","null","","","","","",""
"html-keyboard-response","164","280492","0.0-5.0-2.53","5ee71ce25f11c84a3e909b09","bdp_rd","Sun Apr 02 2023 11:47:06 GMT-0500 (Central Daylight Time)","298442","","682","","","","offer","","<div class='trialBorder'><div class='vertical-center'><img style='vertical-align:center; align:center' src=img/fixation3.jpg></div><div class='cl'><div class='vertical-center'>$16<br>for<br>sure</div></div><div class='cr'><div class='vertical-center'>$38<br>with a<br>50% chance</div></div><div class='respDivL'><div class='vertical-center'>(E)</div></div><div class='respDivR'><div class='vertical-center'>(I)</div></div></div>","I","$16","$38","0","16","38","RISKY"
"html-keyboard-response","165","280747","0.0-5.0-3.53","5ee71ce25f11c84a3e909b09","bdp_rd","Sun Apr 02 2023 11:47:06 GMT-0500 (Central Daylight Time)","298442","","null","","","","offerFB","","<div class='trialBorder'><div class='vertical-center'><img style='vertical-align:center; align:center' src=img/fixation3.jpg></div><div class='cl'><div class='vertical-center'>$16<br>for<br>sure</div></div><div class='cr'><div class='vertical-center'><font style='color:orange'>$38<br>with a<br>50% chance</font></div></div><div class='respDivL'><div class='vertical-center'>(E)</div></div><div class='respDivR'><div class='vertical-center'><font style='color:orange'>(I)</font></div></div></div>","null","$16","$38","0","16","38",""
"html-keyboard-response","166","281250","0.0-5.0-1.54","5ee71ce25f11c84a3e909b09","bdp_rd","Sun Apr 02 2023 11:47:06 GMT-0500 (Central Daylight Time)","298442","","null","","","","FIX","","<div class='trialBorder'><div class='vertical-center'><img style='vertical-align:center; align:center' src=img/fixation3.jpg></div></div>","null","","","","","",""
"html-keyboard-response","167","282196","0.0-5.0-2.54","5ee71ce25f11c84a3e909b09","bdp_rd","Sun Apr 02 2023 11:47:06 GMT-0500 (Central Daylight Time)","298442","","945","","","","offer","","<div class='trialBorder'><div class='vertical-center'><img style='vertical-align:center; align:center' src=img/fixation3.jpg></div><div class='cl'><div class='vertical-center'>$9<br>for<br>sure</div></div><div class='cr'><div class='vertical-center'>$18<br>with a<br>50% chance</div></div><div class='respDivL'><div class='vertical-center'>(E)</div></div><div class='respDivR'><div class='vertical-center'>(I)</div></div></div>","I","$9","$18","0","9","18","RISKY"
"html-keyboard-response","168","282451","0.0-5.0-3.54","5ee71ce25f11c84a3e909b09","bdp_rd","Sun Apr 02 2023 11:47:06 GMT-0500 (Central Daylight Time)","298442","","null","","","","offerFB","","<div class='trialBorder'><div class='vertical-center'><img style='vertical-align:center; align:center' src=img/fixation3.jpg></div><div class='cl'><div class='vertical-center'>$9<br>for<br>sure</div></div><div class='cr'><div class='vertical-center'><font style='color:orange'>$18<br>with a<br>50% chance</font></div></div><div class='respDivL'><div class='vertical-center'>(E)</div></div><div class='respDivR'><div class='vertical-center'><font style='color:orange'>(I)</font></div></div></div>","null","$9","$18","0","9","18",""
"html-keyboard-response","169","282954","0.0-5.0-1.55","5ee71ce25f11c84a3e909b09","bdp_rd","Sun Apr 02 2023 11:47:06 GMT-0500 (Central Daylight Time)","298442","","null","","","","FIX","","<div class='trialBorder'><div class='vertical-center'><img style='vertical-align:center; align:center' src=img/fixation3.jpg></div></div>","null","","","","","",""
"html-keyboard-response","170","284228","0.0-5.0-2.55","5ee71ce25f11c84a3e909b09","bdp_rd","Sun Apr 02 2023 11:47:06 GMT-0500 (Central Daylight Time)","298442","","1273","","","","offer","","<div class='trialBorder'><div class='vertical-center'><img style='vertical-align:center; align:center' src=img/fixation3.jpg></div><div class='cl'><div class='vertical-center'>$24<br>with a<br>50% chance</div></div><div class='cr'><div class='vertical-center'>$13<br>for<br>sure</div></div><div class='respDivL'><div class='vertical-center'>(E)</div></div><div class='respDivR'><div class='vertical-center'>(I)</div></div></div>","I","$13","$24","1","13","24","SURE"
"html-keyboard-response","171","284482","0.0-5.0-3.55","5ee71ce25f11c84a3e909b09","bdp_rd","Sun Apr 02 2023 11:47:06 GMT-0500 (Central Daylight Time)","298442","","null","","","","offerFB","","<div class='trialBorder'><div class='vertical-center'><img style='vertical-align:center; align:center' src=img/fixation3.jpg></div><div class='cl'><div class='vertical-center'>$24<br>with a<br>50% chance</div></div><div class='cr'><div class='vertical-center'><font style='color:orange'>$13<br>for<br>sure</font></div></div><div class='respDivL'><div class='vertical-center'>(E)</div></div><div class='respDivR'><div class='vertical-center'><font style='color:orange'>(I)</font></div></div></div>","null","$13","$24","1","13","24",""
"html-keyboard-response","172","284986","0.0-5.0-1.56","5ee71ce25f11c84a3e909b09","bdp_rd","Sun Apr 02 2023 11:47:06 GMT-0500 (Central Daylight Time)","298442","","null","","","","FIX","","<div class='trialBorder'><div class='vertical-center'><img style='vertical-align:center; align:center' src=img/fixation3.jpg></div></div>","null","","","","","",""
"html-keyboard-response","173","286114","0.0-5.0-2.56","5ee71ce25f11c84a3e909b09","bdp_rd","Sun Apr 02 2023 11:47:06 GMT-0500 (Central Daylight Time)","298442","","1127","","","","offer","","<div class='trialBorder'><div class='vertical-center'><img style='vertical-align:center; align:center' src=img/fixation3.jpg></div><div class='cl'><div class='vertical-center'>$31<br>for<br>sure</div></div><div class='cr'><div class='vertical-center'>$78<br>with a<br>50% chance</div></div><div class='respDivL'><div class='vertical-center'>(E)</div></div><div class='respDivR'><div class='vertical-center'>(I)</div></div></div>","I","$31","$78","0","31","78","RISKY"
