"trial_type","trial_index","time_elapsed","internal_node_id","subject_id","task","startTime","totalTime","view_history","rt","event","trial","time","trialtype","success","stimulus","key_press","sureOffer","riskyOffer","riskyLeft","sureAmt","riskyAmt","chosen"
"pavlovia","0","3","0.0-0.0","63d420b1d5b7dc6a3a4c50aa","bdp_rd","Mon Mar 27 2023 16:20:19 GMT-0400 (Eastern Daylight Time)","158239","","","","","","","","","","","","","","",""
"instructions","1","1332","0.0-1.0","63d420b1d5b7dc6a3a4c50aa","bdp_rd","Mon Mar 27 2023 16:20:19 GMT-0400 (Eastern Daylight Time)","158239","[{""page_index"":0,""viewing_time"":1328}]","1328","","","","","","","","","","","","",""
"","","","","63d420b1d5b7dc6a3a4c50aa","bdp_rd","Mon Mar 27 2023 16:20:19 GMT-0400 (Eastern Daylight Time)","158239","","","fullscreenenter","2","3828","fullscreenenter","","","","","","","","",""
"fullscreen","2","4798","0.0-2.0","63d420b1d5b7dc6a3a4c50aa","bdp_rd","Mon Mar 27 2023 16:20:19 GMT-0400 (Eastern Daylight Time)","158239","","","","","","","true","","","","","","","",""
"instructions","3","22763","0.0-4.0","63d420b1d5b7dc6a3a4c50aa","bdp_rd","Mon Mar 27 2023 16:20:19 GMT-0400 (Eastern Daylight Time)","158239","[{""page_index"":0,""viewing_time"":13804},{""page_index"":1,""viewing_time"":2523},{""page_index"":2,""viewing_time"":1637}]","17964","","","","","","","","","","","","",""
"html-keyboard-response","4","23266","0.0-5.0-1.0","63d420b1d5b7dc6a3a4c50aa","bdp_rd","Mon Mar 27 2023 16:20:19 GMT-0400 (Eastern Daylight Time)","158239","","null","","","","FIX","","<div class='trialBorder'><div class='vertical-center'><img style='vertical-align:center; align:center' src=img/fixation3.jpg></div></div>","null","","","","","",""
"html-keyboard-response","5","25435","0.0-5.0-2.0","63d420b1d5b7dc6a3a4c50aa","bdp_rd","Mon Mar 27 2023 16:20:19 GMT-0400 (Eastern Daylight Time)","158239","","2168","","","","offer","","<div class='trialBorder'><div class='vertical-center'><img style='vertical-align:center; align:center' src=img/fixation3.jpg></div><div class='cl'><div class='vertical-center'>$13<br>for<br>sure</div></div><div class='cr'><div class='vertical-center'>$24<br>with a<br>50% chance</div></div><div class='respDivL'><div class='vertical-center'>(E)</div></div><div class='respDivR'><div class='vertical-center'>(I)</div></div></div>","E","$13","$24","0","13","24","SURE"
"html-keyboard-response","6","25688","0.0-5.0-3.0","63d420b1d5b7dc6a3a4c50aa","bdp_rd","Mon Mar 27 2023 16:20:19 GMT-0400 (Eastern Daylight Time)","158239","","null","","","","offerFB","","<div class='trialBorder'><div class='vertical-center'><img style='vertical-align:center; align:center' src=img/fixation3.jpg></div><div class='cl'><div class='vertical-center'><font style='color:orange'>$13<br>for<br>sure</font></div></div><div class='cr'><div class='vertical-center'>$24<br>with a<br>50% chance</div></div><div class='respDivL'><div class='vertical-center'><font style='color:orange'>(E)</font></div></div><div class='respDivR'><div class='vertical-center'>(I)</div></div></div>","null","$13","$24","0","13","24",""
"html-keyboard-response","7","26189","0.0-5.0-1.1","63d420b1d5b7dc6a3a4c50aa","bdp_rd","Mon Mar 27 2023 16:20:19 GMT-0400 (Eastern Daylight Time)","158239","","null","","","","FIX","","<div class='trialBorder'><div class='vertical-center'><img style='vertical-align:center; align:center' src=img/fixation3.jpg></div></div>","null","","","","","",""
"html-keyboard-response","8","27445","0.0-5.0-2.1","63d420b1d5b7dc6a3a4c50aa","bdp_rd","Mon Mar 27 2023 16:20:19 GMT-0400 (Eastern Daylight Time)","158239","","1255","","","","offer","","<div class='trialBorder'><div class='vertical-center'><img style='vertical-align:center; align:center' src=img/fixation3.jpg></div><div class='cl'><div class='vertical-center'>$10<br>for<br>sure</div></div><div class='cr'><div class='vertical-center'>$40<br>with a<br>50% chance</div></div><div class='respDivL'><div class='vertical-center'>(E)</div></div><div class='respDivR'><div class='vertical-center'>(I)</div></div></div>","E","$10","$40","0","10","40","SURE"
"html-keyboard-response","9","27697","0.0-5.0-3.1","63d420b1d5b7dc6a3a4c50aa","bdp_rd","Mon Mar 27 2023 16:20:19 GMT-0400 (Eastern Daylight Time)","158239","","null","","","","offerFB","","<div class='trialBorder'><div class='vertical-center'><img style='vertical-align:center; align:center' src=img/fixation3.jpg></div><div class='cl'><div class='vertical-center'><font style='color:orange'>$10<br>for<br>sure</font></div></div><div class='cr'><div class='vertical-center'>$40<br>with a<br>50% chance</div></div><div class='respDivL'><div class='vertical-center'><font style='color:orange'>(E)</font></div></div><div class='respDivR'><div class='vertical-center'>(I)</div></div></div>","null","$10","$40","0","10","40",""
"html-keyboard-response","10","28198","0.0-5.0-1.2","63d420b1d5b7dc6a3a4c50aa","bdp_rd","Mon Mar 27 2023 16:20:19 GMT-0400 (Eastern Daylight Time)","158239","","null","","","","FIX","","<div class='trialBorder'><div class='vertical-center'><img style='vertical-align:center; align:center' src=img/fixation3.jpg></div></div>","null","","","","","",""
"html-keyboard-response","11","30226","0.0-5.0-2.2","63d420b1d5b7dc6a3a4c50aa","bdp_rd","Mon Mar 27 2023 16:20:19 GMT-0400 (Eastern Daylight Time)","158239","","2027","","","","offer","","<div class='trialBorder'><div class='vertical-center'><img style='vertical-align:center; align:center' src=img/fixation3.jpg></div><div class='cl'><div class='vertical-center'>$31<br>with a<br>50% chance</div></div><div class='cr'><div class='vertical-center'>$15<br>for<br>sure</div></div><div class='respDivL'><div class='vertical-center'>(E)</div></div><div class='respDivR'><div class='vertical-center'>(I)</div></div></div>","I","$15","$31","1","15","31","SURE"
"html-keyboard-response","12","30477","0.0-5.0-3.2","63d420b1d5b7dc6a3a4c50aa","bdp_rd","Mon Mar 27 2023 16:20:19 GMT-0400 (Eastern Daylight Time)","158239","","null","","","","offerFB","","<div class='trialBorder'><div class='vertical-center'><img style='vertical-align:center; align:center' src=img/fixation3.jpg></div><div class='cl'><div class='vertical-center'>$31<br>with a<br>50% chance</div></div><div class='cr'><div class='vertical-center'><font style='color:orange'>$15<br>for<br>sure</font></div></div><div class='respDivL'><div class='vertical-center'>(E)</div></div><div class='respDivR'><div class='vertical-center'><font style='color:orange'>(I)</font></div></div></div>","null","$15","$31","1","15","31",""
"html-keyboard-response","13","30980","0.0-5.0-1.3","63d420b1d5b7dc6a3a4c50aa","bdp_rd","Mon Mar 27 2023 16:20:19 GMT-0400 (Eastern Daylight Time)","158239","","null","","","","FIX","","<div class='trialBorder'><div class='vertical-center'><img style='vertical-align:center; align:center' src=img/fixation3.jpg></div></div>","null","","","","","",""
"html-keyboard-response","14","32605","0.0-5.0-2.3","63d420b1d5b7dc6a3a4c50aa","bdp_rd","Mon Mar 27 2023 16:20:19 GMT-0400 (Eastern Daylight Time)","158239","","1624","","","","offer","","<div class='trialBorder'><div class='vertical-center'><img style='vertical-align:center; align:center' src=img/fixation3.jpg></div><div class='cl'><div class='vertical-center'>$23<br>with a<br>50% chance</div></div><div class='cr'><div class='vertical-center'>$8<br>for<br>sure</div></div><div class='respDivL'><div class='vertical-center'>(E)</div></div><div class='respDivR'><div class='vertical-center'>(I)</div></div></div>","I","$8","$23","1","8","23","SURE"
"html-keyboard-response","15","32857","0.0-5.0-3.3","63d420b1d5b7dc6a3a4c50aa","bdp_rd","Mon Mar 27 2023 16:20:19 GMT-0400 (Eastern Daylight Time)","158239","","null","","","","offerFB","","<div class='trialBorder'><div class='vertical-center'><img style='vertical-align:center; align:center' src=img/fixation3.jpg></div><div class='cl'><div class='vertical-center'>$23<br>with a<br>50% chance</div></div><div class='cr'><div class='vertical-center'><font style='color:orange'>$8<br>for<br>sure</font></div></div><div class='respDivL'><div class='vertical-center'>(E)</div></div><div class='respDivR'><div class='vertical-center'><font style='color:orange'>(I)</font></div></div></div>","null","$8","$23","1","8","23",""
"html-keyboard-response","16","33359","0.0-5.0-1.4","63d420b1d5b7dc6a3a4c50aa","bdp_rd","Mon Mar 27 2023 16:20:19 GMT-0400 (Eastern Daylight Time)","158239","","null","","","","FIX","","<div class='trialBorder'><div class='vertical-center'><img style='vertical-align:center; align:center' src=img/fixation3.jpg></div></div>","null","","","","","",""
"html-keyboard-response","17","34528","0.0-5.0-2.4","63d420b1d5b7dc6a3a4c50aa","bdp_rd","Mon Mar 27 2023 16:20:19 GMT-0400 (Eastern Daylight Time)","158239","","1168","","","","offer","","<div class='trialBorder'><div class='vertical-center'><img style='vertical-align:center; align:center' src=img/fixation3.jpg></div><div class='cl'><div class='vertical-center'>$28<br>for<br>sure</div></div><div class='cr'><div class='vertical-center'>$89<br>with a<br>50% chance</div></div><div class='respDivL'><div class='vertical-center'>(E)</div></div><div class='respDivR'><div class='vertical-center'>(I)</div></div></div>","E","$28","$89","0","28","89","SURE"
"html-keyboard-response","18","34780","0.0-5.0-3.4","63d420b1d5b7dc6a3a4c50aa","bdp_rd","Mon Mar 27 2023 16:20:19 GMT-0400 (Eastern Daylight Time)","158239","","null","","","","offerFB","","<div class='trialBorder'><div class='vertical-center'><img style='vertical-align:center; align:center' src=img/fixation3.jpg></div><div class='cl'><div class='vertical-center'><font style='color:orange'>$28<br>for<br>sure</font></div></div><div class='cr'><div class='vertical-center'>$89<br>with a<br>50% chance</div></div><div class='respDivL'><div class='vertical-center'><font style='color:orange'>(E)</font></div></div><div class='respDivR'><div class='vertical-center'>(I)</div></div></div>","null","$28","$89","0","28","89",""
"html-keyboard-response","19","35281","0.0-5.0-1.5","63d420b1d5b7dc6a3a4c50aa","bdp_rd","Mon Mar 27 2023 16:20:19 GMT-0400 (Eastern Daylight Time)","158239","","null","","","","FIX","","<div class='trialBorder'><div class='vertical-center'><img style='vertical-align:center; align:center' src=img/fixation3.jpg></div></div>","null","","","","","",""
"html-keyboard-response","20","36643","0.0-5.0-2.5","63d420b1d5b7dc6a3a4c50aa","bdp_rd","Mon Mar 27 2023 16:20:19 GMT-0400 (Eastern Daylight Time)","158239","","1359","","","","offer","","<div class='trialBorder'><div class='vertical-center'><img style='vertical-align:center; align:center' src=img/fixation3.jpg></div><div class='cl'><div class='vertical-center'>$15<br>with a<br>50% chance</div></div><div class='cr'><div class='vertical-center'>$6<br>for<br>sure</div></div><div class='respDivL'><div class='vertical-center'>(E)</div></div><div class='respDivR'><div class='vertical-center'>(I)</div></div></div>","I","$6","$15","1","6","15","SURE"
"html-keyboard-response","21","36894","0.0-5.0-3.5","63d420b1d5b7dc6a3a4c50aa","bdp_rd","Mon Mar 27 2023 16:20:19 GMT-0400 (Eastern Daylight Time)","158239","","null","","","","offerFB","","<div class='trialBorder'><div class='vertical-center'><img style='vertical-align:center; align:center' src=img/fixation3.jpg></div><div class='cl'><div class='vertical-center'>$15<br>with a<br>50% chance</div></div><div class='cr'><div class='vertical-center'><font style='color:orange'>$6<br>for<br>sure</font></div></div><div class='respDivL'><div class='vertical-center'>(E)</div></div><div class='respDivR'><div class='vertical-center'><font style='color:orange'>(I)</font></div></div></div>","null","$6","$15","1","6","15",""
"html-keyboard-response","22","37396","0.0-5.0-1.6","63d420b1d5b7dc6a3a4c50aa","bdp_rd","Mon Mar 27 2023 16:20:19 GMT-0400 (Eastern Daylight Time)","158239","","null","","","","FIX","","<div class='trialBorder'><div class='vertical-center'><img style='vertical-align:center; align:center' src=img/fixation3.jpg></div></div>","null","","","","","",""
"html-keyboard-response","23","38526","0.0-5.0-2.6","63d420b1d5b7dc6a3a4c50aa","bdp_rd","Mon Mar 27 2023 16:20:19 GMT-0400 (Eastern Daylight Time)","158239","","1128","","","","offer","","<div class='trialBorder'><div class='vertical-center'><img style='vertical-align:center; align:center' src=img/fixation3.jpg></div><div class='cl'><div class='vertical-center'>$18<br>with a<br>50% chance</div></div><div class='cr'><div class='vertical-center'>$9<br>for<br>sure</div></div><div class='respDivL'><div class='vertical-center'>(E)</div></div><div class='respDivR'><div class='vertical-center'>(I)</div></div></div>","I","$9","$18","1","9","18","SURE"
"html-keyboard-response","24","38777","0.0-5.0-3.6","63d420b1d5b7dc6a3a4c50aa","bdp_rd","Mon Mar 27 2023 16:20:19 GMT-0400 (Eastern Daylight Time)","158239","","null","","","","offerFB","","<div class='trialBorder'><div class='vertical-center'><img style='vertical-align:center; align:center' src=img/fixation3.jpg></div><div class='cl'><div class='vertical-center'>$18<br>with a<br>50% chance</div></div><div class='cr'><div class='vertical-center'><font style='color:orange'>$9<br>for<br>sure</font></div></div><div class='respDivL'><div class='vertical-center'>(E)</div></div><div class='respDivR'><div class='vertical-center'><font style='color:orange'>(I)</font></div></div></div>","null","$9","$18","1","9","18",""
"html-keyboard-response","25","39279","0.0-5.0-1.7","63d420b1d5b7dc6a3a4c50aa","bdp_rd","Mon Mar 27 2023 16:20:19 GMT-0400 (Eastern Daylight Time)","158239","","null","","","","FIX","","<div class='trialBorder'><div class='vertical-center'><img style='vertical-align:center; align:center' src=img/fixation3.jpg></div></div>","null","","","","","",""
"html-keyboard-response","26","41689","0.0-5.0-2.7","63d420b1d5b7dc6a3a4c50aa","bdp_rd","Mon Mar 27 2023 16:20:19 GMT-0400 (Eastern Daylight Time)","158239","","2409","","","","offer","","<div class='trialBorder'><div class='vertical-center'><img style='vertical-align:center; align:center' src=img/fixation3.jpg></div><div class='cl'><div class='vertical-center'>$71<br>with a<br>50% chance</div></div><div class='cr'><div class='vertical-center'>$7<br>for<br>sure</div></div><div class='respDivL'><div class='vertical-center'>(E)</div></div><div class='respDivR'><div class='vertical-center'>(I)</div></div></div>","E","$7","$71","1","7","71","RISKY"
"html-keyboard-response","27","41941","0.0-5.0-3.7","63d420b1d5b7dc6a3a4c50aa","bdp_rd","Mon Mar 27 2023 16:20:19 GMT-0400 (Eastern Daylight Time)","158239","","null","","","","offerFB","","<div class='trialBorder'><div class='vertical-center'><img style='vertical-align:center; align:center' src=img/fixation3.jpg></div><div class='cl'><div class='vertical-center'><font style='color:orange'>$71<br>with a<br>50% chance</font></div></div><div class='cr'><div class='vertical-center'>$7<br>for<br>sure</div></div><div class='respDivL'><div class='vertical-center'><font style='color:orange'>(E)</font></div></div><div class='respDivR'><div class='vertical-center'>(I)</div></div></div>","null","$7","$71","1","7","71",""
"html-keyboard-response","28","42442","0.0-5.0-1.8","63d420b1d5b7dc6a3a4c50aa","bdp_rd","Mon Mar 27 2023 16:20:19 GMT-0400 (Eastern Daylight Time)","158239","","null","","","","FIX","","<div class='trialBorder'><div class='vertical-center'><img style='vertical-align:center; align:center' src=img/fixation3.jpg></div></div>","null","","","","","",""
"html-keyboard-response","29","43693","0.0-5.0-2.8","63d420b1d5b7dc6a3a4c50aa","bdp_rd","Mon Mar 27 2023 16:20:19 GMT-0400 (Eastern Daylight Time)","158239","","1250","","","","offer","","<div class='trialBorder'><div class='vertical-center'><img style='vertical-align:center; align:center' src=img/fixation3.jpg></div><div class='cl'><div class='vertical-center'>$37<br>for<br>sure</div></div><div class='cr'><div class='vertical-center'>$44<br>with a<br>50% chance</div></div><div class='respDivL'><div class='vertical-center'>(E)</div></div><div class='respDivR'><div class='vertical-center'>(I)</div></div></div>","E","$37","$44","0","37","44","SURE"
"html-keyboard-response","30","43945","0.0-5.0-3.8","63d420b1d5b7dc6a3a4c50aa","bdp_rd","Mon Mar 27 2023 16:20:19 GMT-0400 (Eastern Daylight Time)","158239","","null","","","","offerFB","","<div class='trialBorder'><div class='vertical-center'><img style='vertical-align:center; align:center' src=img/fixation3.jpg></div><div class='cl'><div class='vertical-center'><font style='color:orange'>$37<br>for<br>sure</font></div></div><div class='cr'><div class='vertical-center'>$44<br>with a<br>50% chance</div></div><div class='respDivL'><div class='vertical-center'><font style='color:orange'>(E)</font></div></div><div class='respDivR'><div class='vertical-center'>(I)</div></div></div>","null","$37","$44","0","37","44",""
"html-keyboard-response","31","44446","0.0-5.0-1.9","63d420b1d5b7dc6a3a4c50aa","bdp_rd","Mon Mar 27 2023 16:20:19 GMT-0400 (Eastern Daylight Time)","158239","","null","","","","FIX","","<div class='trialBorder'><div class='vertical-center'><img style='vertical-align:center; align:center' src=img/fixation3.jpg></div></div>","null","","","","","",""
"html-keyboard-response","32","45835","0.0-5.0-2.9","63d420b1d5b7dc6a3a4c50aa","bdp_rd","Mon Mar 27 2023 16:20:19 GMT-0400 (Eastern Daylight Time)","158239","","1387","","","","offer","","<div class='trialBorder'><div class='vertical-center'><img style='vertical-align:center; align:center' src=img/fixation3.jpg></div><div class='cl'><div class='vertical-center'>$4<br>for<br>sure</div></div><div class='cr'><div class='vertical-center'>$11<br>with a<br>50% chance</div></div><div class='respDivL'><div class='vertical-center'>(E)</div></div><div class='respDivR'><div class='vertical-center'>(I)</div></div></div>","E","$4","$11","0","4","11","SURE"
"html-keyboard-response","33","46087","0.0-5.0-3.9","63d420b1d5b7dc6a3a4c50aa","bdp_rd","Mon Mar 27 2023 16:20:19 GMT-0400 (Eastern Daylight Time)","158239","","null","","","","offerFB","","<div class='trialBorder'><div class='vertical-center'><img style='vertical-align:center; align:center' src=img/fixation3.jpg></div><div class='cl'><div class='vertical-center'><font style='color:orange'>$4<br>for<br>sure</font></div></div><div class='cr'><div class='vertical-center'>$11<br>with a<br>50% chance</div></div><div class='respDivL'><div class='vertical-center'><font style='color:orange'>(E)</font></div></div><div class='respDivR'><div class='vertical-center'>(I)</div></div></div>","null","$4","$11","0","4","11",""
"html-keyboard-response","34","46589","0.0-5.0-1.10","63d420b1d5b7dc6a3a4c50aa","bdp_rd","Mon Mar 27 2023 16:20:19 GMT-0400 (Eastern Daylight Time)","158239","","null","","","","FIX","","<div class='trialBorder'><div class='vertical-center'><img style='vertical-align:center; align:center' src=img/fixation3.jpg></div></div>","null","","","","","",""
"html-keyboard-response","35","48076","0.0-5.0-2.10","63d420b1d5b7dc6a3a4c50aa","bdp_rd","Mon Mar 27 2023 16:20:19 GMT-0400 (Eastern Daylight Time)","158239","","1485","","","","offer","","<div class='trialBorder'><div class='vertical-center'><img style='vertical-align:center; align:center' src=img/fixation3.jpg></div><div class='cl'><div class='vertical-center'>$48<br>with a<br>50% chance</div></div><div class='cr'><div class='vertical-center'>$34<br>for<br>sure</div></div><div class='respDivL'><div class='vertical-center'>(E)</div></div><div class='respDivR'><div class='vertical-center'>(I)</div></div></div>","I","$34","$48","1","34","48","SURE"
"html-keyboard-response","36","48328","0.0-5.0-3.10","63d420b1d5b7dc6a3a4c50aa","bdp_rd","Mon Mar 27 2023 16:20:19 GMT-0400 (Eastern Daylight Time)","158239","","null","","","","offerFB","","<div class='trialBorder'><div class='vertical-center'><img style='vertical-align:center; align:center' src=img/fixation3.jpg></div><div class='cl'><div class='vertical-center'>$48<br>with a<br>50% chance</div></div><div class='cr'><div class='vertical-center'><font style='color:orange'>$34<br>for<br>sure</font></div></div><div class='respDivL'><div class='vertical-center'>(E)</div></div><div class='respDivR'><div class='vertical-center'><font style='color:orange'>(I)</font></div></div></div>","null","$34","$48","1","34","48",""
"html-keyboard-response","37","48831","0.0-5.0-1.11","63d420b1d5b7dc6a3a4c50aa","bdp_rd","Mon Mar 27 2023 16:20:19 GMT-0400 (Eastern Daylight Time)","158239","","null","","","","FIX","","<div class='trialBorder'><div class='vertical-center'><img style='vertical-align:center; align:center' src=img/fixation3.jpg></div></div>","null","","","","","",""
"html-keyboard-response","38","50305","0.0-5.0-2.11","63d420b1d5b7dc6a3a4c50aa","bdp_rd","Mon Mar 27 2023 16:20:19 GMT-0400 (Eastern Daylight Time)","158239","","1474","","","","offer","","<div class='trialBorder'><div class='vertical-center'><img style='vertical-align:center; align:center' src=img/fixation3.jpg></div><div class='cl'><div class='vertical-center'>$33<br>for<br>sure</div></div><div class='cr'><div class='vertical-center'>$66<br>with a<br>50% chance</div></div><div class='respDivL'><div class='vertical-center'>(E)</div></div><div class='respDivR'><div class='vertical-center'>(I)</div></div></div>","E","$33","$66","0","33","66","SURE"
"html-keyboard-response","39","50558","0.0-5.0-3.11","63d420b1d5b7dc6a3a4c50aa","bdp_rd","Mon Mar 27 2023 16:20:19 GMT-0400 (Eastern Daylight Time)","158239","","null","","","","offerFB","","<div class='trialBorder'><div class='vertical-center'><img style='vertical-align:center; align:center' src=img/fixation3.jpg></div><div class='cl'><div class='vertical-center'><font style='color:orange'>$33<br>for<br>sure</font></div></div><div class='cr'><div class='vertical-center'>$66<br>with a<br>50% chance</div></div><div class='respDivL'><div class='vertical-center'><font style='color:orange'>(E)</font></div></div><div class='respDivR'><div class='vertical-center'>(I)</div></div></div>","null","$33","$66","0","33","66",""
"html-keyboard-response","40","51059","0.0-5.0-1.12","63d420b1d5b7dc6a3a4c50aa","bdp_rd","Mon Mar 27 2023 16:20:19 GMT-0400 (Eastern Daylight Time)","158239","","null","","","","FIX","","<div class='trialBorder'><div class='vertical-center'><img style='vertical-align:center; align:center' src=img/fixation3.jpg></div></div>","null","","","","","",""
"html-keyboard-response","41","53826","0.0-5.0-2.12","63d420b1d5b7dc6a3a4c50aa","bdp_rd","Mon Mar 27 2023 16:20:19 GMT-0400 (Eastern Daylight Time)","158239","","2766","","","","offer","","<div class='trialBorder'><div class='vertical-center'><img style='vertical-align:center; align:center' src=img/fixation3.jpg></div><div class='cl'><div class='vertical-center'>$100<br>with a<br>50% chance</div></div><div class='cr'><div class='vertical-center'>$63<br>for<br>sure</div></div><div class='respDivL'><div class='vertical-center'>(E)</div></div><div class='respDivR'><div class='vertical-center'>(I)</div></div></div>","I","$63","$100","1","63","10","SURE"
"html-keyboard-response","42","54079","0.0-5.0-3.12","63d420b1d5b7dc6a3a4c50aa","bdp_rd","Mon Mar 27 2023 16:20:19 GMT-0400 (Eastern Daylight Time)","158239","","null","","","","offerFB","","<div class='trialBorder'><div class='vertical-center'><img style='vertical-align:center; align:center' src=img/fixation3.jpg></div><div class='cl'><div class='vertical-center'>$100<br>with a<br>50% chance</div></div><div class='cr'><div class='vertical-center'><font style='color:orange'>$63<br>for<br>sure</font></div></div><div class='respDivL'><div class='vertical-center'>(E)</div></div><div class='respDivR'><div class='vertical-center'><font style='color:orange'>(I)</font></div></div></div>","null","$63","$100","1","63","10",""
"html-keyboard-response","43","54582","0.0-5.0-1.13","63d420b1d5b7dc6a3a4c50aa","bdp_rd","Mon Mar 27 2023 16:20:19 GMT-0400 (Eastern Daylight Time)","158239","","null","","","","FIX","","<div class='trialBorder'><div class='vertical-center'><img style='vertical-align:center; align:center' src=img/fixation3.jpg></div></div>","null","","","","","",""
"html-keyboard-response","44","55703","0.0-5.0-2.13","63d420b1d5b7dc6a3a4c50aa","bdp_rd","Mon Mar 27 2023 16:20:19 GMT-0400 (Eastern Daylight Time)","158239","","1119","","","","offer","","<div class='trialBorder'><div class='vertical-center'><img style='vertical-align:center; align:center' src=img/fixation3.jpg></div><div class='cl'><div class='vertical-center'>$28<br>with a<br>50% chance</div></div><div class='cr'><div class='vertical-center'>$16<br>for<br>sure</div></div><div class='respDivL'><div class='vertical-center'>(E)</div></div><div class='respDivR'><div class='vertical-center'>(I)</div></div></div>","I","$16","$28","1","16","28","SURE"
"html-keyboard-response","45","55954","0.0-5.0-3.13","63d420b1d5b7dc6a3a4c50aa","bdp_rd","Mon Mar 27 2023 16:20:19 GMT-0400 (Eastern Daylight Time)","158239","","null","","","","offerFB","","<div class='trialBorder'><div class='vertical-center'><img style='vertical-align:center; align:center' src=img/fixation3.jpg></div><div class='cl'><div class='vertical-center'>$28<br>with a<br>50% chance</div></div><div class='cr'><div class='vertical-center'><font style='color:orange'>$16<br>for<br>sure</font></div></div><div class='respDivL'><div class='vertical-center'>(E)</div></div><div class='respDivR'><div class='vertical-center'><font style='color:orange'>(I)</font></div></div></div>","null","$16","$28","1","16","28",""
"html-keyboard-response","46","56455","0.0-5.0-1.14","63d420b1d5b7dc6a3a4c50aa","bdp_rd","Mon Mar 27 2023 16:20:19 GMT-0400 (Eastern Daylight Time)","158239","","null","","","","FIX","","<div class='trialBorder'><div class='vertical-center'><img style='vertical-align:center; align:center' src=img/fixation3.jpg></div></div>","null","","","","","",""
"html-keyboard-response","47","57763","0.0-5.0-2.14","63d420b1d5b7dc6a3a4c50aa","bdp_rd","Mon Mar 27 2023 16:20:19 GMT-0400 (Eastern Daylight Time)","158239","","1307","","","","offer","","<div class='trialBorder'><div class='vertical-center'><img style='vertical-align:center; align:center' src=img/fixation3.jpg></div><div class='cl'><div class='vertical-center'>$37<br>with a<br>50% chance</div></div><div class='cr'><div class='vertical-center'>$20<br>for<br>sure</div></div><div class='respDivL'><div class='vertical-center'>(E)</div></div><div class='respDivR'><div class='vertical-center'>(I)</div></div></div>","I","$20","$37","1","20","37","SURE"
"html-keyboard-response","48","58015","0.0-5.0-3.14","63d420b1d5b7dc6a3a4c50aa","bdp_rd","Mon Mar 27 2023 16:20:19 GMT-0400 (Eastern Daylight Time)","158239","","null","","","","offerFB","","<div class='trialBorder'><div class='vertical-center'><img style='vertical-align:center; align:center' src=img/fixation3.jpg></div><div class='cl'><div class='vertical-center'>$37<br>with a<br>50% chance</div></div><div class='cr'><div class='vertical-center'><font style='color:orange'>$20<br>for<br>sure</font></div></div><div class='respDivL'><div class='vertical-center'>(E)</div></div><div class='respDivR'><div class='vertical-center'><font style='color:orange'>(I)</font></div></div></div>","null","$20","$37","1","20","37",""
"html-keyboard-response","49","58518","0.0-5.0-1.15","63d420b1d5b7dc6a3a4c50aa","bdp_rd","Mon Mar 27 2023 16:20:19 GMT-0400 (Eastern Daylight Time)","158239","","null","","","","FIX","","<div class='trialBorder'><div class='vertical-center'><img style='vertical-align:center; align:center' src=img/fixation3.jpg></div></div>","null","","","","","",""
"html-keyboard-response","50","59660","0.0-5.0-2.15","63d420b1d5b7dc6a3a4c50aa","bdp_rd","Mon Mar 27 2023 16:20:19 GMT-0400 (Eastern Daylight Time)","158239","","1142","","","","offer","","<div class='trialBorder'><div class='vertical-center'><img style='vertical-align:center; align:center' src=img/fixation3.jpg></div><div class='cl'><div class='vertical-center'>$12<br>with a<br>50% chance</div></div><div class='cr'><div class='vertical-center'>$3<br>for<br>sure</div></div><div class='respDivL'><div class='vertical-center'>(E)</div></div><div class='respDivR'><div class='vertical-center'>(I)</div></div></div>","I","$3","$12","1","3","12","SURE"
"html-keyboard-response","51","59913","0.0-5.0-3.15","63d420b1d5b7dc6a3a4c50aa","bdp_rd","Mon Mar 27 2023 16:20:19 GMT-0400 (Eastern Daylight Time)","158239","","null","","","","offerFB","","<div class='trialBorder'><div class='vertical-center'><img style='vertical-align:center; align:center' src=img/fixation3.jpg></div><div class='cl'><div class='vertical-center'>$12<br>with a<br>50% chance</div></div><div class='cr'><div class='vertical-center'><font style='color:orange'>$3<br>for<br>sure</font></div></div><div class='respDivL'><div class='vertical-center'>(E)</div></div><div class='respDivR'><div class='vertical-center'><font style='color:orange'>(I)</font></div></div></div>","null","$3","$12","1","3","12",""
"html-keyboard-response","52","60415","0.0-5.0-1.16","63d420b1d5b7dc6a3a4c50aa","bdp_rd","Mon Mar 27 2023 16:20:19 GMT-0400 (Eastern Daylight Time)","158239","","null","","","","FIX","","<div class='trialBorder'><div class='vertical-center'><img style='vertical-align:center; align:center' src=img/fixation3.jpg></div></div>","null","","","","","",""
"html-keyboard-response","53","61522","0.0-5.0-2.16","63d420b1d5b7dc6a3a4c50aa","bdp_rd","Mon Mar 27 2023 16:20:19 GMT-0400 (Eastern Daylight Time)","158239","","1105","","","","offer","","<div class='trialBorder'><div class='vertical-center'><img style='vertical-align:center; align:center' src=img/fixation3.jpg></div><div class='cl'><div class='vertical-center'>$14<br>for<br>sure</div></div><div class='cr'><div class='vertical-center'>$22<br>with a<br>50% chance</div></div><div class='respDivL'><div class='vertical-center'>(E)</div></div><div class='respDivR'><div class='vertical-center'>(I)</div></div></div>","E","$14","$22","0","14","22","SURE"
"html-keyboard-response","54","61773","0.0-5.0-3.16","63d420b1d5b7dc6a3a4c50aa","bdp_rd","Mon Mar 27 2023 16:20:19 GMT-0400 (Eastern Daylight Time)","158239","","null","","","","offerFB","","<div class='trialBorder'><div class='vertical-center'><img style='vertical-align:center; align:center' src=img/fixation3.jpg></div><div class='cl'><div class='vertical-center'><font style='color:orange'>$14<br>for<br>sure</font></div></div><div class='cr'><div class='vertical-center'>$22<br>with a<br>50% chance</div></div><div class='respDivL'><div class='vertical-center'><font style='color:orange'>(E)</font></div></div><div class='respDivR'><div class='vertical-center'>(I)</div></div></div>","null","$14","$22","0","14","22",""
"html-keyboard-response","55","62275","0.0-5.0-1.17","63d420b1d5b7dc6a3a4c50aa","bdp_rd","Mon Mar 27 2023 16:20:19 GMT-0400 (Eastern Daylight Time)","158239","","null","","","","FIX","","<div class='trialBorder'><div class='vertical-center'><img style='vertical-align:center; align:center' src=img/fixation3.jpg></div></div>","null","","","","","",""
"html-keyboard-response","56","63307","0.0-5.0-2.17","63d420b1d5b7dc6a3a4c50aa","bdp_rd","Mon Mar 27 2023 16:20:19 GMT-0400 (Eastern Daylight Time)","158239","","1031","","","","offer","","<div class='trialBorder'><div class='vertical-center'><img style='vertical-align:center; align:center' src=img/fixation3.jpg></div><div class='cl'><div class='vertical-center'>$27<br>for<br>sure</div></div><div class='cr'><div class='vertical-center'>$47<br>with a<br>50% chance</div></div><div class='respDivL'><div class='vertical-center'>(E)</div></div><div class='respDivR'><div class='vertical-center'>(I)</div></div></div>","E","$27","$47","0","27","47","SURE"
"html-keyboard-response","57","63559","0.0-5.0-3.17","63d420b1d5b7dc6a3a4c50aa","bdp_rd","Mon Mar 27 2023 16:20:19 GMT-0400 (Eastern Daylight Time)","158239","","null","","","","offerFB","","<div class='trialBorder'><div class='vertical-center'><img style='vertical-align:center; align:center' src=img/fixation3.jpg></div><div class='cl'><div class='vertical-center'><font style='color:orange'>$27<br>for<br>sure</font></div></div><div class='cr'><div class='vertical-center'>$47<br>with a<br>50% chance</div></div><div class='respDivL'><div class='vertical-center'><font style='color:orange'>(E)</font></div></div><div class='respDivR'><div class='vertical-center'>(I)</div></div></div>","null","$27","$47","0","27","47",""
"html-keyboard-response","58","64060","0.0-5.0-1.18","63d420b1d5b7dc6a3a4c50aa","bdp_rd","Mon Mar 27 2023 16:20:19 GMT-0400 (Eastern Daylight Time)","158239","","null","","","","FIX","","<div class='trialBorder'><div class='vertical-center'><img style='vertical-align:center; align:center' src=img/fixation3.jpg></div></div>","null","","","","","",""
"html-keyboard-response","59","65862","0.0-5.0-2.18","63d420b1d5b7dc6a3a4c50aa","bdp_rd","Mon Mar 27 2023 16:20:19 GMT-0400 (Eastern Daylight Time)","158239","","1802","","","","offer","","<div class='trialBorder'><div class='vertical-center'><img style='vertical-align:center; align:center' src=img/fixation3.jpg></div><div class='cl'><div class='vertical-center'>$5<br>for<br>sure</div></div><div class='cr'><div class='vertical-center'>$16<br>with a<br>50% chance</div></div><div class='respDivL'><div class='vertical-center'>(E)</div></div><div class='respDivR'><div class='vertical-center'>(I)</div></div></div>","E","$5","$16","0","5","16","SURE"
"html-keyboard-response","60","66114","0.0-5.0-3.18","63d420b1d5b7dc6a3a4c50aa","bdp_rd","Mon Mar 27 2023 16:20:19 GMT-0400 (Eastern Daylight Time)","158239","","null","","","","offerFB","","<div class='trialBorder'><div class='vertical-center'><img style='vertical-align:center; align:center' src=img/fixation3.jpg></div><div class='cl'><div class='vertical-center'><font style='color:orange'>$5<br>for<br>sure</font></div></div><div class='cr'><div class='vertical-center'>$16<br>with a<br>50% chance</div></div><div class='respDivL'><div class='vertical-center'><font style='color:orange'>(E)</font></div></div><div class='respDivR'><div class='vertical-center'>(I)</div></div></div>","null","$5","$16","0","5","16",""
"html-keyboard-response","61","66617","0.0-5.0-1.19","63d420b1d5b7dc6a3a4c50aa","bdp_rd","Mon Mar 27 2023 16:20:19 GMT-0400 (Eastern Daylight Time)","158239","","null","","","","FIX","","<div class='trialBorder'><div class='vertical-center'><img style='vertical-align:center; align:center' src=img/fixation3.jpg></div></div>","null","","","","","",""
"html-keyboard-response","62","68036","0.0-5.0-2.19","63d420b1d5b7dc6a3a4c50aa","bdp_rd","Mon Mar 27 2023 16:20:19 GMT-0400 (Eastern Daylight Time)","158239","","1419","","","","offer","","<div class='trialBorder'><div class='vertical-center'><img style='vertical-align:center; align:center' src=img/fixation3.jpg></div><div class='cl'><div class='vertical-center'>$27<br>with a<br>50% chance</div></div><div class='cr'><div class='vertical-center'>$12<br>for<br>sure</div></div><div class='respDivL'><div class='vertical-center'>(E)</div></div><div class='respDivR'><div class='vertical-center'>(I)</div></div></div>","I","$12","$27","1","12","27","SURE"
"html-keyboard-response","63","68288","0.0-5.0-3.19","63d420b1d5b7dc6a3a4c50aa","bdp_rd","Mon Mar 27 2023 16:20:19 GMT-0400 (Eastern Daylight Time)","158239","","null","","","","offerFB","","<div class='trialBorder'><div class='vertical-center'><img style='vertical-align:center; align:center' src=img/fixation3.jpg></div><div class='cl'><div class='vertical-center'>$27<br>with a<br>50% chance</div></div><div class='cr'><div class='vertical-center'><font style='color:orange'>$12<br>for<br>sure</font></div></div><div class='respDivL'><div class='vertical-center'>(E)</div></div><div class='respDivR'><div class='vertical-center'><font style='color:orange'>(I)</font></div></div></div>","null","$12","$27","1","12","27",""
"html-keyboard-response","64","68789","0.0-5.0-1.20","63d420b1d5b7dc6a3a4c50aa","bdp_rd","Mon Mar 27 2023 16:20:19 GMT-0400 (Eastern Daylight Time)","158239","","null","","","","FIX","","<div class='trialBorder'><div class='vertical-center'><img style='vertical-align:center; align:center' src=img/fixation3.jpg></div></div>","null","","","","","",""
"html-keyboard-response","65","70077","0.0-5.0-2.20","63d420b1d5b7dc6a3a4c50aa","bdp_rd","Mon Mar 27 2023 16:20:19 GMT-0400 (Eastern Daylight Time)","158239","","1288","","","","offer","","<div class='trialBorder'><div class='vertical-center'><img style='vertical-align:center; align:center' src=img/fixation3.jpg></div><div class='cl'><div class='vertical-center'>$12<br>for<br>sure</div></div><div class='cr'><div class='vertical-center'>$35<br>with a<br>50% chance</div></div><div class='respDivL'><div class='vertical-center'>(E)</div></div><div class='respDivR'><div class='vertical-center'>(I)</div></div></div>","E","$12","$35","0","12","35","SURE"
"html-keyboard-response","66","70328","0.0-5.0-3.20","63d420b1d5b7dc6a3a4c50aa","bdp_rd","Mon Mar 27 2023 16:20:19 GMT-0400 (Eastern Daylight Time)","158239","","null","","","","offerFB","","<div class='trialBorder'><div class='vertical-center'><img style='vertical-align:center; align:center' src=img/fixation3.jpg></div><div class='cl'><div class='vertical-center'><font style='color:orange'>$12<br>for<br>sure</font></div></div><div class='cr'><div class='vertical-center'>$35<br>with a<br>50% chance</div></div><div class='respDivL'><div class='vertical-center'><font style='color:orange'>(E)</font></div></div><div class='respDivR'><div class='vertical-center'>(I)</div></div></div>","null","$12","$35","0","12","35",""
"html-keyboard-response","67","70830","0.0-5.0-1.21","63d420b1d5b7dc6a3a4c50aa","bdp_rd","Mon Mar 27 2023 16:20:19 GMT-0400 (Eastern Daylight Time)","158239","","null","","","","FIX","","<div class='trialBorder'><div class='vertical-center'><img style='vertical-align:center; align:center' src=img/fixation3.jpg></div></div>","null","","","","","",""
"html-keyboard-response","68","72252","0.0-5.0-2.21","63d420b1d5b7dc6a3a4c50aa","bdp_rd","Mon Mar 27 2023 16:20:19 GMT-0400 (Eastern Daylight Time)","158239","","1421","","","","offer","","<div class='trialBorder'><div class='vertical-center'><img style='vertical-align:center; align:center' src=img/fixation3.jpg></div><div class='cl'><div class='vertical-center'>$19<br>with a<br>50% chance</div></div><div class='cr'><div class='vertical-center'>$10<br>for<br>sure</div></div><div class='respDivL'><div class='vertical-center'>(E)</div></div><div class='respDivR'><div class='vertical-center'>(I)</div></div></div>","I","$10","$19","1","10","19","SURE"
"html-keyboard-response","69","72504","0.0-5.0-3.21","63d420b1d5b7dc6a3a4c50aa","bdp_rd","Mon Mar 27 2023 16:20:19 GMT-0400 (Eastern Daylight Time)","158239","","null","","","","offerFB","","<div class='trialBorder'><div class='vertical-center'><img style='vertical-align:center; align:center' src=img/fixation3.jpg></div><div class='cl'><div class='vertical-center'>$19<br>with a<br>50% chance</div></div><div class='cr'><div class='vertical-center'><font style='color:orange'>$10<br>for<br>sure</font></div></div><div class='respDivL'><div class='vertical-center'>(E)</div></div><div class='respDivR'><div class='vertical-center'><font style='color:orange'>(I)</font></div></div></div>","null","$10","$19","1","10","19",""
"html-keyboard-response","70","73006","0.0-5.0-1.22","63d420b1d5b7dc6a3a4c50aa","bdp_rd","Mon Mar 27 2023 16:20:19 GMT-0400 (Eastern Daylight Time)","158239","","null","","","","FIX","","<div class='trialBorder'><div class='vertical-center'><img style='vertical-align:center; align:center' src=img/fixation3.jpg></div></div>","null","","","","","",""
"html-keyboard-response","71","74620","0.0-5.0-2.22","63d420b1d5b7dc6a3a4c50aa","bdp_rd","Mon Mar 27 2023 16:20:19 GMT-0400 (Eastern Daylight Time)","158239","","1613","","","","offer","","<div class='trialBorder'><div class='vertical-center'><img style='vertical-align:center; align:center' src=img/fixation3.jpg></div><div class='cl'><div class='vertical-center'>$62<br>with a<br>50% chance</div></div><div class='cr'><div class='vertical-center'>$11<br>for<br>sure</div></div><div class='respDivL'><div class='vertical-center'>(E)</div></div><div class='respDivR'><div class='vertical-center'>(I)</div></div></div>","E","$11","$62","1","11","62","RISKY"
"html-keyboard-response","72","74872","0.0-5.0-3.22","63d420b1d5b7dc6a3a4c50aa","bdp_rd","Mon Mar 27 2023 16:20:19 GMT-0400 (Eastern Daylight Time)","158239","","null","","","","offerFB","","<div class='trialBorder'><div class='vertical-center'><img style='vertical-align:center; align:center' src=img/fixation3.jpg></div><div class='cl'><div class='vertical-center'><font style='color:orange'>$62<br>with a<br>50% chance</font></div></div><div class='cr'><div class='vertical-center'>$11<br>for<br>sure</div></div><div class='respDivL'><div class='vertical-center'><font style='color:orange'>(E)</font></div></div><div class='respDivR'><div class='vertical-center'>(I)</div></div></div>","null","$11","$62","1","11","62",""
"html-keyboard-response","73","75373","0.0-5.0-1.23","63d420b1d5b7dc6a3a4c50aa","bdp_rd","Mon Mar 27 2023 16:20:19 GMT-0400 (Eastern Daylight Time)","158239","","null","","","","FIX","","<div class='trialBorder'><div class='vertical-center'><img style='vertical-align:center; align:center' src=img/fixation3.jpg></div></div>","null","","","","","",""
"html-keyboard-response","74","76636","0.0-5.0-2.23","63d420b1d5b7dc6a3a4c50aa","bdp_rd","Mon Mar 27 2023 16:20:19 GMT-0400 (Eastern Daylight Time)","158239","","1261","","","","offer","","<div class='trialBorder'><div class='vertical-center'><img style='vertical-align:center; align:center' src=img/fixation3.jpg></div><div class='cl'><div class='vertical-center'>$45<br>with a<br>50% chance</div></div><div class='cr'><div class='vertical-center'>$8<br>for<br>sure</div></div><div class='respDivL'><div class='vertical-center'>(E)</div></div><div class='respDivR'><div class='vertical-center'>(I)</div></div></div>","I","$8","$45","1","8","45","SURE"
"html-keyboard-response","75","76887","0.0-5.0-3.23","63d420b1d5b7dc6a3a4c50aa","bdp_rd","Mon Mar 27 2023 16:20:19 GMT-0400 (Eastern Daylight Time)","158239","","null","","","","offerFB","","<div class='trialBorder'><div class='vertical-center'><img style='vertical-align:center; align:center' src=img/fixation3.jpg></div><div class='cl'><div class='vertical-center'>$45<br>with a<br>50% chance</div></div><div class='cr'><div class='vertical-center'><font style='color:orange'>$8<br>for<br>sure</font></div></div><div class='respDivL'><div class='vertical-center'>(E)</div></div><div class='respDivR'><div class='vertical-center'><font style='color:orange'>(I)</font></div></div></div>","null","$8","$45","1","8","45",""
"html-keyboard-response","76","77389","0.0-5.0-1.24","63d420b1d5b7dc6a3a4c50aa","bdp_rd","Mon Mar 27 2023 16:20:19 GMT-0400 (Eastern Daylight Time)","158239","","null","","","","FIX","","<div class='trialBorder'><div class='vertical-center'><img style='vertical-align:center; align:center' src=img/fixation3.jpg></div></div>","null","","","","","",""
"html-keyboard-response","77","79003","0.0-5.0-2.24","63d420b1d5b7dc6a3a4c50aa","bdp_rd","Mon Mar 27 2023 16:20:19 GMT-0400 (Eastern Daylight Time)","158239","","1614","","","","offer","","<div class='trialBorder'><div class='vertical-center'><img style='vertical-align:center; align:center' src=img/fixation3.jpg></div><div class='cl'><div class='vertical-center'>$1<br>for<br>sure</div></div><div class='cr'><div class='vertical-center'>$33<br>with a<br>50% chance</div></div><div class='respDivL'><div class='vertical-center'>(E)</div></div><div class='respDivR'><div class='vertical-center'>(I)</div></div></div>","I","$1","$33","0","1","33","RISKY"
"html-keyboard-response","78","79255","0.0-5.0-3.24","63d420b1d5b7dc6a3a4c50aa","bdp_rd","Mon Mar 27 2023 16:20:19 GMT-0400 (Eastern Daylight Time)","158239","","null","","","","offerFB","","<div class='trialBorder'><div class='vertical-center'><img style='vertical-align:center; align:center' src=img/fixation3.jpg></div><div class='cl'><div class='vertical-center'>$1<br>for<br>sure</div></div><div class='cr'><div class='vertical-center'><font style='color:orange'>$33<br>with a<br>50% chance</font></div></div><div class='respDivL'><div class='vertical-center'>(E)</div></div><div class='respDivR'><div class='vertical-center'><font style='color:orange'>(I)</font></div></div></div>","null","$1","$33","0","1","33",""
"html-keyboard-response","79","79755","0.0-5.0-1.25","63d420b1d5b7dc6a3a4c50aa","bdp_rd","Mon Mar 27 2023 16:20:19 GMT-0400 (Eastern Daylight Time)","158239","","null","","","","FIX","","<div class='trialBorder'><div class='vertical-center'><img style='vertical-align:center; align:center' src=img/fixation3.jpg></div></div>","null","","","","","",""
"html-keyboard-response","80","81235","0.0-5.0-2.25","63d420b1d5b7dc6a3a4c50aa","bdp_rd","Mon Mar 27 2023 16:20:19 GMT-0400 (Eastern Daylight Time)","158239","","1479","","","","offer","","<div class='trialBorder'><div class='vertical-center'><img style='vertical-align:center; align:center' src=img/fixation3.jpg></div><div class='cl'><div class='vertical-center'>$21<br>with a<br>50% chance</div></div><div class='cr'><div class='vertical-center'>$2<br>for<br>sure</div></div><div class='respDivL'><div class='vertical-center'>(E)</div></div><div class='respDivR'><div class='vertical-center'>(I)</div></div></div>","E","$2","$21","1","2","21","RISKY"
"html-keyboard-response","81","81486","0.0-5.0-3.25","63d420b1d5b7dc6a3a4c50aa","bdp_rd","Mon Mar 27 2023 16:20:19 GMT-0400 (Eastern Daylight Time)","158239","","null","","","","offerFB","","<div class='trialBorder'><div class='vertical-center'><img style='vertical-align:center; align:center' src=img/fixation3.jpg></div><div class='cl'><div class='vertical-center'><font style='color:orange'>$21<br>with a<br>50% chance</font></div></div><div class='cr'><div class='vertical-center'>$2<br>for<br>sure</div></div><div class='respDivL'><div class='vertical-center'><font style='color:orange'>(E)</font></div></div><div class='respDivR'><div class='vertical-center'>(I)</div></div></div>","null","$2","$21","1","2","21",""
"html-keyboard-response","82","81988","0.0-5.0-1.26","63d420b1d5b7dc6a3a4c50aa","bdp_rd","Mon Mar 27 2023 16:20:19 GMT-0400 (Eastern Daylight Time)","158239","","null","","","","FIX","","<div class='trialBorder'><div class='vertical-center'><img style='vertical-align:center; align:center' src=img/fixation3.jpg></div></div>","null","","","","","",""
"html-keyboard-response","83","83302","0.0-5.0-2.26","63d420b1d5b7dc6a3a4c50aa","bdp_rd","Mon Mar 27 2023 16:20:19 GMT-0400 (Eastern Daylight Time)","158239","","1313","","","","offer","","<div class='trialBorder'><div class='vertical-center'><img style='vertical-align:center; align:center' src=img/fixation3.jpg></div><div class='cl'><div class='vertical-center'>$70<br>with a<br>50% chance</div></div><div class='cr'><div class='vertical-center'>$24<br>for<br>sure</div></div><div class='respDivL'><div class='vertical-center'>(E)</div></div><div class='respDivR'><div class='vertical-center'>(I)</div></div></div>","E","$24","$70","1","24","70","RISKY"
"html-keyboard-response","84","83554","0.0-5.0-3.26","63d420b1d5b7dc6a3a4c50aa","bdp_rd","Mon Mar 27 2023 16:20:19 GMT-0400 (Eastern Daylight Time)","158239","","null","","","","offerFB","","<div class='trialBorder'><div class='vertical-center'><img style='vertical-align:center; align:center' src=img/fixation3.jpg></div><div class='cl'><div class='vertical-center'><font style='color:orange'>$70<br>with a<br>50% chance</font></div></div><div class='cr'><div class='vertical-center'>$24<br>for<br>sure</div></div><div class='respDivL'><div class='vertical-center'><font style='color:orange'>(E)</font></div></div><div class='respDivR'><div class='vertical-center'>(I)</div></div></div>","null","$24","$70","1","24","70",""
"html-keyboard-response","85","84055","0.0-5.0-1.27","63d420b1d5b7dc6a3a4c50aa","bdp_rd","Mon Mar 27 2023 16:20:19 GMT-0400 (Eastern Daylight Time)","158239","","null","","","","FIX","","<div class='trialBorder'><div class='vertical-center'><img style='vertical-align:center; align:center' src=img/fixation3.jpg></div></div>","null","","","","","",""
"html-keyboard-response","86","85769","0.0-5.0-2.27","63d420b1d5b7dc6a3a4c50aa","bdp_rd","Mon Mar 27 2023 16:20:19 GMT-0400 (Eastern Daylight Time)","158239","","1713","","","","offer","","<div class='trialBorder'><div class='vertical-center'><img style='vertical-align:center; align:center' src=img/fixation3.jpg></div><div class='cl'><div class='vertical-center'>$30<br>for<br>sure</div></div><div class='cr'><div class='vertical-center'>$68<br>with a<br>50% chance</div></div><div class='respDivL'><div class='vertical-center'>(E)</div></div><div class='respDivR'><div class='vertical-center'>(I)</div></div></div>","E","$30","$68","0","30","68","SURE"
"html-keyboard-response","87","86021","0.0-5.0-3.27","63d420b1d5b7dc6a3a4c50aa","bdp_rd","Mon Mar 27 2023 16:20:19 GMT-0400 (Eastern Daylight Time)","158239","","null","","","","offerFB","","<div class='trialBorder'><div class='vertical-center'><img style='vertical-align:center; align:center' src=img/fixation3.jpg></div><div class='cl'><div class='vertical-center'><font style='color:orange'>$30<br>for<br>sure</font></div></div><div class='cr'><div class='vertical-center'>$68<br>with a<br>50% chance</div></div><div class='respDivL'><div class='vertical-center'><font style='color:orange'>(E)</font></div></div><div class='respDivR'><div class='vertical-center'>(I)</div></div></div>","null","$30","$68","0","30","68",""
"html-keyboard-response","88","86523","0.0-5.0-1.28","63d420b1d5b7dc6a3a4c50aa","bdp_rd","Mon Mar 27 2023 16:20:19 GMT-0400 (Eastern Daylight Time)","158239","","null","","","","FIX","","<div class='trialBorder'><div class='vertical-center'><img style='vertical-align:center; align:center' src=img/fixation3.jpg></div></div>","null","","","","","",""
"html-keyboard-response","89","87368","0.0-5.0-2.28","63d420b1d5b7dc6a3a4c50aa","bdp_rd","Mon Mar 27 2023 16:20:19 GMT-0400 (Eastern Daylight Time)","158239","","844","","","","offer","","<div class='trialBorder'><div class='vertical-center'><img style='vertical-align:center; align:center' src=img/fixation3.jpg></div><div class='cl'><div class='vertical-center'>$1<br>for<br>sure</div></div><div class='cr'><div class='vertical-center'>$30<br>with a<br>50% chance</div></div><div class='respDivL'><div class='vertical-center'>(E)</div></div><div class='respDivR'><div class='vertical-center'>(I)</div></div></div>","I","$1","$30","0","1","30","RISKY"
"html-keyboard-response","90","87620","0.0-5.0-3.28","63d420b1d5b7dc6a3a4c50aa","bdp_rd","Mon Mar 27 2023 16:20:19 GMT-0400 (Eastern Daylight Time)","158239","","null","","","","offerFB","","<div class='trialBorder'><div class='vertical-center'><img style='vertical-align:center; align:center' src=img/fixation3.jpg></div><div class='cl'><div class='vertical-center'>$1<br>for<br>sure</div></div><div class='cr'><div class='vertical-center'><font style='color:orange'>$30<br>with a<br>50% chance</font></div></div><div class='respDivL'><div class='vertical-center'>(E)</div></div><div class='respDivR'><div class='vertical-center'><font style='color:orange'>(I)</font></div></div></div>","null","$1","$30","0","1","30",""
"html-keyboard-response","91","88121","0.0-5.0-1.29","63d420b1d5b7dc6a3a4c50aa","bdp_rd","Mon Mar 27 2023 16:20:19 GMT-0400 (Eastern Daylight Time)","158239","","null","","","","FIX","","<div class='trialBorder'><div class='vertical-center'><img style='vertical-align:center; align:center' src=img/fixation3.jpg></div></div>","null","","","","","",""
"html-keyboard-response","92","89526","0.0-5.0-2.29","63d420b1d5b7dc6a3a4c50aa","bdp_rd","Mon Mar 27 2023 16:20:19 GMT-0400 (Eastern Daylight Time)","158239","","1404","","","","offer","","<div class='trialBorder'><div class='vertical-center'><img style='vertical-align:center; align:center' src=img/fixation3.jpg></div><div class='cl'><div class='vertical-center'>$2<br>for<br>sure</div></div><div class='cr'><div class='vertical-center'>$64<br>with a<br>50% chance</div></div><div class='respDivL'><div class='vertical-center'>(E)</div></div><div class='respDivR'><div class='vertical-center'>(I)</div></div></div>","I","$2","$64","0","2","64","RISKY"
"html-keyboard-response","93","89777","0.0-5.0-3.29","63d420b1d5b7dc6a3a4c50aa","bdp_rd","Mon Mar 27 2023 16:20:19 GMT-0400 (Eastern Daylight Time)","158239","","null","","","","offerFB","","<div class='trialBorder'><div class='vertical-center'><img style='vertical-align:center; align:center' src=img/fixation3.jpg></div><div class='cl'><div class='vertical-center'>$2<br>for<br>sure</div></div><div class='cr'><div class='vertical-center'><font style='color:orange'>$64<br>with a<br>50% chance</font></div></div><div class='respDivL'><div class='vertical-center'>(E)</div></div><div class='respDivR'><div class='vertical-center'><font style='color:orange'>(I)</font></div></div></div>","null","$2","$64","0","2","64",""
"html-keyboard-response","94","90278","0.0-5.0-1.30","63d420b1d5b7dc6a3a4c50aa","bdp_rd","Mon Mar 27 2023 16:20:19 GMT-0400 (Eastern Daylight Time)","158239","","null","","","","FIX","","<div class='trialBorder'><div class='vertical-center'><img style='vertical-align:center; align:center' src=img/fixation3.jpg></div></div>","null","","","","","",""
"html-keyboard-response","95","91542","0.0-5.0-2.30","63d420b1d5b7dc6a3a4c50aa","bdp_rd","Mon Mar 27 2023 16:20:19 GMT-0400 (Eastern Daylight Time)","158239","","1262","","","","offer","","<div class='trialBorder'><div class='vertical-center'><img style='vertical-align:center; align:center' src=img/fixation3.jpg></div><div class='cl'><div class='vertical-center'>$86<br>with a<br>50% chance</div></div><div class='cr'><div class='vertical-center'>$45<br>for<br>sure</div></div><div class='respDivL'><div class='vertical-center'>(E)</div></div><div class='respDivR'><div class='vertical-center'>(I)</div></div></div>","E","$45","$86","1","45","86","RISKY"
"html-keyboard-response","96","91793","0.0-5.0-3.30","63d420b1d5b7dc6a3a4c50aa","bdp_rd","Mon Mar 27 2023 16:20:19 GMT-0400 (Eastern Daylight Time)","158239","","null","","","","offerFB","","<div class='trialBorder'><div class='vertical-center'><img style='vertical-align:center; align:center' src=img/fixation3.jpg></div><div class='cl'><div class='vertical-center'><font style='color:orange'>$86<br>with a<br>50% chance</font></div></div><div class='cr'><div class='vertical-center'>$45<br>for<br>sure</div></div><div class='respDivL'><div class='vertical-center'><font style='color:orange'>(E)</font></div></div><div class='respDivR'><div class='vertical-center'>(I)</div></div></div>","null","$45","$86","1","45","86",""
"html-keyboard-response","97","92294","0.0-5.0-1.31","63d420b1d5b7dc6a3a4c50aa","bdp_rd","Mon Mar 27 2023 16:20:19 GMT-0400 (Eastern Daylight Time)","158239","","null","","","","FIX","","<div class='trialBorder'><div class='vertical-center'><img style='vertical-align:center; align:center' src=img/fixation3.jpg></div></div>","null","","","","","",""
"html-keyboard-response","98","93956","0.0-5.0-2.31","63d420b1d5b7dc6a3a4c50aa","bdp_rd","Mon Mar 27 2023 16:20:19 GMT-0400 (Eastern Daylight Time)","158239","","1661","","","","offer","","<div class='trialBorder'><div class='vertical-center'><img style='vertical-align:center; align:center' src=img/fixation3.jpg></div><div class='cl'><div class='vertical-center'>$14<br>with a<br>50% chance</div></div><div class='cr'><div class='vertical-center'>$4<br>for<br>sure</div></div><div class='respDivL'><div class='vertical-center'>(E)</div></div><div class='respDivR'><div class='vertical-center'>(I)</div></div></div>","I","$4","$14","1","4","14","SURE"
"html-keyboard-response","99","94209","0.0-5.0-3.31","63d420b1d5b7dc6a3a4c50aa","bdp_rd","Mon Mar 27 2023 16:20:19 GMT-0400 (Eastern Daylight Time)","158239","","null","","","","offerFB","","<div class='trialBorder'><div class='vertical-center'><img style='vertical-align:center; align:center' src=img/fixation3.jpg></div><div class='cl'><div class='vertical-center'>$14<br>with a<br>50% chance</div></div><div class='cr'><div class='vertical-center'><font style='color:orange'>$4<br>for<br>sure</font></div></div><div class='respDivL'><div class='vertical-center'>(E)</div></div><div class='respDivR'><div class='vertical-center'><font style='color:orange'>(I)</font></div></div></div>","null","$4","$14","1","4","14",""
"html-keyboard-response","100","94710","0.0-5.0-1.32","63d420b1d5b7dc6a3a4c50aa","bdp_rd","Mon Mar 27 2023 16:20:19 GMT-0400 (Eastern Daylight Time)","158239","","null","","","","FIX","","<div class='trialBorder'><div class='vertical-center'><img style='vertical-align:center; align:center' src=img/fixation3.jpg></div></div>","null","","","","","",""
"html-keyboard-response","101","95899","0.0-5.0-2.32","63d420b1d5b7dc6a3a4c50aa","bdp_rd","Mon Mar 27 2023 16:20:19 GMT-0400 (Eastern Daylight Time)","158239","","1189","","","","offer","","<div class='trialBorder'><div class='vertical-center'><img style='vertical-align:center; align:center' src=img/fixation3.jpg></div><div class='cl'><div class='vertical-center'>$59<br>with a<br>50% chance</div></div><div class='cr'><div class='vertical-center'>$22<br>for<br>sure</div></div><div class='respDivL'><div class='vertical-center'>(E)</div></div><div class='respDivR'><div class='vertical-center'>(I)</div></div></div>","I","$22","$59","1","22","59","SURE"
"html-keyboard-response","102","96150","0.0-5.0-3.32","63d420b1d5b7dc6a3a4c50aa","bdp_rd","Mon Mar 27 2023 16:20:19 GMT-0400 (Eastern Daylight Time)","158239","","null","","","","offerFB","","<div class='trialBorder'><div class='vertical-center'><img style='vertical-align:center; align:center' src=img/fixation3.jpg></div><div class='cl'><div class='vertical-center'>$59<br>with a<br>50% chance</div></div><div class='cr'><div class='vertical-center'><font style='color:orange'>$22<br>for<br>sure</font></div></div><div class='respDivL'><div class='vertical-center'>(E)</div></div><div class='respDivR'><div class='vertical-center'><font style='color:orange'>(I)</font></div></div></div>","null","$22","$59","1","22","59",""
"html-keyboard-response","103","96652","0.0-5.0-1.33","63d420b1d5b7dc6a3a4c50aa","bdp_rd","Mon Mar 27 2023 16:20:19 GMT-0400 (Eastern Daylight Time)","158239","","null","","","","FIX","","<div class='trialBorder'><div class='vertical-center'><img style='vertical-align:center; align:center' src=img/fixation3.jpg></div></div>","null","","","","","",""
"html-keyboard-response","104","97679","0.0-5.0-2.33","63d420b1d5b7dc6a3a4c50aa","bdp_rd","Mon Mar 27 2023 16:20:19 GMT-0400 (Eastern Daylight Time)","158239","","1026","","","","offer","","<div class='trialBorder'><div class='vertical-center'><img style='vertical-align:center; align:center' src=img/fixation3.jpg></div><div class='cl'><div class='vertical-center'>$17<br>for<br>sure</div></div><div class='cr'><div class='vertical-center'>$43<br>with a<br>50% chance</div></div><div class='respDivL'><div class='vertical-center'>(E)</div></div><div class='respDivR'><div class='vertical-center'>(I)</div></div></div>","E","$17","$43","0","17","43","SURE"
"html-keyboard-response","105","97930","0.0-5.0-3.33","63d420b1d5b7dc6a3a4c50aa","bdp_rd","Mon Mar 27 2023 16:20:19 GMT-0400 (Eastern Daylight Time)","158239","","null","","","","offerFB","","<div class='trialBorder'><div class='vertical-center'><img style='vertical-align:center; align:center' src=img/fixation3.jpg></div><div class='cl'><div class='vertical-center'><font style='color:orange'>$17<br>for<br>sure</font></div></div><div class='cr'><div class='vertical-center'>$43<br>with a<br>50% chance</div></div><div class='respDivL'><div class='vertical-center'><font style='color:orange'>(E)</font></div></div><div class='respDivR'><div class='vertical-center'>(I)</div></div></div>","null","$17","$43","0","17","43",""
"html-keyboard-response","106","98432","0.0-5.0-1.34","63d420b1d5b7dc6a3a4c50aa","bdp_rd","Mon Mar 27 2023 16:20:19 GMT-0400 (Eastern Daylight Time)","158239","","null","","","","FIX","","<div class='trialBorder'><div class='vertical-center'><img style='vertical-align:center; align:center' src=img/fixation3.jpg></div></div>","null","","","","","",""
"html-keyboard-response","107","100881","0.0-5.0-2.34","63d420b1d5b7dc6a3a4c50aa","bdp_rd","Mon Mar 27 2023 16:20:19 GMT-0400 (Eastern Daylight Time)","158239","","2449","","","","offer","","<div class='trialBorder'><div class='vertical-center'><img style='vertical-align:center; align:center' src=img/fixation3.jpg></div><div class='cl'><div class='vertical-center'>$73<br>with a<br>50% chance</div></div><div class='cr'><div class='vertical-center'>$42<br>for<br>sure</div></div><div class='respDivL'><div class='vertical-center'>(E)</div></div><div class='respDivR'><div class='vertical-center'>(I)</div></div></div>","E","$42","$73","1","42","73","RISKY"
"html-keyboard-response","108","101133","0.0-5.0-3.34","63d420b1d5b7dc6a3a4c50aa","bdp_rd","Mon Mar 27 2023 16:20:19 GMT-0400 (Eastern Daylight Time)","158239","","null","","","","offerFB","","<div class='trialBorder'><div class='vertical-center'><img style='vertical-align:center; align:center' src=img/fixation3.jpg></div><div class='cl'><div class='vertical-center'><font style='color:orange'>$73<br>with a<br>50% chance</font></div></div><div class='cr'><div class='vertical-center'>$42<br>for<br>sure</div></div><div class='respDivL'><div class='vertical-center'><font style='color:orange'>(E)</font></div></div><div class='respDivR'><div class='vertical-center'>(I)</div></div></div>","null","$42","$73","1","42","73",""
"html-keyboard-response","109","101634","0.0-5.0-1.35","63d420b1d5b7dc6a3a4c50aa","bdp_rd","Mon Mar 27 2023 16:20:19 GMT-0400 (Eastern Daylight Time)","158239","","null","","","","FIX","","<div class='trialBorder'><div class='vertical-center'><img style='vertical-align:center; align:center' src=img/fixation3.jpg></div></div>","null","","","","","",""
"html-keyboard-response","110","103483","0.0-5.0-2.35","63d420b1d5b7dc6a3a4c50aa","bdp_rd","Mon Mar 27 2023 16:20:19 GMT-0400 (Eastern Daylight Time)","158239","","1849","","","","offer","","<div class='trialBorder'><div class='vertical-center'><img style='vertical-align:center; align:center' src=img/fixation3.jpg></div><div class='cl'><div class='vertical-center'>$54<br>with a<br>50% chance</div></div><div class='cr'><div class='vertical-center'>$25<br>for<br>sure</div></div><div class='respDivL'><div class='vertical-center'>(E)</div></div><div class='respDivR'><div class='vertical-center'>(I)</div></div></div>","I","$25","$54","1","25","54","SURE"
"html-keyboard-response","111","103734","0.0-5.0-3.35","63d420b1d5b7dc6a3a4c50aa","bdp_rd","Mon Mar 27 2023 16:20:19 GMT-0400 (Eastern Daylight Time)","158239","","null","","","","offerFB","","<div class='trialBorder'><div class='vertical-center'><img style='vertical-align:center; align:center' src=img/fixation3.jpg></div><div class='cl'><div class='vertical-center'>$54<br>with a<br>50% chance</div></div><div class='cr'><div class='vertical-center'><font style='color:orange'>$25<br>for<br>sure</font></div></div><div class='respDivL'><div class='vertical-center'>(E)</div></div><div class='respDivR'><div class='vertical-center'><font style='color:orange'>(I)</font></div></div></div>","null","$25","$54","1","25","54",""
"html-keyboard-response","112","104235","0.0-5.0-1.36","63d420b1d5b7dc6a3a4c50aa","bdp_rd","Mon Mar 27 2023 16:20:19 GMT-0400 (Eastern Daylight Time)","158239","","null","","","","FIX","","<div class='trialBorder'><div class='vertical-center'><img style='vertical-align:center; align:center' src=img/fixation3.jpg></div></div>","null","","","","","",""
"html-keyboard-response","113","105429","0.0-5.0-2.36","63d420b1d5b7dc6a3a4c50aa","bdp_rd","Mon Mar 27 2023 16:20:19 GMT-0400 (Eastern Daylight Time)","158239","","1192","","","","offer","","<div class='trialBorder'><div class='vertical-center'><img style='vertical-align:center; align:center' src=img/fixation3.jpg></div><div class='cl'><div class='vertical-center'>$92<br>with a<br>50% chance</div></div><div class='cr'><div class='vertical-center'>$26<br>for<br>sure</div></div><div class='respDivL'><div class='vertical-center'>(E)</div></div><div class='respDivR'><div class='vertical-center'>(I)</div></div></div>","E","$26","$92","1","26","92","RISKY"
"html-keyboard-response","114","105681","0.0-5.0-3.36","63d420b1d5b7dc6a3a4c50aa","bdp_rd","Mon Mar 27 2023 16:20:19 GMT-0400 (Eastern Daylight Time)","158239","","null","","","","offerFB","","<div class='trialBorder'><div class='vertical-center'><img style='vertical-align:center; align:center' src=img/fixation3.jpg></div><div class='cl'><div class='vertical-center'><font style='color:orange'>$92<br>with a<br>50% chance</font></div></div><div class='cr'><div class='vertical-center'>$26<br>for<br>sure</div></div><div class='respDivL'><div class='vertical-center'><font style='color:orange'>(E)</font></div></div><div class='respDivR'><div class='vertical-center'>(I)</div></div></div>","null","$26","$92","1","26","92",""
"html-keyboard-response","115","106182","0.0-5.0-1.37","63d420b1d5b7dc6a3a4c50aa","bdp_rd","Mon Mar 27 2023 16:20:19 GMT-0400 (Eastern Daylight Time)","158239","","null","","","","FIX","","<div class='trialBorder'><div class='vertical-center'><img style='vertical-align:center; align:center' src=img/fixation3.jpg></div></div>","null","","","","","",""
"html-keyboard-response","116","108295","0.0-5.0-2.37","63d420b1d5b7dc6a3a4c50aa","bdp_rd","Mon Mar 27 2023 16:20:19 GMT-0400 (Eastern Daylight Time)","158239","","2112","","","","offer","","<div class='trialBorder'><div class='vertical-center'><img style='vertical-align:center; align:center' src=img/fixation3.jpg></div><div class='cl'><div class='vertical-center'>$29<br>for<br>sure</div></div><div class='cr'><div class='vertical-center'>$46<br>with a<br>50% chance</div></div><div class='respDivL'><div class='vertical-center'>(E)</div></div><div class='respDivR'><div class='vertical-center'>(I)</div></div></div>","E","$29","$46","0","29","46","SURE"
"html-keyboard-response","117","108547","0.0-5.0-3.37","63d420b1d5b7dc6a3a4c50aa","bdp_rd","Mon Mar 27 2023 16:20:19 GMT-0400 (Eastern Daylight Time)","158239","","null","","","","offerFB","","<div class='trialBorder'><div class='vertical-center'><img style='vertical-align:center; align:center' src=img/fixation3.jpg></div><div class='cl'><div class='vertical-center'><font style='color:orange'>$29<br>for<br>sure</font></div></div><div class='cr'><div class='vertical-center'>$46<br>with a<br>50% chance</div></div><div class='respDivL'><div class='vertical-center'><font style='color:orange'>(E)</font></div></div><div class='respDivR'><div class='vertical-center'>(I)</div></div></div>","null","$29","$46","0","29","46",""
"html-keyboard-response","118","109048","0.0-5.0-1.38","63d420b1d5b7dc6a3a4c50aa","bdp_rd","Mon Mar 27 2023 16:20:19 GMT-0400 (Eastern Daylight Time)","158239","","null","","","","FIX","","<div class='trialBorder'><div class='vertical-center'><img style='vertical-align:center; align:center' src=img/fixation3.jpg></div></div>","null","","","","","",""
"html-keyboard-response","119","110219","0.0-5.0-2.38","63d420b1d5b7dc6a3a4c50aa","bdp_rd","Mon Mar 27 2023 16:20:19 GMT-0400 (Eastern Daylight Time)","158239","","1169","","","","offer","","<div class='trialBorder'><div class='vertical-center'><img style='vertical-align:center; align:center' src=img/fixation3.jpg></div><div class='cl'><div class='vertical-center'>$18<br>for<br>sure</div></div><div class='cr'><div class='vertical-center'>$39<br>with a<br>50% chance</div></div><div class='respDivL'><div class='vertical-center'>(E)</div></div><div class='respDivR'><div class='vertical-center'>(I)</div></div></div>","E","$18","$39","0","18","39","SURE"
"html-keyboard-response","120","110470","0.0-5.0-3.38","63d420b1d5b7dc6a3a4c50aa","bdp_rd","Mon Mar 27 2023 16:20:19 GMT-0400 (Eastern Daylight Time)","158239","","null","","","","offerFB","","<div class='trialBorder'><div class='vertical-center'><img style='vertical-align:center; align:center' src=img/fixation3.jpg></div><div class='cl'><div class='vertical-center'><font style='color:orange'>$18<br>for<br>sure</font></div></div><div class='cr'><div class='vertical-center'>$39<br>with a<br>50% chance</div></div><div class='respDivL'><div class='vertical-center'><font style='color:orange'>(E)</font></div></div><div class='respDivR'><div class='vertical-center'>(I)</div></div></div>","null","$18","$39","0","18","39",""
"html-keyboard-response","121","110971","0.0-5.0-1.39","63d420b1d5b7dc6a3a4c50aa","bdp_rd","Mon Mar 27 2023 16:20:19 GMT-0400 (Eastern Daylight Time)","158239","","null","","","","FIX","","<div class='trialBorder'><div class='vertical-center'><img style='vertical-align:center; align:center' src=img/fixation3.jpg></div></div>","null","","","","","",""
"html-keyboard-response","122","112005","0.0-5.0-2.39","63d420b1d5b7dc6a3a4c50aa","bdp_rd","Mon Mar 27 2023 16:20:19 GMT-0400 (Eastern Daylight Time)","158239","","1032","","","","offer","","<div class='trialBorder'><div class='vertical-center'><img style='vertical-align:center; align:center' src=img/fixation3.jpg></div><div class='cl'><div class='vertical-center'>$15<br>for<br>sure</div></div><div class='cr'><div class='vertical-center'>$34<br>with a<br>50% chance</div></div><div class='respDivL'><div class='vertical-center'>(E)</div></div><div class='respDivR'><div class='vertical-center'>(I)</div></div></div>","E","$15","$34","0","15","34","SURE"
"html-keyboard-response","123","112257","0.0-5.0-3.39","63d420b1d5b7dc6a3a4c50aa","bdp_rd","Mon Mar 27 2023 16:20:19 GMT-0400 (Eastern Daylight Time)","158239","","null","","","","offerFB","","<div class='trialBorder'><div class='vertical-center'><img style='vertical-align:center; align:center' src=img/fixation3.jpg></div><div class='cl'><div class='vertical-center'><font style='color:orange'>$15<br>for<br>sure</font></div></div><div class='cr'><div class='vertical-center'>$34<br>with a<br>50% chance</div></div><div class='respDivL'><div class='vertical-center'><font style='color:orange'>(E)</font></div></div><div class='respDivR'><div class='vertical-center'>(I)</div></div></div>","null","$15","$34","0","15","34",""
"html-keyboard-response","124","112759","0.0-5.0-1.40","63d420b1d5b7dc6a3a4c50aa","bdp_rd","Mon Mar 27 2023 16:20:19 GMT-0400 (Eastern Daylight Time)","158239","","null","","","","FIX","","<div class='trialBorder'><div class='vertical-center'><img style='vertical-align:center; align:center' src=img/fixation3.jpg></div></div>","null","","","","","",""
"html-keyboard-response","125","113949","0.0-5.0-2.40","63d420b1d5b7dc6a3a4c50aa","bdp_rd","Mon Mar 27 2023 16:20:19 GMT-0400 (Eastern Daylight Time)","158239","","1189","","","","offer","","<div class='trialBorder'><div class='vertical-center'><img style='vertical-align:center; align:center' src=img/fixation3.jpg></div><div class='cl'><div class='vertical-center'>$38<br>with a<br>50% chance</div></div><div class='cr'><div class='vertical-center'>$16<br>for<br>sure</div></div><div class='respDivL'><div class='vertical-center'>(E)</div></div><div class='respDivR'><div class='vertical-center'>(I)</div></div></div>","I","$16","$38","1","16","38","SURE"
"html-keyboard-response","126","114200","0.0-5.0-3.40","63d420b1d5b7dc6a3a4c50aa","bdp_rd","Mon Mar 27 2023 16:20:19 GMT-0400 (Eastern Daylight Time)","158239","","null","","","","offerFB","","<div class='trialBorder'><div class='vertical-center'><img style='vertical-align:center; align:center' src=img/fixation3.jpg></div><div class='cl'><div class='vertical-center'>$38<br>with a<br>50% chance</div></div><div class='cr'><div class='vertical-center'><font style='color:orange'>$16<br>for<br>sure</font></div></div><div class='respDivL'><div class='vertical-center'>(E)</div></div><div class='respDivR'><div class='vertical-center'><font style='color:orange'>(I)</font></div></div></div>","null","$16","$38","1","16","38",""
"html-keyboard-response","127","114702","0.0-5.0-1.41","63d420b1d5b7dc6a3a4c50aa","bdp_rd","Mon Mar 27 2023 16:20:19 GMT-0400 (Eastern Daylight Time)","158239","","null","","","","FIX","","<div class='trialBorder'><div class='vertical-center'><img style='vertical-align:center; align:center' src=img/fixation3.jpg></div></div>","null","","","","","",""
"html-keyboard-response","128","115816","0.0-5.0-2.41","63d420b1d5b7dc6a3a4c50aa","bdp_rd","Mon Mar 27 2023 16:20:19 GMT-0400 (Eastern Daylight Time)","158239","","1112","","","","offer","","<div class='trialBorder'><div class='vertical-center'><img style='vertical-align:center; align:center' src=img/fixation3.jpg></div><div class='cl'><div class='vertical-center'>$42<br>with a<br>50% chance</div></div><div class='cr'><div class='vertical-center'>$22<br>for<br>sure</div></div><div class='respDivL'><div class='vertical-center'>(E)</div></div><div class='respDivR'><div class='vertical-center'>(I)</div></div></div>","I","$22","$42","1","22","42","SURE"
"html-keyboard-response","129","116067","0.0-5.0-3.41","63d420b1d5b7dc6a3a4c50aa","bdp_rd","Mon Mar 27 2023 16:20:19 GMT-0400 (Eastern Daylight Time)","158239","","null","","","","offerFB","","<div class='trialBorder'><div class='vertical-center'><img style='vertical-align:center; align:center' src=img/fixation3.jpg></div><div class='cl'><div class='vertical-center'>$42<br>with a<br>50% chance</div></div><div class='cr'><div class='vertical-center'><font style='color:orange'>$22<br>for<br>sure</font></div></div><div class='respDivL'><div class='vertical-center'>(E)</div></div><div class='respDivR'><div class='vertical-center'><font style='color:orange'>(I)</font></div></div></div>","null","$22","$42","1","22","42",""
"html-keyboard-response","130","116569","0.0-5.0-1.42","63d420b1d5b7dc6a3a4c50aa","bdp_rd","Mon Mar 27 2023 16:20:19 GMT-0400 (Eastern Daylight Time)","158239","","null","","","","FIX","","<div class='trialBorder'><div class='vertical-center'><img style='vertical-align:center; align:center' src=img/fixation3.jpg></div></div>","null","","","","","",""
"html-keyboard-response","131","118178","0.0-5.0-2.42","63d420b1d5b7dc6a3a4c50aa","bdp_rd","Mon Mar 27 2023 16:20:19 GMT-0400 (Eastern Daylight Time)","158239","","1609","","","","offer","","<div class='trialBorder'><div class='vertical-center'><img style='vertical-align:center; align:center' src=img/fixation3.jpg></div><div class='cl'><div class='vertical-center'>$29<br>with a<br>50% chance</div></div><div class='cr'><div class='vertical-center'>$14<br>for<br>sure</div></div><div class='respDivL'><div class='vertical-center'>(E)</div></div><div class='respDivR'><div class='vertical-center'>(I)</div></div></div>","I","$14","$29","1","14","29","SURE"
"html-keyboard-response","132","118430","0.0-5.0-3.42","63d420b1d5b7dc6a3a4c50aa","bdp_rd","Mon Mar 27 2023 16:20:19 GMT-0400 (Eastern Daylight Time)","158239","","null","","","","offerFB","","<div class='trialBorder'><div class='vertical-center'><img style='vertical-align:center; align:center' src=img/fixation3.jpg></div><div class='cl'><div class='vertical-center'>$29<br>with a<br>50% chance</div></div><div class='cr'><div class='vertical-center'><font style='color:orange'>$14<br>for<br>sure</font></div></div><div class='respDivL'><div class='vertical-center'>(E)</div></div><div class='respDivR'><div class='vertical-center'><font style='color:orange'>(I)</font></div></div></div>","null","$14","$29","1","14","29",""
"html-keyboard-response","133","118931","0.0-5.0-1.43","63d420b1d5b7dc6a3a4c50aa","bdp_rd","Mon Mar 27 2023 16:20:19 GMT-0400 (Eastern Daylight Time)","158239","","null","","","","FIX","","<div class='trialBorder'><div class='vertical-center'><img style='vertical-align:center; align:center' src=img/fixation3.jpg></div></div>","null","","","","","",""
"html-keyboard-response","134","120188","0.0-5.0-2.43","63d420b1d5b7dc6a3a4c50aa","bdp_rd","Mon Mar 27 2023 16:20:19 GMT-0400 (Eastern Daylight Time)","158239","","1255","","","","offer","","<div class='trialBorder'><div class='vertical-center'><img style='vertical-align:center; align:center' src=img/fixation3.jpg></div><div class='cl'><div class='vertical-center'>$21<br>for<br>sure</div></div><div class='cr'><div class='vertical-center'>$25<br>with a<br>50% chance</div></div><div class='respDivL'><div class='vertical-center'>(E)</div></div><div class='respDivR'><div class='vertical-center'>(I)</div></div></div>","E","$21","$25","0","21","25","SURE"
"html-keyboard-response","135","120439","0.0-5.0-3.43","63d420b1d5b7dc6a3a4c50aa","bdp_rd","Mon Mar 27 2023 16:20:19 GMT-0400 (Eastern Daylight Time)","158239","","null","","","","offerFB","","<div class='trialBorder'><div class='vertical-center'><img style='vertical-align:center; align:center' src=img/fixation3.jpg></div><div class='cl'><div class='vertical-center'><font style='color:orange'>$21<br>for<br>sure</font></div></div><div class='cr'><div class='vertical-center'>$25<br>with a<br>50% chance</div></div><div class='respDivL'><div class='vertical-center'><font style='color:orange'>(E)</font></div></div><div class='respDivR'><div class='vertical-center'>(I)</div></div></div>","null","$21","$25","0","21","25",""
"html-keyboard-response","136","120940","0.0-5.0-1.44","63d420b1d5b7dc6a3a4c50aa","bdp_rd","Mon Mar 27 2023 16:20:19 GMT-0400 (Eastern Daylight Time)","158239","","null","","","","FIX","","<div class='trialBorder'><div class='vertical-center'><img style='vertical-align:center; align:center' src=img/fixation3.jpg></div></div>","null","","","","","",""
"html-keyboard-response","137","121785","0.0-5.0-2.44","63d420b1d5b7dc6a3a4c50aa","bdp_rd","Mon Mar 27 2023 16:20:19 GMT-0400 (Eastern Daylight Time)","158239","","844","","","","offer","","<div class='trialBorder'><div class='vertical-center'><img style='vertical-align:center; align:center' src=img/fixation3.jpg></div><div class='cl'><div class='vertical-center'>$20<br>for<br>sure</div></div><div class='cr'><div class='vertical-center'>$80<br>with a<br>50% chance</div></div><div class='respDivL'><div class='vertical-center'>(E)</div></div><div class='respDivR'><div class='vertical-center'>(I)</div></div></div>","E","$20","$80","0","20","80","SURE"
"html-keyboard-response","138","122037","0.0-5.0-3.44","63d420b1d5b7dc6a3a4c50aa","bdp_rd","Mon Mar 27 2023 16:20:19 GMT-0400 (Eastern Daylight Time)","158239","","null","","","","offerFB","","<div class='trialBorder'><div class='vertical-center'><img style='vertical-align:center; align:center' src=img/fixation3.jpg></div><div class='cl'><div class='vertical-center'><font style='color:orange'>$20<br>for<br>sure</font></div></div><div class='cr'><div class='vertical-center'>$80<br>with a<br>50% chance</div></div><div class='respDivL'><div class='vertical-center'><font style='color:orange'>(E)</font></div></div><div class='respDivR'><div class='vertical-center'>(I)</div></div></div>","null","$20","$80","0","20","80",""
"html-keyboard-response","139","122538","0.0-5.0-1.45","63d420b1d5b7dc6a3a4c50aa","bdp_rd","Mon Mar 27 2023 16:20:19 GMT-0400 (Eastern Daylight Time)","158239","","null","","","","FIX","","<div class='trialBorder'><div class='vertical-center'><img style='vertical-align:center; align:center' src=img/fixation3.jpg></div></div>","null","","","","","",""
"html-keyboard-response","140","123461","0.0-5.0-2.45","63d420b1d5b7dc6a3a4c50aa","bdp_rd","Mon Mar 27 2023 16:20:19 GMT-0400 (Eastern Daylight Time)","158239","","922","","","","offer","","<div class='trialBorder'><div class='vertical-center'><img style='vertical-align:center; align:center' src=img/fixation3.jpg></div><div class='cl'><div class='vertical-center'>$3<br>for<br>sure</div></div><div class='cr'><div class='vertical-center'>$17<br>with a<br>50% chance</div></div><div class='respDivL'><div class='vertical-center'>(E)</div></div><div class='respDivR'><div class='vertical-center'>(I)</div></div></div>","I","$3","$17","0","3","17","RISKY"
"html-keyboard-response","141","123713","0.0-5.0-3.45","63d420b1d5b7dc6a3a4c50aa","bdp_rd","Mon Mar 27 2023 16:20:19 GMT-0400 (Eastern Daylight Time)","158239","","null","","","","offerFB","","<div class='trialBorder'><div class='vertical-center'><img style='vertical-align:center; align:center' src=img/fixation3.jpg></div><div class='cl'><div class='vertical-center'>$3<br>for<br>sure</div></div><div class='cr'><div class='vertical-center'><font style='color:orange'>$17<br>with a<br>50% chance</font></div></div><div class='respDivL'><div class='vertical-center'>(E)</div></div><div class='respDivR'><div class='vertical-center'><font style='color:orange'>(I)</font></div></div></div>","null","$3","$17","0","3","17",""
"html-keyboard-response","142","124215","0.0-5.0-1.46","63d420b1d5b7dc6a3a4c50aa","bdp_rd","Mon Mar 27 2023 16:20:19 GMT-0400 (Eastern Daylight Time)","158239","","null","","","","FIX","","<div class='trialBorder'><div class='vertical-center'><img style='vertical-align:center; align:center' src=img/fixation3.jpg></div></div>","null","","","","","",""
"html-keyboard-response","143","125770","0.0-5.0-2.46","63d420b1d5b7dc6a3a4c50aa","bdp_rd","Mon Mar 27 2023 16:20:19 GMT-0400 (Eastern Daylight Time)","158239","","1554","","","","offer","","<div class='trialBorder'><div class='vertical-center'><img style='vertical-align:center; align:center' src=img/fixation3.jpg></div><div class='cl'><div class='vertical-center'>$18<br>for<br>sure</div></div><div class='cr'><div class='vertical-center'>$36<br>with a<br>50% chance</div></div><div class='respDivL'><div class='vertical-center'>(E)</div></div><div class='respDivR'><div class='vertical-center'>(I)</div></div></div>","E","$18","$36","0","18","36","SURE"
"html-keyboard-response","144","126021","0.0-5.0-3.46","63d420b1d5b7dc6a3a4c50aa","bdp_rd","Mon Mar 27 2023 16:20:19 GMT-0400 (Eastern Daylight Time)","158239","","null","","","","offerFB","","<div class='trialBorder'><div class='vertical-center'><img style='vertical-align:center; align:center' src=img/fixation3.jpg></div><div class='cl'><div class='vertical-center'><font style='color:orange'>$18<br>for<br>sure</font></div></div><div class='cr'><div class='vertical-center'>$36<br>with a<br>50% chance</div></div><div class='respDivL'><div class='vertical-center'><font style='color:orange'>(E)</font></div></div><div class='respDivR'><div class='vertical-center'>(I)</div></div></div>","null","$18","$36","0","18","36",""
"html-keyboard-response","145","126524","0.0-5.0-1.47","63d420b1d5b7dc6a3a4c50aa","bdp_rd","Mon Mar 27 2023 16:20:19 GMT-0400 (Eastern Daylight Time)","158239","","null","","","","FIX","","<div class='trialBorder'><div class='vertical-center'><img style='vertical-align:center; align:center' src=img/fixation3.jpg></div></div>","null","","","","","",""
"html-keyboard-response","146","131084","0.0-5.0-2.47","63d420b1d5b7dc6a3a4c50aa","bdp_rd","Mon Mar 27 2023 16:20:19 GMT-0400 (Eastern Daylight Time)","158239","","4559","","","","offer","","<div class='trialBorder'><div class='vertical-center'><img style='vertical-align:center; align:center' src=img/fixation3.jpg></div><div class='cl'><div class='vertical-center'>$95<br>with a<br>50% chance</div></div><div class='cr'><div class='vertical-center'>$40<br>for<br>sure</div></div><div class='respDivL'><div class='vertical-center'>(E)</div></div><div class='respDivR'><div class='vertical-center'>(I)</div></div></div>","E","$40","$95","1","40","95","RISKY"
"html-keyboard-response","147","131336","0.0-5.0-3.47","63d420b1d5b7dc6a3a4c50aa","bdp_rd","Mon Mar 27 2023 16:20:19 GMT-0400 (Eastern Daylight Time)","158239","","null","","","","offerFB","","<div class='trialBorder'><div class='vertical-center'><img style='vertical-align:center; align:center' src=img/fixation3.jpg></div><div class='cl'><div class='vertical-center'><font style='color:orange'>$95<br>with a<br>50% chance</font></div></div><div class='cr'><div class='vertical-center'>$40<br>for<br>sure</div></div><div class='respDivL'><div class='vertical-center'><font style='color:orange'>(E)</font></div></div><div class='respDivR'><div class='vertical-center'>(I)</div></div></div>","null","$40","$95","1","40","95",""
"html-keyboard-response","148","131838","0.0-5.0-1.48","63d420b1d5b7dc6a3a4c50aa","bdp_rd","Mon Mar 27 2023 16:20:19 GMT-0400 (Eastern Daylight Time)","158239","","null","","","","FIX","","<div class='trialBorder'><div class='vertical-center'><img style='vertical-align:center; align:center' src=img/fixation3.jpg></div></div>","null","","","","","",""
"html-keyboard-response","149","133035","0.0-5.0-2.48","63d420b1d5b7dc6a3a4c50aa","bdp_rd","Mon Mar 27 2023 16:20:19 GMT-0400 (Eastern Daylight Time)","158239","","1196","","","","offer","","<div class='trialBorder'><div class='vertical-center'><img style='vertical-align:center; align:center' src=img/fixation3.jpg></div><div class='cl'><div class='vertical-center'>$46<br>for<br>sure</div></div><div class='cr'><div class='vertical-center'>$65<br>with a<br>50% chance</div></div><div class='respDivL'><div class='vertical-center'>(E)</div></div><div class='respDivR'><div class='vertical-center'>(I)</div></div></div>","E","$46","$65","0","46","65","SURE"
"html-keyboard-response","150","133286","0.0-5.0-3.48","63d420b1d5b7dc6a3a4c50aa","bdp_rd","Mon Mar 27 2023 16:20:19 GMT-0400 (Eastern Daylight Time)","158239","","null","","","","offerFB","","<div class='trialBorder'><div class='vertical-center'><img style='vertical-align:center; align:center' src=img/fixation3.jpg></div><div class='cl'><div class='vertical-center'><font style='color:orange'>$46<br>for<br>sure</font></div></div><div class='cr'><div class='vertical-center'>$65<br>with a<br>50% chance</div></div><div class='respDivL'><div class='vertical-center'><font style='color:orange'>(E)</font></div></div><div class='respDivR'><div class='vertical-center'>(I)</div></div></div>","null","$46","$65","0","46","65",""
"html-keyboard-response","151","133788","0.0-5.0-1.49","63d420b1d5b7dc6a3a4c50aa","bdp_rd","Mon Mar 27 2023 16:20:19 GMT-0400 (Eastern Daylight Time)","158239","","null","","","","FIX","","<div class='trialBorder'><div class='vertical-center'><img style='vertical-align:center; align:center' src=img/fixation3.jpg></div></div>","null","","","","","",""
"html-keyboard-response","152","134962","0.0-5.0-2.49","63d420b1d5b7dc6a3a4c50aa","bdp_rd","Mon Mar 27 2023 16:20:19 GMT-0400 (Eastern Daylight Time)","158239","","1174","","","","offer","","<div class='trialBorder'><div class='vertical-center'><img style='vertical-align:center; align:center' src=img/fixation3.jpg></div><div class='cl'><div class='vertical-center'>$7<br>for<br>sure</div></div><div class='cr'><div class='vertical-center'>$10<br>with a<br>50% chance</div></div><div class='respDivL'><div class='vertical-center'>(E)</div></div><div class='respDivR'><div class='vertical-center'>(I)</div></div></div>","E","$7","$10","0","7","10","SURE"
"html-keyboard-response","153","135214","0.0-5.0-3.49","63d420b1d5b7dc6a3a4c50aa","bdp_rd","Mon Mar 27 2023 16:20:19 GMT-0400 (Eastern Daylight Time)","158239","","null","","","","offerFB","","<div class='trialBorder'><div class='vertical-center'><img style='vertical-align:center; align:center' src=img/fixation3.jpg></div><div class='cl'><div class='vertical-center'><font style='color:orange'>$7<br>for<br>sure</font></div></div><div class='cr'><div class='vertical-center'>$10<br>with a<br>50% chance</div></div><div class='respDivL'><div class='vertical-center'><font style='color:orange'>(E)</font></div></div><div class='respDivR'><div class='vertical-center'>(I)</div></div></div>","null","$7","$10","0","7","10",""
"html-keyboard-response","154","135716","0.0-5.0-1.50","63d420b1d5b7dc6a3a4c50aa","bdp_rd","Mon Mar 27 2023 16:20:19 GMT-0400 (Eastern Daylight Time)","158239","","null","","","","FIX","","<div class='trialBorder'><div class='vertical-center'><img style='vertical-align:center; align:center' src=img/fixation3.jpg></div></div>","null","","","","","",""
"html-keyboard-response","155","137027","0.0-5.0-2.50","63d420b1d5b7dc6a3a4c50aa","bdp_rd","Mon Mar 27 2023 16:20:19 GMT-0400 (Eastern Daylight Time)","158239","","1310","","","","offer","","<div class='trialBorder'><div class='vertical-center'><img style='vertical-align:center; align:center' src=img/fixation3.jpg></div><div class='cl'><div class='vertical-center'>$69<br>with a<br>50% chance</div></div><div class='cr'><div class='vertical-center'>$58<br>for<br>sure</div></div><div class='respDivL'><div class='vertical-center'>(E)</div></div><div class='respDivR'><div class='vertical-center'>(I)</div></div></div>","I","$58","$69","1","58","69","SURE"
"html-keyboard-response","156","137279","0.0-5.0-3.50","63d420b1d5b7dc6a3a4c50aa","bdp_rd","Mon Mar 27 2023 16:20:19 GMT-0400 (Eastern Daylight Time)","158239","","null","","","","offerFB","","<div class='trialBorder'><div class='vertical-center'><img style='vertical-align:center; align:center' src=img/fixation3.jpg></div><div class='cl'><div class='vertical-center'>$69<br>with a<br>50% chance</div></div><div class='cr'><div class='vertical-center'><font style='color:orange'>$58<br>for<br>sure</font></div></div><div class='respDivL'><div class='vertical-center'>(E)</div></div><div class='respDivR'><div class='vertical-center'><font style='color:orange'>(I)</font></div></div></div>","null","$58","$69","1","58","69",""
"html-keyboard-response","157","137781","0.0-5.0-1.51","63d420b1d5b7dc6a3a4c50aa","bdp_rd","Mon Mar 27 2023 16:20:19 GMT-0400 (Eastern Daylight Time)","158239","","null","","","","FIX","","<div class='trialBorder'><div class='vertical-center'><img style='vertical-align:center; align:center' src=img/fixation3.jpg></div></div>","null","","","","","",""
"html-keyboard-response","158","138852","0.0-5.0-2.51","63d420b1d5b7dc6a3a4c50aa","bdp_rd","Mon Mar 27 2023 16:20:19 GMT-0400 (Eastern Daylight Time)","158239","","1071","","","","offer","","<div class='trialBorder'><div class='vertical-center'><img style='vertical-align:center; align:center' src=img/fixation3.jpg></div><div class='cl'><div class='vertical-center'>$13<br>with a<br>50% chance</div></div><div class='cr'><div class='vertical-center'>$6<br>for<br>sure</div></div><div class='respDivL'><div class='vertical-center'>(E)</div></div><div class='respDivR'><div class='vertical-center'>(I)</div></div></div>","I","$6","$13","1","6","13","SURE"
"html-keyboard-response","159","139104","0.0-5.0-3.51","63d420b1d5b7dc6a3a4c50aa","bdp_rd","Mon Mar 27 2023 16:20:19 GMT-0400 (Eastern Daylight Time)","158239","","null","","","","offerFB","","<div class='trialBorder'><div class='vertical-center'><img style='vertical-align:center; align:center' src=img/fixation3.jpg></div><div class='cl'><div class='vertical-center'>$13<br>with a<br>50% chance</div></div><div class='cr'><div class='vertical-center'><font style='color:orange'>$6<br>for<br>sure</font></div></div><div class='respDivL'><div class='vertical-center'>(E)</div></div><div class='respDivR'><div class='vertical-center'><font style='color:orange'>(I)</font></div></div></div>","null","$6","$13","1","6","13",""
"html-keyboard-response","160","139605","0.0-5.0-1.52","63d420b1d5b7dc6a3a4c50aa","bdp_rd","Mon Mar 27 2023 16:20:19 GMT-0400 (Eastern Daylight Time)","158239","","null","","","","FIX","","<div class='trialBorder'><div class='vertical-center'><img style='vertical-align:center; align:center' src=img/fixation3.jpg></div></div>","null","","","","","",""
"html-keyboard-response","161","141143","0.0-5.0-2.52","63d420b1d5b7dc6a3a4c50aa","bdp_rd","Mon Mar 27 2023 16:20:19 GMT-0400 (Eastern Daylight Time)","158239","","1537","","","","offer","","<div class='trialBorder'><div class='vertical-center'><img style='vertical-align:center; align:center' src=img/fixation3.jpg></div><div class='cl'><div class='vertical-center'>$9<br>for<br>sure</div></div><div class='cr'><div class='vertical-center'>$32<br>with a<br>50% chance</div></div><div class='respDivL'><div class='vertical-center'>(E)</div></div><div class='respDivR'><div class='vertical-center'>(I)</div></div></div>","E","$9","$32","0","9","32","SURE"
"html-keyboard-response","162","141395","0.0-5.0-3.52","63d420b1d5b7dc6a3a4c50aa","bdp_rd","Mon Mar 27 2023 16:20:19 GMT-0400 (Eastern Daylight Time)","158239","","null","","","","offerFB","","<div class='trialBorder'><div class='vertical-center'><img style='vertical-align:center; align:center' src=img/fixation3.jpg></div><div class='cl'><div class='vertical-center'><font style='color:orange'>$9<br>for<br>sure</font></div></div><div class='cr'><div class='vertical-center'>$32<br>with a<br>50% chance</div></div><div class='respDivL'><div class='vertical-center'><font style='color:orange'>(E)</font></div></div><div class='respDivR'><div class='vertical-center'>(I)</div></div></div>","null","$9","$32","0","9","32",""
"html-keyboard-response","163","141897","0.0-5.0-1.53","63d420b1d5b7dc6a3a4c50aa","bdp_rd","Mon Mar 27 2023 16:20:19 GMT-0400 (Eastern Daylight Time)","158239","","null","","","","FIX","","<div class='trialBorder'><div class='vertical-center'><img style='vertical-align:center; align:center' src=img/fixation3.jpg></div></div>","null","","","","","",""
"html-keyboard-response","164","143064","0.0-5.0-2.53","63d420b1d5b7dc6a3a4c50aa","bdp_rd","Mon Mar 27 2023 16:20:19 GMT-0400 (Eastern Daylight Time)","158239","","1166","","","","offer","","<div class='trialBorder'><div class='vertical-center'><img style='vertical-align:center; align:center' src=img/fixation3.jpg></div><div class='cl'><div class='vertical-center'>$11<br>for<br>sure</div></div><div class='cr'><div class='vertical-center'>$26<br>with a<br>50% chance</div></div><div class='respDivL'><div class='vertical-center'>(E)</div></div><div class='respDivR'><div class='vertical-center'>(I)</div></div></div>","E","$11","$26","0","11","26","SURE"
"html-keyboard-response","165","143315","0.0-5.0-3.53","63d420b1d5b7dc6a3a4c50aa","bdp_rd","Mon Mar 27 2023 16:20:19 GMT-0400 (Eastern Daylight Time)","158239","","null","","","","offerFB","","<div class='trialBorder'><div class='vertical-center'><img style='vertical-align:center; align:center' src=img/fixation3.jpg></div><div class='cl'><div class='vertical-center'><font style='color:orange'>$11<br>for<br>sure</font></div></div><div class='cr'><div class='vertical-center'>$26<br>with a<br>50% chance</div></div><div class='respDivL'><div class='vertical-center'><font style='color:orange'>(E)</font></div></div><div class='respDivR'><div class='vertical-center'>(I)</div></div></div>","null","$11","$26","0","11","26",""
"html-keyboard-response","166","143818","0.0-5.0-1.54","63d420b1d5b7dc6a3a4c50aa","bdp_rd","Mon Mar 27 2023 16:20:19 GMT-0400 (Eastern Daylight Time)","158239","","null","","","","FIX","","<div class='trialBorder'><div class='vertical-center'><img style='vertical-align:center; align:center' src=img/fixation3.jpg></div></div>","null","","","","","",""
"html-keyboard-response","167","145699","0.0-5.0-2.54","63d420b1d5b7dc6a3a4c50aa","bdp_rd","Mon Mar 27 2023 16:20:19 GMT-0400 (Eastern Daylight Time)","158239","","1881","","","","offer","","<div class='trialBorder'><div class='vertical-center'><img style='vertical-align:center; align:center' src=img/fixation3.jpg></div><div class='cl'><div class='vertical-center'>$53<br>for<br>sure</div></div><div class='cr'><div class='vertical-center'>$98<br>with a<br>50% chance</div></div><div class='respDivL'><div class='vertical-center'>(E)</div></div><div class='respDivR'><div class='vertical-center'>(I)</div></div></div>","E","$53","$98","0","53","98","SURE"
"html-keyboard-response","168","145951","0.0-5.0-3.54","63d420b1d5b7dc6a3a4c50aa","bdp_rd","Mon Mar 27 2023 16:20:19 GMT-0400 (Eastern Daylight Time)","158239","","null","","","","offerFB","","<div class='trialBorder'><div class='vertical-center'><img style='vertical-align:center; align:center' src=img/fixation3.jpg></div><div class='cl'><div class='vertical-center'><font style='color:orange'>$53<br>for<br>sure</font></div></div><div class='cr'><div class='vertical-center'>$98<br>with a<br>50% chance</div></div><div class='respDivL'><div class='vertical-center'><font style='color:orange'>(E)</font></div></div><div class='respDivR'><div class='vertical-center'>(I)</div></div></div>","null","$53","$98","0","53","98",""
"html-keyboard-response","169","146452","0.0-5.0-1.55","63d420b1d5b7dc6a3a4c50aa","bdp_rd","Mon Mar 27 2023 16:20:19 GMT-0400 (Eastern Daylight Time)","158239","","null","","","","FIX","","<div class='trialBorder'><div class='vertical-center'><img style='vertical-align:center; align:center' src=img/fixation3.jpg></div></div>","null","","","","","",""
"html-keyboard-response","170","147660","0.0-5.0-2.55","63d420b1d5b7dc6a3a4c50aa","bdp_rd","Mon Mar 27 2023 16:20:19 GMT-0400 (Eastern Daylight Time)","158239","","1206","","","","offer","","<div class='trialBorder'><div class='vertical-center'><img style='vertical-align:center; align:center' src=img/fixation3.jpg></div><div class='cl'><div class='vertical-center'>$13<br>for<br>sure</div></div><div class='cr'><div class='vertical-center'>$41<br>with a<br>50% chance</div></div><div class='respDivL'><div class='vertical-center'>(E)</div></div><div class='respDivR'><div class='vertical-center'>(I)</div></div></div>","E","$13","$41","0","13","41","SURE"
"html-keyboard-response","171","147912","0.0-5.0-3.55","63d420b1d5b7dc6a3a4c50aa","bdp_rd","Mon Mar 27 2023 16:20:19 GMT-0400 (Eastern Daylight Time)","158239","","null","","","","offerFB","","<div class='trialBorder'><div class='vertical-center'><img style='vertical-align:center; align:center' src=img/fixation3.jpg></div><div class='cl'><div class='vertical-center'><font style='color:orange'>$13<br>for<br>sure</font></div></div><div class='cr'><div class='vertical-center'>$41<br>with a<br>50% chance</div></div><div class='respDivL'><div class='vertical-center'><font style='color:orange'>(E)</font></div></div><div class='respDivR'><div class='vertical-center'>(I)</div></div></div>","null","$13","$41","0","13","41",""
"html-keyboard-response","172","148414","0.0-5.0-1.56","63d420b1d5b7dc6a3a4c50aa","bdp_rd","Mon Mar 27 2023 16:20:19 GMT-0400 (Eastern Daylight Time)","158239","","null","","","","FIX","","<div class='trialBorder'><div class='vertical-center'><img style='vertical-align:center; align:center' src=img/fixation3.jpg></div></div>","null","","","","","",""
"html-keyboard-response","173","149729","0.0-5.0-2.56","63d420b1d5b7dc6a3a4c50aa","bdp_rd","Mon Mar 27 2023 16:20:19 GMT-0400 (Eastern Daylight Time)","158239","","1314","","","","offer","","<div class='trialBorder'><div class='vertical-center'><img style='vertical-align:center; align:center' src=img/fixation3.jpg></div><div class='cl'><div class='vertical-center'>$78<br>with a<br>50% chance</div></div><div class='cr'><div class='vertical-center'>$31<br>for<br>sure</div></div><div class='respDivL'><div class='vertical-center'>(E)</div></div><div class='respDivR'><div class='vertical-center'>(I)</div></div></div>","I","$31","$78","1","31","78","SURE"
