"trial_type","trial_index","time_elapsed","internal_node_id","subject_id","task","startTime","totalTime","view_history","rt","event","trial","time","trialtype","success","stimulus","key_press","sureOffer","riskyOffer","riskyLeft","sureAmt","riskyAmt","chosen"
"pavlovia","0","1","0.0-0.0","63ecff07b619306f41db42fa","bdp_rd","Sat Mar 25 2023 21:41:52 GMT-0700 (Pacific Daylight Time)","175069","","","","","","","","","","","","","","",""
"instructions","1","5004","0.0-1.0","63ecff07b619306f41db42fa","bdp_rd","Sat Mar 25 2023 21:41:52 GMT-0700 (Pacific Daylight Time)","175069","[{""page_index"":0,""viewing_time"":5001}]","5002","","","","","","","","","","","","",""
"","","","","63ecff07b619306f41db42fa","bdp_rd","Sat Mar 25 2023 21:41:52 GMT-0700 (Pacific Daylight Time)","175069","","","fullscreenenter","2","7148","fullscreenenter","","","","","","","","",""
"fullscreen","2","8130","0.0-2.0","63ecff07b619306f41db42fa","bdp_rd","Sat Mar 25 2023 21:41:52 GMT-0700 (Pacific Daylight Time)","175069","","","","","","","true","","","","","","","",""
"instructions","3","39167","0.0-4.0","63ecff07b619306f41db42fa","bdp_rd","Sat Mar 25 2023 21:41:52 GMT-0700 (Pacific Daylight Time)","175069","[{""page_index"":0,""viewing_time"":20509},{""page_index"":1,""viewing_time"":5210},{""page_index"":2,""viewing_time"":5318}]","31037","","","","","","","","","","","","",""
"html-keyboard-response","4","39670","0.0-5.0-1.0","63ecff07b619306f41db42fa","bdp_rd","Sat Mar 25 2023 21:41:52 GMT-0700 (Pacific Daylight Time)","175069","","null","","","","FIX","","<div class='trialBorder'><div class='vertical-center'><img style='vertical-align:center; align:center' src=img/fixation3.jpg></div></div>","null","","","","","",""
"html-keyboard-response","5","41895","0.0-5.0-2.0","63ecff07b619306f41db42fa","bdp_rd","Sat Mar 25 2023 21:41:52 GMT-0700 (Pacific Daylight Time)","175069","","2222","","","","offer","","<div class='trialBorder'><div class='vertical-center'><img style='vertical-align:center; align:center' src=img/fixation3.jpg></div><div class='cl'><div class='vertical-center'>$7<br>for<br>sure</div></div><div class='cr'><div class='vertical-center'>$71<br>with a<br>50% chance</div></div><div class='respDivL'><div class='vertical-center'>(E)</div></div><div class='respDivR'><div class='vertical-center'>(I)</div></div></div>","I","$7","$71","0","7","71","RISKY"
"html-keyboard-response","6","42146","0.0-5.0-3.0","63ecff07b619306f41db42fa","bdp_rd","Sat Mar 25 2023 21:41:52 GMT-0700 (Pacific Daylight Time)","175069","","null","","","","offerFB","","<div class='trialBorder'><div class='vertical-center'><img style='vertical-align:center; align:center' src=img/fixation3.jpg></div><div class='cl'><div class='vertical-center'>$7<br>for<br>sure</div></div><div class='cr'><div class='vertical-center'><font style='color:orange'>$71<br>with a<br>50% chance</font></div></div><div class='respDivL'><div class='vertical-center'>(E)</div></div><div class='respDivR'><div class='vertical-center'><font style='color:orange'>(I)</font></div></div></div>","null","$7","$71","0","7","71",""
"html-keyboard-response","7","42648","0.0-5.0-1.1","63ecff07b619306f41db42fa","bdp_rd","Sat Mar 25 2023 21:41:52 GMT-0700 (Pacific Daylight Time)","175069","","null","","","","FIX","","<div class='trialBorder'><div class='vertical-center'><img style='vertical-align:center; align:center' src=img/fixation3.jpg></div></div>","null","","","","","",""
"html-keyboard-response","8","44622","0.0-5.0-2.1","63ecff07b619306f41db42fa","bdp_rd","Sat Mar 25 2023 21:41:52 GMT-0700 (Pacific Daylight Time)","175069","","1972","","","","offer","","<div class='trialBorder'><div class='vertical-center'><img style='vertical-align:center; align:center' src=img/fixation3.jpg></div><div class='cl'><div class='vertical-center'>$46<br>with a<br>50% chance</div></div><div class='cr'><div class='vertical-center'>$29<br>for<br>sure</div></div><div class='respDivL'><div class='vertical-center'>(E)</div></div><div class='respDivR'><div class='vertical-center'>(I)</div></div></div>","I","$29","$46","1","29","46","SURE"
"html-keyboard-response","9","44875","0.0-5.0-3.1","63ecff07b619306f41db42fa","bdp_rd","Sat Mar 25 2023 21:41:52 GMT-0700 (Pacific Daylight Time)","175069","","null","","","","offerFB","","<div class='trialBorder'><div class='vertical-center'><img style='vertical-align:center; align:center' src=img/fixation3.jpg></div><div class='cl'><div class='vertical-center'>$46<br>with a<br>50% chance</div></div><div class='cr'><div class='vertical-center'><font style='color:orange'>$29<br>for<br>sure</font></div></div><div class='respDivL'><div class='vertical-center'>(E)</div></div><div class='respDivR'><div class='vertical-center'><font style='color:orange'>(I)</font></div></div></div>","null","$29","$46","1","29","46",""
"html-keyboard-response","10","45376","0.0-5.0-1.2","63ecff07b619306f41db42fa","bdp_rd","Sat Mar 25 2023 21:41:52 GMT-0700 (Pacific Daylight Time)","175069","","null","","","","FIX","","<div class='trialBorder'><div class='vertical-center'><img style='vertical-align:center; align:center' src=img/fixation3.jpg></div></div>","null","","","","","",""
"html-keyboard-response","11","48581","0.0-5.0-2.2","63ecff07b619306f41db42fa","bdp_rd","Sat Mar 25 2023 21:41:52 GMT-0700 (Pacific Daylight Time)","175069","","3203","","","","offer","","<div class='trialBorder'><div class='vertical-center'><img style='vertical-align:center; align:center' src=img/fixation3.jpg></div><div class='cl'><div class='vertical-center'>$19<br>for<br>sure</div></div><div class='cr'><div class='vertical-center'>$51<br>with a<br>50% chance</div></div><div class='respDivL'><div class='vertical-center'>(E)</div></div><div class='respDivR'><div class='vertical-center'>(I)</div></div></div>","I","$19","$51","0","19","51","RISKY"
"html-keyboard-response","12","48832","0.0-5.0-3.2","63ecff07b619306f41db42fa","bdp_rd","Sat Mar 25 2023 21:41:52 GMT-0700 (Pacific Daylight Time)","175069","","null","","","","offerFB","","<div class='trialBorder'><div class='vertical-center'><img style='vertical-align:center; align:center' src=img/fixation3.jpg></div><div class='cl'><div class='vertical-center'>$19<br>for<br>sure</div></div><div class='cr'><div class='vertical-center'><font style='color:orange'>$51<br>with a<br>50% chance</font></div></div><div class='respDivL'><div class='vertical-center'>(E)</div></div><div class='respDivR'><div class='vertical-center'><font style='color:orange'>(I)</font></div></div></div>","null","$19","$51","0","19","51",""
"html-keyboard-response","13","49334","0.0-5.0-1.3","63ecff07b619306f41db42fa","bdp_rd","Sat Mar 25 2023 21:41:52 GMT-0700 (Pacific Daylight Time)","175069","","null","","","","FIX","","<div class='trialBorder'><div class='vertical-center'><img style='vertical-align:center; align:center' src=img/fixation3.jpg></div></div>","null","","","","","",""
"html-keyboard-response","14","51260","0.0-5.0-2.3","63ecff07b619306f41db42fa","bdp_rd","Sat Mar 25 2023 21:41:52 GMT-0700 (Pacific Daylight Time)","175069","","1926","","","","offer","","<div class='trialBorder'><div class='vertical-center'><img style='vertical-align:center; align:center' src=img/fixation3.jpg></div><div class='cl'><div class='vertical-center'>$18<br>for<br>sure</div></div><div class='cr'><div class='vertical-center'>$36<br>with a<br>50% chance</div></div><div class='respDivL'><div class='vertical-center'>(E)</div></div><div class='respDivR'><div class='vertical-center'>(I)</div></div></div>","E","$18","$36","0","18","36","SURE"
"html-keyboard-response","15","51510","0.0-5.0-3.3","63ecff07b619306f41db42fa","bdp_rd","Sat Mar 25 2023 21:41:52 GMT-0700 (Pacific Daylight Time)","175069","","null","","","","offerFB","","<div class='trialBorder'><div class='vertical-center'><img style='vertical-align:center; align:center' src=img/fixation3.jpg></div><div class='cl'><div class='vertical-center'><font style='color:orange'>$18<br>for<br>sure</font></div></div><div class='cr'><div class='vertical-center'>$36<br>with a<br>50% chance</div></div><div class='respDivL'><div class='vertical-center'><font style='color:orange'>(E)</font></div></div><div class='respDivR'><div class='vertical-center'>(I)</div></div></div>","null","$18","$36","0","18","36",""
"html-keyboard-response","16","52013","0.0-5.0-1.4","63ecff07b619306f41db42fa","bdp_rd","Sat Mar 25 2023 21:41:52 GMT-0700 (Pacific Daylight Time)","175069","","null","","","","FIX","","<div class='trialBorder'><div class='vertical-center'><img style='vertical-align:center; align:center' src=img/fixation3.jpg></div></div>","null","","","","","",""
"html-keyboard-response","17","53418","0.0-5.0-2.4","63ecff07b619306f41db42fa","bdp_rd","Sat Mar 25 2023 21:41:52 GMT-0700 (Pacific Daylight Time)","175069","","1405","","","","offer","","<div class='trialBorder'><div class='vertical-center'><img style='vertical-align:center; align:center' src=img/fixation3.jpg></div><div class='cl'><div class='vertical-center'>$66<br>with a<br>50% chance</div></div><div class='cr'><div class='vertical-center'>$33<br>for<br>sure</div></div><div class='respDivL'><div class='vertical-center'>(E)</div></div><div class='respDivR'><div class='vertical-center'>(I)</div></div></div>","E","$33","$66","1","33","66","RISKY"
"html-keyboard-response","18","53671","0.0-5.0-3.4","63ecff07b619306f41db42fa","bdp_rd","Sat Mar 25 2023 21:41:52 GMT-0700 (Pacific Daylight Time)","175069","","null","","","","offerFB","","<div class='trialBorder'><div class='vertical-center'><img style='vertical-align:center; align:center' src=img/fixation3.jpg></div><div class='cl'><div class='vertical-center'><font style='color:orange'>$66<br>with a<br>50% chance</font></div></div><div class='cr'><div class='vertical-center'>$33<br>for<br>sure</div></div><div class='respDivL'><div class='vertical-center'><font style='color:orange'>(E)</font></div></div><div class='respDivR'><div class='vertical-center'>(I)</div></div></div>","null","$33","$66","1","33","66",""
"html-keyboard-response","19","54173","0.0-5.0-1.5","63ecff07b619306f41db42fa","bdp_rd","Sat Mar 25 2023 21:41:52 GMT-0700 (Pacific Daylight Time)","175069","","null","","","","FIX","","<div class='trialBorder'><div class='vertical-center'><img style='vertical-align:center; align:center' src=img/fixation3.jpg></div></div>","null","","","","","",""
"html-keyboard-response","20","55311","0.0-5.0-2.5","63ecff07b619306f41db42fa","bdp_rd","Sat Mar 25 2023 21:41:52 GMT-0700 (Pacific Daylight Time)","175069","","1138","","","","offer","","<div class='trialBorder'><div class='vertical-center'><img style='vertical-align:center; align:center' src=img/fixation3.jpg></div><div class='cl'><div class='vertical-center'>$15<br>for<br>sure</div></div><div class='cr'><div class='vertical-center'>$31<br>with a<br>50% chance</div></div><div class='respDivL'><div class='vertical-center'>(E)</div></div><div class='respDivR'><div class='vertical-center'>(I)</div></div></div>","I","$15","$31","0","15","31","RISKY"
"html-keyboard-response","21","55563","0.0-5.0-3.5","63ecff07b619306f41db42fa","bdp_rd","Sat Mar 25 2023 21:41:52 GMT-0700 (Pacific Daylight Time)","175069","","null","","","","offerFB","","<div class='trialBorder'><div class='vertical-center'><img style='vertical-align:center; align:center' src=img/fixation3.jpg></div><div class='cl'><div class='vertical-center'>$15<br>for<br>sure</div></div><div class='cr'><div class='vertical-center'><font style='color:orange'>$31<br>with a<br>50% chance</font></div></div><div class='respDivL'><div class='vertical-center'>(E)</div></div><div class='respDivR'><div class='vertical-center'><font style='color:orange'>(I)</font></div></div></div>","null","$15","$31","0","15","31",""
"html-keyboard-response","22","56065","0.0-5.0-1.6","63ecff07b619306f41db42fa","bdp_rd","Sat Mar 25 2023 21:41:52 GMT-0700 (Pacific Daylight Time)","175069","","null","","","","FIX","","<div class='trialBorder'><div class='vertical-center'><img style='vertical-align:center; align:center' src=img/fixation3.jpg></div></div>","null","","","","","",""
"html-keyboard-response","23","57232","0.0-5.0-2.6","63ecff07b619306f41db42fa","bdp_rd","Sat Mar 25 2023 21:41:52 GMT-0700 (Pacific Daylight Time)","175069","","1166","","","","offer","","<div class='trialBorder'><div class='vertical-center'><img style='vertical-align:center; align:center' src=img/fixation3.jpg></div><div class='cl'><div class='vertical-center'>$40<br>for<br>sure</div></div><div class='cr'><div class='vertical-center'>$95<br>with a<br>50% chance</div></div><div class='respDivL'><div class='vertical-center'>(E)</div></div><div class='respDivR'><div class='vertical-center'>(I)</div></div></div>","I","$40","$95","0","40","95","RISKY"
"html-keyboard-response","24","57483","0.0-5.0-3.6","63ecff07b619306f41db42fa","bdp_rd","Sat Mar 25 2023 21:41:52 GMT-0700 (Pacific Daylight Time)","175069","","null","","","","offerFB","","<div class='trialBorder'><div class='vertical-center'><img style='vertical-align:center; align:center' src=img/fixation3.jpg></div><div class='cl'><div class='vertical-center'>$40<br>for<br>sure</div></div><div class='cr'><div class='vertical-center'><font style='color:orange'>$95<br>with a<br>50% chance</font></div></div><div class='respDivL'><div class='vertical-center'>(E)</div></div><div class='respDivR'><div class='vertical-center'><font style='color:orange'>(I)</font></div></div></div>","null","$40","$95","0","40","95",""
"html-keyboard-response","25","57985","0.0-5.0-1.7","63ecff07b619306f41db42fa","bdp_rd","Sat Mar 25 2023 21:41:52 GMT-0700 (Pacific Daylight Time)","175069","","null","","","","FIX","","<div class='trialBorder'><div class='vertical-center'><img style='vertical-align:center; align:center' src=img/fixation3.jpg></div></div>","null","","","","","",""
"html-keyboard-response","26","59805","0.0-5.0-2.7","63ecff07b619306f41db42fa","bdp_rd","Sat Mar 25 2023 21:41:52 GMT-0700 (Pacific Daylight Time)","175069","","1819","","","","offer","","<div class='trialBorder'><div class='vertical-center'><img style='vertical-align:center; align:center' src=img/fixation3.jpg></div><div class='cl'><div class='vertical-center'>$28<br>with a<br>50% chance</div></div><div class='cr'><div class='vertical-center'>$16<br>for<br>sure</div></div><div class='respDivL'><div class='vertical-center'>(E)</div></div><div class='respDivR'><div class='vertical-center'>(I)</div></div></div>","I","$16","$28","1","16","28","SURE"
"html-keyboard-response","27","60057","0.0-5.0-3.7","63ecff07b619306f41db42fa","bdp_rd","Sat Mar 25 2023 21:41:52 GMT-0700 (Pacific Daylight Time)","175069","","null","","","","offerFB","","<div class='trialBorder'><div class='vertical-center'><img style='vertical-align:center; align:center' src=img/fixation3.jpg></div><div class='cl'><div class='vertical-center'>$28<br>with a<br>50% chance</div></div><div class='cr'><div class='vertical-center'><font style='color:orange'>$16<br>for<br>sure</font></div></div><div class='respDivL'><div class='vertical-center'>(E)</div></div><div class='respDivR'><div class='vertical-center'><font style='color:orange'>(I)</font></div></div></div>","null","$16","$28","1","16","28",""
"html-keyboard-response","28","60558","0.0-5.0-1.8","63ecff07b619306f41db42fa","bdp_rd","Sat Mar 25 2023 21:41:52 GMT-0700 (Pacific Daylight Time)","175069","","null","","","","FIX","","<div class='trialBorder'><div class='vertical-center'><img style='vertical-align:center; align:center' src=img/fixation3.jpg></div></div>","null","","","","","",""
"html-keyboard-response","29","61734","0.0-5.0-2.8","63ecff07b619306f41db42fa","bdp_rd","Sat Mar 25 2023 21:41:52 GMT-0700 (Pacific Daylight Time)","175069","","1175","","","","offer","","<div class='trialBorder'><div class='vertical-center'><img style='vertical-align:center; align:center' src=img/fixation3.jpg></div><div class='cl'><div class='vertical-center'>$80<br>with a<br>50% chance</div></div><div class='cr'><div class='vertical-center'>$20<br>for<br>sure</div></div><div class='respDivL'><div class='vertical-center'>(E)</div></div><div class='respDivR'><div class='vertical-center'>(I)</div></div></div>","E","$20","$80","1","20","80","RISKY"
"html-keyboard-response","30","61986","0.0-5.0-3.8","63ecff07b619306f41db42fa","bdp_rd","Sat Mar 25 2023 21:41:52 GMT-0700 (Pacific Daylight Time)","175069","","null","","","","offerFB","","<div class='trialBorder'><div class='vertical-center'><img style='vertical-align:center; align:center' src=img/fixation3.jpg></div><div class='cl'><div class='vertical-center'><font style='color:orange'>$80<br>with a<br>50% chance</font></div></div><div class='cr'><div class='vertical-center'>$20<br>for<br>sure</div></div><div class='respDivL'><div class='vertical-center'><font style='color:orange'>(E)</font></div></div><div class='respDivR'><div class='vertical-center'>(I)</div></div></div>","null","$20","$80","1","20","80",""
"html-keyboard-response","31","62487","0.0-5.0-1.9","63ecff07b619306f41db42fa","bdp_rd","Sat Mar 25 2023 21:41:52 GMT-0700 (Pacific Daylight Time)","175069","","null","","","","FIX","","<div class='trialBorder'><div class='vertical-center'><img style='vertical-align:center; align:center' src=img/fixation3.jpg></div></div>","null","","","","","",""
"html-keyboard-response","32","64664","0.0-5.0-2.9","63ecff07b619306f41db42fa","bdp_rd","Sat Mar 25 2023 21:41:52 GMT-0700 (Pacific Daylight Time)","175069","","2175","","","","offer","","<div class='trialBorder'><div class='vertical-center'><img style='vertical-align:center; align:center' src=img/fixation3.jpg></div><div class='cl'><div class='vertical-center'>$16<br>for<br>sure</div></div><div class='cr'><div class='vertical-center'>$38<br>with a<br>50% chance</div></div><div class='respDivL'><div class='vertical-center'>(E)</div></div><div class='respDivR'><div class='vertical-center'>(I)</div></div></div>","I","$16","$38","0","16","38","RISKY"
"html-keyboard-response","33","64916","0.0-5.0-3.9","63ecff07b619306f41db42fa","bdp_rd","Sat Mar 25 2023 21:41:52 GMT-0700 (Pacific Daylight Time)","175069","","null","","","","offerFB","","<div class='trialBorder'><div class='vertical-center'><img style='vertical-align:center; align:center' src=img/fixation3.jpg></div><div class='cl'><div class='vertical-center'>$16<br>for<br>sure</div></div><div class='cr'><div class='vertical-center'><font style='color:orange'>$38<br>with a<br>50% chance</font></div></div><div class='respDivL'><div class='vertical-center'>(E)</div></div><div class='respDivR'><div class='vertical-center'><font style='color:orange'>(I)</font></div></div></div>","null","$16","$38","0","16","38",""
"html-keyboard-response","34","65416","0.0-5.0-1.10","63ecff07b619306f41db42fa","bdp_rd","Sat Mar 25 2023 21:41:52 GMT-0700 (Pacific Daylight Time)","175069","","null","","","","FIX","","<div class='trialBorder'><div class='vertical-center'><img style='vertical-align:center; align:center' src=img/fixation3.jpg></div></div>","null","","","","","",""
"html-keyboard-response","35","66919","0.0-5.0-2.10","63ecff07b619306f41db42fa","bdp_rd","Sat Mar 25 2023 21:41:52 GMT-0700 (Pacific Daylight Time)","175069","","1502","","","","offer","","<div class='trialBorder'><div class='vertical-center'><img style='vertical-align:center; align:center' src=img/fixation3.jpg></div><div class='cl'><div class='vertical-center'>$14<br>for<br>sure</div></div><div class='cr'><div class='vertical-center'>$29<br>with a<br>50% chance</div></div><div class='respDivL'><div class='vertical-center'>(E)</div></div><div class='respDivR'><div class='vertical-center'>(I)</div></div></div>","I","$14","$29","0","14","29","RISKY"
"html-keyboard-response","36","67171","0.0-5.0-3.10","63ecff07b619306f41db42fa","bdp_rd","Sat Mar 25 2023 21:41:52 GMT-0700 (Pacific Daylight Time)","175069","","null","","","","offerFB","","<div class='trialBorder'><div class='vertical-center'><img style='vertical-align:center; align:center' src=img/fixation3.jpg></div><div class='cl'><div class='vertical-center'>$14<br>for<br>sure</div></div><div class='cr'><div class='vertical-center'><font style='color:orange'>$29<br>with a<br>50% chance</font></div></div><div class='respDivL'><div class='vertical-center'>(E)</div></div><div class='respDivR'><div class='vertical-center'><font style='color:orange'>(I)</font></div></div></div>","null","$14","$29","0","14","29",""
"html-keyboard-response","37","67673","0.0-5.0-1.11","63ecff07b619306f41db42fa","bdp_rd","Sat Mar 25 2023 21:41:52 GMT-0700 (Pacific Daylight Time)","175069","","null","","","","FIX","","<div class='trialBorder'><div class='vertical-center'><img style='vertical-align:center; align:center' src=img/fixation3.jpg></div></div>","null","","","","","",""
"html-keyboard-response","38","69444","0.0-5.0-2.11","63ecff07b619306f41db42fa","bdp_rd","Sat Mar 25 2023 21:41:52 GMT-0700 (Pacific Daylight Time)","175069","","1770","","","","offer","","<div class='trialBorder'><div class='vertical-center'><img style='vertical-align:center; align:center' src=img/fixation3.jpg></div><div class='cl'><div class='vertical-center'>$65<br>with a<br>50% chance</div></div><div class='cr'><div class='vertical-center'>$46<br>for<br>sure</div></div><div class='respDivL'><div class='vertical-center'>(E)</div></div><div class='respDivR'><div class='vertical-center'>(I)</div></div></div>","I","$46","$65","1","46","65","SURE"
"html-keyboard-response","39","69694","0.0-5.0-3.11","63ecff07b619306f41db42fa","bdp_rd","Sat Mar 25 2023 21:41:52 GMT-0700 (Pacific Daylight Time)","175069","","null","","","","offerFB","","<div class='trialBorder'><div class='vertical-center'><img style='vertical-align:center; align:center' src=img/fixation3.jpg></div><div class='cl'><div class='vertical-center'>$65<br>with a<br>50% chance</div></div><div class='cr'><div class='vertical-center'><font style='color:orange'>$46<br>for<br>sure</font></div></div><div class='respDivL'><div class='vertical-center'>(E)</div></div><div class='respDivR'><div class='vertical-center'><font style='color:orange'>(I)</font></div></div></div>","null","$46","$65","1","46","65",""
"html-keyboard-response","40","70196","0.0-5.0-1.12","63ecff07b619306f41db42fa","bdp_rd","Sat Mar 25 2023 21:41:52 GMT-0700 (Pacific Daylight Time)","175069","","null","","","","FIX","","<div class='trialBorder'><div class='vertical-center'><img style='vertical-align:center; align:center' src=img/fixation3.jpg></div></div>","null","","","","","",""
"html-keyboard-response","41","71656","0.0-5.0-2.12","63ecff07b619306f41db42fa","bdp_rd","Sat Mar 25 2023 21:41:52 GMT-0700 (Pacific Daylight Time)","175069","","1460","","","","offer","","<div class='trialBorder'><div class='vertical-center'><img style='vertical-align:center; align:center' src=img/fixation3.jpg></div><div class='cl'><div class='vertical-center'>$34<br>for<br>sure</div></div><div class='cr'><div class='vertical-center'>$48<br>with a<br>50% chance</div></div><div class='respDivL'><div class='vertical-center'>(E)</div></div><div class='respDivR'><div class='vertical-center'>(I)</div></div></div>","E","$34","$48","0","34","48","SURE"
"html-keyboard-response","42","71908","0.0-5.0-3.12","63ecff07b619306f41db42fa","bdp_rd","Sat Mar 25 2023 21:41:52 GMT-0700 (Pacific Daylight Time)","175069","","null","","","","offerFB","","<div class='trialBorder'><div class='vertical-center'><img style='vertical-align:center; align:center' src=img/fixation3.jpg></div><div class='cl'><div class='vertical-center'><font style='color:orange'>$34<br>for<br>sure</font></div></div><div class='cr'><div class='vertical-center'>$48<br>with a<br>50% chance</div></div><div class='respDivL'><div class='vertical-center'><font style='color:orange'>(E)</font></div></div><div class='respDivR'><div class='vertical-center'>(I)</div></div></div>","null","$34","$48","0","34","48",""
"html-keyboard-response","43","72409","0.0-5.0-1.13","63ecff07b619306f41db42fa","bdp_rd","Sat Mar 25 2023 21:41:52 GMT-0700 (Pacific Daylight Time)","175069","","null","","","","FIX","","<div class='trialBorder'><div class='vertical-center'><img style='vertical-align:center; align:center' src=img/fixation3.jpg></div></div>","null","","","","","",""
"html-keyboard-response","44","73370","0.0-5.0-2.13","63ecff07b619306f41db42fa","bdp_rd","Sat Mar 25 2023 21:41:52 GMT-0700 (Pacific Daylight Time)","175069","","960","","","","offer","","<div class='trialBorder'><div class='vertical-center'><img style='vertical-align:center; align:center' src=img/fixation3.jpg></div><div class='cl'><div class='vertical-center'>$1<br>for<br>sure</div></div><div class='cr'><div class='vertical-center'>$30<br>with a<br>50% chance</div></div><div class='respDivL'><div class='vertical-center'>(E)</div></div><div class='respDivR'><div class='vertical-center'>(I)</div></div></div>","I","$1","$30","0","1","30","RISKY"
"html-keyboard-response","45","73623","0.0-5.0-3.13","63ecff07b619306f41db42fa","bdp_rd","Sat Mar 25 2023 21:41:52 GMT-0700 (Pacific Daylight Time)","175069","","null","","","","offerFB","","<div class='trialBorder'><div class='vertical-center'><img style='vertical-align:center; align:center' src=img/fixation3.jpg></div><div class='cl'><div class='vertical-center'>$1<br>for<br>sure</div></div><div class='cr'><div class='vertical-center'><font style='color:orange'>$30<br>with a<br>50% chance</font></div></div><div class='respDivL'><div class='vertical-center'>(E)</div></div><div class='respDivR'><div class='vertical-center'><font style='color:orange'>(I)</font></div></div></div>","null","$1","$30","0","1","30",""
"html-keyboard-response","46","74125","0.0-5.0-1.14","63ecff07b619306f41db42fa","bdp_rd","Sat Mar 25 2023 21:41:52 GMT-0700 (Pacific Daylight Time)","175069","","null","","","","FIX","","<div class='trialBorder'><div class='vertical-center'><img style='vertical-align:center; align:center' src=img/fixation3.jpg></div></div>","null","","","","","",""
"html-keyboard-response","47","75652","0.0-5.0-2.14","63ecff07b619306f41db42fa","bdp_rd","Sat Mar 25 2023 21:41:52 GMT-0700 (Pacific Daylight Time)","175069","","1527","","","","offer","","<div class='trialBorder'><div class='vertical-center'><img style='vertical-align:center; align:center' src=img/fixation3.jpg></div><div class='cl'><div class='vertical-center'>$31<br>for<br>sure</div></div><div class='cr'><div class='vertical-center'>$78<br>with a<br>50% chance</div></div><div class='respDivL'><div class='vertical-center'>(E)</div></div><div class='respDivR'><div class='vertical-center'>(I)</div></div></div>","I","$31","$78","0","31","78","RISKY"
"html-keyboard-response","48","75903","0.0-5.0-3.14","63ecff07b619306f41db42fa","bdp_rd","Sat Mar 25 2023 21:41:52 GMT-0700 (Pacific Daylight Time)","175069","","null","","","","offerFB","","<div class='trialBorder'><div class='vertical-center'><img style='vertical-align:center; align:center' src=img/fixation3.jpg></div><div class='cl'><div class='vertical-center'>$31<br>for<br>sure</div></div><div class='cr'><div class='vertical-center'><font style='color:orange'>$78<br>with a<br>50% chance</font></div></div><div class='respDivL'><div class='vertical-center'>(E)</div></div><div class='respDivR'><div class='vertical-center'><font style='color:orange'>(I)</font></div></div></div>","null","$31","$78","0","31","78",""
"html-keyboard-response","49","76405","0.0-5.0-1.15","63ecff07b619306f41db42fa","bdp_rd","Sat Mar 25 2023 21:41:52 GMT-0700 (Pacific Daylight Time)","175069","","null","","","","FIX","","<div class='trialBorder'><div class='vertical-center'><img style='vertical-align:center; align:center' src=img/fixation3.jpg></div></div>","null","","","","","",""
"html-keyboard-response","50","79104","0.0-5.0-2.15","63ecff07b619306f41db42fa","bdp_rd","Sat Mar 25 2023 21:41:52 GMT-0700 (Pacific Daylight Time)","175069","","2697","","","","offer","","<div class='trialBorder'><div class='vertical-center'><img style='vertical-align:center; align:center' src=img/fixation3.jpg></div><div class='cl'><div class='vertical-center'>$14<br>with a<br>50% chance</div></div><div class='cr'><div class='vertical-center'>$4<br>for<br>sure</div></div><div class='respDivL'><div class='vertical-center'>(E)</div></div><div class='respDivR'><div class='vertical-center'>(I)</div></div></div>","I","$4","$14","1","4","14","SURE"
"html-keyboard-response","51","79355","0.0-5.0-3.15","63ecff07b619306f41db42fa","bdp_rd","Sat Mar 25 2023 21:41:52 GMT-0700 (Pacific Daylight Time)","175069","","null","","","","offerFB","","<div class='trialBorder'><div class='vertical-center'><img style='vertical-align:center; align:center' src=img/fixation3.jpg></div><div class='cl'><div class='vertical-center'>$14<br>with a<br>50% chance</div></div><div class='cr'><div class='vertical-center'><font style='color:orange'>$4<br>for<br>sure</font></div></div><div class='respDivL'><div class='vertical-center'>(E)</div></div><div class='respDivR'><div class='vertical-center'><font style='color:orange'>(I)</font></div></div></div>","null","$4","$14","1","4","14",""
"html-keyboard-response","52","79856","0.0-5.0-1.16","63ecff07b619306f41db42fa","bdp_rd","Sat Mar 25 2023 21:41:52 GMT-0700 (Pacific Daylight Time)","175069","","null","","","","FIX","","<div class='trialBorder'><div class='vertical-center'><img style='vertical-align:center; align:center' src=img/fixation3.jpg></div></div>","null","","","","","",""
"html-keyboard-response","53","81692","0.0-5.0-2.16","63ecff07b619306f41db42fa","bdp_rd","Sat Mar 25 2023 21:41:52 GMT-0700 (Pacific Daylight Time)","175069","","1835","","","","offer","","<div class='trialBorder'><div class='vertical-center'><img style='vertical-align:center; align:center' src=img/fixation3.jpg></div><div class='cl'><div class='vertical-center'>$4<br>for<br>sure</div></div><div class='cr'><div class='vertical-center'>$11<br>with a<br>50% chance</div></div><div class='respDivL'><div class='vertical-center'>(E)</div></div><div class='respDivR'><div class='vertical-center'>(I)</div></div></div>","E","$4","$11","0","4","11","SURE"
"html-keyboard-response","54","81943","0.0-5.0-3.16","63ecff07b619306f41db42fa","bdp_rd","Sat Mar 25 2023 21:41:52 GMT-0700 (Pacific Daylight Time)","175069","","null","","","","offerFB","","<div class='trialBorder'><div class='vertical-center'><img style='vertical-align:center; align:center' src=img/fixation3.jpg></div><div class='cl'><div class='vertical-center'><font style='color:orange'>$4<br>for<br>sure</font></div></div><div class='cr'><div class='vertical-center'>$11<br>with a<br>50% chance</div></div><div class='respDivL'><div class='vertical-center'><font style='color:orange'>(E)</font></div></div><div class='respDivR'><div class='vertical-center'>(I)</div></div></div>","null","$4","$11","0","4","11",""
"html-keyboard-response","55","82444","0.0-5.0-1.17","63ecff07b619306f41db42fa","bdp_rd","Sat Mar 25 2023 21:41:52 GMT-0700 (Pacific Daylight Time)","175069","","null","","","","FIX","","<div class='trialBorder'><div class='vertical-center'><img style='vertical-align:center; align:center' src=img/fixation3.jpg></div></div>","null","","","","","",""
"html-keyboard-response","56","83810","0.0-5.0-2.17","63ecff07b619306f41db42fa","bdp_rd","Sat Mar 25 2023 21:41:52 GMT-0700 (Pacific Daylight Time)","175069","","1364","","","","offer","","<div class='trialBorder'><div class='vertical-center'><img style='vertical-align:center; align:center' src=img/fixation3.jpg></div><div class='cl'><div class='vertical-center'>$39<br>with a<br>50% chance</div></div><div class='cr'><div class='vertical-center'>$18<br>for<br>sure</div></div><div class='respDivL'><div class='vertical-center'>(E)</div></div><div class='respDivR'><div class='vertical-center'>(I)</div></div></div>","E","$18","$39","1","18","39","RISKY"
"html-keyboard-response","57","84062","0.0-5.0-3.17","63ecff07b619306f41db42fa","bdp_rd","Sat Mar 25 2023 21:41:52 GMT-0700 (Pacific Daylight Time)","175069","","null","","","","offerFB","","<div class='trialBorder'><div class='vertical-center'><img style='vertical-align:center; align:center' src=img/fixation3.jpg></div><div class='cl'><div class='vertical-center'><font style='color:orange'>$39<br>with a<br>50% chance</font></div></div><div class='cr'><div class='vertical-center'>$18<br>for<br>sure</div></div><div class='respDivL'><div class='vertical-center'><font style='color:orange'>(E)</font></div></div><div class='respDivR'><div class='vertical-center'>(I)</div></div></div>","null","$18","$39","1","18","39",""
"html-keyboard-response","58","84563","0.0-5.0-1.18","63ecff07b619306f41db42fa","bdp_rd","Sat Mar 25 2023 21:41:52 GMT-0700 (Pacific Daylight Time)","175069","","null","","","","FIX","","<div class='trialBorder'><div class='vertical-center'><img style='vertical-align:center; align:center' src=img/fixation3.jpg></div></div>","null","","","","","",""
"html-keyboard-response","59","86420","0.0-5.0-2.18","63ecff07b619306f41db42fa","bdp_rd","Sat Mar 25 2023 21:41:52 GMT-0700 (Pacific Daylight Time)","175069","","1856","","","","offer","","<div class='trialBorder'><div class='vertical-center'><img style='vertical-align:center; align:center' src=img/fixation3.jpg></div><div class='cl'><div class='vertical-center'>$47<br>with a<br>50% chance</div></div><div class='cr'><div class='vertical-center'>$27<br>for<br>sure</div></div><div class='respDivL'><div class='vertical-center'>(E)</div></div><div class='respDivR'><div class='vertical-center'>(I)</div></div></div>","I","$27","$47","1","27","47","SURE"
"html-keyboard-response","60","86671","0.0-5.0-3.18","63ecff07b619306f41db42fa","bdp_rd","Sat Mar 25 2023 21:41:52 GMT-0700 (Pacific Daylight Time)","175069","","null","","","","offerFB","","<div class='trialBorder'><div class='vertical-center'><img style='vertical-align:center; align:center' src=img/fixation3.jpg></div><div class='cl'><div class='vertical-center'>$47<br>with a<br>50% chance</div></div><div class='cr'><div class='vertical-center'><font style='color:orange'>$27<br>for<br>sure</font></div></div><div class='respDivL'><div class='vertical-center'>(E)</div></div><div class='respDivR'><div class='vertical-center'><font style='color:orange'>(I)</font></div></div></div>","null","$27","$47","1","27","47",""
"html-keyboard-response","61","87172","0.0-5.0-1.19","63ecff07b619306f41db42fa","bdp_rd","Sat Mar 25 2023 21:41:52 GMT-0700 (Pacific Daylight Time)","175069","","null","","","","FIX","","<div class='trialBorder'><div class='vertical-center'><img style='vertical-align:center; align:center' src=img/fixation3.jpg></div></div>","null","","","","","",""
"html-keyboard-response","62","88641","0.0-5.0-2.19","63ecff07b619306f41db42fa","bdp_rd","Sat Mar 25 2023 21:41:52 GMT-0700 (Pacific Daylight Time)","175069","","1469","","","","offer","","<div class='trialBorder'><div class='vertical-center'><img style='vertical-align:center; align:center' src=img/fixation3.jpg></div><div class='cl'><div class='vertical-center'>$24<br>for<br>sure</div></div><div class='cr'><div class='vertical-center'>$70<br>with a<br>50% chance</div></div><div class='respDivL'><div class='vertical-center'>(E)</div></div><div class='respDivR'><div class='vertical-center'>(I)</div></div></div>","I","$24","$70","0","24","70","RISKY"
"html-keyboard-response","63","88894","0.0-5.0-3.19","63ecff07b619306f41db42fa","bdp_rd","Sat Mar 25 2023 21:41:52 GMT-0700 (Pacific Daylight Time)","175069","","null","","","","offerFB","","<div class='trialBorder'><div class='vertical-center'><img style='vertical-align:center; align:center' src=img/fixation3.jpg></div><div class='cl'><div class='vertical-center'>$24<br>for<br>sure</div></div><div class='cr'><div class='vertical-center'><font style='color:orange'>$70<br>with a<br>50% chance</font></div></div><div class='respDivL'><div class='vertical-center'>(E)</div></div><div class='respDivR'><div class='vertical-center'><font style='color:orange'>(I)</font></div></div></div>","null","$24","$70","0","24","70",""
"html-keyboard-response","64","89396","0.0-5.0-1.20","63ecff07b619306f41db42fa","bdp_rd","Sat Mar 25 2023 21:41:52 GMT-0700 (Pacific Daylight Time)","175069","","null","","","","FIX","","<div class='trialBorder'><div class='vertical-center'><img style='vertical-align:center; align:center' src=img/fixation3.jpg></div></div>","null","","","","","",""
"html-keyboard-response","65","90761","0.0-5.0-2.20","63ecff07b619306f41db42fa","bdp_rd","Sat Mar 25 2023 21:41:52 GMT-0700 (Pacific Daylight Time)","175069","","1364","","","","offer","","<div class='trialBorder'><div class='vertical-center'><img style='vertical-align:center; align:center' src=img/fixation3.jpg></div><div class='cl'><div class='vertical-center'>$100<br>with a<br>50% chance</div></div><div class='cr'><div class='vertical-center'>$63<br>for<br>sure</div></div><div class='respDivL'><div class='vertical-center'>(E)</div></div><div class='respDivR'><div class='vertical-center'>(I)</div></div></div>","I","$63","$100","1","63","10","SURE"
"html-keyboard-response","66","91014","0.0-5.0-3.20","63ecff07b619306f41db42fa","bdp_rd","Sat Mar 25 2023 21:41:52 GMT-0700 (Pacific Daylight Time)","175069","","null","","","","offerFB","","<div class='trialBorder'><div class='vertical-center'><img style='vertical-align:center; align:center' src=img/fixation3.jpg></div><div class='cl'><div class='vertical-center'>$100<br>with a<br>50% chance</div></div><div class='cr'><div class='vertical-center'><font style='color:orange'>$63<br>for<br>sure</font></div></div><div class='respDivL'><div class='vertical-center'>(E)</div></div><div class='respDivR'><div class='vertical-center'><font style='color:orange'>(I)</font></div></div></div>","null","$63","$100","1","63","10",""
"html-keyboard-response","67","91516","0.0-5.0-1.21","63ecff07b619306f41db42fa","bdp_rd","Sat Mar 25 2023 21:41:52 GMT-0700 (Pacific Daylight Time)","175069","","null","","","","FIX","","<div class='trialBorder'><div class='vertical-center'><img style='vertical-align:center; align:center' src=img/fixation3.jpg></div></div>","null","","","","","",""
"html-keyboard-response","68","93079","0.0-5.0-2.21","63ecff07b619306f41db42fa","bdp_rd","Sat Mar 25 2023 21:41:52 GMT-0700 (Pacific Daylight Time)","175069","","1562","","","","offer","","<div class='trialBorder'><div class='vertical-center'><img style='vertical-align:center; align:center' src=img/fixation3.jpg></div><div class='cl'><div class='vertical-center'>$10<br>with a<br>50% chance</div></div><div class='cr'><div class='vertical-center'>$7<br>for<br>sure</div></div><div class='respDivL'><div class='vertical-center'>(E)</div></div><div class='respDivR'><div class='vertical-center'>(I)</div></div></div>","I","$7","$10","1","7","10","SURE"
"html-keyboard-response","69","93331","0.0-5.0-3.21","63ecff07b619306f41db42fa","bdp_rd","Sat Mar 25 2023 21:41:52 GMT-0700 (Pacific Daylight Time)","175069","","null","","","","offerFB","","<div class='trialBorder'><div class='vertical-center'><img style='vertical-align:center; align:center' src=img/fixation3.jpg></div><div class='cl'><div class='vertical-center'>$10<br>with a<br>50% chance</div></div><div class='cr'><div class='vertical-center'><font style='color:orange'>$7<br>for<br>sure</font></div></div><div class='respDivL'><div class='vertical-center'>(E)</div></div><div class='respDivR'><div class='vertical-center'><font style='color:orange'>(I)</font></div></div></div>","null","$7","$10","1","7","10",""
"html-keyboard-response","70","93832","0.0-5.0-1.22","63ecff07b619306f41db42fa","bdp_rd","Sat Mar 25 2023 21:41:52 GMT-0700 (Pacific Daylight Time)","175069","","null","","","","FIX","","<div class='trialBorder'><div class='vertical-center'><img style='vertical-align:center; align:center' src=img/fixation3.jpg></div></div>","null","","","","","",""
"html-keyboard-response","71","95500","0.0-5.0-2.22","63ecff07b619306f41db42fa","bdp_rd","Sat Mar 25 2023 21:41:52 GMT-0700 (Pacific Daylight Time)","175069","","1667","","","","offer","","<div class='trialBorder'><div class='vertical-center'><img style='vertical-align:center; align:center' src=img/fixation3.jpg></div><div class='cl'><div class='vertical-center'>$10<br>for<br>sure</div></div><div class='cr'><div class='vertical-center'>$40<br>with a<br>50% chance</div></div><div class='respDivL'><div class='vertical-center'>(E)</div></div><div class='respDivR'><div class='vertical-center'>(I)</div></div></div>","I","$10","$40","0","10","40","RISKY"
"html-keyboard-response","72","95750","0.0-5.0-3.22","63ecff07b619306f41db42fa","bdp_rd","Sat Mar 25 2023 21:41:52 GMT-0700 (Pacific Daylight Time)","175069","","null","","","","offerFB","","<div class='trialBorder'><div class='vertical-center'><img style='vertical-align:center; align:center' src=img/fixation3.jpg></div><div class='cl'><div class='vertical-center'>$10<br>for<br>sure</div></div><div class='cr'><div class='vertical-center'><font style='color:orange'>$40<br>with a<br>50% chance</font></div></div><div class='respDivL'><div class='vertical-center'>(E)</div></div><div class='respDivR'><div class='vertical-center'><font style='color:orange'>(I)</font></div></div></div>","null","$10","$40","0","10","40",""
"html-keyboard-response","73","96251","0.0-5.0-1.23","63ecff07b619306f41db42fa","bdp_rd","Sat Mar 25 2023 21:41:52 GMT-0700 (Pacific Daylight Time)","175069","","null","","","","FIX","","<div class='trialBorder'><div class='vertical-center'><img style='vertical-align:center; align:center' src=img/fixation3.jpg></div></div>","null","","","","","",""
"html-keyboard-response","74","97632","0.0-5.0-2.23","63ecff07b619306f41db42fa","bdp_rd","Sat Mar 25 2023 21:41:52 GMT-0700 (Pacific Daylight Time)","175069","","1379","","","","offer","","<div class='trialBorder'><div class='vertical-center'><img style='vertical-align:center; align:center' src=img/fixation3.jpg></div><div class='cl'><div class='vertical-center'>$58<br>for<br>sure</div></div><div class='cr'><div class='vertical-center'>$69<br>with a<br>50% chance</div></div><div class='respDivL'><div class='vertical-center'>(E)</div></div><div class='respDivR'><div class='vertical-center'>(I)</div></div></div>","I","$58","$69","0","58","69","RISKY"
"html-keyboard-response","75","97884","0.0-5.0-3.23","63ecff07b619306f41db42fa","bdp_rd","Sat Mar 25 2023 21:41:52 GMT-0700 (Pacific Daylight Time)","175069","","null","","","","offerFB","","<div class='trialBorder'><div class='vertical-center'><img style='vertical-align:center; align:center' src=img/fixation3.jpg></div><div class='cl'><div class='vertical-center'>$58<br>for<br>sure</div></div><div class='cr'><div class='vertical-center'><font style='color:orange'>$69<br>with a<br>50% chance</font></div></div><div class='respDivL'><div class='vertical-center'>(E)</div></div><div class='respDivR'><div class='vertical-center'><font style='color:orange'>(I)</font></div></div></div>","null","$58","$69","0","58","69",""
"html-keyboard-response","76","98385","0.0-5.0-1.24","63ecff07b619306f41db42fa","bdp_rd","Sat Mar 25 2023 21:41:52 GMT-0700 (Pacific Daylight Time)","175069","","null","","","","FIX","","<div class='trialBorder'><div class='vertical-center'><img style='vertical-align:center; align:center' src=img/fixation3.jpg></div></div>","null","","","","","",""
"html-keyboard-response","77","99988","0.0-5.0-2.24","63ecff07b619306f41db42fa","bdp_rd","Sat Mar 25 2023 21:41:52 GMT-0700 (Pacific Daylight Time)","175069","","1602","","","","offer","","<div class='trialBorder'><div class='vertical-center'><img style='vertical-align:center; align:center' src=img/fixation3.jpg></div><div class='cl'><div class='vertical-center'>$37<br>for<br>sure</div></div><div class='cr'><div class='vertical-center'>$44<br>with a<br>50% chance</div></div><div class='respDivL'><div class='vertical-center'>(E)</div></div><div class='respDivR'><div class='vertical-center'>(I)</div></div></div>","E","$37","$44","0","37","44","SURE"
"html-keyboard-response","78","100239","0.0-5.0-3.24","63ecff07b619306f41db42fa","bdp_rd","Sat Mar 25 2023 21:41:52 GMT-0700 (Pacific Daylight Time)","175069","","null","","","","offerFB","","<div class='trialBorder'><div class='vertical-center'><img style='vertical-align:center; align:center' src=img/fixation3.jpg></div><div class='cl'><div class='vertical-center'><font style='color:orange'>$37<br>for<br>sure</font></div></div><div class='cr'><div class='vertical-center'>$44<br>with a<br>50% chance</div></div><div class='respDivL'><div class='vertical-center'><font style='color:orange'>(E)</font></div></div><div class='respDivR'><div class='vertical-center'>(I)</div></div></div>","null","$37","$44","0","37","44",""
"html-keyboard-response","79","100740","0.0-5.0-1.25","63ecff07b619306f41db42fa","bdp_rd","Sat Mar 25 2023 21:41:52 GMT-0700 (Pacific Daylight Time)","175069","","null","","","","FIX","","<div class='trialBorder'><div class='vertical-center'><img style='vertical-align:center; align:center' src=img/fixation3.jpg></div></div>","null","","","","","",""
"html-keyboard-response","80","102569","0.0-5.0-2.25","63ecff07b619306f41db42fa","bdp_rd","Sat Mar 25 2023 21:41:52 GMT-0700 (Pacific Daylight Time)","175069","","1829","","","","offer","","<div class='trialBorder'><div class='vertical-center'><img style='vertical-align:center; align:center' src=img/fixation3.jpg></div><div class='cl'><div class='vertical-center'>$23<br>with a<br>50% chance</div></div><div class='cr'><div class='vertical-center'>$8<br>for<br>sure</div></div><div class='respDivL'><div class='vertical-center'>(E)</div></div><div class='respDivR'><div class='vertical-center'>(I)</div></div></div>","I","$8","$23","1","8","23","SURE"
"html-keyboard-response","81","102821","0.0-5.0-3.25","63ecff07b619306f41db42fa","bdp_rd","Sat Mar 25 2023 21:41:52 GMT-0700 (Pacific Daylight Time)","175069","","null","","","","offerFB","","<div class='trialBorder'><div class='vertical-center'><img style='vertical-align:center; align:center' src=img/fixation3.jpg></div><div class='cl'><div class='vertical-center'>$23<br>with a<br>50% chance</div></div><div class='cr'><div class='vertical-center'><font style='color:orange'>$8<br>for<br>sure</font></div></div><div class='respDivL'><div class='vertical-center'>(E)</div></div><div class='respDivR'><div class='vertical-center'><font style='color:orange'>(I)</font></div></div></div>","null","$8","$23","1","8","23",""
"html-keyboard-response","82","103323","0.0-5.0-1.26","63ecff07b619306f41db42fa","bdp_rd","Sat Mar 25 2023 21:41:52 GMT-0700 (Pacific Daylight Time)","175069","","null","","","","FIX","","<div class='trialBorder'><div class='vertical-center'><img style='vertical-align:center; align:center' src=img/fixation3.jpg></div></div>","null","","","","","",""
"html-keyboard-response","83","105009","0.0-5.0-2.26","63ecff07b619306f41db42fa","bdp_rd","Sat Mar 25 2023 21:41:52 GMT-0700 (Pacific Daylight Time)","175069","","1684","","","","offer","","<div class='trialBorder'><div class='vertical-center'><img style='vertical-align:center; align:center' src=img/fixation3.jpg></div><div class='cl'><div class='vertical-center'>$12<br>for<br>sure</div></div><div class='cr'><div class='vertical-center'>$27<br>with a<br>50% chance</div></div><div class='respDivL'><div class='vertical-center'>(E)</div></div><div class='respDivR'><div class='vertical-center'>(I)</div></div></div>","E","$12","$27","0","12","27","SURE"
"html-keyboard-response","84","105262","0.0-5.0-3.26","63ecff07b619306f41db42fa","bdp_rd","Sat Mar 25 2023 21:41:52 GMT-0700 (Pacific Daylight Time)","175069","","null","","","","offerFB","","<div class='trialBorder'><div class='vertical-center'><img style='vertical-align:center; align:center' src=img/fixation3.jpg></div><div class='cl'><div class='vertical-center'><font style='color:orange'>$12<br>for<br>sure</font></div></div><div class='cr'><div class='vertical-center'>$27<br>with a<br>50% chance</div></div><div class='respDivL'><div class='vertical-center'><font style='color:orange'>(E)</font></div></div><div class='respDivR'><div class='vertical-center'>(I)</div></div></div>","null","$12","$27","0","12","27",""
"html-keyboard-response","85","105763","0.0-5.0-1.27","63ecff07b619306f41db42fa","bdp_rd","Sat Mar 25 2023 21:41:52 GMT-0700 (Pacific Daylight Time)","175069","","null","","","","FIX","","<div class='trialBorder'><div class='vertical-center'><img style='vertical-align:center; align:center' src=img/fixation3.jpg></div></div>","null","","","","","",""
"html-keyboard-response","86","106908","0.0-5.0-2.27","63ecff07b619306f41db42fa","bdp_rd","Sat Mar 25 2023 21:41:52 GMT-0700 (Pacific Daylight Time)","175069","","1144","","","","offer","","<div class='trialBorder'><div class='vertical-center'><img style='vertical-align:center; align:center' src=img/fixation3.jpg></div><div class='cl'><div class='vertical-center'>$1<br>for<br>sure</div></div><div class='cr'><div class='vertical-center'>$33<br>with a<br>50% chance</div></div><div class='respDivL'><div class='vertical-center'>(E)</div></div><div class='respDivR'><div class='vertical-center'>(I)</div></div></div>","I","$1","$33","0","1","33","RISKY"
"html-keyboard-response","87","107160","0.0-5.0-3.27","63ecff07b619306f41db42fa","bdp_rd","Sat Mar 25 2023 21:41:52 GMT-0700 (Pacific Daylight Time)","175069","","null","","","","offerFB","","<div class='trialBorder'><div class='vertical-center'><img style='vertical-align:center; align:center' src=img/fixation3.jpg></div><div class='cl'><div class='vertical-center'>$1<br>for<br>sure</div></div><div class='cr'><div class='vertical-center'><font style='color:orange'>$33<br>with a<br>50% chance</font></div></div><div class='respDivL'><div class='vertical-center'>(E)</div></div><div class='respDivR'><div class='vertical-center'><font style='color:orange'>(I)</font></div></div></div>","null","$1","$33","0","1","33",""
"html-keyboard-response","88","107661","0.0-5.0-1.28","63ecff07b619306f41db42fa","bdp_rd","Sat Mar 25 2023 21:41:52 GMT-0700 (Pacific Daylight Time)","175069","","null","","","","FIX","","<div class='trialBorder'><div class='vertical-center'><img style='vertical-align:center; align:center' src=img/fixation3.jpg></div></div>","null","","","","","",""
"html-keyboard-response","89","109297","0.0-5.0-2.28","63ecff07b619306f41db42fa","bdp_rd","Sat Mar 25 2023 21:41:52 GMT-0700 (Pacific Daylight Time)","175069","","1635","","","","offer","","<div class='trialBorder'><div class='vertical-center'><img style='vertical-align:center; align:center' src=img/fixation3.jpg></div><div class='cl'><div class='vertical-center'>$3<br>for<br>sure</div></div><div class='cr'><div class='vertical-center'>$17<br>with a<br>50% chance</div></div><div class='respDivL'><div class='vertical-center'>(E)</div></div><div class='respDivR'><div class='vertical-center'>(I)</div></div></div>","I","$3","$17","0","3","17","RISKY"
"html-keyboard-response","90","109549","0.0-5.0-3.28","63ecff07b619306f41db42fa","bdp_rd","Sat Mar 25 2023 21:41:52 GMT-0700 (Pacific Daylight Time)","175069","","null","","","","offerFB","","<div class='trialBorder'><div class='vertical-center'><img style='vertical-align:center; align:center' src=img/fixation3.jpg></div><div class='cl'><div class='vertical-center'>$3<br>for<br>sure</div></div><div class='cr'><div class='vertical-center'><font style='color:orange'>$17<br>with a<br>50% chance</font></div></div><div class='respDivL'><div class='vertical-center'>(E)</div></div><div class='respDivR'><div class='vertical-center'><font style='color:orange'>(I)</font></div></div></div>","null","$3","$17","0","3","17",""
"html-keyboard-response","91","110049","0.0-5.0-1.29","63ecff07b619306f41db42fa","bdp_rd","Sat Mar 25 2023 21:41:52 GMT-0700 (Pacific Daylight Time)","175069","","null","","","","FIX","","<div class='trialBorder'><div class='vertical-center'><img style='vertical-align:center; align:center' src=img/fixation3.jpg></div></div>","null","","","","","",""
"html-keyboard-response","92","111620","0.0-5.0-2.29","63ecff07b619306f41db42fa","bdp_rd","Sat Mar 25 2023 21:41:52 GMT-0700 (Pacific Daylight Time)","175069","","1569","","","","offer","","<div class='trialBorder'><div class='vertical-center'><img style='vertical-align:center; align:center' src=img/fixation3.jpg></div><div class='cl'><div class='vertical-center'>$21<br>for<br>sure</div></div><div class='cr'><div class='vertical-center'>$25<br>with a<br>50% chance</div></div><div class='respDivL'><div class='vertical-center'>(E)</div></div><div class='respDivR'><div class='vertical-center'>(I)</div></div></div>","E","$21","$25","0","21","25","SURE"
"html-keyboard-response","93","111871","0.0-5.0-3.29","63ecff07b619306f41db42fa","bdp_rd","Sat Mar 25 2023 21:41:52 GMT-0700 (Pacific Daylight Time)","175069","","null","","","","offerFB","","<div class='trialBorder'><div class='vertical-center'><img style='vertical-align:center; align:center' src=img/fixation3.jpg></div><div class='cl'><div class='vertical-center'><font style='color:orange'>$21<br>for<br>sure</font></div></div><div class='cr'><div class='vertical-center'>$25<br>with a<br>50% chance</div></div><div class='respDivL'><div class='vertical-center'><font style='color:orange'>(E)</font></div></div><div class='respDivR'><div class='vertical-center'>(I)</div></div></div>","null","$21","$25","0","21","25",""
"html-keyboard-response","94","112372","0.0-5.0-1.30","63ecff07b619306f41db42fa","bdp_rd","Sat Mar 25 2023 21:41:52 GMT-0700 (Pacific Daylight Time)","175069","","null","","","","FIX","","<div class='trialBorder'><div class='vertical-center'><img style='vertical-align:center; align:center' src=img/fixation3.jpg></div></div>","null","","","","","",""
"html-keyboard-response","95","114117","0.0-5.0-2.30","63ecff07b619306f41db42fa","bdp_rd","Sat Mar 25 2023 21:41:52 GMT-0700 (Pacific Daylight Time)","175069","","1745","","","","offer","","<div class='trialBorder'><div class='vertical-center'><img style='vertical-align:center; align:center' src=img/fixation3.jpg></div><div class='cl'><div class='vertical-center'>$18<br>with a<br>50% chance</div></div><div class='cr'><div class='vertical-center'>$9<br>for<br>sure</div></div><div class='respDivL'><div class='vertical-center'>(E)</div></div><div class='respDivR'><div class='vertical-center'>(I)</div></div></div>","E","$9","$18","1","9","18","RISKY"
"html-keyboard-response","96","114369","0.0-5.0-3.30","63ecff07b619306f41db42fa","bdp_rd","Sat Mar 25 2023 21:41:52 GMT-0700 (Pacific Daylight Time)","175069","","null","","","","offerFB","","<div class='trialBorder'><div class='vertical-center'><img style='vertical-align:center; align:center' src=img/fixation3.jpg></div><div class='cl'><div class='vertical-center'><font style='color:orange'>$18<br>with a<br>50% chance</font></div></div><div class='cr'><div class='vertical-center'>$9<br>for<br>sure</div></div><div class='respDivL'><div class='vertical-center'><font style='color:orange'>(E)</font></div></div><div class='respDivR'><div class='vertical-center'>(I)</div></div></div>","null","$9","$18","1","9","18",""
"html-keyboard-response","97","114871","0.0-5.0-1.31","63ecff07b619306f41db42fa","bdp_rd","Sat Mar 25 2023 21:41:52 GMT-0700 (Pacific Daylight Time)","175069","","null","","","","FIX","","<div class='trialBorder'><div class='vertical-center'><img style='vertical-align:center; align:center' src=img/fixation3.jpg></div></div>","null","","","","","",""
"html-keyboard-response","98","116315","0.0-5.0-2.31","63ecff07b619306f41db42fa","bdp_rd","Sat Mar 25 2023 21:41:52 GMT-0700 (Pacific Daylight Time)","175069","","1443","","","","offer","","<div class='trialBorder'><div class='vertical-center'><img style='vertical-align:center; align:center' src=img/fixation3.jpg></div><div class='cl'><div class='vertical-center'>$13<br>for<br>sure</div></div><div class='cr'><div class='vertical-center'>$41<br>with a<br>50% chance</div></div><div class='respDivL'><div class='vertical-center'>(E)</div></div><div class='respDivR'><div class='vertical-center'>(I)</div></div></div>","I","$13","$41","0","13","41","RISKY"
"html-keyboard-response","99","116566","0.0-5.0-3.31","63ecff07b619306f41db42fa","bdp_rd","Sat Mar 25 2023 21:41:52 GMT-0700 (Pacific Daylight Time)","175069","","null","","","","offerFB","","<div class='trialBorder'><div class='vertical-center'><img style='vertical-align:center; align:center' src=img/fixation3.jpg></div><div class='cl'><div class='vertical-center'>$13<br>for<br>sure</div></div><div class='cr'><div class='vertical-center'><font style='color:orange'>$41<br>with a<br>50% chance</font></div></div><div class='respDivL'><div class='vertical-center'>(E)</div></div><div class='respDivR'><div class='vertical-center'><font style='color:orange'>(I)</font></div></div></div>","null","$13","$41","0","13","41",""
"html-keyboard-response","100","117068","0.0-5.0-1.32","63ecff07b619306f41db42fa","bdp_rd","Sat Mar 25 2023 21:41:52 GMT-0700 (Pacific Daylight Time)","175069","","null","","","","FIX","","<div class='trialBorder'><div class='vertical-center'><img style='vertical-align:center; align:center' src=img/fixation3.jpg></div></div>","null","","","","","",""
"html-keyboard-response","101","118791","0.0-5.0-2.32","63ecff07b619306f41db42fa","bdp_rd","Sat Mar 25 2023 21:41:52 GMT-0700 (Pacific Daylight Time)","175069","","1723","","","","offer","","<div class='trialBorder'><div class='vertical-center'><img style='vertical-align:center; align:center' src=img/fixation3.jpg></div><div class='cl'><div class='vertical-center'>$39<br>for<br>sure</div></div><div class='cr'><div class='vertical-center'>$81<br>with a<br>50% chance</div></div><div class='respDivL'><div class='vertical-center'>(E)</div></div><div class='respDivR'><div class='vertical-center'>(I)</div></div></div>","I","$39","$81","0","39","81","RISKY"
"html-keyboard-response","102","119042","0.0-5.0-3.32","63ecff07b619306f41db42fa","bdp_rd","Sat Mar 25 2023 21:41:52 GMT-0700 (Pacific Daylight Time)","175069","","null","","","","offerFB","","<div class='trialBorder'><div class='vertical-center'><img style='vertical-align:center; align:center' src=img/fixation3.jpg></div><div class='cl'><div class='vertical-center'>$39<br>for<br>sure</div></div><div class='cr'><div class='vertical-center'><font style='color:orange'>$81<br>with a<br>50% chance</font></div></div><div class='respDivL'><div class='vertical-center'>(E)</div></div><div class='respDivR'><div class='vertical-center'><font style='color:orange'>(I)</font></div></div></div>","null","$39","$81","0","39","81",""
"html-keyboard-response","103","119543","0.0-5.0-1.33","63ecff07b619306f41db42fa","bdp_rd","Sat Mar 25 2023 21:41:52 GMT-0700 (Pacific Daylight Time)","175069","","null","","","","FIX","","<div class='trialBorder'><div class='vertical-center'><img style='vertical-align:center; align:center' src=img/fixation3.jpg></div></div>","null","","","","","",""
"html-keyboard-response","104","121452","0.0-5.0-2.33","63ecff07b619306f41db42fa","bdp_rd","Sat Mar 25 2023 21:41:52 GMT-0700 (Pacific Daylight Time)","175069","","1908","","","","offer","","<div class='trialBorder'><div class='vertical-center'><img style='vertical-align:center; align:center' src=img/fixation3.jpg></div><div class='cl'><div class='vertical-center'>$21<br>with a<br>50% chance</div></div><div class='cr'><div class='vertical-center'>$2<br>for<br>sure</div></div><div class='respDivL'><div class='vertical-center'>(E)</div></div><div class='respDivR'><div class='vertical-center'>(I)</div></div></div>","E","$2","$21","1","2","21","RISKY"
"html-keyboard-response","105","121705","0.0-5.0-3.33","63ecff07b619306f41db42fa","bdp_rd","Sat Mar 25 2023 21:41:52 GMT-0700 (Pacific Daylight Time)","175069","","null","","","","offerFB","","<div class='trialBorder'><div class='vertical-center'><img style='vertical-align:center; align:center' src=img/fixation3.jpg></div><div class='cl'><div class='vertical-center'><font style='color:orange'>$21<br>with a<br>50% chance</font></div></div><div class='cr'><div class='vertical-center'>$2<br>for<br>sure</div></div><div class='respDivL'><div class='vertical-center'><font style='color:orange'>(E)</font></div></div><div class='respDivR'><div class='vertical-center'>(I)</div></div></div>","null","$2","$21","1","2","21",""
"html-keyboard-response","106","122207","0.0-5.0-1.34","63ecff07b619306f41db42fa","bdp_rd","Sat Mar 25 2023 21:41:52 GMT-0700 (Pacific Daylight Time)","175069","","null","","","","FIX","","<div class='trialBorder'><div class='vertical-center'><img style='vertical-align:center; align:center' src=img/fixation3.jpg></div></div>","null","","","","","",""
"html-keyboard-response","107","123260","0.0-5.0-2.34","63ecff07b619306f41db42fa","bdp_rd","Sat Mar 25 2023 21:41:52 GMT-0700 (Pacific Daylight Time)","175069","","1052","","","","offer","","<div class='trialBorder'><div class='vertical-center'><img style='vertical-align:center; align:center' src=img/fixation3.jpg></div><div class='cl'><div class='vertical-center'>$64<br>with a<br>50% chance</div></div><div class='cr'><div class='vertical-center'>$2<br>for<br>sure</div></div><div class='respDivL'><div class='vertical-center'>(E)</div></div><div class='respDivR'><div class='vertical-center'>(I)</div></div></div>","E","$2","$64","1","2","64","RISKY"
"html-keyboard-response","108","123513","0.0-5.0-3.34","63ecff07b619306f41db42fa","bdp_rd","Sat Mar 25 2023 21:41:52 GMT-0700 (Pacific Daylight Time)","175069","","null","","","","offerFB","","<div class='trialBorder'><div class='vertical-center'><img style='vertical-align:center; align:center' src=img/fixation3.jpg></div><div class='cl'><div class='vertical-center'><font style='color:orange'>$64<br>with a<br>50% chance</font></div></div><div class='cr'><div class='vertical-center'>$2<br>for<br>sure</div></div><div class='respDivL'><div class='vertical-center'><font style='color:orange'>(E)</font></div></div><div class='respDivR'><div class='vertical-center'>(I)</div></div></div>","null","$2","$64","1","2","64",""
"html-keyboard-response","109","124014","0.0-5.0-1.35","63ecff07b619306f41db42fa","bdp_rd","Sat Mar 25 2023 21:41:52 GMT-0700 (Pacific Daylight Time)","175069","","null","","","","FIX","","<div class='trialBorder'><div class='vertical-center'><img style='vertical-align:center; align:center' src=img/fixation3.jpg></div></div>","null","","","","","",""
"html-keyboard-response","110","125168","0.0-5.0-2.35","63ecff07b619306f41db42fa","bdp_rd","Sat Mar 25 2023 21:41:52 GMT-0700 (Pacific Daylight Time)","175069","","1153","","","","offer","","<div class='trialBorder'><div class='vertical-center'><img style='vertical-align:center; align:center' src=img/fixation3.jpg></div><div class='cl'><div class='vertical-center'>$42<br>for<br>sure</div></div><div class='cr'><div class='vertical-center'>$73<br>with a<br>50% chance</div></div><div class='respDivL'><div class='vertical-center'>(E)</div></div><div class='respDivR'><div class='vertical-center'>(I)</div></div></div>","I","$42","$73","0","42","73","RISKY"
"html-keyboard-response","111","125421","0.0-5.0-3.35","63ecff07b619306f41db42fa","bdp_rd","Sat Mar 25 2023 21:41:52 GMT-0700 (Pacific Daylight Time)","175069","","null","","","","offerFB","","<div class='trialBorder'><div class='vertical-center'><img style='vertical-align:center; align:center' src=img/fixation3.jpg></div><div class='cl'><div class='vertical-center'>$42<br>for<br>sure</div></div><div class='cr'><div class='vertical-center'><font style='color:orange'>$73<br>with a<br>50% chance</font></div></div><div class='respDivL'><div class='vertical-center'>(E)</div></div><div class='respDivR'><div class='vertical-center'><font style='color:orange'>(I)</font></div></div></div>","null","$42","$73","0","42","73",""
"html-keyboard-response","112","125922","0.0-5.0-1.36","63ecff07b619306f41db42fa","bdp_rd","Sat Mar 25 2023 21:41:52 GMT-0700 (Pacific Daylight Time)","175069","","null","","","","FIX","","<div class='trialBorder'><div class='vertical-center'><img style='vertical-align:center; align:center' src=img/fixation3.jpg></div></div>","null","","","","","",""
"html-keyboard-response","113","127996","0.0-5.0-2.36","63ecff07b619306f41db42fa","bdp_rd","Sat Mar 25 2023 21:41:52 GMT-0700 (Pacific Daylight Time)","175069","","2074","","","","offer","","<div class='trialBorder'><div class='vertical-center'><img style='vertical-align:center; align:center' src=img/fixation3.jpg></div><div class='cl'><div class='vertical-center'>$13<br>with a<br>50% chance</div></div><div class='cr'><div class='vertical-center'>$6<br>for<br>sure</div></div><div class='respDivL'><div class='vertical-center'>(E)</div></div><div class='respDivR'><div class='vertical-center'>(I)</div></div></div>","I","$6","$13","1","6","13","SURE"
"html-keyboard-response","114","128249","0.0-5.0-3.36","63ecff07b619306f41db42fa","bdp_rd","Sat Mar 25 2023 21:41:52 GMT-0700 (Pacific Daylight Time)","175069","","null","","","","offerFB","","<div class='trialBorder'><div class='vertical-center'><img style='vertical-align:center; align:center' src=img/fixation3.jpg></div><div class='cl'><div class='vertical-center'>$13<br>with a<br>50% chance</div></div><div class='cr'><div class='vertical-center'><font style='color:orange'>$6<br>for<br>sure</font></div></div><div class='respDivL'><div class='vertical-center'>(E)</div></div><div class='respDivR'><div class='vertical-center'><font style='color:orange'>(I)</font></div></div></div>","null","$6","$13","1","6","13",""
"html-keyboard-response","115","128751","0.0-5.0-1.37","63ecff07b619306f41db42fa","bdp_rd","Sat Mar 25 2023 21:41:52 GMT-0700 (Pacific Daylight Time)","175069","","null","","","","FIX","","<div class='trialBorder'><div class='vertical-center'><img style='vertical-align:center; align:center' src=img/fixation3.jpg></div></div>","null","","","","","",""
"html-keyboard-response","116","129744","0.0-5.0-2.37","63ecff07b619306f41db42fa","bdp_rd","Sat Mar 25 2023 21:41:52 GMT-0700 (Pacific Daylight Time)","175069","","992","","","","offer","","<div class='trialBorder'><div class='vertical-center'><img style='vertical-align:center; align:center' src=img/fixation3.jpg></div><div class='cl'><div class='vertical-center'>$25<br>for<br>sure</div></div><div class='cr'><div class='vertical-center'>$54<br>with a<br>50% chance</div></div><div class='respDivL'><div class='vertical-center'>(E)</div></div><div class='respDivR'><div class='vertical-center'>(I)</div></div></div>","I","$25","$54","0","25","54","RISKY"
"html-keyboard-response","117","129995","0.0-5.0-3.37","63ecff07b619306f41db42fa","bdp_rd","Sat Mar 25 2023 21:41:52 GMT-0700 (Pacific Daylight Time)","175069","","null","","","","offerFB","","<div class='trialBorder'><div class='vertical-center'><img style='vertical-align:center; align:center' src=img/fixation3.jpg></div><div class='cl'><div class='vertical-center'>$25<br>for<br>sure</div></div><div class='cr'><div class='vertical-center'><font style='color:orange'>$54<br>with a<br>50% chance</font></div></div><div class='respDivL'><div class='vertical-center'>(E)</div></div><div class='respDivR'><div class='vertical-center'><font style='color:orange'>(I)</font></div></div></div>","null","$25","$54","0","25","54",""
"html-keyboard-response","118","130497","0.0-5.0-1.38","63ecff07b619306f41db42fa","bdp_rd","Sat Mar 25 2023 21:41:52 GMT-0700 (Pacific Daylight Time)","175069","","null","","","","FIX","","<div class='trialBorder'><div class='vertical-center'><img style='vertical-align:center; align:center' src=img/fixation3.jpg></div></div>","null","","","","","",""
"html-keyboard-response","119","131584","0.0-5.0-2.38","63ecff07b619306f41db42fa","bdp_rd","Sat Mar 25 2023 21:41:52 GMT-0700 (Pacific Daylight Time)","175069","","1085","","","","offer","","<div class='trialBorder'><div class='vertical-center'><img style='vertical-align:center; align:center' src=img/fixation3.jpg></div><div class='cl'><div class='vertical-center'>$12<br>with a<br>50% chance</div></div><div class='cr'><div class='vertical-center'>$3<br>for<br>sure</div></div><div class='respDivL'><div class='vertical-center'>(E)</div></div><div class='respDivR'><div class='vertical-center'>(I)</div></div></div>","E","$3","$12","1","3","12","RISKY"
"html-keyboard-response","120","131837","0.0-5.0-3.38","63ecff07b619306f41db42fa","bdp_rd","Sat Mar 25 2023 21:41:52 GMT-0700 (Pacific Daylight Time)","175069","","null","","","","offerFB","","<div class='trialBorder'><div class='vertical-center'><img style='vertical-align:center; align:center' src=img/fixation3.jpg></div><div class='cl'><div class='vertical-center'><font style='color:orange'>$12<br>with a<br>50% chance</font></div></div><div class='cr'><div class='vertical-center'>$3<br>for<br>sure</div></div><div class='respDivL'><div class='vertical-center'><font style='color:orange'>(E)</font></div></div><div class='respDivR'><div class='vertical-center'>(I)</div></div></div>","null","$3","$12","1","3","12",""
"html-keyboard-response","121","132338","0.0-5.0-1.39","63ecff07b619306f41db42fa","bdp_rd","Sat Mar 25 2023 21:41:52 GMT-0700 (Pacific Daylight Time)","175069","","null","","","","FIX","","<div class='trialBorder'><div class='vertical-center'><img style='vertical-align:center; align:center' src=img/fixation3.jpg></div></div>","null","","","","","",""
"html-keyboard-response","122","133368","0.0-5.0-2.39","63ecff07b619306f41db42fa","bdp_rd","Sat Mar 25 2023 21:41:52 GMT-0700 (Pacific Daylight Time)","175069","","1029","","","","offer","","<div class='trialBorder'><div class='vertical-center'><img style='vertical-align:center; align:center' src=img/fixation3.jpg></div><div class='cl'><div class='vertical-center'>$92<br>with a<br>50% chance</div></div><div class='cr'><div class='vertical-center'>$26<br>for<br>sure</div></div><div class='respDivL'><div class='vertical-center'>(E)</div></div><div class='respDivR'><div class='vertical-center'>(I)</div></div></div>","E","$26","$92","1","26","92","RISKY"
"html-keyboard-response","123","133620","0.0-5.0-3.39","63ecff07b619306f41db42fa","bdp_rd","Sat Mar 25 2023 21:41:52 GMT-0700 (Pacific Daylight Time)","175069","","null","","","","offerFB","","<div class='trialBorder'><div class='vertical-center'><img style='vertical-align:center; align:center' src=img/fixation3.jpg></div><div class='cl'><div class='vertical-center'><font style='color:orange'>$92<br>with a<br>50% chance</font></div></div><div class='cr'><div class='vertical-center'>$26<br>for<br>sure</div></div><div class='respDivL'><div class='vertical-center'><font style='color:orange'>(E)</font></div></div><div class='respDivR'><div class='vertical-center'>(I)</div></div></div>","null","$26","$92","1","26","92",""
"html-keyboard-response","124","134121","0.0-5.0-1.40","63ecff07b619306f41db42fa","bdp_rd","Sat Mar 25 2023 21:41:52 GMT-0700 (Pacific Daylight Time)","175069","","null","","","","FIX","","<div class='trialBorder'><div class='vertical-center'><img style='vertical-align:center; align:center' src=img/fixation3.jpg></div></div>","null","","","","","",""
"html-keyboard-response","125","137203","0.0-5.0-2.40","63ecff07b619306f41db42fa","bdp_rd","Sat Mar 25 2023 21:41:52 GMT-0700 (Pacific Daylight Time)","175069","","3081","","","","offer","","<div class='trialBorder'><div class='vertical-center'><img style='vertical-align:center; align:center' src=img/fixation3.jpg></div><div class='cl'><div class='vertical-center'>$22<br>for<br>sure</div></div><div class='cr'><div class='vertical-center'>$42<br>with a<br>50% chance</div></div><div class='respDivL'><div class='vertical-center'>(E)</div></div><div class='respDivR'><div class='vertical-center'>(I)</div></div></div>","E","$22","$42","0","22","42","SURE"
"html-keyboard-response","126","137454","0.0-5.0-3.40","63ecff07b619306f41db42fa","bdp_rd","Sat Mar 25 2023 21:41:52 GMT-0700 (Pacific Daylight Time)","175069","","null","","","","offerFB","","<div class='trialBorder'><div class='vertical-center'><img style='vertical-align:center; align:center' src=img/fixation3.jpg></div><div class='cl'><div class='vertical-center'><font style='color:orange'>$22<br>for<br>sure</font></div></div><div class='cr'><div class='vertical-center'>$42<br>with a<br>50% chance</div></div><div class='respDivL'><div class='vertical-center'><font style='color:orange'>(E)</font></div></div><div class='respDivR'><div class='vertical-center'>(I)</div></div></div>","null","$22","$42","0","22","42",""
"html-keyboard-response","127","137955","0.0-5.0-1.41","63ecff07b619306f41db42fa","bdp_rd","Sat Mar 25 2023 21:41:52 GMT-0700 (Pacific Daylight Time)","175069","","null","","","","FIX","","<div class='trialBorder'><div class='vertical-center'><img style='vertical-align:center; align:center' src=img/fixation3.jpg></div></div>","null","","","","","",""
"html-keyboard-response","128","139051","0.0-5.0-2.41","63ecff07b619306f41db42fa","bdp_rd","Sat Mar 25 2023 21:41:52 GMT-0700 (Pacific Daylight Time)","175069","","1094","","","","offer","","<div class='trialBorder'><div class='vertical-center'><img style='vertical-align:center; align:center' src=img/fixation3.jpg></div><div class='cl'><div class='vertical-center'>$45<br>with a<br>50% chance</div></div><div class='cr'><div class='vertical-center'>$8<br>for<br>sure</div></div><div class='respDivL'><div class='vertical-center'>(E)</div></div><div class='respDivR'><div class='vertical-center'>(I)</div></div></div>","E","$8","$45","1","8","45","RISKY"
"html-keyboard-response","129","139301","0.0-5.0-3.41","63ecff07b619306f41db42fa","bdp_rd","Sat Mar 25 2023 21:41:52 GMT-0700 (Pacific Daylight Time)","175069","","null","","","","offerFB","","<div class='trialBorder'><div class='vertical-center'><img style='vertical-align:center; align:center' src=img/fixation3.jpg></div><div class='cl'><div class='vertical-center'><font style='color:orange'>$45<br>with a<br>50% chance</font></div></div><div class='cr'><div class='vertical-center'>$8<br>for<br>sure</div></div><div class='respDivL'><div class='vertical-center'><font style='color:orange'>(E)</font></div></div><div class='respDivR'><div class='vertical-center'>(I)</div></div></div>","null","$8","$45","1","8","45",""
"html-keyboard-response","130","139802","0.0-5.0-1.42","63ecff07b619306f41db42fa","bdp_rd","Sat Mar 25 2023 21:41:52 GMT-0700 (Pacific Daylight Time)","175069","","null","","","","FIX","","<div class='trialBorder'><div class='vertical-center'><img style='vertical-align:center; align:center' src=img/fixation3.jpg></div></div>","null","","","","","",""
"html-keyboard-response","131","140653","0.0-5.0-2.42","63ecff07b619306f41db42fa","bdp_rd","Sat Mar 25 2023 21:41:52 GMT-0700 (Pacific Daylight Time)","175069","","850","","","","offer","","<div class='trialBorder'><div class='vertical-center'><img style='vertical-align:center; align:center' src=img/fixation3.jpg></div><div class='cl'><div class='vertical-center'>$35<br>with a<br>50% chance</div></div><div class='cr'><div class='vertical-center'>$12<br>for<br>sure</div></div><div class='respDivL'><div class='vertical-center'>(E)</div></div><div class='respDivR'><div class='vertical-center'>(I)</div></div></div>","E","$12","$35","1","12","35","RISKY"
"html-keyboard-response","132","140906","0.0-5.0-3.42","63ecff07b619306f41db42fa","bdp_rd","Sat Mar 25 2023 21:41:52 GMT-0700 (Pacific Daylight Time)","175069","","null","","","","offerFB","","<div class='trialBorder'><div class='vertical-center'><img style='vertical-align:center; align:center' src=img/fixation3.jpg></div><div class='cl'><div class='vertical-center'><font style='color:orange'>$35<br>with a<br>50% chance</font></div></div><div class='cr'><div class='vertical-center'>$12<br>for<br>sure</div></div><div class='respDivL'><div class='vertical-center'><font style='color:orange'>(E)</font></div></div><div class='respDivR'><div class='vertical-center'>(I)</div></div></div>","null","$12","$35","1","12","35",""
"html-keyboard-response","133","141407","0.0-5.0-1.43","63ecff07b619306f41db42fa","bdp_rd","Sat Mar 25 2023 21:41:52 GMT-0700 (Pacific Daylight Time)","175069","","null","","","","FIX","","<div class='trialBorder'><div class='vertical-center'><img style='vertical-align:center; align:center' src=img/fixation3.jpg></div></div>","null","","","","","",""
"html-keyboard-response","134","142492","0.0-5.0-2.43","63ecff07b619306f41db42fa","bdp_rd","Sat Mar 25 2023 21:41:52 GMT-0700 (Pacific Daylight Time)","175069","","1084","","","","offer","","<div class='trialBorder'><div class='vertical-center'><img style='vertical-align:center; align:center' src=img/fixation3.jpg></div><div class='cl'><div class='vertical-center'>$22<br>with a<br>50% chance</div></div><div class='cr'><div class='vertical-center'>$14<br>for<br>sure</div></div><div class='respDivL'><div class='vertical-center'>(E)</div></div><div class='respDivR'><div class='vertical-center'>(I)</div></div></div>","I","$14","$22","1","14","22","SURE"
"html-keyboard-response","135","142744","0.0-5.0-3.43","63ecff07b619306f41db42fa","bdp_rd","Sat Mar 25 2023 21:41:52 GMT-0700 (Pacific Daylight Time)","175069","","null","","","","offerFB","","<div class='trialBorder'><div class='vertical-center'><img style='vertical-align:center; align:center' src=img/fixation3.jpg></div><div class='cl'><div class='vertical-center'>$22<br>with a<br>50% chance</div></div><div class='cr'><div class='vertical-center'><font style='color:orange'>$14<br>for<br>sure</font></div></div><div class='respDivL'><div class='vertical-center'>(E)</div></div><div class='respDivR'><div class='vertical-center'><font style='color:orange'>(I)</font></div></div></div>","null","$14","$22","1","14","22",""
"html-keyboard-response","136","143245","0.0-5.0-1.44","63ecff07b619306f41db42fa","bdp_rd","Sat Mar 25 2023 21:41:52 GMT-0700 (Pacific Daylight Time)","175069","","null","","","","FIX","","<div class='trialBorder'><div class='vertical-center'><img style='vertical-align:center; align:center' src=img/fixation3.jpg></div></div>","null","","","","","",""
"html-keyboard-response","137","144427","0.0-5.0-2.44","63ecff07b619306f41db42fa","bdp_rd","Sat Mar 25 2023 21:41:52 GMT-0700 (Pacific Daylight Time)","175069","","1181","","","","offer","","<div class='trialBorder'><div class='vertical-center'><img style='vertical-align:center; align:center' src=img/fixation3.jpg></div><div class='cl'><div class='vertical-center'>$68<br>with a<br>50% chance</div></div><div class='cr'><div class='vertical-center'>$30<br>for<br>sure</div></div><div class='respDivL'><div class='vertical-center'>(E)</div></div><div class='respDivR'><div class='vertical-center'>(I)</div></div></div>","I","$30","$68","1","30","68","SURE"
"html-keyboard-response","138","144678","0.0-5.0-3.44","63ecff07b619306f41db42fa","bdp_rd","Sat Mar 25 2023 21:41:52 GMT-0700 (Pacific Daylight Time)","175069","","null","","","","offerFB","","<div class='trialBorder'><div class='vertical-center'><img style='vertical-align:center; align:center' src=img/fixation3.jpg></div><div class='cl'><div class='vertical-center'>$68<br>with a<br>50% chance</div></div><div class='cr'><div class='vertical-center'><font style='color:orange'>$30<br>for<br>sure</font></div></div><div class='respDivL'><div class='vertical-center'>(E)</div></div><div class='respDivR'><div class='vertical-center'><font style='color:orange'>(I)</font></div></div></div>","null","$30","$68","1","30","68",""
"html-keyboard-response","139","145180","0.0-5.0-1.45","63ecff07b619306f41db42fa","bdp_rd","Sat Mar 25 2023 21:41:52 GMT-0700 (Pacific Daylight Time)","175069","","null","","","","FIX","","<div class='trialBorder'><div class='vertical-center'><img style='vertical-align:center; align:center' src=img/fixation3.jpg></div></div>","null","","","","","",""
"html-keyboard-response","140","146176","0.0-5.0-2.45","63ecff07b619306f41db42fa","bdp_rd","Sat Mar 25 2023 21:41:52 GMT-0700 (Pacific Daylight Time)","175069","","995","","","","offer","","<div class='trialBorder'><div class='vertical-center'><img style='vertical-align:center; align:center' src=img/fixation3.jpg></div><div class='cl'><div class='vertical-center'>$50<br>with a<br>50% chance</div></div><div class='cr'><div class='vertical-center'>$5<br>for<br>sure</div></div><div class='respDivL'><div class='vertical-center'>(E)</div></div><div class='respDivR'><div class='vertical-center'>(I)</div></div></div>","E","$5","$50","1","5","50","RISKY"
"html-keyboard-response","141","146428","0.0-5.0-3.45","63ecff07b619306f41db42fa","bdp_rd","Sat Mar 25 2023 21:41:52 GMT-0700 (Pacific Daylight Time)","175069","","null","","","","offerFB","","<div class='trialBorder'><div class='vertical-center'><img style='vertical-align:center; align:center' src=img/fixation3.jpg></div><div class='cl'><div class='vertical-center'><font style='color:orange'>$50<br>with a<br>50% chance</font></div></div><div class='cr'><div class='vertical-center'>$5<br>for<br>sure</div></div><div class='respDivL'><div class='vertical-center'><font style='color:orange'>(E)</font></div></div><div class='respDivR'><div class='vertical-center'>(I)</div></div></div>","null","$5","$50","1","5","50",""
"html-keyboard-response","142","146929","0.0-5.0-1.46","63ecff07b619306f41db42fa","bdp_rd","Sat Mar 25 2023 21:41:52 GMT-0700 (Pacific Daylight Time)","175069","","null","","","","FIX","","<div class='trialBorder'><div class='vertical-center'><img style='vertical-align:center; align:center' src=img/fixation3.jpg></div></div>","null","","","","","",""
"html-keyboard-response","143","147847","0.0-5.0-2.46","63ecff07b619306f41db42fa","bdp_rd","Sat Mar 25 2023 21:41:52 GMT-0700 (Pacific Daylight Time)","175069","","916","","","","offer","","<div class='trialBorder'><div class='vertical-center'><img style='vertical-align:center; align:center' src=img/fixation3.jpg></div><div class='cl'><div class='vertical-center'>$34<br>with a<br>50% chance</div></div><div class='cr'><div class='vertical-center'>$15<br>for<br>sure</div></div><div class='respDivL'><div class='vertical-center'>(E)</div></div><div class='respDivR'><div class='vertical-center'>(I)</div></div></div>","E","$15","$34","1","15","34","RISKY"
"html-keyboard-response","144","148098","0.0-5.0-3.46","63ecff07b619306f41db42fa","bdp_rd","Sat Mar 25 2023 21:41:52 GMT-0700 (Pacific Daylight Time)","175069","","null","","","","offerFB","","<div class='trialBorder'><div class='vertical-center'><img style='vertical-align:center; align:center' src=img/fixation3.jpg></div><div class='cl'><div class='vertical-center'><font style='color:orange'>$34<br>with a<br>50% chance</font></div></div><div class='cr'><div class='vertical-center'>$15<br>for<br>sure</div></div><div class='respDivL'><div class='vertical-center'><font style='color:orange'>(E)</font></div></div><div class='respDivR'><div class='vertical-center'>(I)</div></div></div>","null","$15","$34","1","15","34",""
"html-keyboard-response","145","148600","0.0-5.0-1.47","63ecff07b619306f41db42fa","bdp_rd","Sat Mar 25 2023 21:41:52 GMT-0700 (Pacific Daylight Time)","175069","","null","","","","FIX","","<div class='trialBorder'><div class='vertical-center'><img style='vertical-align:center; align:center' src=img/fixation3.jpg></div></div>","null","","","","","",""
"html-keyboard-response","146","149536","0.0-5.0-2.47","63ecff07b619306f41db42fa","bdp_rd","Sat Mar 25 2023 21:41:52 GMT-0700 (Pacific Daylight Time)","175069","","935","","","","offer","","<div class='trialBorder'><div class='vertical-center'><img style='vertical-align:center; align:center' src=img/fixation3.jpg></div><div class='cl'><div class='vertical-center'>$45<br>for<br>sure</div></div><div class='cr'><div class='vertical-center'>$86<br>with a<br>50% chance</div></div><div class='respDivL'><div class='vertical-center'>(E)</div></div><div class='respDivR'><div class='vertical-center'>(I)</div></div></div>","I","$45","$86","0","45","86","RISKY"
"html-keyboard-response","147","149788","0.0-5.0-3.47","63ecff07b619306f41db42fa","bdp_rd","Sat Mar 25 2023 21:41:52 GMT-0700 (Pacific Daylight Time)","175069","","null","","","","offerFB","","<div class='trialBorder'><div class='vertical-center'><img style='vertical-align:center; align:center' src=img/fixation3.jpg></div><div class='cl'><div class='vertical-center'>$45<br>for<br>sure</div></div><div class='cr'><div class='vertical-center'><font style='color:orange'>$86<br>with a<br>50% chance</font></div></div><div class='respDivL'><div class='vertical-center'>(E)</div></div><div class='respDivR'><div class='vertical-center'><font style='color:orange'>(I)</font></div></div></div>","null","$45","$86","0","45","86",""
"html-keyboard-response","148","150290","0.0-5.0-1.48","63ecff07b619306f41db42fa","bdp_rd","Sat Mar 25 2023 21:41:52 GMT-0700 (Pacific Daylight Time)","175069","","null","","","","FIX","","<div class='trialBorder'><div class='vertical-center'><img style='vertical-align:center; align:center' src=img/fixation3.jpg></div></div>","null","","","","","",""
"html-keyboard-response","149","151981","0.0-5.0-2.48","63ecff07b619306f41db42fa","bdp_rd","Sat Mar 25 2023 21:41:52 GMT-0700 (Pacific Daylight Time)","175069","","1690","","","","offer","","<div class='trialBorder'><div class='vertical-center'><img style='vertical-align:center; align:center' src=img/fixation3.jpg></div><div class='cl'><div class='vertical-center'>$37<br>with a<br>50% chance</div></div><div class='cr'><div class='vertical-center'>$20<br>for<br>sure</div></div><div class='respDivL'><div class='vertical-center'>(E)</div></div><div class='respDivR'><div class='vertical-center'>(I)</div></div></div>","I","$20","$37","1","20","37","SURE"
"html-keyboard-response","150","152234","0.0-5.0-3.48","63ecff07b619306f41db42fa","bdp_rd","Sat Mar 25 2023 21:41:52 GMT-0700 (Pacific Daylight Time)","175069","","null","","","","offerFB","","<div class='trialBorder'><div class='vertical-center'><img style='vertical-align:center; align:center' src=img/fixation3.jpg></div><div class='cl'><div class='vertical-center'>$37<br>with a<br>50% chance</div></div><div class='cr'><div class='vertical-center'><font style='color:orange'>$20<br>for<br>sure</font></div></div><div class='respDivL'><div class='vertical-center'>(E)</div></div><div class='respDivR'><div class='vertical-center'><font style='color:orange'>(I)</font></div></div></div>","null","$20","$37","1","20","37",""
"html-keyboard-response","151","152736","0.0-5.0-1.49","63ecff07b619306f41db42fa","bdp_rd","Sat Mar 25 2023 21:41:52 GMT-0700 (Pacific Daylight Time)","175069","","null","","","","FIX","","<div class='trialBorder'><div class='vertical-center'><img style='vertical-align:center; align:center' src=img/fixation3.jpg></div></div>","null","","","","","",""
"html-keyboard-response","152","153599","0.0-5.0-2.49","63ecff07b619306f41db42fa","bdp_rd","Sat Mar 25 2023 21:41:52 GMT-0700 (Pacific Daylight Time)","175069","","862","","","","offer","","<div class='trialBorder'><div class='vertical-center'><img style='vertical-align:center; align:center' src=img/fixation3.jpg></div><div class='cl'><div class='vertical-center'>$15<br>with a<br>50% chance</div></div><div class='cr'><div class='vertical-center'>$6<br>for<br>sure</div></div><div class='respDivL'><div class='vertical-center'>(E)</div></div><div class='respDivR'><div class='vertical-center'>(I)</div></div></div>","E","$6","$15","1","6","15","RISKY"
"html-keyboard-response","153","153850","0.0-5.0-3.49","63ecff07b619306f41db42fa","bdp_rd","Sat Mar 25 2023 21:41:52 GMT-0700 (Pacific Daylight Time)","175069","","null","","","","offerFB","","<div class='trialBorder'><div class='vertical-center'><img style='vertical-align:center; align:center' src=img/fixation3.jpg></div><div class='cl'><div class='vertical-center'><font style='color:orange'>$15<br>with a<br>50% chance</font></div></div><div class='cr'><div class='vertical-center'>$6<br>for<br>sure</div></div><div class='respDivL'><div class='vertical-center'><font style='color:orange'>(E)</font></div></div><div class='respDivR'><div class='vertical-center'>(I)</div></div></div>","null","$6","$15","1","6","15",""
"html-keyboard-response","154","154351","0.0-5.0-1.50","63ecff07b619306f41db42fa","bdp_rd","Sat Mar 25 2023 21:41:52 GMT-0700 (Pacific Daylight Time)","175069","","null","","","","FIX","","<div class='trialBorder'><div class='vertical-center'><img style='vertical-align:center; align:center' src=img/fixation3.jpg></div></div>","null","","","","","",""
"html-keyboard-response","155","156375","0.0-5.0-2.50","63ecff07b619306f41db42fa","bdp_rd","Sat Mar 25 2023 21:41:52 GMT-0700 (Pacific Daylight Time)","175069","","2023","","","","offer","","<div class='trialBorder'><div class='vertical-center'><img style='vertical-align:center; align:center' src=img/fixation3.jpg></div><div class='cl'><div class='vertical-center'>$98<br>with a<br>50% chance</div></div><div class='cr'><div class='vertical-center'>$53<br>for<br>sure</div></div><div class='respDivL'><div class='vertical-center'>(E)</div></div><div class='respDivR'><div class='vertical-center'>(I)</div></div></div>","I","$53","$98","1","53","98","SURE"
"html-keyboard-response","156","156626","0.0-5.0-3.50","63ecff07b619306f41db42fa","bdp_rd","Sat Mar 25 2023 21:41:52 GMT-0700 (Pacific Daylight Time)","175069","","null","","","","offerFB","","<div class='trialBorder'><div class='vertical-center'><img style='vertical-align:center; align:center' src=img/fixation3.jpg></div><div class='cl'><div class='vertical-center'>$98<br>with a<br>50% chance</div></div><div class='cr'><div class='vertical-center'><font style='color:orange'>$53<br>for<br>sure</font></div></div><div class='respDivL'><div class='vertical-center'>(E)</div></div><div class='respDivR'><div class='vertical-center'><font style='color:orange'>(I)</font></div></div></div>","null","$53","$98","1","53","98",""
"html-keyboard-response","157","157128","0.0-5.0-1.51","63ecff07b619306f41db42fa","bdp_rd","Sat Mar 25 2023 21:41:52 GMT-0700 (Pacific Daylight Time)","175069","","null","","","","FIX","","<div class='trialBorder'><div class='vertical-center'><img style='vertical-align:center; align:center' src=img/fixation3.jpg></div></div>","null","","","","","",""
"html-keyboard-response","158","158363","0.0-5.0-2.51","63ecff07b619306f41db42fa","bdp_rd","Sat Mar 25 2023 21:41:52 GMT-0700 (Pacific Daylight Time)","175069","","1235","","","","offer","","<div class='trialBorder'><div class='vertical-center'><img style='vertical-align:center; align:center' src=img/fixation3.jpg></div><div class='cl'><div class='vertical-center'>$24<br>with a<br>50% chance</div></div><div class='cr'><div class='vertical-center'>$13<br>for<br>sure</div></div><div class='respDivL'><div class='vertical-center'>(E)</div></div><div class='respDivR'><div class='vertical-center'>(I)</div></div></div>","E","$13","$24","1","13","24","RISKY"
"html-keyboard-response","159","158615","0.0-5.0-3.51","63ecff07b619306f41db42fa","bdp_rd","Sat Mar 25 2023 21:41:52 GMT-0700 (Pacific Daylight Time)","175069","","null","","","","offerFB","","<div class='trialBorder'><div class='vertical-center'><img style='vertical-align:center; align:center' src=img/fixation3.jpg></div><div class='cl'><div class='vertical-center'><font style='color:orange'>$24<br>with a<br>50% chance</font></div></div><div class='cr'><div class='vertical-center'>$13<br>for<br>sure</div></div><div class='respDivL'><div class='vertical-center'><font style='color:orange'>(E)</font></div></div><div class='respDivR'><div class='vertical-center'>(I)</div></div></div>","null","$13","$24","1","13","24",""
"html-keyboard-response","160","159116","0.0-5.0-1.52","63ecff07b619306f41db42fa","bdp_rd","Sat Mar 25 2023 21:41:52 GMT-0700 (Pacific Daylight Time)","175069","","null","","","","FIX","","<div class='trialBorder'><div class='vertical-center'><img style='vertical-align:center; align:center' src=img/fixation3.jpg></div></div>","null","","","","","",""
"html-keyboard-response","161","160205","0.0-5.0-2.52","63ecff07b619306f41db42fa","bdp_rd","Sat Mar 25 2023 21:41:52 GMT-0700 (Pacific Daylight Time)","175069","","1087","","","","offer","","<div class='trialBorder'><div class='vertical-center'><img style='vertical-align:center; align:center' src=img/fixation3.jpg></div><div class='cl'><div class='vertical-center'>$22<br>for<br>sure</div></div><div class='cr'><div class='vertical-center'>$59<br>with a<br>50% chance</div></div><div class='respDivL'><div class='vertical-center'>(E)</div></div><div class='respDivR'><div class='vertical-center'>(I)</div></div></div>","I","$22","$59","0","22","59","RISKY"
"html-keyboard-response","162","160457","0.0-5.0-3.52","63ecff07b619306f41db42fa","bdp_rd","Sat Mar 25 2023 21:41:52 GMT-0700 (Pacific Daylight Time)","175069","","null","","","","offerFB","","<div class='trialBorder'><div class='vertical-center'><img style='vertical-align:center; align:center' src=img/fixation3.jpg></div><div class='cl'><div class='vertical-center'>$22<br>for<br>sure</div></div><div class='cr'><div class='vertical-center'><font style='color:orange'>$59<br>with a<br>50% chance</font></div></div><div class='respDivL'><div class='vertical-center'>(E)</div></div><div class='respDivR'><div class='vertical-center'><font style='color:orange'>(I)</font></div></div></div>","null","$22","$59","0","22","59",""
"html-keyboard-response","163","160959","0.0-5.0-1.53","63ecff07b619306f41db42fa","bdp_rd","Sat Mar 25 2023 21:41:52 GMT-0700 (Pacific Daylight Time)","175069","","null","","","","FIX","","<div class='trialBorder'><div class='vertical-center'><img style='vertical-align:center; align:center' src=img/fixation3.jpg></div></div>","null","","","","","",""
"html-keyboard-response","164","161719","0.0-5.0-2.53","63ecff07b619306f41db42fa","bdp_rd","Sat Mar 25 2023 21:41:52 GMT-0700 (Pacific Daylight Time)","175069","","760","","","","offer","","<div class='trialBorder'><div class='vertical-center'><img style='vertical-align:center; align:center' src=img/fixation3.jpg></div><div class='cl'><div class='vertical-center'>$26<br>with a<br>50% chance</div></div><div class='cr'><div class='vertical-center'>$11<br>for<br>sure</div></div><div class='respDivL'><div class='vertical-center'>(E)</div></div><div class='respDivR'><div class='vertical-center'>(I)</div></div></div>","E","$11","$26","1","11","26","RISKY"
"html-keyboard-response","165","161970","0.0-5.0-3.53","63ecff07b619306f41db42fa","bdp_rd","Sat Mar 25 2023 21:41:52 GMT-0700 (Pacific Daylight Time)","175069","","null","","","","offerFB","","<div class='trialBorder'><div class='vertical-center'><img style='vertical-align:center; align:center' src=img/fixation3.jpg></div><div class='cl'><div class='vertical-center'><font style='color:orange'>$26<br>with a<br>50% chance</font></div></div><div class='cr'><div class='vertical-center'>$11<br>for<br>sure</div></div><div class='respDivL'><div class='vertical-center'><font style='color:orange'>(E)</font></div></div><div class='respDivR'><div class='vertical-center'>(I)</div></div></div>","null","$11","$26","1","11","26",""
"html-keyboard-response","166","162471","0.0-5.0-1.54","63ecff07b619306f41db42fa","bdp_rd","Sat Mar 25 2023 21:41:52 GMT-0700 (Pacific Daylight Time)","175069","","null","","","","FIX","","<div class='trialBorder'><div class='vertical-center'><img style='vertical-align:center; align:center' src=img/fixation3.jpg></div></div>","null","","","","","",""
"html-keyboard-response","167","163854","0.0-5.0-2.54","63ecff07b619306f41db42fa","bdp_rd","Sat Mar 25 2023 21:41:52 GMT-0700 (Pacific Daylight Time)","175069","","1381","","","","offer","","<div class='trialBorder'><div class='vertical-center'><img style='vertical-align:center; align:center' src=img/fixation3.jpg></div><div class='cl'><div class='vertical-center'>$89<br>with a<br>50% chance</div></div><div class='cr'><div class='vertical-center'>$28<br>for<br>sure</div></div><div class='respDivL'><div class='vertical-center'>(E)</div></div><div class='respDivR'><div class='vertical-center'>(I)</div></div></div>","E","$28","$89","1","28","89","RISKY"
"html-keyboard-response","168","164106","0.0-5.0-3.54","63ecff07b619306f41db42fa","bdp_rd","Sat Mar 25 2023 21:41:52 GMT-0700 (Pacific Daylight Time)","175069","","null","","","","offerFB","","<div class='trialBorder'><div class='vertical-center'><img style='vertical-align:center; align:center' src=img/fixation3.jpg></div><div class='cl'><div class='vertical-center'><font style='color:orange'>$89<br>with a<br>50% chance</font></div></div><div class='cr'><div class='vertical-center'>$28<br>for<br>sure</div></div><div class='respDivL'><div class='vertical-center'><font style='color:orange'>(E)</font></div></div><div class='respDivR'><div class='vertical-center'>(I)</div></div></div>","null","$28","$89","1","28","89",""
"html-keyboard-response","169","164607","0.0-5.0-1.55","63ecff07b619306f41db42fa","bdp_rd","Sat Mar 25 2023 21:41:52 GMT-0700 (Pacific Daylight Time)","175069","","null","","","","FIX","","<div class='trialBorder'><div class='vertical-center'><img style='vertical-align:center; align:center' src=img/fixation3.jpg></div></div>","null","","","","","",""
"html-keyboard-response","170","166139","0.0-5.0-2.55","63ecff07b619306f41db42fa","bdp_rd","Sat Mar 25 2023 21:41:52 GMT-0700 (Pacific Daylight Time)","175069","","1531","","","","offer","","<div class='trialBorder'><div class='vertical-center'><img style='vertical-align:center; align:center' src=img/fixation3.jpg></div><div class='cl'><div class='vertical-center'>$10<br>for<br>sure</div></div><div class='cr'><div class='vertical-center'>$19<br>with a<br>50% chance</div></div><div class='respDivL'><div class='vertical-center'>(E)</div></div><div class='respDivR'><div class='vertical-center'>(I)</div></div></div>","E","$10","$19","0","10","19","SURE"
"html-keyboard-response","171","166390","0.0-5.0-3.55","63ecff07b619306f41db42fa","bdp_rd","Sat Mar 25 2023 21:41:52 GMT-0700 (Pacific Daylight Time)","175069","","null","","","","offerFB","","<div class='trialBorder'><div class='vertical-center'><img style='vertical-align:center; align:center' src=img/fixation3.jpg></div><div class='cl'><div class='vertical-center'><font style='color:orange'>$10<br>for<br>sure</font></div></div><div class='cr'><div class='vertical-center'>$19<br>with a<br>50% chance</div></div><div class='respDivL'><div class='vertical-center'><font style='color:orange'>(E)</font></div></div><div class='respDivR'><div class='vertical-center'>(I)</div></div></div>","null","$10","$19","0","10","19",""
"html-keyboard-response","172","166891","0.0-5.0-1.56","63ecff07b619306f41db42fa","bdp_rd","Sat Mar 25 2023 21:41:52 GMT-0700 (Pacific Daylight Time)","175069","","null","","","","FIX","","<div class='trialBorder'><div class='vertical-center'><img style='vertical-align:center; align:center' src=img/fixation3.jpg></div></div>","null","","","","","",""
"html-keyboard-response","173","168203","0.0-5.0-2.56","63ecff07b619306f41db42fa","bdp_rd","Sat Mar 25 2023 21:41:52 GMT-0700 (Pacific Daylight Time)","175069","","1311","","","","offer","","<div class='trialBorder'><div class='vertical-center'><img style='vertical-align:center; align:center' src=img/fixation3.jpg></div><div class='cl'><div class='vertical-center'>$11<br>for<br>sure</div></div><div class='cr'><div class='vertical-center'>$62<br>with a<br>50% chance</div></div><div class='respDivL'><div class='vertical-center'>(E)</div></div><div class='respDivR'><div class='vertical-center'>(I)</div></div></div>","I","$11","$62","0","11","62","RISKY"
