"trial_type","trial_index","time_elapsed","internal_node_id","subject_id","task","startTime","totalTime","view_history","rt","event","trial","time","trialtype","success","stimulus","key_press","sureOffer","riskyOffer","riskyLeft","sureAmt","riskyAmt","chosen"
"pavlovia","0","4","0.0-0.0","63f3a6b6d4c4d564638f38ca","bdp_rd","Sun Mar 26 2023 12:52:02 GMT-0500 (Central Daylight Time)","196145","","","","","","","","","","","","","","",""
"instructions","1","5007","0.0-1.0","63f3a6b6d4c4d564638f38ca","bdp_rd","Sun Mar 26 2023 12:52:02 GMT-0500 (Central Daylight Time)","196145","[{""page_index"":0,""viewing_time"":5001}]","5002","","","","","","","","","","","","",""
"","","","","63f3a6b6d4c4d564638f38ca","bdp_rd","Sun Mar 26 2023 12:52:02 GMT-0500 (Central Daylight Time)","196145","","","fullscreenenter","2","7428","fullscreenenter","","","","","","","","",""
"fullscreen","2","8410","0.0-2.0","63f3a6b6d4c4d564638f38ca","bdp_rd","Sun Mar 26 2023 12:52:02 GMT-0500 (Central Daylight Time)","196145","","","","","","","true","","","","","","","",""
"instructions","3","33523","0.0-4.0","63f3a6b6d4c4d564638f38ca","bdp_rd","Sun Mar 26 2023 12:52:02 GMT-0500 (Central Daylight Time)","196145","[{""page_index"":0,""viewing_time"":14450},{""page_index"":1,""viewing_time"":8584},{""page_index"":2,""viewing_time"":2078}]","25112","","","","","","","","","","","","",""
"html-keyboard-response","4","34027","0.0-5.0-1.0","63f3a6b6d4c4d564638f38ca","bdp_rd","Sun Mar 26 2023 12:52:02 GMT-0500 (Central Daylight Time)","196145","","null","","","","FIX","","<div class='trialBorder'><div class='vertical-center'><img style='vertical-align:center; align:center' src=img/fixation3.jpg></div></div>","null","","","","","",""
"html-keyboard-response","5","36215","0.0-5.0-2.0","63f3a6b6d4c4d564638f38ca","bdp_rd","Sun Mar 26 2023 12:52:02 GMT-0500 (Central Daylight Time)","196145","","2187","","","","offer","","<div class='trialBorder'><div class='vertical-center'><img style='vertical-align:center; align:center' src=img/fixation3.jpg></div><div class='cl'><div class='vertical-center'>$42<br>for<br>sure</div></div><div class='cr'><div class='vertical-center'>$73<br>with a<br>50% chance</div></div><div class='respDivL'><div class='vertical-center'>(E)</div></div><div class='respDivR'><div class='vertical-center'>(I)</div></div></div>","E","$42","$73","0","42","73","SURE"
"html-keyboard-response","6","36467","0.0-5.0-3.0","63f3a6b6d4c4d564638f38ca","bdp_rd","Sun Mar 26 2023 12:52:02 GMT-0500 (Central Daylight Time)","196145","","null","","","","offerFB","","<div class='trialBorder'><div class='vertical-center'><img style='vertical-align:center; align:center' src=img/fixation3.jpg></div><div class='cl'><div class='vertical-center'><font style='color:orange'>$42<br>for<br>sure</font></div></div><div class='cr'><div class='vertical-center'>$73<br>with a<br>50% chance</div></div><div class='respDivL'><div class='vertical-center'><font style='color:orange'>(E)</font></div></div><div class='respDivR'><div class='vertical-center'>(I)</div></div></div>","null","$42","$73","0","42","73",""
"html-keyboard-response","7","36969","0.0-5.0-1.1","63f3a6b6d4c4d564638f38ca","bdp_rd","Sun Mar 26 2023 12:52:02 GMT-0500 (Central Daylight Time)","196145","","null","","","","FIX","","<div class='trialBorder'><div class='vertical-center'><img style='vertical-align:center; align:center' src=img/fixation3.jpg></div></div>","null","","","","","",""
"html-keyboard-response","8","38646","0.0-5.0-2.1","63f3a6b6d4c4d564638f38ca","bdp_rd","Sun Mar 26 2023 12:52:02 GMT-0500 (Central Daylight Time)","196145","","1675","","","","offer","","<div class='trialBorder'><div class='vertical-center'><img style='vertical-align:center; align:center' src=img/fixation3.jpg></div><div class='cl'><div class='vertical-center'>$21<br>for<br>sure</div></div><div class='cr'><div class='vertical-center'>$25<br>with a<br>50% chance</div></div><div class='respDivL'><div class='vertical-center'>(E)</div></div><div class='respDivR'><div class='vertical-center'>(I)</div></div></div>","E","$21","$25","0","21","25","SURE"
"html-keyboard-response","9","38898","0.0-5.0-3.1","63f3a6b6d4c4d564638f38ca","bdp_rd","Sun Mar 26 2023 12:52:02 GMT-0500 (Central Daylight Time)","196145","","null","","","","offerFB","","<div class='trialBorder'><div class='vertical-center'><img style='vertical-align:center; align:center' src=img/fixation3.jpg></div><div class='cl'><div class='vertical-center'><font style='color:orange'>$21<br>for<br>sure</font></div></div><div class='cr'><div class='vertical-center'>$25<br>with a<br>50% chance</div></div><div class='respDivL'><div class='vertical-center'><font style='color:orange'>(E)</font></div></div><div class='respDivR'><div class='vertical-center'>(I)</div></div></div>","null","$21","$25","0","21","25",""
"html-keyboard-response","10","39399","0.0-5.0-1.2","63f3a6b6d4c4d564638f38ca","bdp_rd","Sun Mar 26 2023 12:52:02 GMT-0500 (Central Daylight Time)","196145","","null","","","","FIX","","<div class='trialBorder'><div class='vertical-center'><img style='vertical-align:center; align:center' src=img/fixation3.jpg></div></div>","null","","","","","",""
"html-keyboard-response","11","41615","0.0-5.0-2.2","63f3a6b6d4c4d564638f38ca","bdp_rd","Sun Mar 26 2023 12:52:02 GMT-0500 (Central Daylight Time)","196145","","2215","","","","offer","","<div class='trialBorder'><div class='vertical-center'><img style='vertical-align:center; align:center' src=img/fixation3.jpg></div><div class='cl'><div class='vertical-center'>$100<br>with a<br>50% chance</div></div><div class='cr'><div class='vertical-center'>$63<br>for<br>sure</div></div><div class='respDivL'><div class='vertical-center'>(E)</div></div><div class='respDivR'><div class='vertical-center'>(I)</div></div></div>","I","$63","$100","1","63","10","SURE"
"html-keyboard-response","12","41868","0.0-5.0-3.2","63f3a6b6d4c4d564638f38ca","bdp_rd","Sun Mar 26 2023 12:52:02 GMT-0500 (Central Daylight Time)","196145","","null","","","","offerFB","","<div class='trialBorder'><div class='vertical-center'><img style='vertical-align:center; align:center' src=img/fixation3.jpg></div><div class='cl'><div class='vertical-center'>$100<br>with a<br>50% chance</div></div><div class='cr'><div class='vertical-center'><font style='color:orange'>$63<br>for<br>sure</font></div></div><div class='respDivL'><div class='vertical-center'>(E)</div></div><div class='respDivR'><div class='vertical-center'><font style='color:orange'>(I)</font></div></div></div>","null","$63","$100","1","63","10",""
"html-keyboard-response","13","42369","0.0-5.0-1.3","63f3a6b6d4c4d564638f38ca","bdp_rd","Sun Mar 26 2023 12:52:02 GMT-0500 (Central Daylight Time)","196145","","null","","","","FIX","","<div class='trialBorder'><div class='vertical-center'><img style='vertical-align:center; align:center' src=img/fixation3.jpg></div></div>","null","","","","","",""
"html-keyboard-response","14","46002","0.0-5.0-2.3","63f3a6b6d4c4d564638f38ca","bdp_rd","Sun Mar 26 2023 12:52:02 GMT-0500 (Central Daylight Time)","196145","","3632","","","","offer","","<div class='trialBorder'><div class='vertical-center'><img style='vertical-align:center; align:center' src=img/fixation3.jpg></div><div class='cl'><div class='vertical-center'>$40<br>for<br>sure</div></div><div class='cr'><div class='vertical-center'>$95<br>with a<br>50% chance</div></div><div class='respDivL'><div class='vertical-center'>(E)</div></div><div class='respDivR'><div class='vertical-center'>(I)</div></div></div>","E","$40","$95","0","40","95","SURE"
"html-keyboard-response","15","46254","0.0-5.0-3.3","63f3a6b6d4c4d564638f38ca","bdp_rd","Sun Mar 26 2023 12:52:02 GMT-0500 (Central Daylight Time)","196145","","null","","","","offerFB","","<div class='trialBorder'><div class='vertical-center'><img style='vertical-align:center; align:center' src=img/fixation3.jpg></div><div class='cl'><div class='vertical-center'><font style='color:orange'>$40<br>for<br>sure</font></div></div><div class='cr'><div class='vertical-center'>$95<br>with a<br>50% chance</div></div><div class='respDivL'><div class='vertical-center'><font style='color:orange'>(E)</font></div></div><div class='respDivR'><div class='vertical-center'>(I)</div></div></div>","null","$40","$95","0","40","95",""
"html-keyboard-response","16","46756","0.0-5.0-1.4","63f3a6b6d4c4d564638f38ca","bdp_rd","Sun Mar 26 2023 12:52:02 GMT-0500 (Central Daylight Time)","196145","","null","","","","FIX","","<div class='trialBorder'><div class='vertical-center'><img style='vertical-align:center; align:center' src=img/fixation3.jpg></div></div>","null","","","","","",""
"html-keyboard-response","17","48814","0.0-5.0-2.4","63f3a6b6d4c4d564638f38ca","bdp_rd","Sun Mar 26 2023 12:52:02 GMT-0500 (Central Daylight Time)","196145","","2056","","","","offer","","<div class='trialBorder'><div class='vertical-center'><img style='vertical-align:center; align:center' src=img/fixation3.jpg></div><div class='cl'><div class='vertical-center'>$53<br>for<br>sure</div></div><div class='cr'><div class='vertical-center'>$98<br>with a<br>50% chance</div></div><div class='respDivL'><div class='vertical-center'>(E)</div></div><div class='respDivR'><div class='vertical-center'>(I)</div></div></div>","E","$53","$98","0","53","98","SURE"
"html-keyboard-response","18","49066","0.0-5.0-3.4","63f3a6b6d4c4d564638f38ca","bdp_rd","Sun Mar 26 2023 12:52:02 GMT-0500 (Central Daylight Time)","196145","","null","","","","offerFB","","<div class='trialBorder'><div class='vertical-center'><img style='vertical-align:center; align:center' src=img/fixation3.jpg></div><div class='cl'><div class='vertical-center'><font style='color:orange'>$53<br>for<br>sure</font></div></div><div class='cr'><div class='vertical-center'>$98<br>with a<br>50% chance</div></div><div class='respDivL'><div class='vertical-center'><font style='color:orange'>(E)</font></div></div><div class='respDivR'><div class='vertical-center'>(I)</div></div></div>","null","$53","$98","0","53","98",""
"html-keyboard-response","19","49567","0.0-5.0-1.5","63f3a6b6d4c4d564638f38ca","bdp_rd","Sun Mar 26 2023 12:52:02 GMT-0500 (Central Daylight Time)","196145","","null","","","","FIX","","<div class='trialBorder'><div class='vertical-center'><img style='vertical-align:center; align:center' src=img/fixation3.jpg></div></div>","null","","","","","",""
"html-keyboard-response","20","53714","0.0-5.0-2.5","63f3a6b6d4c4d564638f38ca","bdp_rd","Sun Mar 26 2023 12:52:02 GMT-0500 (Central Daylight Time)","196145","","4147","","","","offer","","<div class='trialBorder'><div class='vertical-center'><img style='vertical-align:center; align:center' src=img/fixation3.jpg></div><div class='cl'><div class='vertical-center'>$37<br>with a<br>50% chance</div></div><div class='cr'><div class='vertical-center'>$20<br>for<br>sure</div></div><div class='respDivL'><div class='vertical-center'>(E)</div></div><div class='respDivR'><div class='vertical-center'>(I)</div></div></div>","I","$20","$37","1","20","37","SURE"
"html-keyboard-response","21","53966","0.0-5.0-3.5","63f3a6b6d4c4d564638f38ca","bdp_rd","Sun Mar 26 2023 12:52:02 GMT-0500 (Central Daylight Time)","196145","","null","","","","offerFB","","<div class='trialBorder'><div class='vertical-center'><img style='vertical-align:center; align:center' src=img/fixation3.jpg></div><div class='cl'><div class='vertical-center'>$37<br>with a<br>50% chance</div></div><div class='cr'><div class='vertical-center'><font style='color:orange'>$20<br>for<br>sure</font></div></div><div class='respDivL'><div class='vertical-center'>(E)</div></div><div class='respDivR'><div class='vertical-center'><font style='color:orange'>(I)</font></div></div></div>","null","$20","$37","1","20","37",""
"html-keyboard-response","22","54468","0.0-5.0-1.6","63f3a6b6d4c4d564638f38ca","bdp_rd","Sun Mar 26 2023 12:52:02 GMT-0500 (Central Daylight Time)","196145","","null","","","","FIX","","<div class='trialBorder'><div class='vertical-center'><img style='vertical-align:center; align:center' src=img/fixation3.jpg></div></div>","null","","","","","",""
"html-keyboard-response","23","57556","0.0-5.0-2.6","63f3a6b6d4c4d564638f38ca","bdp_rd","Sun Mar 26 2023 12:52:02 GMT-0500 (Central Daylight Time)","196145","","3087","","","","offer","","<div class='trialBorder'><div class='vertical-center'><img style='vertical-align:center; align:center' src=img/fixation3.jpg></div><div class='cl'><div class='vertical-center'>$15<br>with a<br>50% chance</div></div><div class='cr'><div class='vertical-center'>$6<br>for<br>sure</div></div><div class='respDivL'><div class='vertical-center'>(E)</div></div><div class='respDivR'><div class='vertical-center'>(I)</div></div></div>","E","$6","$15","1","6","15","RISKY"
"html-keyboard-response","24","57807","0.0-5.0-3.6","63f3a6b6d4c4d564638f38ca","bdp_rd","Sun Mar 26 2023 12:52:02 GMT-0500 (Central Daylight Time)","196145","","null","","","","offerFB","","<div class='trialBorder'><div class='vertical-center'><img style='vertical-align:center; align:center' src=img/fixation3.jpg></div><div class='cl'><div class='vertical-center'><font style='color:orange'>$15<br>with a<br>50% chance</font></div></div><div class='cr'><div class='vertical-center'>$6<br>for<br>sure</div></div><div class='respDivL'><div class='vertical-center'><font style='color:orange'>(E)</font></div></div><div class='respDivR'><div class='vertical-center'>(I)</div></div></div>","null","$6","$15","1","6","15",""
"html-keyboard-response","25","58308","0.0-5.0-1.7","63f3a6b6d4c4d564638f38ca","bdp_rd","Sun Mar 26 2023 12:52:02 GMT-0500 (Central Daylight Time)","196145","","null","","","","FIX","","<div class='trialBorder'><div class='vertical-center'><img style='vertical-align:center; align:center' src=img/fixation3.jpg></div></div>","null","","","","","",""
"html-keyboard-response","26","61721","0.0-5.0-2.7","63f3a6b6d4c4d564638f38ca","bdp_rd","Sun Mar 26 2023 12:52:02 GMT-0500 (Central Daylight Time)","196145","","3411","","","","offer","","<div class='trialBorder'><div class='vertical-center'><img style='vertical-align:center; align:center' src=img/fixation3.jpg></div><div class='cl'><div class='vertical-center'>$16<br>for<br>sure</div></div><div class='cr'><div class='vertical-center'>$28<br>with a<br>50% chance</div></div><div class='respDivL'><div class='vertical-center'>(E)</div></div><div class='respDivR'><div class='vertical-center'>(I)</div></div></div>","E","$16","$28","0","16","28","SURE"
"html-keyboard-response","27","61973","0.0-5.0-3.7","63f3a6b6d4c4d564638f38ca","bdp_rd","Sun Mar 26 2023 12:52:02 GMT-0500 (Central Daylight Time)","196145","","null","","","","offerFB","","<div class='trialBorder'><div class='vertical-center'><img style='vertical-align:center; align:center' src=img/fixation3.jpg></div><div class='cl'><div class='vertical-center'><font style='color:orange'>$16<br>for<br>sure</font></div></div><div class='cr'><div class='vertical-center'>$28<br>with a<br>50% chance</div></div><div class='respDivL'><div class='vertical-center'><font style='color:orange'>(E)</font></div></div><div class='respDivR'><div class='vertical-center'>(I)</div></div></div>","null","$16","$28","0","16","28",""
"html-keyboard-response","28","62475","0.0-5.0-1.8","63f3a6b6d4c4d564638f38ca","bdp_rd","Sun Mar 26 2023 12:52:02 GMT-0500 (Central Daylight Time)","196145","","null","","","","FIX","","<div class='trialBorder'><div class='vertical-center'><img style='vertical-align:center; align:center' src=img/fixation3.jpg></div></div>","null","","","","","",""
"html-keyboard-response","29","63995","0.0-5.0-2.8","63f3a6b6d4c4d564638f38ca","bdp_rd","Sun Mar 26 2023 12:52:02 GMT-0500 (Central Daylight Time)","196145","","1518","","","","offer","","<div class='trialBorder'><div class='vertical-center'><img style='vertical-align:center; align:center' src=img/fixation3.jpg></div><div class='cl'><div class='vertical-center'>$44<br>with a<br>50% chance</div></div><div class='cr'><div class='vertical-center'>$37<br>for<br>sure</div></div><div class='respDivL'><div class='vertical-center'>(E)</div></div><div class='respDivR'><div class='vertical-center'>(I)</div></div></div>","I","$37","$44","1","37","44","SURE"
"html-keyboard-response","30","64247","0.0-5.0-3.8","63f3a6b6d4c4d564638f38ca","bdp_rd","Sun Mar 26 2023 12:52:02 GMT-0500 (Central Daylight Time)","196145","","null","","","","offerFB","","<div class='trialBorder'><div class='vertical-center'><img style='vertical-align:center; align:center' src=img/fixation3.jpg></div><div class='cl'><div class='vertical-center'>$44<br>with a<br>50% chance</div></div><div class='cr'><div class='vertical-center'><font style='color:orange'>$37<br>for<br>sure</font></div></div><div class='respDivL'><div class='vertical-center'>(E)</div></div><div class='respDivR'><div class='vertical-center'><font style='color:orange'>(I)</font></div></div></div>","null","$37","$44","1","37","44",""
"html-keyboard-response","31","64748","0.0-5.0-1.9","63f3a6b6d4c4d564638f38ca","bdp_rd","Sun Mar 26 2023 12:52:02 GMT-0500 (Central Daylight Time)","196145","","null","","","","FIX","","<div class='trialBorder'><div class='vertical-center'><img style='vertical-align:center; align:center' src=img/fixation3.jpg></div></div>","null","","","","","",""
"html-keyboard-response","32","67155","0.0-5.0-2.9","63f3a6b6d4c4d564638f38ca","bdp_rd","Sun Mar 26 2023 12:52:02 GMT-0500 (Central Daylight Time)","196145","","2406","","","","offer","","<div class='trialBorder'><div class='vertical-center'><img style='vertical-align:center; align:center' src=img/fixation3.jpg></div><div class='cl'><div class='vertical-center'>$16<br>with a<br>50% chance</div></div><div class='cr'><div class='vertical-center'>$5<br>for<br>sure</div></div><div class='respDivL'><div class='vertical-center'>(E)</div></div><div class='respDivR'><div class='vertical-center'>(I)</div></div></div>","E","$5","$16","1","5","16","RISKY"
"html-keyboard-response","33","67406","0.0-5.0-3.9","63f3a6b6d4c4d564638f38ca","bdp_rd","Sun Mar 26 2023 12:52:02 GMT-0500 (Central Daylight Time)","196145","","null","","","","offerFB","","<div class='trialBorder'><div class='vertical-center'><img style='vertical-align:center; align:center' src=img/fixation3.jpg></div><div class='cl'><div class='vertical-center'><font style='color:orange'>$16<br>with a<br>50% chance</font></div></div><div class='cr'><div class='vertical-center'>$5<br>for<br>sure</div></div><div class='respDivL'><div class='vertical-center'><font style='color:orange'>(E)</font></div></div><div class='respDivR'><div class='vertical-center'>(I)</div></div></div>","null","$5","$16","1","5","16",""
"html-keyboard-response","34","67907","0.0-5.0-1.10","63f3a6b6d4c4d564638f38ca","bdp_rd","Sun Mar 26 2023 12:52:02 GMT-0500 (Central Daylight Time)","196145","","null","","","","FIX","","<div class='trialBorder'><div class='vertical-center'><img style='vertical-align:center; align:center' src=img/fixation3.jpg></div></div>","null","","","","","",""
"html-keyboard-response","35","71490","0.0-5.0-2.10","63f3a6b6d4c4d564638f38ca","bdp_rd","Sun Mar 26 2023 12:52:02 GMT-0500 (Central Daylight Time)","196145","","3582","","","","offer","","<div class='trialBorder'><div class='vertical-center'><img style='vertical-align:center; align:center' src=img/fixation3.jpg></div><div class='cl'><div class='vertical-center'>$22<br>for<br>sure</div></div><div class='cr'><div class='vertical-center'>$59<br>with a<br>50% chance</div></div><div class='respDivL'><div class='vertical-center'>(E)</div></div><div class='respDivR'><div class='vertical-center'>(I)</div></div></div>","I","$22","$59","0","22","59","RISKY"
"html-keyboard-response","36","71742","0.0-5.0-3.10","63f3a6b6d4c4d564638f38ca","bdp_rd","Sun Mar 26 2023 12:52:02 GMT-0500 (Central Daylight Time)","196145","","null","","","","offerFB","","<div class='trialBorder'><div class='vertical-center'><img style='vertical-align:center; align:center' src=img/fixation3.jpg></div><div class='cl'><div class='vertical-center'>$22<br>for<br>sure</div></div><div class='cr'><div class='vertical-center'><font style='color:orange'>$59<br>with a<br>50% chance</font></div></div><div class='respDivL'><div class='vertical-center'>(E)</div></div><div class='respDivR'><div class='vertical-center'><font style='color:orange'>(I)</font></div></div></div>","null","$22","$59","0","22","59",""
"html-keyboard-response","37","72243","0.0-5.0-1.11","63f3a6b6d4c4d564638f38ca","bdp_rd","Sun Mar 26 2023 12:52:02 GMT-0500 (Central Daylight Time)","196145","","null","","","","FIX","","<div class='trialBorder'><div class='vertical-center'><img style='vertical-align:center; align:center' src=img/fixation3.jpg></div></div>","null","","","","","",""
"html-keyboard-response","38","74049","0.0-5.0-2.11","63f3a6b6d4c4d564638f38ca","bdp_rd","Sun Mar 26 2023 12:52:02 GMT-0500 (Central Daylight Time)","196145","","1804","","","","offer","","<div class='trialBorder'><div class='vertical-center'><img style='vertical-align:center; align:center' src=img/fixation3.jpg></div><div class='cl'><div class='vertical-center'>$34<br>with a<br>50% chance</div></div><div class='cr'><div class='vertical-center'>$15<br>for<br>sure</div></div><div class='respDivL'><div class='vertical-center'>(E)</div></div><div class='respDivR'><div class='vertical-center'>(I)</div></div></div>","I","$15","$34","1","15","34","SURE"
"html-keyboard-response","39","74300","0.0-5.0-3.11","63f3a6b6d4c4d564638f38ca","bdp_rd","Sun Mar 26 2023 12:52:02 GMT-0500 (Central Daylight Time)","196145","","null","","","","offerFB","","<div class='trialBorder'><div class='vertical-center'><img style='vertical-align:center; align:center' src=img/fixation3.jpg></div><div class='cl'><div class='vertical-center'>$34<br>with a<br>50% chance</div></div><div class='cr'><div class='vertical-center'><font style='color:orange'>$15<br>for<br>sure</font></div></div><div class='respDivL'><div class='vertical-center'>(E)</div></div><div class='respDivR'><div class='vertical-center'><font style='color:orange'>(I)</font></div></div></div>","null","$15","$34","1","15","34",""
"html-keyboard-response","40","74803","0.0-5.0-1.12","63f3a6b6d4c4d564638f38ca","bdp_rd","Sun Mar 26 2023 12:52:02 GMT-0500 (Central Daylight Time)","196145","","null","","","","FIX","","<div class='trialBorder'><div class='vertical-center'><img style='vertical-align:center; align:center' src=img/fixation3.jpg></div></div>","null","","","","","",""
"html-keyboard-response","41","78112","0.0-5.0-2.12","63f3a6b6d4c4d564638f38ca","bdp_rd","Sun Mar 26 2023 12:52:02 GMT-0500 (Central Daylight Time)","196145","","3307","","","","offer","","<div class='trialBorder'><div class='vertical-center'><img style='vertical-align:center; align:center' src=img/fixation3.jpg></div><div class='cl'><div class='vertical-center'>$27<br>with a<br>50% chance</div></div><div class='cr'><div class='vertical-center'>$12<br>for<br>sure</div></div><div class='respDivL'><div class='vertical-center'>(E)</div></div><div class='respDivR'><div class='vertical-center'>(I)</div></div></div>","I","$12","$27","1","12","27","SURE"
"html-keyboard-response","42","78365","0.0-5.0-3.12","63f3a6b6d4c4d564638f38ca","bdp_rd","Sun Mar 26 2023 12:52:02 GMT-0500 (Central Daylight Time)","196145","","null","","","","offerFB","","<div class='trialBorder'><div class='vertical-center'><img style='vertical-align:center; align:center' src=img/fixation3.jpg></div><div class='cl'><div class='vertical-center'>$27<br>with a<br>50% chance</div></div><div class='cr'><div class='vertical-center'><font style='color:orange'>$12<br>for<br>sure</font></div></div><div class='respDivL'><div class='vertical-center'>(E)</div></div><div class='respDivR'><div class='vertical-center'><font style='color:orange'>(I)</font></div></div></div>","null","$12","$27","1","12","27",""
"html-keyboard-response","43","78866","0.0-5.0-1.13","63f3a6b6d4c4d564638f38ca","bdp_rd","Sun Mar 26 2023 12:52:02 GMT-0500 (Central Daylight Time)","196145","","null","","","","FIX","","<div class='trialBorder'><div class='vertical-center'><img style='vertical-align:center; align:center' src=img/fixation3.jpg></div></div>","null","","","","","",""
"html-keyboard-response","44","81583","0.0-5.0-2.13","63f3a6b6d4c4d564638f38ca","bdp_rd","Sun Mar 26 2023 12:52:02 GMT-0500 (Central Daylight Time)","196145","","2716","","","","offer","","<div class='trialBorder'><div class='vertical-center'><img style='vertical-align:center; align:center' src=img/fixation3.jpg></div><div class='cl'><div class='vertical-center'>$16<br>for<br>sure</div></div><div class='cr'><div class='vertical-center'>$38<br>with a<br>50% chance</div></div><div class='respDivL'><div class='vertical-center'>(E)</div></div><div class='respDivR'><div class='vertical-center'>(I)</div></div></div>","I","$16","$38","0","16","38","RISKY"
"html-keyboard-response","45","81836","0.0-5.0-3.13","63f3a6b6d4c4d564638f38ca","bdp_rd","Sun Mar 26 2023 12:52:02 GMT-0500 (Central Daylight Time)","196145","","null","","","","offerFB","","<div class='trialBorder'><div class='vertical-center'><img style='vertical-align:center; align:center' src=img/fixation3.jpg></div><div class='cl'><div class='vertical-center'>$16<br>for<br>sure</div></div><div class='cr'><div class='vertical-center'><font style='color:orange'>$38<br>with a<br>50% chance</font></div></div><div class='respDivL'><div class='vertical-center'>(E)</div></div><div class='respDivR'><div class='vertical-center'><font style='color:orange'>(I)</font></div></div></div>","null","$16","$38","0","16","38",""
"html-keyboard-response","46","82337","0.0-5.0-1.14","63f3a6b6d4c4d564638f38ca","bdp_rd","Sun Mar 26 2023 12:52:02 GMT-0500 (Central Daylight Time)","196145","","null","","","","FIX","","<div class='trialBorder'><div class='vertical-center'><img style='vertical-align:center; align:center' src=img/fixation3.jpg></div></div>","null","","","","","",""
"html-keyboard-response","47","84924","0.0-5.0-2.14","63f3a6b6d4c4d564638f38ca","bdp_rd","Sun Mar 26 2023 12:52:02 GMT-0500 (Central Daylight Time)","196145","","2586","","","","offer","","<div class='trialBorder'><div class='vertical-center'><img style='vertical-align:center; align:center' src=img/fixation3.jpg></div><div class='cl'><div class='vertical-center'>$11<br>for<br>sure</div></div><div class='cr'><div class='vertical-center'>$26<br>with a<br>50% chance</div></div><div class='respDivL'><div class='vertical-center'>(E)</div></div><div class='respDivR'><div class='vertical-center'>(I)</div></div></div>","I","$11","$26","0","11","26","RISKY"
"html-keyboard-response","48","85176","0.0-5.0-3.14","63f3a6b6d4c4d564638f38ca","bdp_rd","Sun Mar 26 2023 12:52:02 GMT-0500 (Central Daylight Time)","196145","","null","","","","offerFB","","<div class='trialBorder'><div class='vertical-center'><img style='vertical-align:center; align:center' src=img/fixation3.jpg></div><div class='cl'><div class='vertical-center'>$11<br>for<br>sure</div></div><div class='cr'><div class='vertical-center'><font style='color:orange'>$26<br>with a<br>50% chance</font></div></div><div class='respDivL'><div class='vertical-center'>(E)</div></div><div class='respDivR'><div class='vertical-center'><font style='color:orange'>(I)</font></div></div></div>","null","$11","$26","0","11","26",""
"html-keyboard-response","49","85678","0.0-5.0-1.15","63f3a6b6d4c4d564638f38ca","bdp_rd","Sun Mar 26 2023 12:52:02 GMT-0500 (Central Daylight Time)","196145","","null","","","","FIX","","<div class='trialBorder'><div class='vertical-center'><img style='vertical-align:center; align:center' src=img/fixation3.jpg></div></div>","null","","","","","",""
"html-keyboard-response","50","87551","0.0-5.0-2.15","63f3a6b6d4c4d564638f38ca","bdp_rd","Sun Mar 26 2023 12:52:02 GMT-0500 (Central Daylight Time)","196145","","1872","","","","offer","","<div class='trialBorder'><div class='vertical-center'><img style='vertical-align:center; align:center' src=img/fixation3.jpg></div><div class='cl'><div class='vertical-center'>$64<br>with a<br>50% chance</div></div><div class='cr'><div class='vertical-center'>$2<br>for<br>sure</div></div><div class='respDivL'><div class='vertical-center'>(E)</div></div><div class='respDivR'><div class='vertical-center'>(I)</div></div></div>","E","$2","$64","1","2","64","RISKY"
"html-keyboard-response","51","87803","0.0-5.0-3.15","63f3a6b6d4c4d564638f38ca","bdp_rd","Sun Mar 26 2023 12:52:02 GMT-0500 (Central Daylight Time)","196145","","null","","","","offerFB","","<div class='trialBorder'><div class='vertical-center'><img style='vertical-align:center; align:center' src=img/fixation3.jpg></div><div class='cl'><div class='vertical-center'><font style='color:orange'>$64<br>with a<br>50% chance</font></div></div><div class='cr'><div class='vertical-center'>$2<br>for<br>sure</div></div><div class='respDivL'><div class='vertical-center'><font style='color:orange'>(E)</font></div></div><div class='respDivR'><div class='vertical-center'>(I)</div></div></div>","null","$2","$64","1","2","64",""
"html-keyboard-response","52","88305","0.0-5.0-1.16","63f3a6b6d4c4d564638f38ca","bdp_rd","Sun Mar 26 2023 12:52:02 GMT-0500 (Central Daylight Time)","196145","","null","","","","FIX","","<div class='trialBorder'><div class='vertical-center'><img style='vertical-align:center; align:center' src=img/fixation3.jpg></div></div>","null","","","","","",""
"html-keyboard-response","53","89979","0.0-5.0-2.16","63f3a6b6d4c4d564638f38ca","bdp_rd","Sun Mar 26 2023 12:52:02 GMT-0500 (Central Daylight Time)","196145","","1673","","","","offer","","<div class='trialBorder'><div class='vertical-center'><img style='vertical-align:center; align:center' src=img/fixation3.jpg></div><div class='cl'><div class='vertical-center'>$41<br>with a<br>50% chance</div></div><div class='cr'><div class='vertical-center'>$13<br>for<br>sure</div></div><div class='respDivL'><div class='vertical-center'>(E)</div></div><div class='respDivR'><div class='vertical-center'>(I)</div></div></div>","E","$13","$41","1","13","41","RISKY"
"html-keyboard-response","54","90231","0.0-5.0-3.16","63f3a6b6d4c4d564638f38ca","bdp_rd","Sun Mar 26 2023 12:52:02 GMT-0500 (Central Daylight Time)","196145","","null","","","","offerFB","","<div class='trialBorder'><div class='vertical-center'><img style='vertical-align:center; align:center' src=img/fixation3.jpg></div><div class='cl'><div class='vertical-center'><font style='color:orange'>$41<br>with a<br>50% chance</font></div></div><div class='cr'><div class='vertical-center'>$13<br>for<br>sure</div></div><div class='respDivL'><div class='vertical-center'><font style='color:orange'>(E)</font></div></div><div class='respDivR'><div class='vertical-center'>(I)</div></div></div>","null","$13","$41","1","13","41",""
"html-keyboard-response","55","90733","0.0-5.0-1.17","63f3a6b6d4c4d564638f38ca","bdp_rd","Sun Mar 26 2023 12:52:02 GMT-0500 (Central Daylight Time)","196145","","null","","","","FIX","","<div class='trialBorder'><div class='vertical-center'><img style='vertical-align:center; align:center' src=img/fixation3.jpg></div></div>","null","","","","","",""
"html-keyboard-response","56","92060","0.0-5.0-2.17","63f3a6b6d4c4d564638f38ca","bdp_rd","Sun Mar 26 2023 12:52:02 GMT-0500 (Central Daylight Time)","196145","","1326","","","","offer","","<div class='trialBorder'><div class='vertical-center'><img style='vertical-align:center; align:center' src=img/fixation3.jpg></div><div class='cl'><div class='vertical-center'>$30<br>with a<br>50% chance</div></div><div class='cr'><div class='vertical-center'>$1<br>for<br>sure</div></div><div class='respDivL'><div class='vertical-center'>(E)</div></div><div class='respDivR'><div class='vertical-center'>(I)</div></div></div>","E","$1","$30","1","1","30","RISKY"
"html-keyboard-response","57","92313","0.0-5.0-3.17","63f3a6b6d4c4d564638f38ca","bdp_rd","Sun Mar 26 2023 12:52:02 GMT-0500 (Central Daylight Time)","196145","","null","","","","offerFB","","<div class='trialBorder'><div class='vertical-center'><img style='vertical-align:center; align:center' src=img/fixation3.jpg></div><div class='cl'><div class='vertical-center'><font style='color:orange'>$30<br>with a<br>50% chance</font></div></div><div class='cr'><div class='vertical-center'>$1<br>for<br>sure</div></div><div class='respDivL'><div class='vertical-center'><font style='color:orange'>(E)</font></div></div><div class='respDivR'><div class='vertical-center'>(I)</div></div></div>","null","$1","$30","1","1","30",""
"html-keyboard-response","58","92815","0.0-5.0-1.18","63f3a6b6d4c4d564638f38ca","bdp_rd","Sun Mar 26 2023 12:52:02 GMT-0500 (Central Daylight Time)","196145","","null","","","","FIX","","<div class='trialBorder'><div class='vertical-center'><img style='vertical-align:center; align:center' src=img/fixation3.jpg></div></div>","null","","","","","",""
"html-keyboard-response","59","94954","0.0-5.0-2.18","63f3a6b6d4c4d564638f38ca","bdp_rd","Sun Mar 26 2023 12:52:02 GMT-0500 (Central Daylight Time)","196145","","2138","","","","offer","","<div class='trialBorder'><div class='vertical-center'><img style='vertical-align:center; align:center' src=img/fixation3.jpg></div><div class='cl'><div class='vertical-center'>$10<br>with a<br>50% chance</div></div><div class='cr'><div class='vertical-center'>$7<br>for<br>sure</div></div><div class='respDivL'><div class='vertical-center'>(E)</div></div><div class='respDivR'><div class='vertical-center'>(I)</div></div></div>","I","$7","$10","1","7","10","SURE"
"html-keyboard-response","60","95205","0.0-5.0-3.18","63f3a6b6d4c4d564638f38ca","bdp_rd","Sun Mar 26 2023 12:52:02 GMT-0500 (Central Daylight Time)","196145","","null","","","","offerFB","","<div class='trialBorder'><div class='vertical-center'><img style='vertical-align:center; align:center' src=img/fixation3.jpg></div><div class='cl'><div class='vertical-center'>$10<br>with a<br>50% chance</div></div><div class='cr'><div class='vertical-center'><font style='color:orange'>$7<br>for<br>sure</font></div></div><div class='respDivL'><div class='vertical-center'>(E)</div></div><div class='respDivR'><div class='vertical-center'><font style='color:orange'>(I)</font></div></div></div>","null","$7","$10","1","7","10",""
"html-keyboard-response","61","95708","0.0-5.0-1.19","63f3a6b6d4c4d564638f38ca","bdp_rd","Sun Mar 26 2023 12:52:02 GMT-0500 (Central Daylight Time)","196145","","null","","","","FIX","","<div class='trialBorder'><div class='vertical-center'><img style='vertical-align:center; align:center' src=img/fixation3.jpg></div></div>","null","","","","","",""
"html-keyboard-response","62","96905","0.0-5.0-2.19","63f3a6b6d4c4d564638f38ca","bdp_rd","Sun Mar 26 2023 12:52:02 GMT-0500 (Central Daylight Time)","196145","","1196","","","","offer","","<div class='trialBorder'><div class='vertical-center'><img style='vertical-align:center; align:center' src=img/fixation3.jpg></div><div class='cl'><div class='vertical-center'>$28<br>for<br>sure</div></div><div class='cr'><div class='vertical-center'>$89<br>with a<br>50% chance</div></div><div class='respDivL'><div class='vertical-center'>(E)</div></div><div class='respDivR'><div class='vertical-center'>(I)</div></div></div>","I","$28","$89","0","28","89","RISKY"
"html-keyboard-response","63","97157","0.0-5.0-3.19","63f3a6b6d4c4d564638f38ca","bdp_rd","Sun Mar 26 2023 12:52:02 GMT-0500 (Central Daylight Time)","196145","","null","","","","offerFB","","<div class='trialBorder'><div class='vertical-center'><img style='vertical-align:center; align:center' src=img/fixation3.jpg></div><div class='cl'><div class='vertical-center'>$28<br>for<br>sure</div></div><div class='cr'><div class='vertical-center'><font style='color:orange'>$89<br>with a<br>50% chance</font></div></div><div class='respDivL'><div class='vertical-center'>(E)</div></div><div class='respDivR'><div class='vertical-center'><font style='color:orange'>(I)</font></div></div></div>","null","$28","$89","0","28","89",""
"html-keyboard-response","64","97659","0.0-5.0-1.20","63f3a6b6d4c4d564638f38ca","bdp_rd","Sun Mar 26 2023 12:52:02 GMT-0500 (Central Daylight Time)","196145","","null","","","","FIX","","<div class='trialBorder'><div class='vertical-center'><img style='vertical-align:center; align:center' src=img/fixation3.jpg></div></div>","null","","","","","",""
"html-keyboard-response","65","99053","0.0-5.0-2.20","63f3a6b6d4c4d564638f38ca","bdp_rd","Sun Mar 26 2023 12:52:02 GMT-0500 (Central Daylight Time)","196145","","1393","","","","offer","","<div class='trialBorder'><div class='vertical-center'><img style='vertical-align:center; align:center' src=img/fixation3.jpg></div><div class='cl'><div class='vertical-center'>$3<br>for<br>sure</div></div><div class='cr'><div class='vertical-center'>$12<br>with a<br>50% chance</div></div><div class='respDivL'><div class='vertical-center'>(E)</div></div><div class='respDivR'><div class='vertical-center'>(I)</div></div></div>","I","$3","$12","0","3","12","RISKY"
"html-keyboard-response","66","99305","0.0-5.0-3.20","63f3a6b6d4c4d564638f38ca","bdp_rd","Sun Mar 26 2023 12:52:02 GMT-0500 (Central Daylight Time)","196145","","null","","","","offerFB","","<div class='trialBorder'><div class='vertical-center'><img style='vertical-align:center; align:center' src=img/fixation3.jpg></div><div class='cl'><div class='vertical-center'>$3<br>for<br>sure</div></div><div class='cr'><div class='vertical-center'><font style='color:orange'>$12<br>with a<br>50% chance</font></div></div><div class='respDivL'><div class='vertical-center'>(E)</div></div><div class='respDivR'><div class='vertical-center'><font style='color:orange'>(I)</font></div></div></div>","null","$3","$12","0","3","12",""
"html-keyboard-response","67","99807","0.0-5.0-1.21","63f3a6b6d4c4d564638f38ca","bdp_rd","Sun Mar 26 2023 12:52:02 GMT-0500 (Central Daylight Time)","196145","","null","","","","FIX","","<div class='trialBorder'><div class='vertical-center'><img style='vertical-align:center; align:center' src=img/fixation3.jpg></div></div>","null","","","","","",""
"html-keyboard-response","68","101909","0.0-5.0-2.21","63f3a6b6d4c4d564638f38ca","bdp_rd","Sun Mar 26 2023 12:52:02 GMT-0500 (Central Daylight Time)","196145","","2102","","","","offer","","<div class='trialBorder'><div class='vertical-center'><img style='vertical-align:center; align:center' src=img/fixation3.jpg></div><div class='cl'><div class='vertical-center'>$27<br>for<br>sure</div></div><div class='cr'><div class='vertical-center'>$47<br>with a<br>50% chance</div></div><div class='respDivL'><div class='vertical-center'>(E)</div></div><div class='respDivR'><div class='vertical-center'>(I)</div></div></div>","E","$27","$47","0","27","47","SURE"
"html-keyboard-response","69","102161","0.0-5.0-3.21","63f3a6b6d4c4d564638f38ca","bdp_rd","Sun Mar 26 2023 12:52:02 GMT-0500 (Central Daylight Time)","196145","","null","","","","offerFB","","<div class='trialBorder'><div class='vertical-center'><img style='vertical-align:center; align:center' src=img/fixation3.jpg></div><div class='cl'><div class='vertical-center'><font style='color:orange'>$27<br>for<br>sure</font></div></div><div class='cr'><div class='vertical-center'>$47<br>with a<br>50% chance</div></div><div class='respDivL'><div class='vertical-center'><font style='color:orange'>(E)</font></div></div><div class='respDivR'><div class='vertical-center'>(I)</div></div></div>","null","$27","$47","0","27","47",""
"html-keyboard-response","70","102662","0.0-5.0-1.22","63f3a6b6d4c4d564638f38ca","bdp_rd","Sun Mar 26 2023 12:52:02 GMT-0500 (Central Daylight Time)","196145","","null","","","","FIX","","<div class='trialBorder'><div class='vertical-center'><img style='vertical-align:center; align:center' src=img/fixation3.jpg></div></div>","null","","","","","",""
"html-keyboard-response","71","103769","0.0-5.0-2.22","63f3a6b6d4c4d564638f38ca","bdp_rd","Sun Mar 26 2023 12:52:02 GMT-0500 (Central Daylight Time)","196145","","1106","","","","offer","","<div class='trialBorder'><div class='vertical-center'><img style='vertical-align:center; align:center' src=img/fixation3.jpg></div><div class='cl'><div class='vertical-center'>$10<br>for<br>sure</div></div><div class='cr'><div class='vertical-center'>$40<br>with a<br>50% chance</div></div><div class='respDivL'><div class='vertical-center'>(E)</div></div><div class='respDivR'><div class='vertical-center'>(I)</div></div></div>","I","$10","$40","0","10","40","RISKY"
"html-keyboard-response","72","104022","0.0-5.0-3.22","63f3a6b6d4c4d564638f38ca","bdp_rd","Sun Mar 26 2023 12:52:02 GMT-0500 (Central Daylight Time)","196145","","null","","","","offerFB","","<div class='trialBorder'><div class='vertical-center'><img style='vertical-align:center; align:center' src=img/fixation3.jpg></div><div class='cl'><div class='vertical-center'>$10<br>for<br>sure</div></div><div class='cr'><div class='vertical-center'><font style='color:orange'>$40<br>with a<br>50% chance</font></div></div><div class='respDivL'><div class='vertical-center'>(E)</div></div><div class='respDivR'><div class='vertical-center'><font style='color:orange'>(I)</font></div></div></div>","null","$10","$40","0","10","40",""
"html-keyboard-response","73","104523","0.0-5.0-1.23","63f3a6b6d4c4d564638f38ca","bdp_rd","Sun Mar 26 2023 12:52:02 GMT-0500 (Central Daylight Time)","196145","","null","","","","FIX","","<div class='trialBorder'><div class='vertical-center'><img style='vertical-align:center; align:center' src=img/fixation3.jpg></div></div>","null","","","","","",""
"html-keyboard-response","74","106366","0.0-5.0-2.23","63f3a6b6d4c4d564638f38ca","bdp_rd","Sun Mar 26 2023 12:52:02 GMT-0500 (Central Daylight Time)","196145","","1842","","","","offer","","<div class='trialBorder'><div class='vertical-center'><img style='vertical-align:center; align:center' src=img/fixation3.jpg></div><div class='cl'><div class='vertical-center'>$36<br>with a<br>50% chance</div></div><div class='cr'><div class='vertical-center'>$18<br>for<br>sure</div></div><div class='respDivL'><div class='vertical-center'>(E)</div></div><div class='respDivR'><div class='vertical-center'>(I)</div></div></div>","I","$18","$36","1","18","36","SURE"
"html-keyboard-response","75","106618","0.0-5.0-3.23","63f3a6b6d4c4d564638f38ca","bdp_rd","Sun Mar 26 2023 12:52:02 GMT-0500 (Central Daylight Time)","196145","","null","","","","offerFB","","<div class='trialBorder'><div class='vertical-center'><img style='vertical-align:center; align:center' src=img/fixation3.jpg></div><div class='cl'><div class='vertical-center'>$36<br>with a<br>50% chance</div></div><div class='cr'><div class='vertical-center'><font style='color:orange'>$18<br>for<br>sure</font></div></div><div class='respDivL'><div class='vertical-center'>(E)</div></div><div class='respDivR'><div class='vertical-center'><font style='color:orange'>(I)</font></div></div></div>","null","$18","$36","1","18","36",""
"html-keyboard-response","76","107119","0.0-5.0-1.24","63f3a6b6d4c4d564638f38ca","bdp_rd","Sun Mar 26 2023 12:52:02 GMT-0500 (Central Daylight Time)","196145","","null","","","","FIX","","<div class='trialBorder'><div class='vertical-center'><img style='vertical-align:center; align:center' src=img/fixation3.jpg></div></div>","null","","","","","",""
"html-keyboard-response","77","108873","0.0-5.0-2.24","63f3a6b6d4c4d564638f38ca","bdp_rd","Sun Mar 26 2023 12:52:02 GMT-0500 (Central Daylight Time)","196145","","1753","","","","offer","","<div class='trialBorder'><div class='vertical-center'><img style='vertical-align:center; align:center' src=img/fixation3.jpg></div><div class='cl'><div class='vertical-center'>$66<br>with a<br>50% chance</div></div><div class='cr'><div class='vertical-center'>$33<br>for<br>sure</div></div><div class='respDivL'><div class='vertical-center'>(E)</div></div><div class='respDivR'><div class='vertical-center'>(I)</div></div></div>","I","$33","$66","1","33","66","SURE"
"html-keyboard-response","78","109125","0.0-5.0-3.24","63f3a6b6d4c4d564638f38ca","bdp_rd","Sun Mar 26 2023 12:52:02 GMT-0500 (Central Daylight Time)","196145","","null","","","","offerFB","","<div class='trialBorder'><div class='vertical-center'><img style='vertical-align:center; align:center' src=img/fixation3.jpg></div><div class='cl'><div class='vertical-center'>$66<br>with a<br>50% chance</div></div><div class='cr'><div class='vertical-center'><font style='color:orange'>$33<br>for<br>sure</font></div></div><div class='respDivL'><div class='vertical-center'>(E)</div></div><div class='respDivR'><div class='vertical-center'><font style='color:orange'>(I)</font></div></div></div>","null","$33","$66","1","33","66",""
"html-keyboard-response","79","109626","0.0-5.0-1.25","63f3a6b6d4c4d564638f38ca","bdp_rd","Sun Mar 26 2023 12:52:02 GMT-0500 (Central Daylight Time)","196145","","null","","","","FIX","","<div class='trialBorder'><div class='vertical-center'><img style='vertical-align:center; align:center' src=img/fixation3.jpg></div></div>","null","","","","","",""
"html-keyboard-response","80","111484","0.0-5.0-2.25","63f3a6b6d4c4d564638f38ca","bdp_rd","Sun Mar 26 2023 12:52:02 GMT-0500 (Central Daylight Time)","196145","","1857","","","","offer","","<div class='trialBorder'><div class='vertical-center'><img style='vertical-align:center; align:center' src=img/fixation3.jpg></div><div class='cl'><div class='vertical-center'>$13<br>for<br>sure</div></div><div class='cr'><div class='vertical-center'>$24<br>with a<br>50% chance</div></div><div class='respDivL'><div class='vertical-center'>(E)</div></div><div class='respDivR'><div class='vertical-center'>(I)</div></div></div>","E","$13","$24","0","13","24","SURE"
"html-keyboard-response","81","111736","0.0-5.0-3.25","63f3a6b6d4c4d564638f38ca","bdp_rd","Sun Mar 26 2023 12:52:02 GMT-0500 (Central Daylight Time)","196145","","null","","","","offerFB","","<div class='trialBorder'><div class='vertical-center'><img style='vertical-align:center; align:center' src=img/fixation3.jpg></div><div class='cl'><div class='vertical-center'><font style='color:orange'>$13<br>for<br>sure</font></div></div><div class='cr'><div class='vertical-center'>$24<br>with a<br>50% chance</div></div><div class='respDivL'><div class='vertical-center'><font style='color:orange'>(E)</font></div></div><div class='respDivR'><div class='vertical-center'>(I)</div></div></div>","null","$13","$24","0","13","24",""
"html-keyboard-response","82","112238","0.0-5.0-1.26","63f3a6b6d4c4d564638f38ca","bdp_rd","Sun Mar 26 2023 12:52:02 GMT-0500 (Central Daylight Time)","196145","","null","","","","FIX","","<div class='trialBorder'><div class='vertical-center'><img style='vertical-align:center; align:center' src=img/fixation3.jpg></div></div>","null","","","","","",""
"html-keyboard-response","83","114115","0.0-5.0-2.26","63f3a6b6d4c4d564638f38ca","bdp_rd","Sun Mar 26 2023 12:52:02 GMT-0500 (Central Daylight Time)","196145","","1876","","","","offer","","<div class='trialBorder'><div class='vertical-center'><img style='vertical-align:center; align:center' src=img/fixation3.jpg></div><div class='cl'><div class='vertical-center'>$35<br>with a<br>50% chance</div></div><div class='cr'><div class='vertical-center'>$12<br>for<br>sure</div></div><div class='respDivL'><div class='vertical-center'>(E)</div></div><div class='respDivR'><div class='vertical-center'>(I)</div></div></div>","E","$12","$35","1","12","35","RISKY"
"html-keyboard-response","84","114367","0.0-5.0-3.26","63f3a6b6d4c4d564638f38ca","bdp_rd","Sun Mar 26 2023 12:52:02 GMT-0500 (Central Daylight Time)","196145","","null","","","","offerFB","","<div class='trialBorder'><div class='vertical-center'><img style='vertical-align:center; align:center' src=img/fixation3.jpg></div><div class='cl'><div class='vertical-center'><font style='color:orange'>$35<br>with a<br>50% chance</font></div></div><div class='cr'><div class='vertical-center'>$12<br>for<br>sure</div></div><div class='respDivL'><div class='vertical-center'><font style='color:orange'>(E)</font></div></div><div class='respDivR'><div class='vertical-center'>(I)</div></div></div>","null","$12","$35","1","12","35",""
"html-keyboard-response","85","114869","0.0-5.0-1.27","63f3a6b6d4c4d564638f38ca","bdp_rd","Sun Mar 26 2023 12:52:02 GMT-0500 (Central Daylight Time)","196145","","null","","","","FIX","","<div class='trialBorder'><div class='vertical-center'><img style='vertical-align:center; align:center' src=img/fixation3.jpg></div></div>","null","","","","","",""
"html-keyboard-response","86","116523","0.0-5.0-2.27","63f3a6b6d4c4d564638f38ca","bdp_rd","Sun Mar 26 2023 12:52:02 GMT-0500 (Central Daylight Time)","196145","","1653","","","","offer","","<div class='trialBorder'><div class='vertical-center'><img style='vertical-align:center; align:center' src=img/fixation3.jpg></div><div class='cl'><div class='vertical-center'>$19<br>for<br>sure</div></div><div class='cr'><div class='vertical-center'>$51<br>with a<br>50% chance</div></div><div class='respDivL'><div class='vertical-center'>(E)</div></div><div class='respDivR'><div class='vertical-center'>(I)</div></div></div>","I","$19","$51","0","19","51","RISKY"
"html-keyboard-response","87","116776","0.0-5.0-3.27","63f3a6b6d4c4d564638f38ca","bdp_rd","Sun Mar 26 2023 12:52:02 GMT-0500 (Central Daylight Time)","196145","","null","","","","offerFB","","<div class='trialBorder'><div class='vertical-center'><img style='vertical-align:center; align:center' src=img/fixation3.jpg></div><div class='cl'><div class='vertical-center'>$19<br>for<br>sure</div></div><div class='cr'><div class='vertical-center'><font style='color:orange'>$51<br>with a<br>50% chance</font></div></div><div class='respDivL'><div class='vertical-center'>(E)</div></div><div class='respDivR'><div class='vertical-center'><font style='color:orange'>(I)</font></div></div></div>","null","$19","$51","0","19","51",""
"html-keyboard-response","88","117277","0.0-5.0-1.28","63f3a6b6d4c4d564638f38ca","bdp_rd","Sun Mar 26 2023 12:52:02 GMT-0500 (Central Daylight Time)","196145","","null","","","","FIX","","<div class='trialBorder'><div class='vertical-center'><img style='vertical-align:center; align:center' src=img/fixation3.jpg></div></div>","null","","","","","",""
"html-keyboard-response","89","118831","0.0-5.0-2.28","63f3a6b6d4c4d564638f38ca","bdp_rd","Sun Mar 26 2023 12:52:02 GMT-0500 (Central Daylight Time)","196145","","1552","","","","offer","","<div class='trialBorder'><div class='vertical-center'><img style='vertical-align:center; align:center' src=img/fixation3.jpg></div><div class='cl'><div class='vertical-center'>$19<br>with a<br>50% chance</div></div><div class='cr'><div class='vertical-center'>$10<br>for<br>sure</div></div><div class='respDivL'><div class='vertical-center'>(E)</div></div><div class='respDivR'><div class='vertical-center'>(I)</div></div></div>","I","$10","$19","1","10","19","SURE"
"html-keyboard-response","90","119082","0.0-5.0-3.28","63f3a6b6d4c4d564638f38ca","bdp_rd","Sun Mar 26 2023 12:52:02 GMT-0500 (Central Daylight Time)","196145","","null","","","","offerFB","","<div class='trialBorder'><div class='vertical-center'><img style='vertical-align:center; align:center' src=img/fixation3.jpg></div><div class='cl'><div class='vertical-center'>$19<br>with a<br>50% chance</div></div><div class='cr'><div class='vertical-center'><font style='color:orange'>$10<br>for<br>sure</font></div></div><div class='respDivL'><div class='vertical-center'>(E)</div></div><div class='respDivR'><div class='vertical-center'><font style='color:orange'>(I)</font></div></div></div>","null","$10","$19","1","10","19",""
"html-keyboard-response","91","119583","0.0-5.0-1.29","63f3a6b6d4c4d564638f38ca","bdp_rd","Sun Mar 26 2023 12:52:02 GMT-0500 (Central Daylight Time)","196145","","null","","","","FIX","","<div class='trialBorder'><div class='vertical-center'><img style='vertical-align:center; align:center' src=img/fixation3.jpg></div></div>","null","","","","","",""
"html-keyboard-response","92","121628","0.0-5.0-2.29","63f3a6b6d4c4d564638f38ca","bdp_rd","Sun Mar 26 2023 12:52:02 GMT-0500 (Central Daylight Time)","196145","","2044","","","","offer","","<div class='trialBorder'><div class='vertical-center'><img style='vertical-align:center; align:center' src=img/fixation3.jpg></div><div class='cl'><div class='vertical-center'>$11<br>with a<br>50% chance</div></div><div class='cr'><div class='vertical-center'>$4<br>for<br>sure</div></div><div class='respDivL'><div class='vertical-center'>(E)</div></div><div class='respDivR'><div class='vertical-center'>(I)</div></div></div>","E","$4","$11","1","4","11","RISKY"
"html-keyboard-response","93","121880","0.0-5.0-3.29","63f3a6b6d4c4d564638f38ca","bdp_rd","Sun Mar 26 2023 12:52:02 GMT-0500 (Central Daylight Time)","196145","","null","","","","offerFB","","<div class='trialBorder'><div class='vertical-center'><img style='vertical-align:center; align:center' src=img/fixation3.jpg></div><div class='cl'><div class='vertical-center'><font style='color:orange'>$11<br>with a<br>50% chance</font></div></div><div class='cr'><div class='vertical-center'>$4<br>for<br>sure</div></div><div class='respDivL'><div class='vertical-center'><font style='color:orange'>(E)</font></div></div><div class='respDivR'><div class='vertical-center'>(I)</div></div></div>","null","$4","$11","1","4","11",""
"html-keyboard-response","94","122382","0.0-5.0-1.30","63f3a6b6d4c4d564638f38ca","bdp_rd","Sun Mar 26 2023 12:52:02 GMT-0500 (Central Daylight Time)","196145","","null","","","","FIX","","<div class='trialBorder'><div class='vertical-center'><img style='vertical-align:center; align:center' src=img/fixation3.jpg></div></div>","null","","","","","",""
"html-keyboard-response","95","124207","0.0-5.0-2.30","63f3a6b6d4c4d564638f38ca","bdp_rd","Sun Mar 26 2023 12:52:02 GMT-0500 (Central Daylight Time)","196145","","1824","","","","offer","","<div class='trialBorder'><div class='vertical-center'><img style='vertical-align:center; align:center' src=img/fixation3.jpg></div><div class='cl'><div class='vertical-center'>$18<br>for<br>sure</div></div><div class='cr'><div class='vertical-center'>$39<br>with a<br>50% chance</div></div><div class='respDivL'><div class='vertical-center'>(E)</div></div><div class='respDivR'><div class='vertical-center'>(I)</div></div></div>","I","$18","$39","0","18","39","RISKY"
"html-keyboard-response","96","124460","0.0-5.0-3.30","63f3a6b6d4c4d564638f38ca","bdp_rd","Sun Mar 26 2023 12:52:02 GMT-0500 (Central Daylight Time)","196145","","null","","","","offerFB","","<div class='trialBorder'><div class='vertical-center'><img style='vertical-align:center; align:center' src=img/fixation3.jpg></div><div class='cl'><div class='vertical-center'>$18<br>for<br>sure</div></div><div class='cr'><div class='vertical-center'><font style='color:orange'>$39<br>with a<br>50% chance</font></div></div><div class='respDivL'><div class='vertical-center'>(E)</div></div><div class='respDivR'><div class='vertical-center'><font style='color:orange'>(I)</font></div></div></div>","null","$18","$39","0","18","39",""
"html-keyboard-response","97","124961","0.0-5.0-1.31","63f3a6b6d4c4d564638f38ca","bdp_rd","Sun Mar 26 2023 12:52:02 GMT-0500 (Central Daylight Time)","196145","","null","","","","FIX","","<div class='trialBorder'><div class='vertical-center'><img style='vertical-align:center; align:center' src=img/fixation3.jpg></div></div>","null","","","","","",""
"html-keyboard-response","98","128812","0.0-5.0-2.31","63f3a6b6d4c4d564638f38ca","bdp_rd","Sun Mar 26 2023 12:52:02 GMT-0500 (Central Daylight Time)","196145","","3850","","","","offer","","<div class='trialBorder'><div class='vertical-center'><img style='vertical-align:center; align:center' src=img/fixation3.jpg></div><div class='cl'><div class='vertical-center'>$1<br>for<br>sure</div></div><div class='cr'><div class='vertical-center'>$33<br>with a<br>50% chance</div></div><div class='respDivL'><div class='vertical-center'>(E)</div></div><div class='respDivR'><div class='vertical-center'>(I)</div></div></div>","I","$1","$33","0","1","33","RISKY"
"html-keyboard-response","99","129065","0.0-5.0-3.31","63f3a6b6d4c4d564638f38ca","bdp_rd","Sun Mar 26 2023 12:52:02 GMT-0500 (Central Daylight Time)","196145","","null","","","","offerFB","","<div class='trialBorder'><div class='vertical-center'><img style='vertical-align:center; align:center' src=img/fixation3.jpg></div><div class='cl'><div class='vertical-center'>$1<br>for<br>sure</div></div><div class='cr'><div class='vertical-center'><font style='color:orange'>$33<br>with a<br>50% chance</font></div></div><div class='respDivL'><div class='vertical-center'>(E)</div></div><div class='respDivR'><div class='vertical-center'><font style='color:orange'>(I)</font></div></div></div>","null","$1","$33","0","1","33",""
"html-keyboard-response","100","129566","0.0-5.0-1.32","63f3a6b6d4c4d564638f38ca","bdp_rd","Sun Mar 26 2023 12:52:02 GMT-0500 (Central Daylight Time)","196145","","null","","","","FIX","","<div class='trialBorder'><div class='vertical-center'><img style='vertical-align:center; align:center' src=img/fixation3.jpg></div></div>","null","","","","","",""
"html-keyboard-response","101","130745","0.0-5.0-2.32","63f3a6b6d4c4d564638f38ca","bdp_rd","Sun Mar 26 2023 12:52:02 GMT-0500 (Central Daylight Time)","196145","","1177","","","","offer","","<div class='trialBorder'><div class='vertical-center'><img style='vertical-align:center; align:center' src=img/fixation3.jpg></div><div class='cl'><div class='vertical-center'>$11<br>for<br>sure</div></div><div class='cr'><div class='vertical-center'>$62<br>with a<br>50% chance</div></div><div class='respDivL'><div class='vertical-center'>(E)</div></div><div class='respDivR'><div class='vertical-center'>(I)</div></div></div>","I","$11","$62","0","11","62","RISKY"
"html-keyboard-response","102","130997","0.0-5.0-3.32","63f3a6b6d4c4d564638f38ca","bdp_rd","Sun Mar 26 2023 12:52:02 GMT-0500 (Central Daylight Time)","196145","","null","","","","offerFB","","<div class='trialBorder'><div class='vertical-center'><img style='vertical-align:center; align:center' src=img/fixation3.jpg></div><div class='cl'><div class='vertical-center'>$11<br>for<br>sure</div></div><div class='cr'><div class='vertical-center'><font style='color:orange'>$62<br>with a<br>50% chance</font></div></div><div class='respDivL'><div class='vertical-center'>(E)</div></div><div class='respDivR'><div class='vertical-center'><font style='color:orange'>(I)</font></div></div></div>","null","$11","$62","0","11","62",""
"html-keyboard-response","103","131498","0.0-5.0-1.33","63f3a6b6d4c4d564638f38ca","bdp_rd","Sun Mar 26 2023 12:52:02 GMT-0500 (Central Daylight Time)","196145","","null","","","","FIX","","<div class='trialBorder'><div class='vertical-center'><img style='vertical-align:center; align:center' src=img/fixation3.jpg></div></div>","null","","","","","",""
"html-keyboard-response","104","132795","0.0-5.0-2.33","63f3a6b6d4c4d564638f38ca","bdp_rd","Sun Mar 26 2023 12:52:02 GMT-0500 (Central Daylight Time)","196145","","1296","","","","offer","","<div class='trialBorder'><div class='vertical-center'><img style='vertical-align:center; align:center' src=img/fixation3.jpg></div><div class='cl'><div class='vertical-center'>$9<br>for<br>sure</div></div><div class='cr'><div class='vertical-center'>$18<br>with a<br>50% chance</div></div><div class='respDivL'><div class='vertical-center'>(E)</div></div><div class='respDivR'><div class='vertical-center'>(I)</div></div></div>","E","$9","$18","0","9","18","SURE"
"html-keyboard-response","105","133047","0.0-5.0-3.33","63f3a6b6d4c4d564638f38ca","bdp_rd","Sun Mar 26 2023 12:52:02 GMT-0500 (Central Daylight Time)","196145","","null","","","","offerFB","","<div class='trialBorder'><div class='vertical-center'><img style='vertical-align:center; align:center' src=img/fixation3.jpg></div><div class='cl'><div class='vertical-center'><font style='color:orange'>$9<br>for<br>sure</font></div></div><div class='cr'><div class='vertical-center'>$18<br>with a<br>50% chance</div></div><div class='respDivL'><div class='vertical-center'><font style='color:orange'>(E)</font></div></div><div class='respDivR'><div class='vertical-center'>(I)</div></div></div>","null","$9","$18","0","9","18",""
"html-keyboard-response","106","133548","0.0-5.0-1.34","63f3a6b6d4c4d564638f38ca","bdp_rd","Sun Mar 26 2023 12:52:02 GMT-0500 (Central Daylight Time)","196145","","null","","","","FIX","","<div class='trialBorder'><div class='vertical-center'><img style='vertical-align:center; align:center' src=img/fixation3.jpg></div></div>","null","","","","","",""
"html-keyboard-response","107","135606","0.0-5.0-2.34","63f3a6b6d4c4d564638f38ca","bdp_rd","Sun Mar 26 2023 12:52:02 GMT-0500 (Central Daylight Time)","196145","","2056","","","","offer","","<div class='trialBorder'><div class='vertical-center'><img style='vertical-align:center; align:center' src=img/fixation3.jpg></div><div class='cl'><div class='vertical-center'>$54<br>with a<br>50% chance</div></div><div class='cr'><div class='vertical-center'>$25<br>for<br>sure</div></div><div class='respDivL'><div class='vertical-center'>(E)</div></div><div class='respDivR'><div class='vertical-center'>(I)</div></div></div>","E","$25","$54","1","25","54","RISKY"
"html-keyboard-response","108","135858","0.0-5.0-3.34","63f3a6b6d4c4d564638f38ca","bdp_rd","Sun Mar 26 2023 12:52:02 GMT-0500 (Central Daylight Time)","196145","","null","","","","offerFB","","<div class='trialBorder'><div class='vertical-center'><img style='vertical-align:center; align:center' src=img/fixation3.jpg></div><div class='cl'><div class='vertical-center'><font style='color:orange'>$54<br>with a<br>50% chance</font></div></div><div class='cr'><div class='vertical-center'>$25<br>for<br>sure</div></div><div class='respDivL'><div class='vertical-center'><font style='color:orange'>(E)</font></div></div><div class='respDivR'><div class='vertical-center'>(I)</div></div></div>","null","$25","$54","1","25","54",""
"html-keyboard-response","109","136361","0.0-5.0-1.35","63f3a6b6d4c4d564638f38ca","bdp_rd","Sun Mar 26 2023 12:52:02 GMT-0500 (Central Daylight Time)","196145","","null","","","","FIX","","<div class='trialBorder'><div class='vertical-center'><img style='vertical-align:center; align:center' src=img/fixation3.jpg></div></div>","null","","","","","",""
"html-keyboard-response","110","137659","0.0-5.0-2.35","63f3a6b6d4c4d564638f38ca","bdp_rd","Sun Mar 26 2023 12:52:02 GMT-0500 (Central Daylight Time)","196145","","1297","","","","offer","","<div class='trialBorder'><div class='vertical-center'><img style='vertical-align:center; align:center' src=img/fixation3.jpg></div><div class='cl'><div class='vertical-center'>$7<br>for<br>sure</div></div><div class='cr'><div class='vertical-center'>$71<br>with a<br>50% chance</div></div><div class='respDivL'><div class='vertical-center'>(E)</div></div><div class='respDivR'><div class='vertical-center'>(I)</div></div></div>","I","$7","$71","0","7","71","RISKY"
"html-keyboard-response","111","137910","0.0-5.0-3.35","63f3a6b6d4c4d564638f38ca","bdp_rd","Sun Mar 26 2023 12:52:02 GMT-0500 (Central Daylight Time)","196145","","null","","","","offerFB","","<div class='trialBorder'><div class='vertical-center'><img style='vertical-align:center; align:center' src=img/fixation3.jpg></div><div class='cl'><div class='vertical-center'>$7<br>for<br>sure</div></div><div class='cr'><div class='vertical-center'><font style='color:orange'>$71<br>with a<br>50% chance</font></div></div><div class='respDivL'><div class='vertical-center'>(E)</div></div><div class='respDivR'><div class='vertical-center'><font style='color:orange'>(I)</font></div></div></div>","null","$7","$71","0","7","71",""
"html-keyboard-response","112","138412","0.0-5.0-1.36","63f3a6b6d4c4d564638f38ca","bdp_rd","Sun Mar 26 2023 12:52:02 GMT-0500 (Central Daylight Time)","196145","","null","","","","FIX","","<div class='trialBorder'><div class='vertical-center'><img style='vertical-align:center; align:center' src=img/fixation3.jpg></div></div>","null","","","","","",""
"html-keyboard-response","113","140966","0.0-5.0-2.36","63f3a6b6d4c4d564638f38ca","bdp_rd","Sun Mar 26 2023 12:52:02 GMT-0500 (Central Daylight Time)","196145","","2553","","","","offer","","<div class='trialBorder'><div class='vertical-center'><img style='vertical-align:center; align:center' src=img/fixation3.jpg></div><div class='cl'><div class='vertical-center'>$14<br>for<br>sure</div></div><div class='cr'><div class='vertical-center'>$29<br>with a<br>50% chance</div></div><div class='respDivL'><div class='vertical-center'>(E)</div></div><div class='respDivR'><div class='vertical-center'>(I)</div></div></div>","E","$14","$29","0","14","29","SURE"
"html-keyboard-response","114","141218","0.0-5.0-3.36","63f3a6b6d4c4d564638f38ca","bdp_rd","Sun Mar 26 2023 12:52:02 GMT-0500 (Central Daylight Time)","196145","","null","","","","offerFB","","<div class='trialBorder'><div class='vertical-center'><img style='vertical-align:center; align:center' src=img/fixation3.jpg></div><div class='cl'><div class='vertical-center'><font style='color:orange'>$14<br>for<br>sure</font></div></div><div class='cr'><div class='vertical-center'>$29<br>with a<br>50% chance</div></div><div class='respDivL'><div class='vertical-center'><font style='color:orange'>(E)</font></div></div><div class='respDivR'><div class='vertical-center'>(I)</div></div></div>","null","$14","$29","0","14","29",""
"html-keyboard-response","115","141720","0.0-5.0-1.37","63f3a6b6d4c4d564638f38ca","bdp_rd","Sun Mar 26 2023 12:52:02 GMT-0500 (Central Daylight Time)","196145","","null","","","","FIX","","<div class='trialBorder'><div class='vertical-center'><img style='vertical-align:center; align:center' src=img/fixation3.jpg></div></div>","null","","","","","",""
"html-keyboard-response","116","143238","0.0-5.0-2.37","63f3a6b6d4c4d564638f38ca","bdp_rd","Sun Mar 26 2023 12:52:02 GMT-0500 (Central Daylight Time)","196145","","1518","","","","offer","","<div class='trialBorder'><div class='vertical-center'><img style='vertical-align:center; align:center' src=img/fixation3.jpg></div><div class='cl'><div class='vertical-center'>$34<br>for<br>sure</div></div><div class='cr'><div class='vertical-center'>$48<br>with a<br>50% chance</div></div><div class='respDivL'><div class='vertical-center'>(E)</div></div><div class='respDivR'><div class='vertical-center'>(I)</div></div></div>","E","$34","$48","0","34","48","SURE"
"html-keyboard-response","117","143490","0.0-5.0-3.37","63f3a6b6d4c4d564638f38ca","bdp_rd","Sun Mar 26 2023 12:52:02 GMT-0500 (Central Daylight Time)","196145","","null","","","","offerFB","","<div class='trialBorder'><div class='vertical-center'><img style='vertical-align:center; align:center' src=img/fixation3.jpg></div><div class='cl'><div class='vertical-center'><font style='color:orange'>$34<br>for<br>sure</font></div></div><div class='cr'><div class='vertical-center'>$48<br>with a<br>50% chance</div></div><div class='respDivL'><div class='vertical-center'><font style='color:orange'>(E)</font></div></div><div class='respDivR'><div class='vertical-center'>(I)</div></div></div>","null","$34","$48","0","34","48",""
"html-keyboard-response","118","143992","0.0-5.0-1.38","63f3a6b6d4c4d564638f38ca","bdp_rd","Sun Mar 26 2023 12:52:02 GMT-0500 (Central Daylight Time)","196145","","null","","","","FIX","","<div class='trialBorder'><div class='vertical-center'><img style='vertical-align:center; align:center' src=img/fixation3.jpg></div></div>","null","","","","","",""
"html-keyboard-response","119","145129","0.0-5.0-2.38","63f3a6b6d4c4d564638f38ca","bdp_rd","Sun Mar 26 2023 12:52:02 GMT-0500 (Central Daylight Time)","196145","","1136","","","","offer","","<div class='trialBorder'><div class='vertical-center'><img style='vertical-align:center; align:center' src=img/fixation3.jpg></div><div class='cl'><div class='vertical-center'>$58<br>for<br>sure</div></div><div class='cr'><div class='vertical-center'>$69<br>with a<br>50% chance</div></div><div class='respDivL'><div class='vertical-center'>(E)</div></div><div class='respDivR'><div class='vertical-center'>(I)</div></div></div>","E","$58","$69","0","58","69","SURE"
"html-keyboard-response","120","145381","0.0-5.0-3.38","63f3a6b6d4c4d564638f38ca","bdp_rd","Sun Mar 26 2023 12:52:02 GMT-0500 (Central Daylight Time)","196145","","null","","","","offerFB","","<div class='trialBorder'><div class='vertical-center'><img style='vertical-align:center; align:center' src=img/fixation3.jpg></div><div class='cl'><div class='vertical-center'><font style='color:orange'>$58<br>for<br>sure</font></div></div><div class='cr'><div class='vertical-center'>$69<br>with a<br>50% chance</div></div><div class='respDivL'><div class='vertical-center'><font style='color:orange'>(E)</font></div></div><div class='respDivR'><div class='vertical-center'>(I)</div></div></div>","null","$58","$69","0","58","69",""
"html-keyboard-response","121","145883","0.0-5.0-1.39","63f3a6b6d4c4d564638f38ca","bdp_rd","Sun Mar 26 2023 12:52:02 GMT-0500 (Central Daylight Time)","196145","","null","","","","FIX","","<div class='trialBorder'><div class='vertical-center'><img style='vertical-align:center; align:center' src=img/fixation3.jpg></div></div>","null","","","","","",""
"html-keyboard-response","122","147814","0.0-5.0-2.39","63f3a6b6d4c4d564638f38ca","bdp_rd","Sun Mar 26 2023 12:52:02 GMT-0500 (Central Daylight Time)","196145","","1930","","","","offer","","<div class='trialBorder'><div class='vertical-center'><img style='vertical-align:center; align:center' src=img/fixation3.jpg></div><div class='cl'><div class='vertical-center'>$30<br>for<br>sure</div></div><div class='cr'><div class='vertical-center'>$68<br>with a<br>50% chance</div></div><div class='respDivL'><div class='vertical-center'>(E)</div></div><div class='respDivR'><div class='vertical-center'>(I)</div></div></div>","E","$30","$68","0","30","68","SURE"
"html-keyboard-response","123","148066","0.0-5.0-3.39","63f3a6b6d4c4d564638f38ca","bdp_rd","Sun Mar 26 2023 12:52:02 GMT-0500 (Central Daylight Time)","196145","","null","","","","offerFB","","<div class='trialBorder'><div class='vertical-center'><img style='vertical-align:center; align:center' src=img/fixation3.jpg></div><div class='cl'><div class='vertical-center'><font style='color:orange'>$30<br>for<br>sure</font></div></div><div class='cr'><div class='vertical-center'>$68<br>with a<br>50% chance</div></div><div class='respDivL'><div class='vertical-center'><font style='color:orange'>(E)</font></div></div><div class='respDivR'><div class='vertical-center'>(I)</div></div></div>","null","$30","$68","0","30","68",""
"html-keyboard-response","124","148567","0.0-5.0-1.40","63f3a6b6d4c4d564638f38ca","bdp_rd","Sun Mar 26 2023 12:52:02 GMT-0500 (Central Daylight Time)","196145","","null","","","","FIX","","<div class='trialBorder'><div class='vertical-center'><img style='vertical-align:center; align:center' src=img/fixation3.jpg></div></div>","null","","","","","",""
"html-keyboard-response","125","150391","0.0-5.0-2.40","63f3a6b6d4c4d564638f38ca","bdp_rd","Sun Mar 26 2023 12:52:02 GMT-0500 (Central Daylight Time)","196145","","1823","","","","offer","","<div class='trialBorder'><div class='vertical-center'><img style='vertical-align:center; align:center' src=img/fixation3.jpg></div><div class='cl'><div class='vertical-center'>$39<br>for<br>sure</div></div><div class='cr'><div class='vertical-center'>$81<br>with a<br>50% chance</div></div><div class='respDivL'><div class='vertical-center'>(E)</div></div><div class='respDivR'><div class='vertical-center'>(I)</div></div></div>","E","$39","$81","0","39","81","SURE"
"html-keyboard-response","126","150643","0.0-5.0-3.40","63f3a6b6d4c4d564638f38ca","bdp_rd","Sun Mar 26 2023 12:52:02 GMT-0500 (Central Daylight Time)","196145","","null","","","","offerFB","","<div class='trialBorder'><div class='vertical-center'><img style='vertical-align:center; align:center' src=img/fixation3.jpg></div><div class='cl'><div class='vertical-center'><font style='color:orange'>$39<br>for<br>sure</font></div></div><div class='cr'><div class='vertical-center'>$81<br>with a<br>50% chance</div></div><div class='respDivL'><div class='vertical-center'><font style='color:orange'>(E)</font></div></div><div class='respDivR'><div class='vertical-center'>(I)</div></div></div>","null","$39","$81","0","39","81",""
"html-keyboard-response","127","151145","0.0-5.0-1.41","63f3a6b6d4c4d564638f38ca","bdp_rd","Sun Mar 26 2023 12:52:02 GMT-0500 (Central Daylight Time)","196145","","null","","","","FIX","","<div class='trialBorder'><div class='vertical-center'><img style='vertical-align:center; align:center' src=img/fixation3.jpg></div></div>","null","","","","","",""
"html-keyboard-response","128","153819","0.0-5.0-2.41","63f3a6b6d4c4d564638f38ca","bdp_rd","Sun Mar 26 2023 12:52:02 GMT-0500 (Central Daylight Time)","196145","","2673","","","","offer","","<div class='trialBorder'><div class='vertical-center'><img style='vertical-align:center; align:center' src=img/fixation3.jpg></div><div class='cl'><div class='vertical-center'>$43<br>with a<br>50% chance</div></div><div class='cr'><div class='vertical-center'>$17<br>for<br>sure</div></div><div class='respDivL'><div class='vertical-center'>(E)</div></div><div class='respDivR'><div class='vertical-center'>(I)</div></div></div>","E","$17","$43","1","17","43","RISKY"
"html-keyboard-response","129","154072","0.0-5.0-3.41","63f3a6b6d4c4d564638f38ca","bdp_rd","Sun Mar 26 2023 12:52:02 GMT-0500 (Central Daylight Time)","196145","","null","","","","offerFB","","<div class='trialBorder'><div class='vertical-center'><img style='vertical-align:center; align:center' src=img/fixation3.jpg></div><div class='cl'><div class='vertical-center'><font style='color:orange'>$43<br>with a<br>50% chance</font></div></div><div class='cr'><div class='vertical-center'>$17<br>for<br>sure</div></div><div class='respDivL'><div class='vertical-center'><font style='color:orange'>(E)</font></div></div><div class='respDivR'><div class='vertical-center'>(I)</div></div></div>","null","$17","$43","1","17","43",""
"html-keyboard-response","130","154573","0.0-5.0-1.42","63f3a6b6d4c4d564638f38ca","bdp_rd","Sun Mar 26 2023 12:52:02 GMT-0500 (Central Daylight Time)","196145","","null","","","","FIX","","<div class='trialBorder'><div class='vertical-center'><img style='vertical-align:center; align:center' src=img/fixation3.jpg></div></div>","null","","","","","",""
"html-keyboard-response","131","156395","0.0-5.0-2.42","63f3a6b6d4c4d564638f38ca","bdp_rd","Sun Mar 26 2023 12:52:02 GMT-0500 (Central Daylight Time)","196145","","1821","","","","offer","","<div class='trialBorder'><div class='vertical-center'><img style='vertical-align:center; align:center' src=img/fixation3.jpg></div><div class='cl'><div class='vertical-center'>$23<br>with a<br>50% chance</div></div><div class='cr'><div class='vertical-center'>$8<br>for<br>sure</div></div><div class='respDivL'><div class='vertical-center'>(E)</div></div><div class='respDivR'><div class='vertical-center'>(I)</div></div></div>","E","$8","$23","1","8","23","RISKY"
"html-keyboard-response","132","156647","0.0-5.0-3.42","63f3a6b6d4c4d564638f38ca","bdp_rd","Sun Mar 26 2023 12:52:02 GMT-0500 (Central Daylight Time)","196145","","null","","","","offerFB","","<div class='trialBorder'><div class='vertical-center'><img style='vertical-align:center; align:center' src=img/fixation3.jpg></div><div class='cl'><div class='vertical-center'><font style='color:orange'>$23<br>with a<br>50% chance</font></div></div><div class='cr'><div class='vertical-center'>$8<br>for<br>sure</div></div><div class='respDivL'><div class='vertical-center'><font style='color:orange'>(E)</font></div></div><div class='respDivR'><div class='vertical-center'>(I)</div></div></div>","null","$8","$23","1","8","23",""
"html-keyboard-response","133","157149","0.0-5.0-1.43","63f3a6b6d4c4d564638f38ca","bdp_rd","Sun Mar 26 2023 12:52:02 GMT-0500 (Central Daylight Time)","196145","","null","","","","FIX","","<div class='trialBorder'><div class='vertical-center'><img style='vertical-align:center; align:center' src=img/fixation3.jpg></div></div>","null","","","","","",""
"html-keyboard-response","134","158341","0.0-5.0-2.43","63f3a6b6d4c4d564638f38ca","bdp_rd","Sun Mar 26 2023 12:52:02 GMT-0500 (Central Daylight Time)","196145","","1191","","","","offer","","<div class='trialBorder'><div class='vertical-center'><img style='vertical-align:center; align:center' src=img/fixation3.jpg></div><div class='cl'><div class='vertical-center'>$17<br>with a<br>50% chance</div></div><div class='cr'><div class='vertical-center'>$3<br>for<br>sure</div></div><div class='respDivL'><div class='vertical-center'>(E)</div></div><div class='respDivR'><div class='vertical-center'>(I)</div></div></div>","E","$3","$17","1","3","17","RISKY"
"html-keyboard-response","135","158593","0.0-5.0-3.43","63f3a6b6d4c4d564638f38ca","bdp_rd","Sun Mar 26 2023 12:52:02 GMT-0500 (Central Daylight Time)","196145","","null","","","","offerFB","","<div class='trialBorder'><div class='vertical-center'><img style='vertical-align:center; align:center' src=img/fixation3.jpg></div><div class='cl'><div class='vertical-center'><font style='color:orange'>$17<br>with a<br>50% chance</font></div></div><div class='cr'><div class='vertical-center'>$3<br>for<br>sure</div></div><div class='respDivL'><div class='vertical-center'><font style='color:orange'>(E)</font></div></div><div class='respDivR'><div class='vertical-center'>(I)</div></div></div>","null","$3","$17","1","3","17",""
"html-keyboard-response","136","159095","0.0-5.0-1.44","63f3a6b6d4c4d564638f38ca","bdp_rd","Sun Mar 26 2023 12:52:02 GMT-0500 (Central Daylight Time)","196145","","null","","","","FIX","","<div class='trialBorder'><div class='vertical-center'><img style='vertical-align:center; align:center' src=img/fixation3.jpg></div></div>","null","","","","","",""
"html-keyboard-response","137","160492","0.0-5.0-2.44","63f3a6b6d4c4d564638f38ca","bdp_rd","Sun Mar 26 2023 12:52:02 GMT-0500 (Central Daylight Time)","196145","","1396","","","","offer","","<div class='trialBorder'><div class='vertical-center'><img style='vertical-align:center; align:center' src=img/fixation3.jpg></div><div class='cl'><div class='vertical-center'>$46<br>for<br>sure</div></div><div class='cr'><div class='vertical-center'>$65<br>with a<br>50% chance</div></div><div class='respDivL'><div class='vertical-center'>(E)</div></div><div class='respDivR'><div class='vertical-center'>(I)</div></div></div>","E","$46","$65","0","46","65","SURE"
"html-keyboard-response","138","160744","0.0-5.0-3.44","63f3a6b6d4c4d564638f38ca","bdp_rd","Sun Mar 26 2023 12:52:02 GMT-0500 (Central Daylight Time)","196145","","null","","","","offerFB","","<div class='trialBorder'><div class='vertical-center'><img style='vertical-align:center; align:center' src=img/fixation3.jpg></div><div class='cl'><div class='vertical-center'><font style='color:orange'>$46<br>for<br>sure</font></div></div><div class='cr'><div class='vertical-center'>$65<br>with a<br>50% chance</div></div><div class='respDivL'><div class='vertical-center'><font style='color:orange'>(E)</font></div></div><div class='respDivR'><div class='vertical-center'>(I)</div></div></div>","null","$46","$65","0","46","65",""
"html-keyboard-response","139","161246","0.0-5.0-1.45","63f3a6b6d4c4d564638f38ca","bdp_rd","Sun Mar 26 2023 12:52:02 GMT-0500 (Central Daylight Time)","196145","","null","","","","FIX","","<div class='trialBorder'><div class='vertical-center'><img style='vertical-align:center; align:center' src=img/fixation3.jpg></div></div>","null","","","","","",""
"html-keyboard-response","140","162660","0.0-5.0-2.45","63f3a6b6d4c4d564638f38ca","bdp_rd","Sun Mar 26 2023 12:52:02 GMT-0500 (Central Daylight Time)","196145","","1413","","","","offer","","<div class='trialBorder'><div class='vertical-center'><img style='vertical-align:center; align:center' src=img/fixation3.jpg></div><div class='cl'><div class='vertical-center'>$46<br>with a<br>50% chance</div></div><div class='cr'><div class='vertical-center'>$29<br>for<br>sure</div></div><div class='respDivL'><div class='vertical-center'>(E)</div></div><div class='respDivR'><div class='vertical-center'>(I)</div></div></div>","I","$29","$46","1","29","46","SURE"
"html-keyboard-response","141","162912","0.0-5.0-3.45","63f3a6b6d4c4d564638f38ca","bdp_rd","Sun Mar 26 2023 12:52:02 GMT-0500 (Central Daylight Time)","196145","","null","","","","offerFB","","<div class='trialBorder'><div class='vertical-center'><img style='vertical-align:center; align:center' src=img/fixation3.jpg></div><div class='cl'><div class='vertical-center'>$46<br>with a<br>50% chance</div></div><div class='cr'><div class='vertical-center'><font style='color:orange'>$29<br>for<br>sure</font></div></div><div class='respDivL'><div class='vertical-center'>(E)</div></div><div class='respDivR'><div class='vertical-center'><font style='color:orange'>(I)</font></div></div></div>","null","$29","$46","1","29","46",""
"html-keyboard-response","142","163414","0.0-5.0-1.46","63f3a6b6d4c4d564638f38ca","bdp_rd","Sun Mar 26 2023 12:52:02 GMT-0500 (Central Daylight Time)","196145","","null","","","","FIX","","<div class='trialBorder'><div class='vertical-center'><img style='vertical-align:center; align:center' src=img/fixation3.jpg></div></div>","null","","","","","",""
"html-keyboard-response","143","164741","0.0-5.0-2.46","63f3a6b6d4c4d564638f38ca","bdp_rd","Sun Mar 26 2023 12:52:02 GMT-0500 (Central Daylight Time)","196145","","1326","","","","offer","","<div class='trialBorder'><div class='vertical-center'><img style='vertical-align:center; align:center' src=img/fixation3.jpg></div><div class='cl'><div class='vertical-center'>$24<br>for<br>sure</div></div><div class='cr'><div class='vertical-center'>$70<br>with a<br>50% chance</div></div><div class='respDivL'><div class='vertical-center'>(E)</div></div><div class='respDivR'><div class='vertical-center'>(I)</div></div></div>","I","$24","$70","0","24","70","RISKY"
"html-keyboard-response","144","164993","0.0-5.0-3.46","63f3a6b6d4c4d564638f38ca","bdp_rd","Sun Mar 26 2023 12:52:02 GMT-0500 (Central Daylight Time)","196145","","null","","","","offerFB","","<div class='trialBorder'><div class='vertical-center'><img style='vertical-align:center; align:center' src=img/fixation3.jpg></div><div class='cl'><div class='vertical-center'>$24<br>for<br>sure</div></div><div class='cr'><div class='vertical-center'><font style='color:orange'>$70<br>with a<br>50% chance</font></div></div><div class='respDivL'><div class='vertical-center'>(E)</div></div><div class='respDivR'><div class='vertical-center'><font style='color:orange'>(I)</font></div></div></div>","null","$24","$70","0","24","70",""
"html-keyboard-response","145","165495","0.0-5.0-1.47","63f3a6b6d4c4d564638f38ca","bdp_rd","Sun Mar 26 2023 12:52:02 GMT-0500 (Central Daylight Time)","196145","","null","","","","FIX","","<div class='trialBorder'><div class='vertical-center'><img style='vertical-align:center; align:center' src=img/fixation3.jpg></div></div>","null","","","","","",""
"html-keyboard-response","146","167403","0.0-5.0-2.47","63f3a6b6d4c4d564638f38ca","bdp_rd","Sun Mar 26 2023 12:52:02 GMT-0500 (Central Daylight Time)","196145","","1907","","","","offer","","<div class='trialBorder'><div class='vertical-center'><img style='vertical-align:center; align:center' src=img/fixation3.jpg></div><div class='cl'><div class='vertical-center'>$4<br>for<br>sure</div></div><div class='cr'><div class='vertical-center'>$14<br>with a<br>50% chance</div></div><div class='respDivL'><div class='vertical-center'>(E)</div></div><div class='respDivR'><div class='vertical-center'>(I)</div></div></div>","I","$4","$14","0","4","14","RISKY"
"html-keyboard-response","147","167655","0.0-5.0-3.47","63f3a6b6d4c4d564638f38ca","bdp_rd","Sun Mar 26 2023 12:52:02 GMT-0500 (Central Daylight Time)","196145","","null","","","","offerFB","","<div class='trialBorder'><div class='vertical-center'><img style='vertical-align:center; align:center' src=img/fixation3.jpg></div><div class='cl'><div class='vertical-center'>$4<br>for<br>sure</div></div><div class='cr'><div class='vertical-center'><font style='color:orange'>$14<br>with a<br>50% chance</font></div></div><div class='respDivL'><div class='vertical-center'>(E)</div></div><div class='respDivR'><div class='vertical-center'><font style='color:orange'>(I)</font></div></div></div>","null","$4","$14","0","4","14",""
"html-keyboard-response","148","168157","0.0-5.0-1.48","63f3a6b6d4c4d564638f38ca","bdp_rd","Sun Mar 26 2023 12:52:02 GMT-0500 (Central Daylight Time)","196145","","null","","","","FIX","","<div class='trialBorder'><div class='vertical-center'><img style='vertical-align:center; align:center' src=img/fixation3.jpg></div></div>","null","","","","","",""
"html-keyboard-response","149","169299","0.0-5.0-2.48","63f3a6b6d4c4d564638f38ca","bdp_rd","Sun Mar 26 2023 12:52:02 GMT-0500 (Central Daylight Time)","196145","","1141","","","","offer","","<div class='trialBorder'><div class='vertical-center'><img style='vertical-align:center; align:center' src=img/fixation3.jpg></div><div class='cl'><div class='vertical-center'>$21<br>with a<br>50% chance</div></div><div class='cr'><div class='vertical-center'>$2<br>for<br>sure</div></div><div class='respDivL'><div class='vertical-center'>(E)</div></div><div class='respDivR'><div class='vertical-center'>(I)</div></div></div>","E","$2","$21","1","2","21","RISKY"
"html-keyboard-response","150","169551","0.0-5.0-3.48","63f3a6b6d4c4d564638f38ca","bdp_rd","Sun Mar 26 2023 12:52:02 GMT-0500 (Central Daylight Time)","196145","","null","","","","offerFB","","<div class='trialBorder'><div class='vertical-center'><img style='vertical-align:center; align:center' src=img/fixation3.jpg></div><div class='cl'><div class='vertical-center'><font style='color:orange'>$21<br>with a<br>50% chance</font></div></div><div class='cr'><div class='vertical-center'>$2<br>for<br>sure</div></div><div class='respDivL'><div class='vertical-center'><font style='color:orange'>(E)</font></div></div><div class='respDivR'><div class='vertical-center'>(I)</div></div></div>","null","$2","$21","1","2","21",""
"html-keyboard-response","151","170052","0.0-5.0-1.49","63f3a6b6d4c4d564638f38ca","bdp_rd","Sun Mar 26 2023 12:52:02 GMT-0500 (Central Daylight Time)","196145","","null","","","","FIX","","<div class='trialBorder'><div class='vertical-center'><img style='vertical-align:center; align:center' src=img/fixation3.jpg></div></div>","null","","","","","",""
"html-keyboard-response","152","170955","0.0-5.0-2.49","63f3a6b6d4c4d564638f38ca","bdp_rd","Sun Mar 26 2023 12:52:02 GMT-0500 (Central Daylight Time)","196145","","902","","","","offer","","<div class='trialBorder'><div class='vertical-center'><img style='vertical-align:center; align:center' src=img/fixation3.jpg></div><div class='cl'><div class='vertical-center'>$45<br>with a<br>50% chance</div></div><div class='cr'><div class='vertical-center'>$8<br>for<br>sure</div></div><div class='respDivL'><div class='vertical-center'>(E)</div></div><div class='respDivR'><div class='vertical-center'>(I)</div></div></div>","E","$8","$45","1","8","45","RISKY"
"html-keyboard-response","153","171207","0.0-5.0-3.49","63f3a6b6d4c4d564638f38ca","bdp_rd","Sun Mar 26 2023 12:52:02 GMT-0500 (Central Daylight Time)","196145","","null","","","","offerFB","","<div class='trialBorder'><div class='vertical-center'><img style='vertical-align:center; align:center' src=img/fixation3.jpg></div><div class='cl'><div class='vertical-center'><font style='color:orange'>$45<br>with a<br>50% chance</font></div></div><div class='cr'><div class='vertical-center'>$8<br>for<br>sure</div></div><div class='respDivL'><div class='vertical-center'><font style='color:orange'>(E)</font></div></div><div class='respDivR'><div class='vertical-center'>(I)</div></div></div>","null","$8","$45","1","8","45",""
"html-keyboard-response","154","171708","0.0-5.0-1.50","63f3a6b6d4c4d564638f38ca","bdp_rd","Sun Mar 26 2023 12:52:02 GMT-0500 (Central Daylight Time)","196145","","null","","","","FIX","","<div class='trialBorder'><div class='vertical-center'><img style='vertical-align:center; align:center' src=img/fixation3.jpg></div></div>","null","","","","","",""
"html-keyboard-response","155","172784","0.0-5.0-2.50","63f3a6b6d4c4d564638f38ca","bdp_rd","Sun Mar 26 2023 12:52:02 GMT-0500 (Central Daylight Time)","196145","","1075","","","","offer","","<div class='trialBorder'><div class='vertical-center'><img style='vertical-align:center; align:center' src=img/fixation3.jpg></div><div class='cl'><div class='vertical-center'>$50<br>with a<br>50% chance</div></div><div class='cr'><div class='vertical-center'>$5<br>for<br>sure</div></div><div class='respDivL'><div class='vertical-center'>(E)</div></div><div class='respDivR'><div class='vertical-center'>(I)</div></div></div>","E","$5","$50","1","5","50","RISKY"
"html-keyboard-response","156","173036","0.0-5.0-3.50","63f3a6b6d4c4d564638f38ca","bdp_rd","Sun Mar 26 2023 12:52:02 GMT-0500 (Central Daylight Time)","196145","","null","","","","offerFB","","<div class='trialBorder'><div class='vertical-center'><img style='vertical-align:center; align:center' src=img/fixation3.jpg></div><div class='cl'><div class='vertical-center'><font style='color:orange'>$50<br>with a<br>50% chance</font></div></div><div class='cr'><div class='vertical-center'>$5<br>for<br>sure</div></div><div class='respDivL'><div class='vertical-center'><font style='color:orange'>(E)</font></div></div><div class='respDivR'><div class='vertical-center'>(I)</div></div></div>","null","$5","$50","1","5","50",""
"html-keyboard-response","157","173538","0.0-5.0-1.51","63f3a6b6d4c4d564638f38ca","bdp_rd","Sun Mar 26 2023 12:52:02 GMT-0500 (Central Daylight Time)","196145","","null","","","","FIX","","<div class='trialBorder'><div class='vertical-center'><img style='vertical-align:center; align:center' src=img/fixation3.jpg></div></div>","null","","","","","",""
"html-keyboard-response","158","175356","0.0-5.0-2.51","63f3a6b6d4c4d564638f38ca","bdp_rd","Sun Mar 26 2023 12:52:02 GMT-0500 (Central Daylight Time)","196145","","1816","","","","offer","","<div class='trialBorder'><div class='vertical-center'><img style='vertical-align:center; align:center' src=img/fixation3.jpg></div><div class='cl'><div class='vertical-center'>$32<br>with a<br>50% chance</div></div><div class='cr'><div class='vertical-center'>$9<br>for<br>sure</div></div><div class='respDivL'><div class='vertical-center'>(E)</div></div><div class='respDivR'><div class='vertical-center'>(I)</div></div></div>","E","$9","$32","1","9","32","RISKY"
"html-keyboard-response","159","175607","0.0-5.0-3.51","63f3a6b6d4c4d564638f38ca","bdp_rd","Sun Mar 26 2023 12:52:02 GMT-0500 (Central Daylight Time)","196145","","null","","","","offerFB","","<div class='trialBorder'><div class='vertical-center'><img style='vertical-align:center; align:center' src=img/fixation3.jpg></div><div class='cl'><div class='vertical-center'><font style='color:orange'>$32<br>with a<br>50% chance</font></div></div><div class='cr'><div class='vertical-center'>$9<br>for<br>sure</div></div><div class='respDivL'><div class='vertical-center'><font style='color:orange'>(E)</font></div></div><div class='respDivR'><div class='vertical-center'>(I)</div></div></div>","null","$9","$32","1","9","32",""
"html-keyboard-response","160","176108","0.0-5.0-1.52","63f3a6b6d4c4d564638f38ca","bdp_rd","Sun Mar 26 2023 12:52:02 GMT-0500 (Central Daylight Time)","196145","","null","","","","FIX","","<div class='trialBorder'><div class='vertical-center'><img style='vertical-align:center; align:center' src=img/fixation3.jpg></div></div>","null","","","","","",""
"html-keyboard-response","161","177197","0.0-5.0-2.52","63f3a6b6d4c4d564638f38ca","bdp_rd","Sun Mar 26 2023 12:52:02 GMT-0500 (Central Daylight Time)","196145","","1088","","","","offer","","<div class='trialBorder'><div class='vertical-center'><img style='vertical-align:center; align:center' src=img/fixation3.jpg></div><div class='cl'><div class='vertical-center'>$86<br>with a<br>50% chance</div></div><div class='cr'><div class='vertical-center'>$45<br>for<br>sure</div></div><div class='respDivL'><div class='vertical-center'>(E)</div></div><div class='respDivR'><div class='vertical-center'>(I)</div></div></div>","I","$45","$86","1","45","86","SURE"
"html-keyboard-response","162","177449","0.0-5.0-3.52","63f3a6b6d4c4d564638f38ca","bdp_rd","Sun Mar 26 2023 12:52:02 GMT-0500 (Central Daylight Time)","196145","","null","","","","offerFB","","<div class='trialBorder'><div class='vertical-center'><img style='vertical-align:center; align:center' src=img/fixation3.jpg></div><div class='cl'><div class='vertical-center'>$86<br>with a<br>50% chance</div></div><div class='cr'><div class='vertical-center'><font style='color:orange'>$45<br>for<br>sure</font></div></div><div class='respDivL'><div class='vertical-center'>(E)</div></div><div class='respDivR'><div class='vertical-center'><font style='color:orange'>(I)</font></div></div></div>","null","$45","$86","1","45","86",""
"html-keyboard-response","163","177950","0.0-5.0-1.53","63f3a6b6d4c4d564638f38ca","bdp_rd","Sun Mar 26 2023 12:52:02 GMT-0500 (Central Daylight Time)","196145","","null","","","","FIX","","<div class='trialBorder'><div class='vertical-center'><img style='vertical-align:center; align:center' src=img/fixation3.jpg></div></div>","null","","","","","",""
"html-keyboard-response","164","181261","0.0-5.0-2.53","63f3a6b6d4c4d564638f38ca","bdp_rd","Sun Mar 26 2023 12:52:02 GMT-0500 (Central Daylight Time)","196145","","3310","","","","offer","","<div class='trialBorder'><div class='vertical-center'><img style='vertical-align:center; align:center' src=img/fixation3.jpg></div><div class='cl'><div class='vertical-center'>$31<br>for<br>sure</div></div><div class='cr'><div class='vertical-center'>$78<br>with a<br>50% chance</div></div><div class='respDivL'><div class='vertical-center'>(E)</div></div><div class='respDivR'><div class='vertical-center'>(I)</div></div></div>","I","$31","$78","0","31","78","RISKY"
"html-keyboard-response","165","181512","0.0-5.0-3.53","63f3a6b6d4c4d564638f38ca","bdp_rd","Sun Mar 26 2023 12:52:02 GMT-0500 (Central Daylight Time)","196145","","null","","","","offerFB","","<div class='trialBorder'><div class='vertical-center'><img style='vertical-align:center; align:center' src=img/fixation3.jpg></div><div class='cl'><div class='vertical-center'>$31<br>for<br>sure</div></div><div class='cr'><div class='vertical-center'><font style='color:orange'>$78<br>with a<br>50% chance</font></div></div><div class='respDivL'><div class='vertical-center'>(E)</div></div><div class='respDivR'><div class='vertical-center'><font style='color:orange'>(I)</font></div></div></div>","null","$31","$78","0","31","78",""
"html-keyboard-response","166","182014","0.0-5.0-1.54","63f3a6b6d4c4d564638f38ca","bdp_rd","Sun Mar 26 2023 12:52:02 GMT-0500 (Central Daylight Time)","196145","","null","","","","FIX","","<div class='trialBorder'><div class='vertical-center'><img style='vertical-align:center; align:center' src=img/fixation3.jpg></div></div>","null","","","","","",""
"html-keyboard-response","167","183245","0.0-5.0-2.54","63f3a6b6d4c4d564638f38ca","bdp_rd","Sun Mar 26 2023 12:52:02 GMT-0500 (Central Daylight Time)","196145","","1230","","","","offer","","<div class='trialBorder'><div class='vertical-center'><img style='vertical-align:center; align:center' src=img/fixation3.jpg></div><div class='cl'><div class='vertical-center'>$92<br>with a<br>50% chance</div></div><div class='cr'><div class='vertical-center'>$26<br>for<br>sure</div></div><div class='respDivL'><div class='vertical-center'>(E)</div></div><div class='respDivR'><div class='vertical-center'>(I)</div></div></div>","E","$26","$92","1","26","92","RISKY"
"html-keyboard-response","168","183497","0.0-5.0-3.54","63f3a6b6d4c4d564638f38ca","bdp_rd","Sun Mar 26 2023 12:52:02 GMT-0500 (Central Daylight Time)","196145","","null","","","","offerFB","","<div class='trialBorder'><div class='vertical-center'><img style='vertical-align:center; align:center' src=img/fixation3.jpg></div><div class='cl'><div class='vertical-center'><font style='color:orange'>$92<br>with a<br>50% chance</font></div></div><div class='cr'><div class='vertical-center'>$26<br>for<br>sure</div></div><div class='respDivL'><div class='vertical-center'><font style='color:orange'>(E)</font></div></div><div class='respDivR'><div class='vertical-center'>(I)</div></div></div>","null","$26","$92","1","26","92",""
"html-keyboard-response","169","183999","0.0-5.0-1.55","63f3a6b6d4c4d564638f38ca","bdp_rd","Sun Mar 26 2023 12:52:02 GMT-0500 (Central Daylight Time)","196145","","null","","","","FIX","","<div class='trialBorder'><div class='vertical-center'><img style='vertical-align:center; align:center' src=img/fixation3.jpg></div></div>","null","","","","","",""
"html-keyboard-response","170","185823","0.0-5.0-2.55","63f3a6b6d4c4d564638f38ca","bdp_rd","Sun Mar 26 2023 12:52:02 GMT-0500 (Central Daylight Time)","196145","","1823","","","","offer","","<div class='trialBorder'><div class='vertical-center'><img style='vertical-align:center; align:center' src=img/fixation3.jpg></div><div class='cl'><div class='vertical-center'>$14<br>for<br>sure</div></div><div class='cr'><div class='vertical-center'>$22<br>with a<br>50% chance</div></div><div class='respDivL'><div class='vertical-center'>(E)</div></div><div class='respDivR'><div class='vertical-center'>(I)</div></div></div>","E","$14","$22","0","14","22","SURE"
"html-keyboard-response","171","186076","0.0-5.0-3.55","63f3a6b6d4c4d564638f38ca","bdp_rd","Sun Mar 26 2023 12:52:02 GMT-0500 (Central Daylight Time)","196145","","null","","","","offerFB","","<div class='trialBorder'><div class='vertical-center'><img style='vertical-align:center; align:center' src=img/fixation3.jpg></div><div class='cl'><div class='vertical-center'><font style='color:orange'>$14<br>for<br>sure</font></div></div><div class='cr'><div class='vertical-center'>$22<br>with a<br>50% chance</div></div><div class='respDivL'><div class='vertical-center'><font style='color:orange'>(E)</font></div></div><div class='respDivR'><div class='vertical-center'>(I)</div></div></div>","null","$14","$22","0","14","22",""
"html-keyboard-response","172","186578","0.0-5.0-1.56","63f3a6b6d4c4d564638f38ca","bdp_rd","Sun Mar 26 2023 12:52:02 GMT-0500 (Central Daylight Time)","196145","","null","","","","FIX","","<div class='trialBorder'><div class='vertical-center'><img style='vertical-align:center; align:center' src=img/fixation3.jpg></div></div>","null","","","","","",""
"html-keyboard-response","173","188093","0.0-5.0-2.56","63f3a6b6d4c4d564638f38ca","bdp_rd","Sun Mar 26 2023 12:52:02 GMT-0500 (Central Daylight Time)","196145","","1514","","","","offer","","<div class='trialBorder'><div class='vertical-center'><img style='vertical-align:center; align:center' src=img/fixation3.jpg></div><div class='cl'><div class='vertical-center'>$15<br>for<br>sure</div></div><div class='cr'><div class='vertical-center'>$31<br>with a<br>50% chance</div></div><div class='respDivL'><div class='vertical-center'>(E)</div></div><div class='respDivR'><div class='vertical-center'>(I)</div></div></div>","E","$15","$31","0","15","31","SURE"
