"trial_type","trial_index","time_elapsed","internal_node_id","subject_id","task","startTime","totalTime","view_history","rt","event","trial","time","trialtype","success","stimulus","key_press","sureOffer","riskyOffer","riskyLeft","sureAmt","riskyAmt","chosen"
"pavlovia","0","3","0.0-0.0","63d7d7b654e057b287d2bd9b","bdp_rd","Wed Mar 29 2023 23:32:00 GMT-0400 (Eastern Daylight Time)","201700","","","","","","","","","","","","","","",""
"instructions","1","1525","0.0-1.0","63d7d7b654e057b287d2bd9b","bdp_rd","Wed Mar 29 2023 23:32:00 GMT-0400 (Eastern Daylight Time)","201700","[{""page_index"":0,""viewing_time"":1520}]","1521","","","","","","","","","","","","",""
"","","","","63d7d7b654e057b287d2bd9b","bdp_rd","Wed Mar 29 2023 23:32:00 GMT-0400 (Eastern Daylight Time)","201700","","","fullscreenenter","2","3096","fullscreenenter","","","","","","","","",""
"fullscreen","2","4035","0.0-2.0","63d7d7b654e057b287d2bd9b","bdp_rd","Wed Mar 29 2023 23:32:00 GMT-0400 (Eastern Daylight Time)","201700","","","","","","","true","","","","","","","",""
"instructions","3","28063","0.0-4.0","63d7d7b654e057b287d2bd9b","bdp_rd","Wed Mar 29 2023 23:32:00 GMT-0400 (Eastern Daylight Time)","201700","[{""page_index"":0,""viewing_time"":15803},{""page_index"":1,""viewing_time"":4736},{""page_index"":2,""viewing_time"":3487}]","24026","","","","","","","","","","","","",""
"html-keyboard-response","4","28566","0.0-5.0-1.0","63d7d7b654e057b287d2bd9b","bdp_rd","Wed Mar 29 2023 23:32:00 GMT-0400 (Eastern Daylight Time)","201700","","null","","","","FIX","","<div class='trialBorder'><div class='vertical-center'><img style='vertical-align:center; align:center' src=img/fixation3.jpg></div></div>","null","","","","","",""
"html-keyboard-response","5","31292","0.0-5.0-2.0","63d7d7b654e057b287d2bd9b","bdp_rd","Wed Mar 29 2023 23:32:00 GMT-0400 (Eastern Daylight Time)","201700","","2724","","","","offer","","<div class='trialBorder'><div class='vertical-center'><img style='vertical-align:center; align:center' src=img/fixation3.jpg></div><div class='cl'><div class='vertical-center'>$2<br>for<br>sure</div></div><div class='cr'><div class='vertical-center'>$21<br>with a<br>50% chance</div></div><div class='respDivL'><div class='vertical-center'>(E)</div></div><div class='respDivR'><div class='vertical-center'>(I)</div></div></div>","I","$2","$21","0","2","21","RISKY"
"html-keyboard-response","6","31543","0.0-5.0-3.0","63d7d7b654e057b287d2bd9b","bdp_rd","Wed Mar 29 2023 23:32:00 GMT-0400 (Eastern Daylight Time)","201700","","null","","","","offerFB","","<div class='trialBorder'><div class='vertical-center'><img style='vertical-align:center; align:center' src=img/fixation3.jpg></div><div class='cl'><div class='vertical-center'>$2<br>for<br>sure</div></div><div class='cr'><div class='vertical-center'><font style='color:orange'>$21<br>with a<br>50% chance</font></div></div><div class='respDivL'><div class='vertical-center'>(E)</div></div><div class='respDivR'><div class='vertical-center'><font style='color:orange'>(I)</font></div></div></div>","null","$2","$21","0","2","21",""
"html-keyboard-response","7","32045","0.0-5.0-1.1","63d7d7b654e057b287d2bd9b","bdp_rd","Wed Mar 29 2023 23:32:00 GMT-0400 (Eastern Daylight Time)","201700","","null","","","","FIX","","<div class='trialBorder'><div class='vertical-center'><img style='vertical-align:center; align:center' src=img/fixation3.jpg></div></div>","null","","","","","",""
"html-keyboard-response","8","34901","0.0-5.0-2.1","63d7d7b654e057b287d2bd9b","bdp_rd","Wed Mar 29 2023 23:32:00 GMT-0400 (Eastern Daylight Time)","201700","","2856","","","","offer","","<div class='trialBorder'><div class='vertical-center'><img style='vertical-align:center; align:center' src=img/fixation3.jpg></div><div class='cl'><div class='vertical-center'>$45<br>for<br>sure</div></div><div class='cr'><div class='vertical-center'>$86<br>with a<br>50% chance</div></div><div class='respDivL'><div class='vertical-center'>(E)</div></div><div class='respDivR'><div class='vertical-center'>(I)</div></div></div>","E","$45","$86","0","45","86","SURE"
"html-keyboard-response","9","35154","0.0-5.0-3.1","63d7d7b654e057b287d2bd9b","bdp_rd","Wed Mar 29 2023 23:32:00 GMT-0400 (Eastern Daylight Time)","201700","","null","","","","offerFB","","<div class='trialBorder'><div class='vertical-center'><img style='vertical-align:center; align:center' src=img/fixation3.jpg></div><div class='cl'><div class='vertical-center'><font style='color:orange'>$45<br>for<br>sure</font></div></div><div class='cr'><div class='vertical-center'>$86<br>with a<br>50% chance</div></div><div class='respDivL'><div class='vertical-center'><font style='color:orange'>(E)</font></div></div><div class='respDivR'><div class='vertical-center'>(I)</div></div></div>","null","$45","$86","0","45","86",""
"html-keyboard-response","10","35655","0.0-5.0-1.2","63d7d7b654e057b287d2bd9b","bdp_rd","Wed Mar 29 2023 23:32:00 GMT-0400 (Eastern Daylight Time)","201700","","null","","","","FIX","","<div class='trialBorder'><div class='vertical-center'><img style='vertical-align:center; align:center' src=img/fixation3.jpg></div></div>","null","","","","","",""
"html-keyboard-response","11","37139","0.0-5.0-2.2","63d7d7b654e057b287d2bd9b","bdp_rd","Wed Mar 29 2023 23:32:00 GMT-0400 (Eastern Daylight Time)","201700","","1483","","","","offer","","<div class='trialBorder'><div class='vertical-center'><img style='vertical-align:center; align:center' src=img/fixation3.jpg></div><div class='cl'><div class='vertical-center'>$21<br>for<br>sure</div></div><div class='cr'><div class='vertical-center'>$25<br>with a<br>50% chance</div></div><div class='respDivL'><div class='vertical-center'>(E)</div></div><div class='respDivR'><div class='vertical-center'>(I)</div></div></div>","E","$21","$25","0","21","25","SURE"
"html-keyboard-response","12","37391","0.0-5.0-3.2","63d7d7b654e057b287d2bd9b","bdp_rd","Wed Mar 29 2023 23:32:00 GMT-0400 (Eastern Daylight Time)","201700","","null","","","","offerFB","","<div class='trialBorder'><div class='vertical-center'><img style='vertical-align:center; align:center' src=img/fixation3.jpg></div><div class='cl'><div class='vertical-center'><font style='color:orange'>$21<br>for<br>sure</font></div></div><div class='cr'><div class='vertical-center'>$25<br>with a<br>50% chance</div></div><div class='respDivL'><div class='vertical-center'><font style='color:orange'>(E)</font></div></div><div class='respDivR'><div class='vertical-center'>(I)</div></div></div>","null","$21","$25","0","21","25",""
"html-keyboard-response","13","37892","0.0-5.0-1.3","63d7d7b654e057b287d2bd9b","bdp_rd","Wed Mar 29 2023 23:32:00 GMT-0400 (Eastern Daylight Time)","201700","","null","","","","FIX","","<div class='trialBorder'><div class='vertical-center'><img style='vertical-align:center; align:center' src=img/fixation3.jpg></div></div>","null","","","","","",""
"html-keyboard-response","14","39379","0.0-5.0-2.3","63d7d7b654e057b287d2bd9b","bdp_rd","Wed Mar 29 2023 23:32:00 GMT-0400 (Eastern Daylight Time)","201700","","1486","","","","offer","","<div class='trialBorder'><div class='vertical-center'><img style='vertical-align:center; align:center' src=img/fixation3.jpg></div><div class='cl'><div class='vertical-center'>$46<br>with a<br>50% chance</div></div><div class='cr'><div class='vertical-center'>$29<br>for<br>sure</div></div><div class='respDivL'><div class='vertical-center'>(E)</div></div><div class='respDivR'><div class='vertical-center'>(I)</div></div></div>","I","$29","$46","1","29","46","SURE"
"html-keyboard-response","15","39631","0.0-5.0-3.3","63d7d7b654e057b287d2bd9b","bdp_rd","Wed Mar 29 2023 23:32:00 GMT-0400 (Eastern Daylight Time)","201700","","null","","","","offerFB","","<div class='trialBorder'><div class='vertical-center'><img style='vertical-align:center; align:center' src=img/fixation3.jpg></div><div class='cl'><div class='vertical-center'>$46<br>with a<br>50% chance</div></div><div class='cr'><div class='vertical-center'><font style='color:orange'>$29<br>for<br>sure</font></div></div><div class='respDivL'><div class='vertical-center'>(E)</div></div><div class='respDivR'><div class='vertical-center'><font style='color:orange'>(I)</font></div></div></div>","null","$29","$46","1","29","46",""
"html-keyboard-response","16","40135","0.0-5.0-1.4","63d7d7b654e057b287d2bd9b","bdp_rd","Wed Mar 29 2023 23:32:00 GMT-0400 (Eastern Daylight Time)","201700","","null","","","","FIX","","<div class='trialBorder'><div class='vertical-center'><img style='vertical-align:center; align:center' src=img/fixation3.jpg></div></div>","null","","","","","",""
"html-keyboard-response","17","42093","0.0-5.0-2.4","63d7d7b654e057b287d2bd9b","bdp_rd","Wed Mar 29 2023 23:32:00 GMT-0400 (Eastern Daylight Time)","201700","","1958","","","","offer","","<div class='trialBorder'><div class='vertical-center'><img style='vertical-align:center; align:center' src=img/fixation3.jpg></div><div class='cl'><div class='vertical-center'>$16<br>for<br>sure</div></div><div class='cr'><div class='vertical-center'>$38<br>with a<br>50% chance</div></div><div class='respDivL'><div class='vertical-center'>(E)</div></div><div class='respDivR'><div class='vertical-center'>(I)</div></div></div>","E","$16","$38","0","16","38","SURE"
"html-keyboard-response","18","42345","0.0-5.0-3.4","63d7d7b654e057b287d2bd9b","bdp_rd","Wed Mar 29 2023 23:32:00 GMT-0400 (Eastern Daylight Time)","201700","","null","","","","offerFB","","<div class='trialBorder'><div class='vertical-center'><img style='vertical-align:center; align:center' src=img/fixation3.jpg></div><div class='cl'><div class='vertical-center'><font style='color:orange'>$16<br>for<br>sure</font></div></div><div class='cr'><div class='vertical-center'>$38<br>with a<br>50% chance</div></div><div class='respDivL'><div class='vertical-center'><font style='color:orange'>(E)</font></div></div><div class='respDivR'><div class='vertical-center'>(I)</div></div></div>","null","$16","$38","0","16","38",""
"html-keyboard-response","19","42846","0.0-5.0-1.5","63d7d7b654e057b287d2bd9b","bdp_rd","Wed Mar 29 2023 23:32:00 GMT-0400 (Eastern Daylight Time)","201700","","null","","","","FIX","","<div class='trialBorder'><div class='vertical-center'><img style='vertical-align:center; align:center' src=img/fixation3.jpg></div></div>","null","","","","","",""
"html-keyboard-response","20","45104","0.0-5.0-2.5","63d7d7b654e057b287d2bd9b","bdp_rd","Wed Mar 29 2023 23:32:00 GMT-0400 (Eastern Daylight Time)","201700","","2257","","","","offer","","<div class='trialBorder'><div class='vertical-center'><img style='vertical-align:center; align:center' src=img/fixation3.jpg></div><div class='cl'><div class='vertical-center'>$64<br>with a<br>50% chance</div></div><div class='cr'><div class='vertical-center'>$2<br>for<br>sure</div></div><div class='respDivL'><div class='vertical-center'>(E)</div></div><div class='respDivR'><div class='vertical-center'>(I)</div></div></div>","E","$2","$64","1","2","64","RISKY"
"html-keyboard-response","21","45357","0.0-5.0-3.5","63d7d7b654e057b287d2bd9b","bdp_rd","Wed Mar 29 2023 23:32:00 GMT-0400 (Eastern Daylight Time)","201700","","null","","","","offerFB","","<div class='trialBorder'><div class='vertical-center'><img style='vertical-align:center; align:center' src=img/fixation3.jpg></div><div class='cl'><div class='vertical-center'><font style='color:orange'>$64<br>with a<br>50% chance</font></div></div><div class='cr'><div class='vertical-center'>$2<br>for<br>sure</div></div><div class='respDivL'><div class='vertical-center'><font style='color:orange'>(E)</font></div></div><div class='respDivR'><div class='vertical-center'>(I)</div></div></div>","null","$2","$64","1","2","64",""
"html-keyboard-response","22","45859","0.0-5.0-1.6","63d7d7b654e057b287d2bd9b","bdp_rd","Wed Mar 29 2023 23:32:00 GMT-0400 (Eastern Daylight Time)","201700","","null","","","","FIX","","<div class='trialBorder'><div class='vertical-center'><img style='vertical-align:center; align:center' src=img/fixation3.jpg></div></div>","null","","","","","",""
"html-keyboard-response","23","48841","0.0-5.0-2.6","63d7d7b654e057b287d2bd9b","bdp_rd","Wed Mar 29 2023 23:32:00 GMT-0400 (Eastern Daylight Time)","201700","","2980","","","","offer","","<div class='trialBorder'><div class='vertical-center'><img style='vertical-align:center; align:center' src=img/fixation3.jpg></div><div class='cl'><div class='vertical-center'>$95<br>with a<br>50% chance</div></div><div class='cr'><div class='vertical-center'>$40<br>for<br>sure</div></div><div class='respDivL'><div class='vertical-center'>(E)</div></div><div class='respDivR'><div class='vertical-center'>(I)</div></div></div>","E","$40","$95","1","40","95","RISKY"
"html-keyboard-response","24","49093","0.0-5.0-3.6","63d7d7b654e057b287d2bd9b","bdp_rd","Wed Mar 29 2023 23:32:00 GMT-0400 (Eastern Daylight Time)","201700","","null","","","","offerFB","","<div class='trialBorder'><div class='vertical-center'><img style='vertical-align:center; align:center' src=img/fixation3.jpg></div><div class='cl'><div class='vertical-center'><font style='color:orange'>$95<br>with a<br>50% chance</font></div></div><div class='cr'><div class='vertical-center'>$40<br>for<br>sure</div></div><div class='respDivL'><div class='vertical-center'><font style='color:orange'>(E)</font></div></div><div class='respDivR'><div class='vertical-center'>(I)</div></div></div>","null","$40","$95","1","40","95",""
"html-keyboard-response","25","49594","0.0-5.0-1.7","63d7d7b654e057b287d2bd9b","bdp_rd","Wed Mar 29 2023 23:32:00 GMT-0400 (Eastern Daylight Time)","201700","","null","","","","FIX","","<div class='trialBorder'><div class='vertical-center'><img style='vertical-align:center; align:center' src=img/fixation3.jpg></div></div>","null","","","","","",""
"html-keyboard-response","26","51878","0.0-5.0-2.7","63d7d7b654e057b287d2bd9b","bdp_rd","Wed Mar 29 2023 23:32:00 GMT-0400 (Eastern Daylight Time)","201700","","2284","","","","offer","","<div class='trialBorder'><div class='vertical-center'><img style='vertical-align:center; align:center' src=img/fixation3.jpg></div><div class='cl'><div class='vertical-center'>$54<br>with a<br>50% chance</div></div><div class='cr'><div class='vertical-center'>$25<br>for<br>sure</div></div><div class='respDivL'><div class='vertical-center'>(E)</div></div><div class='respDivR'><div class='vertical-center'>(I)</div></div></div>","I","$25","$54","1","25","54","SURE"
"html-keyboard-response","27","52130","0.0-5.0-3.7","63d7d7b654e057b287d2bd9b","bdp_rd","Wed Mar 29 2023 23:32:00 GMT-0400 (Eastern Daylight Time)","201700","","null","","","","offerFB","","<div class='trialBorder'><div class='vertical-center'><img style='vertical-align:center; align:center' src=img/fixation3.jpg></div><div class='cl'><div class='vertical-center'>$54<br>with a<br>50% chance</div></div><div class='cr'><div class='vertical-center'><font style='color:orange'>$25<br>for<br>sure</font></div></div><div class='respDivL'><div class='vertical-center'>(E)</div></div><div class='respDivR'><div class='vertical-center'><font style='color:orange'>(I)</font></div></div></div>","null","$25","$54","1","25","54",""
"html-keyboard-response","28","52631","0.0-5.0-1.8","63d7d7b654e057b287d2bd9b","bdp_rd","Wed Mar 29 2023 23:32:00 GMT-0400 (Eastern Daylight Time)","201700","","null","","","","FIX","","<div class='trialBorder'><div class='vertical-center'><img style='vertical-align:center; align:center' src=img/fixation3.jpg></div></div>","null","","","","","",""
"html-keyboard-response","29","54967","0.0-5.0-2.8","63d7d7b654e057b287d2bd9b","bdp_rd","Wed Mar 29 2023 23:32:00 GMT-0400 (Eastern Daylight Time)","201700","","2333","","","","offer","","<div class='trialBorder'><div class='vertical-center'><img style='vertical-align:center; align:center' src=img/fixation3.jpg></div><div class='cl'><div class='vertical-center'>$92<br>with a<br>50% chance</div></div><div class='cr'><div class='vertical-center'>$26<br>for<br>sure</div></div><div class='respDivL'><div class='vertical-center'>(E)</div></div><div class='respDivR'><div class='vertical-center'>(I)</div></div></div>","E","$26","$92","1","26","92","RISKY"
"html-keyboard-response","30","55219","0.0-5.0-3.8","63d7d7b654e057b287d2bd9b","bdp_rd","Wed Mar 29 2023 23:32:00 GMT-0400 (Eastern Daylight Time)","201700","","null","","","","offerFB","","<div class='trialBorder'><div class='vertical-center'><img style='vertical-align:center; align:center' src=img/fixation3.jpg></div><div class='cl'><div class='vertical-center'><font style='color:orange'>$92<br>with a<br>50% chance</font></div></div><div class='cr'><div class='vertical-center'>$26<br>for<br>sure</div></div><div class='respDivL'><div class='vertical-center'><font style='color:orange'>(E)</font></div></div><div class='respDivR'><div class='vertical-center'>(I)</div></div></div>","null","$26","$92","1","26","92",""
"html-keyboard-response","31","55721","0.0-5.0-1.9","63d7d7b654e057b287d2bd9b","bdp_rd","Wed Mar 29 2023 23:32:00 GMT-0400 (Eastern Daylight Time)","201700","","null","","","","FIX","","<div class='trialBorder'><div class='vertical-center'><img style='vertical-align:center; align:center' src=img/fixation3.jpg></div></div>","null","","","","","",""
"html-keyboard-response","32","57467","0.0-5.0-2.9","63d7d7b654e057b287d2bd9b","bdp_rd","Wed Mar 29 2023 23:32:00 GMT-0400 (Eastern Daylight Time)","201700","","1744","","","","offer","","<div class='trialBorder'><div class='vertical-center'><img style='vertical-align:center; align:center' src=img/fixation3.jpg></div><div class='cl'><div class='vertical-center'>$46<br>for<br>sure</div></div><div class='cr'><div class='vertical-center'>$65<br>with a<br>50% chance</div></div><div class='respDivL'><div class='vertical-center'>(E)</div></div><div class='respDivR'><div class='vertical-center'>(I)</div></div></div>","E","$46","$65","0","46","65","SURE"
"html-keyboard-response","33","57719","0.0-5.0-3.9","63d7d7b654e057b287d2bd9b","bdp_rd","Wed Mar 29 2023 23:32:00 GMT-0400 (Eastern Daylight Time)","201700","","null","","","","offerFB","","<div class='trialBorder'><div class='vertical-center'><img style='vertical-align:center; align:center' src=img/fixation3.jpg></div><div class='cl'><div class='vertical-center'><font style='color:orange'>$46<br>for<br>sure</font></div></div><div class='cr'><div class='vertical-center'>$65<br>with a<br>50% chance</div></div><div class='respDivL'><div class='vertical-center'><font style='color:orange'>(E)</font></div></div><div class='respDivR'><div class='vertical-center'>(I)</div></div></div>","null","$46","$65","0","46","65",""
"html-keyboard-response","34","58221","0.0-5.0-1.10","63d7d7b654e057b287d2bd9b","bdp_rd","Wed Mar 29 2023 23:32:00 GMT-0400 (Eastern Daylight Time)","201700","","null","","","","FIX","","<div class='trialBorder'><div class='vertical-center'><img style='vertical-align:center; align:center' src=img/fixation3.jpg></div></div>","null","","","","","",""
"html-keyboard-response","35","59428","0.0-5.0-2.10","63d7d7b654e057b287d2bd9b","bdp_rd","Wed Mar 29 2023 23:32:00 GMT-0400 (Eastern Daylight Time)","201700","","1206","","","","offer","","<div class='trialBorder'><div class='vertical-center'><img style='vertical-align:center; align:center' src=img/fixation3.jpg></div><div class='cl'><div class='vertical-center'>$5<br>for<br>sure</div></div><div class='cr'><div class='vertical-center'>$16<br>with a<br>50% chance</div></div><div class='respDivL'><div class='vertical-center'>(E)</div></div><div class='respDivR'><div class='vertical-center'>(I)</div></div></div>","E","$5","$16","0","5","16","SURE"
"html-keyboard-response","36","59680","0.0-5.0-3.10","63d7d7b654e057b287d2bd9b","bdp_rd","Wed Mar 29 2023 23:32:00 GMT-0400 (Eastern Daylight Time)","201700","","null","","","","offerFB","","<div class='trialBorder'><div class='vertical-center'><img style='vertical-align:center; align:center' src=img/fixation3.jpg></div><div class='cl'><div class='vertical-center'><font style='color:orange'>$5<br>for<br>sure</font></div></div><div class='cr'><div class='vertical-center'>$16<br>with a<br>50% chance</div></div><div class='respDivL'><div class='vertical-center'><font style='color:orange'>(E)</font></div></div><div class='respDivR'><div class='vertical-center'>(I)</div></div></div>","null","$5","$16","0","5","16",""
"html-keyboard-response","37","60182","0.0-5.0-1.11","63d7d7b654e057b287d2bd9b","bdp_rd","Wed Mar 29 2023 23:32:00 GMT-0400 (Eastern Daylight Time)","201700","","null","","","","FIX","","<div class='trialBorder'><div class='vertical-center'><img style='vertical-align:center; align:center' src=img/fixation3.jpg></div></div>","null","","","","","",""
"html-keyboard-response","38","63255","0.0-5.0-2.11","63d7d7b654e057b287d2bd9b","bdp_rd","Wed Mar 29 2023 23:32:00 GMT-0400 (Eastern Daylight Time)","201700","","3072","","","","offer","","<div class='trialBorder'><div class='vertical-center'><img style='vertical-align:center; align:center' src=img/fixation3.jpg></div><div class='cl'><div class='vertical-center'>$53<br>for<br>sure</div></div><div class='cr'><div class='vertical-center'>$98<br>with a<br>50% chance</div></div><div class='respDivL'><div class='vertical-center'>(E)</div></div><div class='respDivR'><div class='vertical-center'>(I)</div></div></div>","E","$53","$98","0","53","98","SURE"
"html-keyboard-response","39","63507","0.0-5.0-3.11","63d7d7b654e057b287d2bd9b","bdp_rd","Wed Mar 29 2023 23:32:00 GMT-0400 (Eastern Daylight Time)","201700","","null","","","","offerFB","","<div class='trialBorder'><div class='vertical-center'><img style='vertical-align:center; align:center' src=img/fixation3.jpg></div><div class='cl'><div class='vertical-center'><font style='color:orange'>$53<br>for<br>sure</font></div></div><div class='cr'><div class='vertical-center'>$98<br>with a<br>50% chance</div></div><div class='respDivL'><div class='vertical-center'><font style='color:orange'>(E)</font></div></div><div class='respDivR'><div class='vertical-center'>(I)</div></div></div>","null","$53","$98","0","53","98",""
"html-keyboard-response","40","64009","0.0-5.0-1.12","63d7d7b654e057b287d2bd9b","bdp_rd","Wed Mar 29 2023 23:32:00 GMT-0400 (Eastern Daylight Time)","201700","","null","","","","FIX","","<div class='trialBorder'><div class='vertical-center'><img style='vertical-align:center; align:center' src=img/fixation3.jpg></div></div>","null","","","","","",""
"html-keyboard-response","41","66318","0.0-5.0-2.12","63d7d7b654e057b287d2bd9b","bdp_rd","Wed Mar 29 2023 23:32:00 GMT-0400 (Eastern Daylight Time)","201700","","2308","","","","offer","","<div class='trialBorder'><div class='vertical-center'><img style='vertical-align:center; align:center' src=img/fixation3.jpg></div><div class='cl'><div class='vertical-center'>$89<br>with a<br>50% chance</div></div><div class='cr'><div class='vertical-center'>$28<br>for<br>sure</div></div><div class='respDivL'><div class='vertical-center'>(E)</div></div><div class='respDivR'><div class='vertical-center'>(I)</div></div></div>","E","$28","$89","1","28","89","RISKY"
"html-keyboard-response","42","66570","0.0-5.0-3.12","63d7d7b654e057b287d2bd9b","bdp_rd","Wed Mar 29 2023 23:32:00 GMT-0400 (Eastern Daylight Time)","201700","","null","","","","offerFB","","<div class='trialBorder'><div class='vertical-center'><img style='vertical-align:center; align:center' src=img/fixation3.jpg></div><div class='cl'><div class='vertical-center'><font style='color:orange'>$89<br>with a<br>50% chance</font></div></div><div class='cr'><div class='vertical-center'>$28<br>for<br>sure</div></div><div class='respDivL'><div class='vertical-center'><font style='color:orange'>(E)</font></div></div><div class='respDivR'><div class='vertical-center'>(I)</div></div></div>","null","$28","$89","1","28","89",""
"html-keyboard-response","43","67072","0.0-5.0-1.13","63d7d7b654e057b287d2bd9b","bdp_rd","Wed Mar 29 2023 23:32:00 GMT-0400 (Eastern Daylight Time)","201700","","null","","","","FIX","","<div class='trialBorder'><div class='vertical-center'><img style='vertical-align:center; align:center' src=img/fixation3.jpg></div></div>","null","","","","","",""
"html-keyboard-response","44","68817","0.0-5.0-2.13","63d7d7b654e057b287d2bd9b","bdp_rd","Wed Mar 29 2023 23:32:00 GMT-0400 (Eastern Daylight Time)","201700","","1744","","","","offer","","<div class='trialBorder'><div class='vertical-center'><img style='vertical-align:center; align:center' src=img/fixation3.jpg></div><div class='cl'><div class='vertical-center'>$19<br>with a<br>50% chance</div></div><div class='cr'><div class='vertical-center'>$10<br>for<br>sure</div></div><div class='respDivL'><div class='vertical-center'>(E)</div></div><div class='respDivR'><div class='vertical-center'>(I)</div></div></div>","I","$10","$19","1","10","19","SURE"
"html-keyboard-response","45","69069","0.0-5.0-3.13","63d7d7b654e057b287d2bd9b","bdp_rd","Wed Mar 29 2023 23:32:00 GMT-0400 (Eastern Daylight Time)","201700","","null","","","","offerFB","","<div class='trialBorder'><div class='vertical-center'><img style='vertical-align:center; align:center' src=img/fixation3.jpg></div><div class='cl'><div class='vertical-center'>$19<br>with a<br>50% chance</div></div><div class='cr'><div class='vertical-center'><font style='color:orange'>$10<br>for<br>sure</font></div></div><div class='respDivL'><div class='vertical-center'>(E)</div></div><div class='respDivR'><div class='vertical-center'><font style='color:orange'>(I)</font></div></div></div>","null","$10","$19","1","10","19",""
"html-keyboard-response","46","69571","0.0-5.0-1.14","63d7d7b654e057b287d2bd9b","bdp_rd","Wed Mar 29 2023 23:32:00 GMT-0400 (Eastern Daylight Time)","201700","","null","","","","FIX","","<div class='trialBorder'><div class='vertical-center'><img style='vertical-align:center; align:center' src=img/fixation3.jpg></div></div>","null","","","","","",""
"html-keyboard-response","47","70680","0.0-5.0-2.14","63d7d7b654e057b287d2bd9b","bdp_rd","Wed Mar 29 2023 23:32:00 GMT-0400 (Eastern Daylight Time)","201700","","1109","","","","offer","","<div class='trialBorder'><div class='vertical-center'><img style='vertical-align:center; align:center' src=img/fixation3.jpg></div><div class='cl'><div class='vertical-center'>$17<br>with a<br>50% chance</div></div><div class='cr'><div class='vertical-center'>$3<br>for<br>sure</div></div><div class='respDivL'><div class='vertical-center'>(E)</div></div><div class='respDivR'><div class='vertical-center'>(I)</div></div></div>","E","$3","$17","1","3","17","RISKY"
"html-keyboard-response","48","70933","0.0-5.0-3.14","63d7d7b654e057b287d2bd9b","bdp_rd","Wed Mar 29 2023 23:32:00 GMT-0400 (Eastern Daylight Time)","201700","","null","","","","offerFB","","<div class='trialBorder'><div class='vertical-center'><img style='vertical-align:center; align:center' src=img/fixation3.jpg></div><div class='cl'><div class='vertical-center'><font style='color:orange'>$17<br>with a<br>50% chance</font></div></div><div class='cr'><div class='vertical-center'>$3<br>for<br>sure</div></div><div class='respDivL'><div class='vertical-center'><font style='color:orange'>(E)</font></div></div><div class='respDivR'><div class='vertical-center'>(I)</div></div></div>","null","$3","$17","1","3","17",""
"html-keyboard-response","49","71435","0.0-5.0-1.15","63d7d7b654e057b287d2bd9b","bdp_rd","Wed Mar 29 2023 23:32:00 GMT-0400 (Eastern Daylight Time)","201700","","null","","","","FIX","","<div class='trialBorder'><div class='vertical-center'><img style='vertical-align:center; align:center' src=img/fixation3.jpg></div></div>","null","","","","","",""
"html-keyboard-response","50","73893","0.0-5.0-2.15","63d7d7b654e057b287d2bd9b","bdp_rd","Wed Mar 29 2023 23:32:00 GMT-0400 (Eastern Daylight Time)","201700","","2457","","","","offer","","<div class='trialBorder'><div class='vertical-center'><img style='vertical-align:center; align:center' src=img/fixation3.jpg></div><div class='cl'><div class='vertical-center'>$30<br>for<br>sure</div></div><div class='cr'><div class='vertical-center'>$68<br>with a<br>50% chance</div></div><div class='respDivL'><div class='vertical-center'>(E)</div></div><div class='respDivR'><div class='vertical-center'>(I)</div></div></div>","I","$30","$68","0","30","68","RISKY"
"html-keyboard-response","51","74145","0.0-5.0-3.15","63d7d7b654e057b287d2bd9b","bdp_rd","Wed Mar 29 2023 23:32:00 GMT-0400 (Eastern Daylight Time)","201700","","null","","","","offerFB","","<div class='trialBorder'><div class='vertical-center'><img style='vertical-align:center; align:center' src=img/fixation3.jpg></div><div class='cl'><div class='vertical-center'>$30<br>for<br>sure</div></div><div class='cr'><div class='vertical-center'><font style='color:orange'>$68<br>with a<br>50% chance</font></div></div><div class='respDivL'><div class='vertical-center'>(E)</div></div><div class='respDivR'><div class='vertical-center'><font style='color:orange'>(I)</font></div></div></div>","null","$30","$68","0","30","68",""
"html-keyboard-response","52","74646","0.0-5.0-1.16","63d7d7b654e057b287d2bd9b","bdp_rd","Wed Mar 29 2023 23:32:00 GMT-0400 (Eastern Daylight Time)","201700","","null","","","","FIX","","<div class='trialBorder'><div class='vertical-center'><img style='vertical-align:center; align:center' src=img/fixation3.jpg></div></div>","null","","","","","",""
"html-keyboard-response","53","76067","0.0-5.0-2.16","63d7d7b654e057b287d2bd9b","bdp_rd","Wed Mar 29 2023 23:32:00 GMT-0400 (Eastern Daylight Time)","201700","","1420","","","","offer","","<div class='trialBorder'><div class='vertical-center'><img style='vertical-align:center; align:center' src=img/fixation3.jpg></div><div class='cl'><div class='vertical-center'>$13<br>for<br>sure</div></div><div class='cr'><div class='vertical-center'>$24<br>with a<br>50% chance</div></div><div class='respDivL'><div class='vertical-center'>(E)</div></div><div class='respDivR'><div class='vertical-center'>(I)</div></div></div>","E","$13","$24","0","13","24","SURE"
"html-keyboard-response","54","76319","0.0-5.0-3.16","63d7d7b654e057b287d2bd9b","bdp_rd","Wed Mar 29 2023 23:32:00 GMT-0400 (Eastern Daylight Time)","201700","","null","","","","offerFB","","<div class='trialBorder'><div class='vertical-center'><img style='vertical-align:center; align:center' src=img/fixation3.jpg></div><div class='cl'><div class='vertical-center'><font style='color:orange'>$13<br>for<br>sure</font></div></div><div class='cr'><div class='vertical-center'>$24<br>with a<br>50% chance</div></div><div class='respDivL'><div class='vertical-center'><font style='color:orange'>(E)</font></div></div><div class='respDivR'><div class='vertical-center'>(I)</div></div></div>","null","$13","$24","0","13","24",""
"html-keyboard-response","55","76820","0.0-5.0-1.17","63d7d7b654e057b287d2bd9b","bdp_rd","Wed Mar 29 2023 23:32:00 GMT-0400 (Eastern Daylight Time)","201700","","null","","","","FIX","","<div class='trialBorder'><div class='vertical-center'><img style='vertical-align:center; align:center' src=img/fixation3.jpg></div></div>","null","","","","","",""
"html-keyboard-response","56","81692","0.0-5.0-2.17","63d7d7b654e057b287d2bd9b","bdp_rd","Wed Mar 29 2023 23:32:00 GMT-0400 (Eastern Daylight Time)","201700","","4871","","","","offer","","<div class='trialBorder'><div class='vertical-center'><img style='vertical-align:center; align:center' src=img/fixation3.jpg></div><div class='cl'><div class='vertical-center'>$63<br>for<br>sure</div></div><div class='cr'><div class='vertical-center'>$100<br>with a<br>50% chance</div></div><div class='respDivL'><div class='vertical-center'>(E)</div></div><div class='respDivR'><div class='vertical-center'>(I)</div></div></div>","E","$63","$100","0","63","10","SURE"
"html-keyboard-response","57","81944","0.0-5.0-3.17","63d7d7b654e057b287d2bd9b","bdp_rd","Wed Mar 29 2023 23:32:00 GMT-0400 (Eastern Daylight Time)","201700","","null","","","","offerFB","","<div class='trialBorder'><div class='vertical-center'><img style='vertical-align:center; align:center' src=img/fixation3.jpg></div><div class='cl'><div class='vertical-center'><font style='color:orange'>$63<br>for<br>sure</font></div></div><div class='cr'><div class='vertical-center'>$100<br>with a<br>50% chance</div></div><div class='respDivL'><div class='vertical-center'><font style='color:orange'>(E)</font></div></div><div class='respDivR'><div class='vertical-center'>(I)</div></div></div>","null","$63","$100","0","63","10",""
"html-keyboard-response","58","82445","0.0-5.0-1.18","63d7d7b654e057b287d2bd9b","bdp_rd","Wed Mar 29 2023 23:32:00 GMT-0400 (Eastern Daylight Time)","201700","","null","","","","FIX","","<div class='trialBorder'><div class='vertical-center'><img style='vertical-align:center; align:center' src=img/fixation3.jpg></div></div>","null","","","","","",""
"html-keyboard-response","59","85717","0.0-5.0-2.18","63d7d7b654e057b287d2bd9b","bdp_rd","Wed Mar 29 2023 23:32:00 GMT-0400 (Eastern Daylight Time)","201700","","3268","","","","offer","","<div class='trialBorder'><div class='vertical-center'><img style='vertical-align:center; align:center' src=img/fixation3.jpg></div><div class='cl'><div class='vertical-center'>$43<br>with a<br>50% chance</div></div><div class='cr'><div class='vertical-center'>$17<br>for<br>sure</div></div><div class='respDivL'><div class='vertical-center'>(E)</div></div><div class='respDivR'><div class='vertical-center'>(I)</div></div></div>","I","$17","$43","1","17","43","SURE"
"html-keyboard-response","60","85968","0.0-5.0-3.18","63d7d7b654e057b287d2bd9b","bdp_rd","Wed Mar 29 2023 23:32:00 GMT-0400 (Eastern Daylight Time)","201700","","null","","","","offerFB","","<div class='trialBorder'><div class='vertical-center'><img style='vertical-align:center; align:center' src=img/fixation3.jpg></div><div class='cl'><div class='vertical-center'>$43<br>with a<br>50% chance</div></div><div class='cr'><div class='vertical-center'><font style='color:orange'>$17<br>for<br>sure</font></div></div><div class='respDivL'><div class='vertical-center'>(E)</div></div><div class='respDivR'><div class='vertical-center'><font style='color:orange'>(I)</font></div></div></div>","null","$17","$43","1","17","43",""
"html-keyboard-response","61","86469","0.0-5.0-1.19","63d7d7b654e057b287d2bd9b","bdp_rd","Wed Mar 29 2023 23:32:00 GMT-0400 (Eastern Daylight Time)","201700","","null","","","","FIX","","<div class='trialBorder'><div class='vertical-center'><img style='vertical-align:center; align:center' src=img/fixation3.jpg></div></div>","null","","","","","",""
"html-keyboard-response","62","88792","0.0-5.0-2.19","63d7d7b654e057b287d2bd9b","bdp_rd","Wed Mar 29 2023 23:32:00 GMT-0400 (Eastern Daylight Time)","201700","","2322","","","","offer","","<div class='trialBorder'><div class='vertical-center'><img style='vertical-align:center; align:center' src=img/fixation3.jpg></div><div class='cl'><div class='vertical-center'>$36<br>with a<br>50% chance</div></div><div class='cr'><div class='vertical-center'>$18<br>for<br>sure</div></div><div class='respDivL'><div class='vertical-center'>(E)</div></div><div class='respDivR'><div class='vertical-center'>(I)</div></div></div>","I","$18","$36","1","18","36","SURE"
"html-keyboard-response","63","89043","0.0-5.0-3.19","63d7d7b654e057b287d2bd9b","bdp_rd","Wed Mar 29 2023 23:32:00 GMT-0400 (Eastern Daylight Time)","201700","","null","","","","offerFB","","<div class='trialBorder'><div class='vertical-center'><img style='vertical-align:center; align:center' src=img/fixation3.jpg></div><div class='cl'><div class='vertical-center'>$36<br>with a<br>50% chance</div></div><div class='cr'><div class='vertical-center'><font style='color:orange'>$18<br>for<br>sure</font></div></div><div class='respDivL'><div class='vertical-center'>(E)</div></div><div class='respDivR'><div class='vertical-center'><font style='color:orange'>(I)</font></div></div></div>","null","$18","$36","1","18","36",""
"html-keyboard-response","64","89545","0.0-5.0-1.20","63d7d7b654e057b287d2bd9b","bdp_rd","Wed Mar 29 2023 23:32:00 GMT-0400 (Eastern Daylight Time)","201700","","null","","","","FIX","","<div class='trialBorder'><div class='vertical-center'><img style='vertical-align:center; align:center' src=img/fixation3.jpg></div></div>","null","","","","","",""
"html-keyboard-response","65","92167","0.0-5.0-2.20","63d7d7b654e057b287d2bd9b","bdp_rd","Wed Mar 29 2023 23:32:00 GMT-0400 (Eastern Daylight Time)","201700","","2622","","","","offer","","<div class='trialBorder'><div class='vertical-center'><img style='vertical-align:center; align:center' src=img/fixation3.jpg></div><div class='cl'><div class='vertical-center'>$24<br>for<br>sure</div></div><div class='cr'><div class='vertical-center'>$70<br>with a<br>50% chance</div></div><div class='respDivL'><div class='vertical-center'>(E)</div></div><div class='respDivR'><div class='vertical-center'>(I)</div></div></div>","I","$24","$70","0","24","70","RISKY"
"html-keyboard-response","66","92419","0.0-5.0-3.20","63d7d7b654e057b287d2bd9b","bdp_rd","Wed Mar 29 2023 23:32:00 GMT-0400 (Eastern Daylight Time)","201700","","null","","","","offerFB","","<div class='trialBorder'><div class='vertical-center'><img style='vertical-align:center; align:center' src=img/fixation3.jpg></div><div class='cl'><div class='vertical-center'>$24<br>for<br>sure</div></div><div class='cr'><div class='vertical-center'><font style='color:orange'>$70<br>with a<br>50% chance</font></div></div><div class='respDivL'><div class='vertical-center'>(E)</div></div><div class='respDivR'><div class='vertical-center'><font style='color:orange'>(I)</font></div></div></div>","null","$24","$70","0","24","70",""
"html-keyboard-response","67","92921","0.0-5.0-1.21","63d7d7b654e057b287d2bd9b","bdp_rd","Wed Mar 29 2023 23:32:00 GMT-0400 (Eastern Daylight Time)","201700","","null","","","","FIX","","<div class='trialBorder'><div class='vertical-center'><img style='vertical-align:center; align:center' src=img/fixation3.jpg></div></div>","null","","","","","",""
"html-keyboard-response","68","94866","0.0-5.0-2.21","63d7d7b654e057b287d2bd9b","bdp_rd","Wed Mar 29 2023 23:32:00 GMT-0400 (Eastern Daylight Time)","201700","","1942","","","","offer","","<div class='trialBorder'><div class='vertical-center'><img style='vertical-align:center; align:center' src=img/fixation3.jpg></div><div class='cl'><div class='vertical-center'>$26<br>with a<br>50% chance</div></div><div class='cr'><div class='vertical-center'>$11<br>for<br>sure</div></div><div class='respDivL'><div class='vertical-center'>(E)</div></div><div class='respDivR'><div class='vertical-center'>(I)</div></div></div>","E","$11","$26","1","11","26","RISKY"
"html-keyboard-response","69","95117","0.0-5.0-3.21","63d7d7b654e057b287d2bd9b","bdp_rd","Wed Mar 29 2023 23:32:00 GMT-0400 (Eastern Daylight Time)","201700","","null","","","","offerFB","","<div class='trialBorder'><div class='vertical-center'><img style='vertical-align:center; align:center' src=img/fixation3.jpg></div><div class='cl'><div class='vertical-center'><font style='color:orange'>$26<br>with a<br>50% chance</font></div></div><div class='cr'><div class='vertical-center'>$11<br>for<br>sure</div></div><div class='respDivL'><div class='vertical-center'><font style='color:orange'>(E)</font></div></div><div class='respDivR'><div class='vertical-center'>(I)</div></div></div>","null","$11","$26","1","11","26",""
"html-keyboard-response","70","95619","0.0-5.0-1.22","63d7d7b654e057b287d2bd9b","bdp_rd","Wed Mar 29 2023 23:32:00 GMT-0400 (Eastern Daylight Time)","201700","","null","","","","FIX","","<div class='trialBorder'><div class='vertical-center'><img style='vertical-align:center; align:center' src=img/fixation3.jpg></div></div>","null","","","","","",""
"html-keyboard-response","71","99680","0.0-5.0-2.22","63d7d7b654e057b287d2bd9b","bdp_rd","Wed Mar 29 2023 23:32:00 GMT-0400 (Eastern Daylight Time)","201700","","4060","","","","offer","","<div class='trialBorder'><div class='vertical-center'><img style='vertical-align:center; align:center' src=img/fixation3.jpg></div><div class='cl'><div class='vertical-center'>$34<br>with a<br>50% chance</div></div><div class='cr'><div class='vertical-center'>$15<br>for<br>sure</div></div><div class='respDivL'><div class='vertical-center'>(E)</div></div><div class='respDivR'><div class='vertical-center'>(I)</div></div></div>","E","$15","$34","1","15","34","RISKY"
"html-keyboard-response","72","99933","0.0-5.0-3.22","63d7d7b654e057b287d2bd9b","bdp_rd","Wed Mar 29 2023 23:32:00 GMT-0400 (Eastern Daylight Time)","201700","","null","","","","offerFB","","<div class='trialBorder'><div class='vertical-center'><img style='vertical-align:center; align:center' src=img/fixation3.jpg></div><div class='cl'><div class='vertical-center'><font style='color:orange'>$34<br>with a<br>50% chance</font></div></div><div class='cr'><div class='vertical-center'>$15<br>for<br>sure</div></div><div class='respDivL'><div class='vertical-center'><font style='color:orange'>(E)</font></div></div><div class='respDivR'><div class='vertical-center'>(I)</div></div></div>","null","$15","$34","1","15","34",""
"html-keyboard-response","73","100434","0.0-5.0-1.23","63d7d7b654e057b287d2bd9b","bdp_rd","Wed Mar 29 2023 23:32:00 GMT-0400 (Eastern Daylight Time)","201700","","null","","","","FIX","","<div class='trialBorder'><div class='vertical-center'><img style='vertical-align:center; align:center' src=img/fixation3.jpg></div></div>","null","","","","","",""
"html-keyboard-response","74","101968","0.0-5.0-2.23","63d7d7b654e057b287d2bd9b","bdp_rd","Wed Mar 29 2023 23:32:00 GMT-0400 (Eastern Daylight Time)","201700","","1533","","","","offer","","<div class='trialBorder'><div class='vertical-center'><img style='vertical-align:center; align:center' src=img/fixation3.jpg></div><div class='cl'><div class='vertical-center'>$23<br>with a<br>50% chance</div></div><div class='cr'><div class='vertical-center'>$8<br>for<br>sure</div></div><div class='respDivL'><div class='vertical-center'>(E)</div></div><div class='respDivR'><div class='vertical-center'>(I)</div></div></div>","E","$8","$23","1","8","23","RISKY"
"html-keyboard-response","75","102220","0.0-5.0-3.23","63d7d7b654e057b287d2bd9b","bdp_rd","Wed Mar 29 2023 23:32:00 GMT-0400 (Eastern Daylight Time)","201700","","null","","","","offerFB","","<div class='trialBorder'><div class='vertical-center'><img style='vertical-align:center; align:center' src=img/fixation3.jpg></div><div class='cl'><div class='vertical-center'><font style='color:orange'>$23<br>with a<br>50% chance</font></div></div><div class='cr'><div class='vertical-center'>$8<br>for<br>sure</div></div><div class='respDivL'><div class='vertical-center'><font style='color:orange'>(E)</font></div></div><div class='respDivR'><div class='vertical-center'>(I)</div></div></div>","null","$8","$23","1","8","23",""
"html-keyboard-response","76","102721","0.0-5.0-1.24","63d7d7b654e057b287d2bd9b","bdp_rd","Wed Mar 29 2023 23:32:00 GMT-0400 (Eastern Daylight Time)","201700","","null","","","","FIX","","<div class='trialBorder'><div class='vertical-center'><img style='vertical-align:center; align:center' src=img/fixation3.jpg></div></div>","null","","","","","",""
"html-keyboard-response","77","105094","0.0-5.0-2.24","63d7d7b654e057b287d2bd9b","bdp_rd","Wed Mar 29 2023 23:32:00 GMT-0400 (Eastern Daylight Time)","201700","","2371","","","","offer","","<div class='trialBorder'><div class='vertical-center'><img style='vertical-align:center; align:center' src=img/fixation3.jpg></div><div class='cl'><div class='vertical-center'>$42<br>for<br>sure</div></div><div class='cr'><div class='vertical-center'>$73<br>with a<br>50% chance</div></div><div class='respDivL'><div class='vertical-center'>(E)</div></div><div class='respDivR'><div class='vertical-center'>(I)</div></div></div>","E","$42","$73","0","42","73","SURE"
"html-keyboard-response","78","105345","0.0-5.0-3.24","63d7d7b654e057b287d2bd9b","bdp_rd","Wed Mar 29 2023 23:32:00 GMT-0400 (Eastern Daylight Time)","201700","","null","","","","offerFB","","<div class='trialBorder'><div class='vertical-center'><img style='vertical-align:center; align:center' src=img/fixation3.jpg></div><div class='cl'><div class='vertical-center'><font style='color:orange'>$42<br>for<br>sure</font></div></div><div class='cr'><div class='vertical-center'>$73<br>with a<br>50% chance</div></div><div class='respDivL'><div class='vertical-center'><font style='color:orange'>(E)</font></div></div><div class='respDivR'><div class='vertical-center'>(I)</div></div></div>","null","$42","$73","0","42","73",""
"html-keyboard-response","79","105847","0.0-5.0-1.25","63d7d7b654e057b287d2bd9b","bdp_rd","Wed Mar 29 2023 23:32:00 GMT-0400 (Eastern Daylight Time)","201700","","null","","","","FIX","","<div class='trialBorder'><div class='vertical-center'><img style='vertical-align:center; align:center' src=img/fixation3.jpg></div></div>","null","","","","","",""
"html-keyboard-response","80","107343","0.0-5.0-2.25","63d7d7b654e057b287d2bd9b","bdp_rd","Wed Mar 29 2023 23:32:00 GMT-0400 (Eastern Daylight Time)","201700","","1495","","","","offer","","<div class='trialBorder'><div class='vertical-center'><img style='vertical-align:center; align:center' src=img/fixation3.jpg></div><div class='cl'><div class='vertical-center'>$50<br>with a<br>50% chance</div></div><div class='cr'><div class='vertical-center'>$5<br>for<br>sure</div></div><div class='respDivL'><div class='vertical-center'>(E)</div></div><div class='respDivR'><div class='vertical-center'>(I)</div></div></div>","E","$5","$50","1","5","50","RISKY"
"html-keyboard-response","81","107595","0.0-5.0-3.25","63d7d7b654e057b287d2bd9b","bdp_rd","Wed Mar 29 2023 23:32:00 GMT-0400 (Eastern Daylight Time)","201700","","null","","","","offerFB","","<div class='trialBorder'><div class='vertical-center'><img style='vertical-align:center; align:center' src=img/fixation3.jpg></div><div class='cl'><div class='vertical-center'><font style='color:orange'>$50<br>with a<br>50% chance</font></div></div><div class='cr'><div class='vertical-center'>$5<br>for<br>sure</div></div><div class='respDivL'><div class='vertical-center'><font style='color:orange'>(E)</font></div></div><div class='respDivR'><div class='vertical-center'>(I)</div></div></div>","null","$5","$50","1","5","50",""
"html-keyboard-response","82","108097","0.0-5.0-1.26","63d7d7b654e057b287d2bd9b","bdp_rd","Wed Mar 29 2023 23:32:00 GMT-0400 (Eastern Daylight Time)","201700","","null","","","","FIX","","<div class='trialBorder'><div class='vertical-center'><img style='vertical-align:center; align:center' src=img/fixation3.jpg></div></div>","null","","","","","",""
"html-keyboard-response","83","109955","0.0-5.0-2.26","63d7d7b654e057b287d2bd9b","bdp_rd","Wed Mar 29 2023 23:32:00 GMT-0400 (Eastern Daylight Time)","201700","","1857","","","","offer","","<div class='trialBorder'><div class='vertical-center'><img style='vertical-align:center; align:center' src=img/fixation3.jpg></div><div class='cl'><div class='vertical-center'>$71<br>with a<br>50% chance</div></div><div class='cr'><div class='vertical-center'>$7<br>for<br>sure</div></div><div class='respDivL'><div class='vertical-center'>(E)</div></div><div class='respDivR'><div class='vertical-center'>(I)</div></div></div>","E","$7","$71","1","7","71","RISKY"
"html-keyboard-response","84","110207","0.0-5.0-3.26","63d7d7b654e057b287d2bd9b","bdp_rd","Wed Mar 29 2023 23:32:00 GMT-0400 (Eastern Daylight Time)","201700","","null","","","","offerFB","","<div class='trialBorder'><div class='vertical-center'><img style='vertical-align:center; align:center' src=img/fixation3.jpg></div><div class='cl'><div class='vertical-center'><font style='color:orange'>$71<br>with a<br>50% chance</font></div></div><div class='cr'><div class='vertical-center'>$7<br>for<br>sure</div></div><div class='respDivL'><div class='vertical-center'><font style='color:orange'>(E)</font></div></div><div class='respDivR'><div class='vertical-center'>(I)</div></div></div>","null","$7","$71","1","7","71",""
"html-keyboard-response","85","110708","0.0-5.0-1.27","63d7d7b654e057b287d2bd9b","bdp_rd","Wed Mar 29 2023 23:32:00 GMT-0400 (Eastern Daylight Time)","201700","","null","","","","FIX","","<div class='trialBorder'><div class='vertical-center'><img style='vertical-align:center; align:center' src=img/fixation3.jpg></div></div>","null","","","","","",""
"html-keyboard-response","86","111908","0.0-5.0-2.27","63d7d7b654e057b287d2bd9b","bdp_rd","Wed Mar 29 2023 23:32:00 GMT-0400 (Eastern Daylight Time)","201700","","1199","","","","offer","","<div class='trialBorder'><div class='vertical-center'><img style='vertical-align:center; align:center' src=img/fixation3.jpg></div><div class='cl'><div class='vertical-center'>$37<br>for<br>sure</div></div><div class='cr'><div class='vertical-center'>$44<br>with a<br>50% chance</div></div><div class='respDivL'><div class='vertical-center'>(E)</div></div><div class='respDivR'><div class='vertical-center'>(I)</div></div></div>","E","$37","$44","0","37","44","SURE"
"html-keyboard-response","87","112159","0.0-5.0-3.27","63d7d7b654e057b287d2bd9b","bdp_rd","Wed Mar 29 2023 23:32:00 GMT-0400 (Eastern Daylight Time)","201700","","null","","","","offerFB","","<div class='trialBorder'><div class='vertical-center'><img style='vertical-align:center; align:center' src=img/fixation3.jpg></div><div class='cl'><div class='vertical-center'><font style='color:orange'>$37<br>for<br>sure</font></div></div><div class='cr'><div class='vertical-center'>$44<br>with a<br>50% chance</div></div><div class='respDivL'><div class='vertical-center'><font style='color:orange'>(E)</font></div></div><div class='respDivR'><div class='vertical-center'>(I)</div></div></div>","null","$37","$44","0","37","44",""
"html-keyboard-response","88","112661","0.0-5.0-1.28","63d7d7b654e057b287d2bd9b","bdp_rd","Wed Mar 29 2023 23:32:00 GMT-0400 (Eastern Daylight Time)","201700","","null","","","","FIX","","<div class='trialBorder'><div class='vertical-center'><img style='vertical-align:center; align:center' src=img/fixation3.jpg></div></div>","null","","","","","",""
"html-keyboard-response","89","115563","0.0-5.0-2.28","63d7d7b654e057b287d2bd9b","bdp_rd","Wed Mar 29 2023 23:32:00 GMT-0400 (Eastern Daylight Time)","201700","","2901","","","","offer","","<div class='trialBorder'><div class='vertical-center'><img style='vertical-align:center; align:center' src=img/fixation3.jpg></div><div class='cl'><div class='vertical-center'>$12<br>for<br>sure</div></div><div class='cr'><div class='vertical-center'>$35<br>with a<br>50% chance</div></div><div class='respDivL'><div class='vertical-center'>(E)</div></div><div class='respDivR'><div class='vertical-center'>(I)</div></div></div>","I","$12","$35","0","12","35","RISKY"
"html-keyboard-response","90","115818","0.0-5.0-3.28","63d7d7b654e057b287d2bd9b","bdp_rd","Wed Mar 29 2023 23:32:00 GMT-0400 (Eastern Daylight Time)","201700","","null","","","","offerFB","","<div class='trialBorder'><div class='vertical-center'><img style='vertical-align:center; align:center' src=img/fixation3.jpg></div><div class='cl'><div class='vertical-center'>$12<br>for<br>sure</div></div><div class='cr'><div class='vertical-center'><font style='color:orange'>$35<br>with a<br>50% chance</font></div></div><div class='respDivL'><div class='vertical-center'>(E)</div></div><div class='respDivR'><div class='vertical-center'><font style='color:orange'>(I)</font></div></div></div>","null","$12","$35","0","12","35",""
"html-keyboard-response","91","116320","0.0-5.0-1.29","63d7d7b654e057b287d2bd9b","bdp_rd","Wed Mar 29 2023 23:32:00 GMT-0400 (Eastern Daylight Time)","201700","","null","","","","FIX","","<div class='trialBorder'><div class='vertical-center'><img style='vertical-align:center; align:center' src=img/fixation3.jpg></div></div>","null","","","","","",""
"html-keyboard-response","92","117420","0.0-5.0-2.29","63d7d7b654e057b287d2bd9b","bdp_rd","Wed Mar 29 2023 23:32:00 GMT-0400 (Eastern Daylight Time)","201700","","1100","","","","offer","","<div class='trialBorder'><div class='vertical-center'><img style='vertical-align:center; align:center' src=img/fixation3.jpg></div><div class='cl'><div class='vertical-center'>$58<br>for<br>sure</div></div><div class='cr'><div class='vertical-center'>$69<br>with a<br>50% chance</div></div><div class='respDivL'><div class='vertical-center'>(E)</div></div><div class='respDivR'><div class='vertical-center'>(I)</div></div></div>","E","$58","$69","0","58","69","SURE"
"html-keyboard-response","93","117672","0.0-5.0-3.29","63d7d7b654e057b287d2bd9b","bdp_rd","Wed Mar 29 2023 23:32:00 GMT-0400 (Eastern Daylight Time)","201700","","null","","","","offerFB","","<div class='trialBorder'><div class='vertical-center'><img style='vertical-align:center; align:center' src=img/fixation3.jpg></div><div class='cl'><div class='vertical-center'><font style='color:orange'>$58<br>for<br>sure</font></div></div><div class='cr'><div class='vertical-center'>$69<br>with a<br>50% chance</div></div><div class='respDivL'><div class='vertical-center'><font style='color:orange'>(E)</font></div></div><div class='respDivR'><div class='vertical-center'>(I)</div></div></div>","null","$58","$69","0","58","69",""
"html-keyboard-response","94","118174","0.0-5.0-1.30","63d7d7b654e057b287d2bd9b","bdp_rd","Wed Mar 29 2023 23:32:00 GMT-0400 (Eastern Daylight Time)","201700","","null","","","","FIX","","<div class='trialBorder'><div class='vertical-center'><img style='vertical-align:center; align:center' src=img/fixation3.jpg></div></div>","null","","","","","",""
"html-keyboard-response","95","119793","0.0-5.0-2.30","63d7d7b654e057b287d2bd9b","bdp_rd","Wed Mar 29 2023 23:32:00 GMT-0400 (Eastern Daylight Time)","201700","","1618","","","","offer","","<div class='trialBorder'><div class='vertical-center'><img style='vertical-align:center; align:center' src=img/fixation3.jpg></div><div class='cl'><div class='vertical-center'>$18<br>for<br>sure</div></div><div class='cr'><div class='vertical-center'>$39<br>with a<br>50% chance</div></div><div class='respDivL'><div class='vertical-center'>(E)</div></div><div class='respDivR'><div class='vertical-center'>(I)</div></div></div>","E","$18","$39","0","18","39","SURE"
"html-keyboard-response","96","120045","0.0-5.0-3.30","63d7d7b654e057b287d2bd9b","bdp_rd","Wed Mar 29 2023 23:32:00 GMT-0400 (Eastern Daylight Time)","201700","","null","","","","offerFB","","<div class='trialBorder'><div class='vertical-center'><img style='vertical-align:center; align:center' src=img/fixation3.jpg></div><div class='cl'><div class='vertical-center'><font style='color:orange'>$18<br>for<br>sure</font></div></div><div class='cr'><div class='vertical-center'>$39<br>with a<br>50% chance</div></div><div class='respDivL'><div class='vertical-center'><font style='color:orange'>(E)</font></div></div><div class='respDivR'><div class='vertical-center'>(I)</div></div></div>","null","$18","$39","0","18","39",""
"html-keyboard-response","97","120546","0.0-5.0-1.31","63d7d7b654e057b287d2bd9b","bdp_rd","Wed Mar 29 2023 23:32:00 GMT-0400 (Eastern Daylight Time)","201700","","null","","","","FIX","","<div class='trialBorder'><div class='vertical-center'><img style='vertical-align:center; align:center' src=img/fixation3.jpg></div></div>","null","","","","","",""
"html-keyboard-response","98","121493","0.0-5.0-2.31","63d7d7b654e057b287d2bd9b","bdp_rd","Wed Mar 29 2023 23:32:00 GMT-0400 (Eastern Daylight Time)","201700","","947","","","","offer","","<div class='trialBorder'><div class='vertical-center'><img style='vertical-align:center; align:center' src=img/fixation3.jpg></div><div class='cl'><div class='vertical-center'>$1<br>for<br>sure</div></div><div class='cr'><div class='vertical-center'>$30<br>with a<br>50% chance</div></div><div class='respDivL'><div class='vertical-center'>(E)</div></div><div class='respDivR'><div class='vertical-center'>(I)</div></div></div>","I","$1","$30","0","1","30","RISKY"
"html-keyboard-response","99","121745","0.0-5.0-3.31","63d7d7b654e057b287d2bd9b","bdp_rd","Wed Mar 29 2023 23:32:00 GMT-0400 (Eastern Daylight Time)","201700","","null","","","","offerFB","","<div class='trialBorder'><div class='vertical-center'><img style='vertical-align:center; align:center' src=img/fixation3.jpg></div><div class='cl'><div class='vertical-center'>$1<br>for<br>sure</div></div><div class='cr'><div class='vertical-center'><font style='color:orange'>$30<br>with a<br>50% chance</font></div></div><div class='respDivL'><div class='vertical-center'>(E)</div></div><div class='respDivR'><div class='vertical-center'><font style='color:orange'>(I)</font></div></div></div>","null","$1","$30","0","1","30",""
"html-keyboard-response","100","122246","0.0-5.0-1.32","63d7d7b654e057b287d2bd9b","bdp_rd","Wed Mar 29 2023 23:32:00 GMT-0400 (Eastern Daylight Time)","201700","","null","","","","FIX","","<div class='trialBorder'><div class='vertical-center'><img style='vertical-align:center; align:center' src=img/fixation3.jpg></div></div>","null","","","","","",""
"html-keyboard-response","101","123259","0.0-5.0-2.32","63d7d7b654e057b287d2bd9b","bdp_rd","Wed Mar 29 2023 23:32:00 GMT-0400 (Eastern Daylight Time)","201700","","1011","","","","offer","","<div class='trialBorder'><div class='vertical-center'><img style='vertical-align:center; align:center' src=img/fixation3.jpg></div><div class='cl'><div class='vertical-center'>$8<br>for<br>sure</div></div><div class='cr'><div class='vertical-center'>$45<br>with a<br>50% chance</div></div><div class='respDivL'><div class='vertical-center'>(E)</div></div><div class='respDivR'><div class='vertical-center'>(I)</div></div></div>","I","$8","$45","0","8","45","RISKY"
"html-keyboard-response","102","123513","0.0-5.0-3.32","63d7d7b654e057b287d2bd9b","bdp_rd","Wed Mar 29 2023 23:32:00 GMT-0400 (Eastern Daylight Time)","201700","","null","","","","offerFB","","<div class='trialBorder'><div class='vertical-center'><img style='vertical-align:center; align:center' src=img/fixation3.jpg></div><div class='cl'><div class='vertical-center'>$8<br>for<br>sure</div></div><div class='cr'><div class='vertical-center'><font style='color:orange'>$45<br>with a<br>50% chance</font></div></div><div class='respDivL'><div class='vertical-center'>(E)</div></div><div class='respDivR'><div class='vertical-center'><font style='color:orange'>(I)</font></div></div></div>","null","$8","$45","0","8","45",""
"html-keyboard-response","103","124015","0.0-5.0-1.33","63d7d7b654e057b287d2bd9b","bdp_rd","Wed Mar 29 2023 23:32:00 GMT-0400 (Eastern Daylight Time)","201700","","null","","","","FIX","","<div class='trialBorder'><div class='vertical-center'><img style='vertical-align:center; align:center' src=img/fixation3.jpg></div></div>","null","","","","","",""
"html-keyboard-response","104","126519","0.0-5.0-2.33","63d7d7b654e057b287d2bd9b","bdp_rd","Wed Mar 29 2023 23:32:00 GMT-0400 (Eastern Daylight Time)","201700","","2503","","","","offer","","<div class='trialBorder'><div class='vertical-center'><img style='vertical-align:center; align:center' src=img/fixation3.jpg></div><div class='cl'><div class='vertical-center'>$27<br>for<br>sure</div></div><div class='cr'><div class='vertical-center'>$47<br>with a<br>50% chance</div></div><div class='respDivL'><div class='vertical-center'>(E)</div></div><div class='respDivR'><div class='vertical-center'>(I)</div></div></div>","E","$27","$47","0","27","47","SURE"
"html-keyboard-response","105","126772","0.0-5.0-3.33","63d7d7b654e057b287d2bd9b","bdp_rd","Wed Mar 29 2023 23:32:00 GMT-0400 (Eastern Daylight Time)","201700","","null","","","","offerFB","","<div class='trialBorder'><div class='vertical-center'><img style='vertical-align:center; align:center' src=img/fixation3.jpg></div><div class='cl'><div class='vertical-center'><font style='color:orange'>$27<br>for<br>sure</font></div></div><div class='cr'><div class='vertical-center'>$47<br>with a<br>50% chance</div></div><div class='respDivL'><div class='vertical-center'><font style='color:orange'>(E)</font></div></div><div class='respDivR'><div class='vertical-center'>(I)</div></div></div>","null","$27","$47","0","27","47",""
"html-keyboard-response","106","127274","0.0-5.0-1.34","63d7d7b654e057b287d2bd9b","bdp_rd","Wed Mar 29 2023 23:32:00 GMT-0400 (Eastern Daylight Time)","201700","","null","","","","FIX","","<div class='trialBorder'><div class='vertical-center'><img style='vertical-align:center; align:center' src=img/fixation3.jpg></div></div>","null","","","","","",""
"html-keyboard-response","107","129196","0.0-5.0-2.34","63d7d7b654e057b287d2bd9b","bdp_rd","Wed Mar 29 2023 23:32:00 GMT-0400 (Eastern Daylight Time)","201700","","1921","","","","offer","","<div class='trialBorder'><div class='vertical-center'><img style='vertical-align:center; align:center' src=img/fixation3.jpg></div><div class='cl'><div class='vertical-center'>$80<br>with a<br>50% chance</div></div><div class='cr'><div class='vertical-center'>$20<br>for<br>sure</div></div><div class='respDivL'><div class='vertical-center'>(E)</div></div><div class='respDivR'><div class='vertical-center'>(I)</div></div></div>","E","$20","$80","1","20","80","RISKY"
"html-keyboard-response","108","129450","0.0-5.0-3.34","63d7d7b654e057b287d2bd9b","bdp_rd","Wed Mar 29 2023 23:32:00 GMT-0400 (Eastern Daylight Time)","201700","","null","","","","offerFB","","<div class='trialBorder'><div class='vertical-center'><img style='vertical-align:center; align:center' src=img/fixation3.jpg></div><div class='cl'><div class='vertical-center'><font style='color:orange'>$80<br>with a<br>50% chance</font></div></div><div class='cr'><div class='vertical-center'>$20<br>for<br>sure</div></div><div class='respDivL'><div class='vertical-center'><font style='color:orange'>(E)</font></div></div><div class='respDivR'><div class='vertical-center'>(I)</div></div></div>","null","$20","$80","1","20","80",""
"html-keyboard-response","109","129951","0.0-5.0-1.35","63d7d7b654e057b287d2bd9b","bdp_rd","Wed Mar 29 2023 23:32:00 GMT-0400 (Eastern Daylight Time)","201700","","null","","","","FIX","","<div class='trialBorder'><div class='vertical-center'><img style='vertical-align:center; align:center' src=img/fixation3.jpg></div></div>","null","","","","","",""
"html-keyboard-response","110","131169","0.0-5.0-2.35","63d7d7b654e057b287d2bd9b","bdp_rd","Wed Mar 29 2023 23:32:00 GMT-0400 (Eastern Daylight Time)","201700","","1218","","","","offer","","<div class='trialBorder'><div class='vertical-center'><img style='vertical-align:center; align:center' src=img/fixation3.jpg></div><div class='cl'><div class='vertical-center'>$11<br>with a<br>50% chance</div></div><div class='cr'><div class='vertical-center'>$4<br>for<br>sure</div></div><div class='respDivL'><div class='vertical-center'>(E)</div></div><div class='respDivR'><div class='vertical-center'>(I)</div></div></div>","E","$4","$11","1","4","11","RISKY"
"html-keyboard-response","111","131420","0.0-5.0-3.35","63d7d7b654e057b287d2bd9b","bdp_rd","Wed Mar 29 2023 23:32:00 GMT-0400 (Eastern Daylight Time)","201700","","null","","","","offerFB","","<div class='trialBorder'><div class='vertical-center'><img style='vertical-align:center; align:center' src=img/fixation3.jpg></div><div class='cl'><div class='vertical-center'><font style='color:orange'>$11<br>with a<br>50% chance</font></div></div><div class='cr'><div class='vertical-center'>$4<br>for<br>sure</div></div><div class='respDivL'><div class='vertical-center'><font style='color:orange'>(E)</font></div></div><div class='respDivR'><div class='vertical-center'>(I)</div></div></div>","null","$4","$11","1","4","11",""
"html-keyboard-response","112","131922","0.0-5.0-1.36","63d7d7b654e057b287d2bd9b","bdp_rd","Wed Mar 29 2023 23:32:00 GMT-0400 (Eastern Daylight Time)","201700","","null","","","","FIX","","<div class='trialBorder'><div class='vertical-center'><img style='vertical-align:center; align:center' src=img/fixation3.jpg></div></div>","null","","","","","",""
"html-keyboard-response","113","133468","0.0-5.0-2.36","63d7d7b654e057b287d2bd9b","bdp_rd","Wed Mar 29 2023 23:32:00 GMT-0400 (Eastern Daylight Time)","201700","","1545","","","","offer","","<div class='trialBorder'><div class='vertical-center'><img style='vertical-align:center; align:center' src=img/fixation3.jpg></div><div class='cl'><div class='vertical-center'>$41<br>with a<br>50% chance</div></div><div class='cr'><div class='vertical-center'>$13<br>for<br>sure</div></div><div class='respDivL'><div class='vertical-center'>(E)</div></div><div class='respDivR'><div class='vertical-center'>(I)</div></div></div>","E","$13","$41","1","13","41","RISKY"
"html-keyboard-response","114","133720","0.0-5.0-3.36","63d7d7b654e057b287d2bd9b","bdp_rd","Wed Mar 29 2023 23:32:00 GMT-0400 (Eastern Daylight Time)","201700","","null","","","","offerFB","","<div class='trialBorder'><div class='vertical-center'><img style='vertical-align:center; align:center' src=img/fixation3.jpg></div><div class='cl'><div class='vertical-center'><font style='color:orange'>$41<br>with a<br>50% chance</font></div></div><div class='cr'><div class='vertical-center'>$13<br>for<br>sure</div></div><div class='respDivL'><div class='vertical-center'><font style='color:orange'>(E)</font></div></div><div class='respDivR'><div class='vertical-center'>(I)</div></div></div>","null","$13","$41","1","13","41",""
"html-keyboard-response","115","134223","0.0-5.0-1.37","63d7d7b654e057b287d2bd9b","bdp_rd","Wed Mar 29 2023 23:32:00 GMT-0400 (Eastern Daylight Time)","201700","","null","","","","FIX","","<div class='trialBorder'><div class='vertical-center'><img style='vertical-align:center; align:center' src=img/fixation3.jpg></div></div>","null","","","","","",""
"html-keyboard-response","116","136907","0.0-5.0-2.37","63d7d7b654e057b287d2bd9b","bdp_rd","Wed Mar 29 2023 23:32:00 GMT-0400 (Eastern Daylight Time)","201700","","2684","","","","offer","","<div class='trialBorder'><div class='vertical-center'><img style='vertical-align:center; align:center' src=img/fixation3.jpg></div><div class='cl'><div class='vertical-center'>$9<br>for<br>sure</div></div><div class='cr'><div class='vertical-center'>$32<br>with a<br>50% chance</div></div><div class='respDivL'><div class='vertical-center'>(E)</div></div><div class='respDivR'><div class='vertical-center'>(I)</div></div></div>","I","$9","$32","0","9","32","RISKY"
"html-keyboard-response","117","137159","0.0-5.0-3.37","63d7d7b654e057b287d2bd9b","bdp_rd","Wed Mar 29 2023 23:32:00 GMT-0400 (Eastern Daylight Time)","201700","","null","","","","offerFB","","<div class='trialBorder'><div class='vertical-center'><img style='vertical-align:center; align:center' src=img/fixation3.jpg></div><div class='cl'><div class='vertical-center'>$9<br>for<br>sure</div></div><div class='cr'><div class='vertical-center'><font style='color:orange'>$32<br>with a<br>50% chance</font></div></div><div class='respDivL'><div class='vertical-center'>(E)</div></div><div class='respDivR'><div class='vertical-center'><font style='color:orange'>(I)</font></div></div></div>","null","$9","$32","0","9","32",""
"html-keyboard-response","118","137660","0.0-5.0-1.38","63d7d7b654e057b287d2bd9b","bdp_rd","Wed Mar 29 2023 23:32:00 GMT-0400 (Eastern Daylight Time)","201700","","null","","","","FIX","","<div class='trialBorder'><div class='vertical-center'><img style='vertical-align:center; align:center' src=img/fixation3.jpg></div></div>","null","","","","","",""
"html-keyboard-response","119","138858","0.0-5.0-2.38","63d7d7b654e057b287d2bd9b","bdp_rd","Wed Mar 29 2023 23:32:00 GMT-0400 (Eastern Daylight Time)","201700","","1198","","","","offer","","<div class='trialBorder'><div class='vertical-center'><img style='vertical-align:center; align:center' src=img/fixation3.jpg></div><div class='cl'><div class='vertical-center'>$11<br>for<br>sure</div></div><div class='cr'><div class='vertical-center'>$62<br>with a<br>50% chance</div></div><div class='respDivL'><div class='vertical-center'>(E)</div></div><div class='respDivR'><div class='vertical-center'>(I)</div></div></div>","I","$11","$62","0","11","62","RISKY"
"html-keyboard-response","120","139110","0.0-5.0-3.38","63d7d7b654e057b287d2bd9b","bdp_rd","Wed Mar 29 2023 23:32:00 GMT-0400 (Eastern Daylight Time)","201700","","null","","","","offerFB","","<div class='trialBorder'><div class='vertical-center'><img style='vertical-align:center; align:center' src=img/fixation3.jpg></div><div class='cl'><div class='vertical-center'>$11<br>for<br>sure</div></div><div class='cr'><div class='vertical-center'><font style='color:orange'>$62<br>with a<br>50% chance</font></div></div><div class='respDivL'><div class='vertical-center'>(E)</div></div><div class='respDivR'><div class='vertical-center'><font style='color:orange'>(I)</font></div></div></div>","null","$11","$62","0","11","62",""
"html-keyboard-response","121","139612","0.0-5.0-1.39","63d7d7b654e057b287d2bd9b","bdp_rd","Wed Mar 29 2023 23:32:00 GMT-0400 (Eastern Daylight Time)","201700","","null","","","","FIX","","<div class='trialBorder'><div class='vertical-center'><img style='vertical-align:center; align:center' src=img/fixation3.jpg></div></div>","null","","","","","",""
"html-keyboard-response","122","141083","0.0-5.0-2.39","63d7d7b654e057b287d2bd9b","bdp_rd","Wed Mar 29 2023 23:32:00 GMT-0400 (Eastern Daylight Time)","201700","","1470","","","","offer","","<div class='trialBorder'><div class='vertical-center'><img style='vertical-align:center; align:center' src=img/fixation3.jpg></div><div class='cl'><div class='vertical-center'>$19<br>for<br>sure</div></div><div class='cr'><div class='vertical-center'>$51<br>with a<br>50% chance</div></div><div class='respDivL'><div class='vertical-center'>(E)</div></div><div class='respDivR'><div class='vertical-center'>(I)</div></div></div>","I","$19","$51","0","19","51","RISKY"
"html-keyboard-response","123","141335","0.0-5.0-3.39","63d7d7b654e057b287d2bd9b","bdp_rd","Wed Mar 29 2023 23:32:00 GMT-0400 (Eastern Daylight Time)","201700","","null","","","","offerFB","","<div class='trialBorder'><div class='vertical-center'><img style='vertical-align:center; align:center' src=img/fixation3.jpg></div><div class='cl'><div class='vertical-center'>$19<br>for<br>sure</div></div><div class='cr'><div class='vertical-center'><font style='color:orange'>$51<br>with a<br>50% chance</font></div></div><div class='respDivL'><div class='vertical-center'>(E)</div></div><div class='respDivR'><div class='vertical-center'><font style='color:orange'>(I)</font></div></div></div>","null","$19","$51","0","19","51",""
"html-keyboard-response","124","141837","0.0-5.0-1.40","63d7d7b654e057b287d2bd9b","bdp_rd","Wed Mar 29 2023 23:32:00 GMT-0400 (Eastern Daylight Time)","201700","","null","","","","FIX","","<div class='trialBorder'><div class='vertical-center'><img style='vertical-align:center; align:center' src=img/fixation3.jpg></div></div>","null","","","","","",""
"html-keyboard-response","125","143444","0.0-5.0-2.40","63d7d7b654e057b287d2bd9b","bdp_rd","Wed Mar 29 2023 23:32:00 GMT-0400 (Eastern Daylight Time)","201700","","1606","","","","offer","","<div class='trialBorder'><div class='vertical-center'><img style='vertical-align:center; align:center' src=img/fixation3.jpg></div><div class='cl'><div class='vertical-center'>$6<br>for<br>sure</div></div><div class='cr'><div class='vertical-center'>$15<br>with a<br>50% chance</div></div><div class='respDivL'><div class='vertical-center'>(E)</div></div><div class='respDivR'><div class='vertical-center'>(I)</div></div></div>","I","$6","$15","0","6","15","RISKY"
"html-keyboard-response","126","143696","0.0-5.0-3.40","63d7d7b654e057b287d2bd9b","bdp_rd","Wed Mar 29 2023 23:32:00 GMT-0400 (Eastern Daylight Time)","201700","","null","","","","offerFB","","<div class='trialBorder'><div class='vertical-center'><img style='vertical-align:center; align:center' src=img/fixation3.jpg></div><div class='cl'><div class='vertical-center'>$6<br>for<br>sure</div></div><div class='cr'><div class='vertical-center'><font style='color:orange'>$15<br>with a<br>50% chance</font></div></div><div class='respDivL'><div class='vertical-center'>(E)</div></div><div class='respDivR'><div class='vertical-center'><font style='color:orange'>(I)</font></div></div></div>","null","$6","$15","0","6","15",""
"html-keyboard-response","127","144197","0.0-5.0-1.41","63d7d7b654e057b287d2bd9b","bdp_rd","Wed Mar 29 2023 23:32:00 GMT-0400 (Eastern Daylight Time)","201700","","null","","","","FIX","","<div class='trialBorder'><div class='vertical-center'><img style='vertical-align:center; align:center' src=img/fixation3.jpg></div></div>","null","","","","","",""
"html-keyboard-response","128","145157","0.0-5.0-2.41","63d7d7b654e057b287d2bd9b","bdp_rd","Wed Mar 29 2023 23:32:00 GMT-0400 (Eastern Daylight Time)","201700","","959","","","","offer","","<div class='trialBorder'><div class='vertical-center'><img style='vertical-align:center; align:center' src=img/fixation3.jpg></div><div class='cl'><div class='vertical-center'>$1<br>for<br>sure</div></div><div class='cr'><div class='vertical-center'>$33<br>with a<br>50% chance</div></div><div class='respDivL'><div class='vertical-center'>(E)</div></div><div class='respDivR'><div class='vertical-center'>(I)</div></div></div>","I","$1","$33","0","1","33","RISKY"
"html-keyboard-response","129","145409","0.0-5.0-3.41","63d7d7b654e057b287d2bd9b","bdp_rd","Wed Mar 29 2023 23:32:00 GMT-0400 (Eastern Daylight Time)","201700","","null","","","","offerFB","","<div class='trialBorder'><div class='vertical-center'><img style='vertical-align:center; align:center' src=img/fixation3.jpg></div><div class='cl'><div class='vertical-center'>$1<br>for<br>sure</div></div><div class='cr'><div class='vertical-center'><font style='color:orange'>$33<br>with a<br>50% chance</font></div></div><div class='respDivL'><div class='vertical-center'>(E)</div></div><div class='respDivR'><div class='vertical-center'><font style='color:orange'>(I)</font></div></div></div>","null","$1","$33","0","1","33",""
"html-keyboard-response","130","145912","0.0-5.0-1.42","63d7d7b654e057b287d2bd9b","bdp_rd","Wed Mar 29 2023 23:32:00 GMT-0400 (Eastern Daylight Time)","201700","","null","","","","FIX","","<div class='trialBorder'><div class='vertical-center'><img style='vertical-align:center; align:center' src=img/fixation3.jpg></div></div>","null","","","","","",""
"html-keyboard-response","131","148758","0.0-5.0-2.42","63d7d7b654e057b287d2bd9b","bdp_rd","Wed Mar 29 2023 23:32:00 GMT-0400 (Eastern Daylight Time)","201700","","2845","","","","offer","","<div class='trialBorder'><div class='vertical-center'><img style='vertical-align:center; align:center' src=img/fixation3.jpg></div><div class='cl'><div class='vertical-center'>$22<br>with a<br>50% chance</div></div><div class='cr'><div class='vertical-center'>$14<br>for<br>sure</div></div><div class='respDivL'><div class='vertical-center'>(E)</div></div><div class='respDivR'><div class='vertical-center'>(I)</div></div></div>","I","$14","$22","1","14","22","SURE"
"html-keyboard-response","132","149010","0.0-5.0-3.42","63d7d7b654e057b287d2bd9b","bdp_rd","Wed Mar 29 2023 23:32:00 GMT-0400 (Eastern Daylight Time)","201700","","null","","","","offerFB","","<div class='trialBorder'><div class='vertical-center'><img style='vertical-align:center; align:center' src=img/fixation3.jpg></div><div class='cl'><div class='vertical-center'>$22<br>with a<br>50% chance</div></div><div class='cr'><div class='vertical-center'><font style='color:orange'>$14<br>for<br>sure</font></div></div><div class='respDivL'><div class='vertical-center'>(E)</div></div><div class='respDivR'><div class='vertical-center'><font style='color:orange'>(I)</font></div></div></div>","null","$14","$22","1","14","22",""
"html-keyboard-response","133","149512","0.0-5.0-1.43","63d7d7b654e057b287d2bd9b","bdp_rd","Wed Mar 29 2023 23:32:00 GMT-0400 (Eastern Daylight Time)","201700","","null","","","","FIX","","<div class='trialBorder'><div class='vertical-center'><img style='vertical-align:center; align:center' src=img/fixation3.jpg></div></div>","null","","","","","",""
"html-keyboard-response","134","154334","0.0-5.0-2.43","63d7d7b654e057b287d2bd9b","bdp_rd","Wed Mar 29 2023 23:32:00 GMT-0400 (Eastern Daylight Time)","201700","","4820","","","","offer","","<div class='trialBorder'><div class='vertical-center'><img style='vertical-align:center; align:center' src=img/fixation3.jpg></div><div class='cl'><div class='vertical-center'>$66<br>with a<br>50% chance</div></div><div class='cr'><div class='vertical-center'>$33<br>for<br>sure</div></div><div class='respDivL'><div class='vertical-center'>(E)</div></div><div class='respDivR'><div class='vertical-center'>(I)</div></div></div>","I","$33","$66","1","33","66","SURE"
"html-keyboard-response","135","154586","0.0-5.0-3.43","63d7d7b654e057b287d2bd9b","bdp_rd","Wed Mar 29 2023 23:32:00 GMT-0400 (Eastern Daylight Time)","201700","","null","","","","offerFB","","<div class='trialBorder'><div class='vertical-center'><img style='vertical-align:center; align:center' src=img/fixation3.jpg></div><div class='cl'><div class='vertical-center'>$66<br>with a<br>50% chance</div></div><div class='cr'><div class='vertical-center'><font style='color:orange'>$33<br>for<br>sure</font></div></div><div class='respDivL'><div class='vertical-center'>(E)</div></div><div class='respDivR'><div class='vertical-center'><font style='color:orange'>(I)</font></div></div></div>","null","$33","$66","1","33","66",""
"html-keyboard-response","136","155088","0.0-5.0-1.44","63d7d7b654e057b287d2bd9b","bdp_rd","Wed Mar 29 2023 23:32:00 GMT-0400 (Eastern Daylight Time)","201700","","null","","","","FIX","","<div class='trialBorder'><div class='vertical-center'><img style='vertical-align:center; align:center' src=img/fixation3.jpg></div></div>","null","","","","","",""
"html-keyboard-response","137","157059","0.0-5.0-2.44","63d7d7b654e057b287d2bd9b","bdp_rd","Wed Mar 29 2023 23:32:00 GMT-0400 (Eastern Daylight Time)","201700","","1971","","","","offer","","<div class='trialBorder'><div class='vertical-center'><img style='vertical-align:center; align:center' src=img/fixation3.jpg></div><div class='cl'><div class='vertical-center'>$40<br>with a<br>50% chance</div></div><div class='cr'><div class='vertical-center'>$10<br>for<br>sure</div></div><div class='respDivL'><div class='vertical-center'>(E)</div></div><div class='respDivR'><div class='vertical-center'>(I)</div></div></div>","E","$10","$40","1","10","40","RISKY"
"html-keyboard-response","138","157311","0.0-5.0-3.44","63d7d7b654e057b287d2bd9b","bdp_rd","Wed Mar 29 2023 23:32:00 GMT-0400 (Eastern Daylight Time)","201700","","null","","","","offerFB","","<div class='trialBorder'><div class='vertical-center'><img style='vertical-align:center; align:center' src=img/fixation3.jpg></div><div class='cl'><div class='vertical-center'><font style='color:orange'>$40<br>with a<br>50% chance</font></div></div><div class='cr'><div class='vertical-center'>$10<br>for<br>sure</div></div><div class='respDivL'><div class='vertical-center'><font style='color:orange'>(E)</font></div></div><div class='respDivR'><div class='vertical-center'>(I)</div></div></div>","null","$10","$40","1","10","40",""
"html-keyboard-response","139","157813","0.0-5.0-1.45","63d7d7b654e057b287d2bd9b","bdp_rd","Wed Mar 29 2023 23:32:00 GMT-0400 (Eastern Daylight Time)","201700","","null","","","","FIX","","<div class='trialBorder'><div class='vertical-center'><img style='vertical-align:center; align:center' src=img/fixation3.jpg></div></div>","null","","","","","",""
"html-keyboard-response","140","159072","0.0-5.0-2.45","63d7d7b654e057b287d2bd9b","bdp_rd","Wed Mar 29 2023 23:32:00 GMT-0400 (Eastern Daylight Time)","201700","","1258","","","","offer","","<div class='trialBorder'><div class='vertical-center'><img style='vertical-align:center; align:center' src=img/fixation3.jpg></div><div class='cl'><div class='vertical-center'>$29<br>with a<br>50% chance</div></div><div class='cr'><div class='vertical-center'>$14<br>for<br>sure</div></div><div class='respDivL'><div class='vertical-center'>(E)</div></div><div class='respDivR'><div class='vertical-center'>(I)</div></div></div>","I","$14","$29","1","14","29","SURE"
"html-keyboard-response","141","159324","0.0-5.0-3.45","63d7d7b654e057b287d2bd9b","bdp_rd","Wed Mar 29 2023 23:32:00 GMT-0400 (Eastern Daylight Time)","201700","","null","","","","offerFB","","<div class='trialBorder'><div class='vertical-center'><img style='vertical-align:center; align:center' src=img/fixation3.jpg></div><div class='cl'><div class='vertical-center'>$29<br>with a<br>50% chance</div></div><div class='cr'><div class='vertical-center'><font style='color:orange'>$14<br>for<br>sure</font></div></div><div class='respDivL'><div class='vertical-center'>(E)</div></div><div class='respDivR'><div class='vertical-center'><font style='color:orange'>(I)</font></div></div></div>","null","$14","$29","1","14","29",""
"html-keyboard-response","142","159825","0.0-5.0-1.46","63d7d7b654e057b287d2bd9b","bdp_rd","Wed Mar 29 2023 23:32:00 GMT-0400 (Eastern Daylight Time)","201700","","null","","","","FIX","","<div class='trialBorder'><div class='vertical-center'><img style='vertical-align:center; align:center' src=img/fixation3.jpg></div></div>","null","","","","","",""
"html-keyboard-response","143","161095","0.0-5.0-2.46","63d7d7b654e057b287d2bd9b","bdp_rd","Wed Mar 29 2023 23:32:00 GMT-0400 (Eastern Daylight Time)","201700","","1269","","","","offer","","<div class='trialBorder'><div class='vertical-center'><img style='vertical-align:center; align:center' src=img/fixation3.jpg></div><div class='cl'><div class='vertical-center'>$14<br>with a<br>50% chance</div></div><div class='cr'><div class='vertical-center'>$4<br>for<br>sure</div></div><div class='respDivL'><div class='vertical-center'>(E)</div></div><div class='respDivR'><div class='vertical-center'>(I)</div></div></div>","E","$4","$14","1","4","14","RISKY"
"html-keyboard-response","144","161346","0.0-5.0-3.46","63d7d7b654e057b287d2bd9b","bdp_rd","Wed Mar 29 2023 23:32:00 GMT-0400 (Eastern Daylight Time)","201700","","null","","","","offerFB","","<div class='trialBorder'><div class='vertical-center'><img style='vertical-align:center; align:center' src=img/fixation3.jpg></div><div class='cl'><div class='vertical-center'><font style='color:orange'>$14<br>with a<br>50% chance</font></div></div><div class='cr'><div class='vertical-center'>$4<br>for<br>sure</div></div><div class='respDivL'><div class='vertical-center'><font style='color:orange'>(E)</font></div></div><div class='respDivR'><div class='vertical-center'>(I)</div></div></div>","null","$4","$14","1","4","14",""
"html-keyboard-response","145","161847","0.0-5.0-1.47","63d7d7b654e057b287d2bd9b","bdp_rd","Wed Mar 29 2023 23:32:00 GMT-0400 (Eastern Daylight Time)","201700","","null","","","","FIX","","<div class='trialBorder'><div class='vertical-center'><img style='vertical-align:center; align:center' src=img/fixation3.jpg></div></div>","null","","","","","",""
"html-keyboard-response","146","163770","0.0-5.0-2.47","63d7d7b654e057b287d2bd9b","bdp_rd","Wed Mar 29 2023 23:32:00 GMT-0400 (Eastern Daylight Time)","201700","","1922","","","","offer","","<div class='trialBorder'><div class='vertical-center'><img style='vertical-align:center; align:center' src=img/fixation3.jpg></div><div class='cl'><div class='vertical-center'>$31<br>with a<br>50% chance</div></div><div class='cr'><div class='vertical-center'>$15<br>for<br>sure</div></div><div class='respDivL'><div class='vertical-center'>(E)</div></div><div class='respDivR'><div class='vertical-center'>(I)</div></div></div>","E","$15","$31","1","15","31","RISKY"
"html-keyboard-response","147","164022","0.0-5.0-3.47","63d7d7b654e057b287d2bd9b","bdp_rd","Wed Mar 29 2023 23:32:00 GMT-0400 (Eastern Daylight Time)","201700","","null","","","","offerFB","","<div class='trialBorder'><div class='vertical-center'><img style='vertical-align:center; align:center' src=img/fixation3.jpg></div><div class='cl'><div class='vertical-center'><font style='color:orange'>$31<br>with a<br>50% chance</font></div></div><div class='cr'><div class='vertical-center'>$15<br>for<br>sure</div></div><div class='respDivL'><div class='vertical-center'><font style='color:orange'>(E)</font></div></div><div class='respDivR'><div class='vertical-center'>(I)</div></div></div>","null","$15","$31","1","15","31",""
"html-keyboard-response","148","164524","0.0-5.0-1.48","63d7d7b654e057b287d2bd9b","bdp_rd","Wed Mar 29 2023 23:32:00 GMT-0400 (Eastern Daylight Time)","201700","","null","","","","FIX","","<div class='trialBorder'><div class='vertical-center'><img style='vertical-align:center; align:center' src=img/fixation3.jpg></div></div>","null","","","","","",""
"html-keyboard-response","149","167183","0.0-5.0-2.48","63d7d7b654e057b287d2bd9b","bdp_rd","Wed Mar 29 2023 23:32:00 GMT-0400 (Eastern Daylight Time)","201700","","2657","","","","offer","","<div class='trialBorder'><div class='vertical-center'><img style='vertical-align:center; align:center' src=img/fixation3.jpg></div><div class='cl'><div class='vertical-center'>$22<br>for<br>sure</div></div><div class='cr'><div class='vertical-center'>$42<br>with a<br>50% chance</div></div><div class='respDivL'><div class='vertical-center'>(E)</div></div><div class='respDivR'><div class='vertical-center'>(I)</div></div></div>","E","$22","$42","0","22","42","SURE"
"html-keyboard-response","150","167435","0.0-5.0-3.48","63d7d7b654e057b287d2bd9b","bdp_rd","Wed Mar 29 2023 23:32:00 GMT-0400 (Eastern Daylight Time)","201700","","null","","","","offerFB","","<div class='trialBorder'><div class='vertical-center'><img style='vertical-align:center; align:center' src=img/fixation3.jpg></div><div class='cl'><div class='vertical-center'><font style='color:orange'>$22<br>for<br>sure</font></div></div><div class='cr'><div class='vertical-center'>$42<br>with a<br>50% chance</div></div><div class='respDivL'><div class='vertical-center'><font style='color:orange'>(E)</font></div></div><div class='respDivR'><div class='vertical-center'>(I)</div></div></div>","null","$22","$42","0","22","42",""
"html-keyboard-response","151","167937","0.0-5.0-1.49","63d7d7b654e057b287d2bd9b","bdp_rd","Wed Mar 29 2023 23:32:00 GMT-0400 (Eastern Daylight Time)","201700","","null","","","","FIX","","<div class='trialBorder'><div class='vertical-center'><img style='vertical-align:center; align:center' src=img/fixation3.jpg></div></div>","null","","","","","",""
"html-keyboard-response","152","169358","0.0-5.0-2.49","63d7d7b654e057b287d2bd9b","bdp_rd","Wed Mar 29 2023 23:32:00 GMT-0400 (Eastern Daylight Time)","201700","","1421","","","","offer","","<div class='trialBorder'><div class='vertical-center'><img style='vertical-align:center; align:center' src=img/fixation3.jpg></div><div class='cl'><div class='vertical-center'>$12<br>for<br>sure</div></div><div class='cr'><div class='vertical-center'>$27<br>with a<br>50% chance</div></div><div class='respDivL'><div class='vertical-center'>(E)</div></div><div class='respDivR'><div class='vertical-center'>(I)</div></div></div>","E","$12","$27","0","12","27","SURE"
"html-keyboard-response","153","169609","0.0-5.0-3.49","63d7d7b654e057b287d2bd9b","bdp_rd","Wed Mar 29 2023 23:32:00 GMT-0400 (Eastern Daylight Time)","201700","","null","","","","offerFB","","<div class='trialBorder'><div class='vertical-center'><img style='vertical-align:center; align:center' src=img/fixation3.jpg></div><div class='cl'><div class='vertical-center'><font style='color:orange'>$12<br>for<br>sure</font></div></div><div class='cr'><div class='vertical-center'>$27<br>with a<br>50% chance</div></div><div class='respDivL'><div class='vertical-center'><font style='color:orange'>(E)</font></div></div><div class='respDivR'><div class='vertical-center'>(I)</div></div></div>","null","$12","$27","0","12","27",""
"html-keyboard-response","154","170123","0.0-5.0-1.50","63d7d7b654e057b287d2bd9b","bdp_rd","Wed Mar 29 2023 23:32:00 GMT-0400 (Eastern Daylight Time)","201700","","null","","","","FIX","","<div class='trialBorder'><div class='vertical-center'><img style='vertical-align:center; align:center' src=img/fixation3.jpg></div></div>","null","","","","","",""
"html-keyboard-response","155","171547","0.0-5.0-2.50","63d7d7b654e057b287d2bd9b","bdp_rd","Wed Mar 29 2023 23:32:00 GMT-0400 (Eastern Daylight Time)","201700","","1423","","","","offer","","<div class='trialBorder'><div class='vertical-center'><img style='vertical-align:center; align:center' src=img/fixation3.jpg></div><div class='cl'><div class='vertical-center'>$34<br>for<br>sure</div></div><div class='cr'><div class='vertical-center'>$48<br>with a<br>50% chance</div></div><div class='respDivL'><div class='vertical-center'>(E)</div></div><div class='respDivR'><div class='vertical-center'>(I)</div></div></div>","E","$34","$48","0","34","48","SURE"
"html-keyboard-response","156","171799","0.0-5.0-3.50","63d7d7b654e057b287d2bd9b","bdp_rd","Wed Mar 29 2023 23:32:00 GMT-0400 (Eastern Daylight Time)","201700","","null","","","","offerFB","","<div class='trialBorder'><div class='vertical-center'><img style='vertical-align:center; align:center' src=img/fixation3.jpg></div><div class='cl'><div class='vertical-center'><font style='color:orange'>$34<br>for<br>sure</font></div></div><div class='cr'><div class='vertical-center'>$48<br>with a<br>50% chance</div></div><div class='respDivL'><div class='vertical-center'><font style='color:orange'>(E)</font></div></div><div class='respDivR'><div class='vertical-center'>(I)</div></div></div>","null","$34","$48","0","34","48",""
"html-keyboard-response","157","172301","0.0-5.0-1.51","63d7d7b654e057b287d2bd9b","bdp_rd","Wed Mar 29 2023 23:32:00 GMT-0400 (Eastern Daylight Time)","201700","","null","","","","FIX","","<div class='trialBorder'><div class='vertical-center'><img style='vertical-align:center; align:center' src=img/fixation3.jpg></div></div>","null","","","","","",""
"html-keyboard-response","158","173747","0.0-5.0-2.51","63d7d7b654e057b287d2bd9b","bdp_rd","Wed Mar 29 2023 23:32:00 GMT-0400 (Eastern Daylight Time)","201700","","1444","","","","offer","","<div class='trialBorder'><div class='vertical-center'><img style='vertical-align:center; align:center' src=img/fixation3.jpg></div><div class='cl'><div class='vertical-center'>$28<br>with a<br>50% chance</div></div><div class='cr'><div class='vertical-center'>$16<br>for<br>sure</div></div><div class='respDivL'><div class='vertical-center'>(E)</div></div><div class='respDivR'><div class='vertical-center'>(I)</div></div></div>","I","$16","$28","1","16","28","SURE"
"html-keyboard-response","159","173998","0.0-5.0-3.51","63d7d7b654e057b287d2bd9b","bdp_rd","Wed Mar 29 2023 23:32:00 GMT-0400 (Eastern Daylight Time)","201700","","null","","","","offerFB","","<div class='trialBorder'><div class='vertical-center'><img style='vertical-align:center; align:center' src=img/fixation3.jpg></div><div class='cl'><div class='vertical-center'>$28<br>with a<br>50% chance</div></div><div class='cr'><div class='vertical-center'><font style='color:orange'>$16<br>for<br>sure</font></div></div><div class='respDivL'><div class='vertical-center'>(E)</div></div><div class='respDivR'><div class='vertical-center'><font style='color:orange'>(I)</font></div></div></div>","null","$16","$28","1","16","28",""
"html-keyboard-response","160","174500","0.0-5.0-1.52","63d7d7b654e057b287d2bd9b","bdp_rd","Wed Mar 29 2023 23:32:00 GMT-0400 (Eastern Daylight Time)","201700","","null","","","","FIX","","<div class='trialBorder'><div class='vertical-center'><img style='vertical-align:center; align:center' src=img/fixation3.jpg></div></div>","null","","","","","",""
"html-keyboard-response","161","176045","0.0-5.0-2.52","63d7d7b654e057b287d2bd9b","bdp_rd","Wed Mar 29 2023 23:32:00 GMT-0400 (Eastern Daylight Time)","201700","","1544","","","","offer","","<div class='trialBorder'><div class='vertical-center'><img style='vertical-align:center; align:center' src=img/fixation3.jpg></div><div class='cl'><div class='vertical-center'>$37<br>with a<br>50% chance</div></div><div class='cr'><div class='vertical-center'>$20<br>for<br>sure</div></div><div class='respDivL'><div class='vertical-center'>(E)</div></div><div class='respDivR'><div class='vertical-center'>(I)</div></div></div>","I","$20","$37","1","20","37","SURE"
"html-keyboard-response","162","176298","0.0-5.0-3.52","63d7d7b654e057b287d2bd9b","bdp_rd","Wed Mar 29 2023 23:32:00 GMT-0400 (Eastern Daylight Time)","201700","","null","","","","offerFB","","<div class='trialBorder'><div class='vertical-center'><img style='vertical-align:center; align:center' src=img/fixation3.jpg></div><div class='cl'><div class='vertical-center'>$37<br>with a<br>50% chance</div></div><div class='cr'><div class='vertical-center'><font style='color:orange'>$20<br>for<br>sure</font></div></div><div class='respDivL'><div class='vertical-center'>(E)</div></div><div class='respDivR'><div class='vertical-center'><font style='color:orange'>(I)</font></div></div></div>","null","$20","$37","1","20","37",""
"html-keyboard-response","163","176801","0.0-5.0-1.53","63d7d7b654e057b287d2bd9b","bdp_rd","Wed Mar 29 2023 23:32:00 GMT-0400 (Eastern Daylight Time)","201700","","null","","","","FIX","","<div class='trialBorder'><div class='vertical-center'><img style='vertical-align:center; align:center' src=img/fixation3.jpg></div></div>","null","","","","","",""
"html-keyboard-response","164","178058","0.0-5.0-2.53","63d7d7b654e057b287d2bd9b","bdp_rd","Wed Mar 29 2023 23:32:00 GMT-0400 (Eastern Daylight Time)","201700","","1257","","","","offer","","<div class='trialBorder'><div class='vertical-center'><img style='vertical-align:center; align:center' src=img/fixation3.jpg></div><div class='cl'><div class='vertical-center'>$10<br>with a<br>50% chance</div></div><div class='cr'><div class='vertical-center'>$7<br>for<br>sure</div></div><div class='respDivL'><div class='vertical-center'>(E)</div></div><div class='respDivR'><div class='vertical-center'>(I)</div></div></div>","I","$7","$10","1","7","10","SURE"
"html-keyboard-response","165","178311","0.0-5.0-3.53","63d7d7b654e057b287d2bd9b","bdp_rd","Wed Mar 29 2023 23:32:00 GMT-0400 (Eastern Daylight Time)","201700","","null","","","","offerFB","","<div class='trialBorder'><div class='vertical-center'><img style='vertical-align:center; align:center' src=img/fixation3.jpg></div><div class='cl'><div class='vertical-center'>$10<br>with a<br>50% chance</div></div><div class='cr'><div class='vertical-center'><font style='color:orange'>$7<br>for<br>sure</font></div></div><div class='respDivL'><div class='vertical-center'>(E)</div></div><div class='respDivR'><div class='vertical-center'><font style='color:orange'>(I)</font></div></div></div>","null","$7","$10","1","7","10",""
"html-keyboard-response","166","178814","0.0-5.0-1.54","63d7d7b654e057b287d2bd9b","bdp_rd","Wed Mar 29 2023 23:32:00 GMT-0400 (Eastern Daylight Time)","201700","","null","","","","FIX","","<div class='trialBorder'><div class='vertical-center'><img style='vertical-align:center; align:center' src=img/fixation3.jpg></div></div>","null","","","","","",""
"html-keyboard-response","167","180448","0.0-5.0-2.54","63d7d7b654e057b287d2bd9b","bdp_rd","Wed Mar 29 2023 23:32:00 GMT-0400 (Eastern Daylight Time)","201700","","1633","","","","offer","","<div class='trialBorder'><div class='vertical-center'><img style='vertical-align:center; align:center' src=img/fixation3.jpg></div><div class='cl'><div class='vertical-center'>$3<br>for<br>sure</div></div><div class='cr'><div class='vertical-center'>$12<br>with a<br>50% chance</div></div><div class='respDivL'><div class='vertical-center'>(E)</div></div><div class='respDivR'><div class='vertical-center'>(I)</div></div></div>","I","$3","$12","0","3","12","RISKY"
"html-keyboard-response","168","180701","0.0-5.0-3.54","63d7d7b654e057b287d2bd9b","bdp_rd","Wed Mar 29 2023 23:32:00 GMT-0400 (Eastern Daylight Time)","201700","","null","","","","offerFB","","<div class='trialBorder'><div class='vertical-center'><img style='vertical-align:center; align:center' src=img/fixation3.jpg></div><div class='cl'><div class='vertical-center'>$3<br>for<br>sure</div></div><div class='cr'><div class='vertical-center'><font style='color:orange'>$12<br>with a<br>50% chance</font></div></div><div class='respDivL'><div class='vertical-center'>(E)</div></div><div class='respDivR'><div class='vertical-center'><font style='color:orange'>(I)</font></div></div></div>","null","$3","$12","0","3","12",""
"html-keyboard-response","169","181202","0.0-5.0-1.55","63d7d7b654e057b287d2bd9b","bdp_rd","Wed Mar 29 2023 23:32:00 GMT-0400 (Eastern Daylight Time)","201700","","null","","","","FIX","","<div class='trialBorder'><div class='vertical-center'><img style='vertical-align:center; align:center' src=img/fixation3.jpg></div></div>","null","","","","","",""
"html-keyboard-response","170","186236","0.0-5.0-2.55","63d7d7b654e057b287d2bd9b","bdp_rd","Wed Mar 29 2023 23:32:00 GMT-0400 (Eastern Daylight Time)","201700","","5032","","","","offer","","<div class='trialBorder'><div class='vertical-center'><img style='vertical-align:center; align:center' src=img/fixation3.jpg></div><div class='cl'><div class='vertical-center'>$13<br>with a<br>50% chance</div></div><div class='cr'><div class='vertical-center'>$6<br>for<br>sure</div></div><div class='respDivL'><div class='vertical-center'>(E)</div></div><div class='respDivR'><div class='vertical-center'>(I)</div></div></div>","I","$6","$13","1","6","13","SURE"
"html-keyboard-response","171","186490","0.0-5.0-3.55","63d7d7b654e057b287d2bd9b","bdp_rd","Wed Mar 29 2023 23:32:00 GMT-0400 (Eastern Daylight Time)","201700","","null","","","","offerFB","","<div class='trialBorder'><div class='vertical-center'><img style='vertical-align:center; align:center' src=img/fixation3.jpg></div><div class='cl'><div class='vertical-center'>$13<br>with a<br>50% chance</div></div><div class='cr'><div class='vertical-center'><font style='color:orange'>$6<br>for<br>sure</font></div></div><div class='respDivL'><div class='vertical-center'>(E)</div></div><div class='respDivR'><div class='vertical-center'><font style='color:orange'>(I)</font></div></div></div>","null","$6","$13","1","6","13",""
"html-keyboard-response","172","186991","0.0-5.0-1.56","63d7d7b654e057b287d2bd9b","bdp_rd","Wed Mar 29 2023 23:32:00 GMT-0400 (Eastern Daylight Time)","201700","","null","","","","FIX","","<div class='trialBorder'><div class='vertical-center'><img style='vertical-align:center; align:center' src=img/fixation3.jpg></div></div>","null","","","","","",""
"html-keyboard-response","173","191749","0.0-5.0-2.56","63d7d7b654e057b287d2bd9b","bdp_rd","Wed Mar 29 2023 23:32:00 GMT-0400 (Eastern Daylight Time)","201700","","4757","","","","offer","","<div class='trialBorder'><div class='vertical-center'><img style='vertical-align:center; align:center' src=img/fixation3.jpg></div><div class='cl'><div class='vertical-center'>$9<br>for<br>sure</div></div><div class='cr'><div class='vertical-center'>$18<br>with a<br>50% chance</div></div><div class='respDivL'><div class='vertical-center'>(E)</div></div><div class='respDivR'><div class='vertical-center'>(I)</div></div></div>","I","$9","$18","0","9","18","RISKY"
