"trial_type","trial_index","time_elapsed","internal_node_id","subject_id","task","startTime","totalTime","view_history","rt","event","trial","time","trialtype","success","stimulus","key_press","sureOffer","riskyOffer","riskyLeft","sureAmt","riskyAmt","chosen"
"pavlovia","0","1","0.0-0.0","63e5c56c4ddeee504b9fa17f","bdp_rd","Sun Apr 02 2023 05:28:14 GMT-0700 (Pacific Daylight Time)","271098","","","","","","","","","","","","","","",""
"instructions","1","9612","0.0-1.0","63e5c56c4ddeee504b9fa17f","bdp_rd","Sun Apr 02 2023 05:28:14 GMT-0700 (Pacific Daylight Time)","271098","[{""page_index"":0,""viewing_time"":9611}]","9611","","","","","","","","","","","","",""
"","","","","63e5c56c4ddeee504b9fa17f","bdp_rd","Sun Apr 02 2023 05:28:14 GMT-0700 (Pacific Daylight Time)","271098","","","fullscreenenter","2","86015","fullscreenenter","","","","","","","","",""
"fullscreen","2","87010","0.0-2.0","63e5c56c4ddeee504b9fa17f","bdp_rd","Sun Apr 02 2023 05:28:14 GMT-0700 (Pacific Daylight Time)","271098","","","","","","","true","","","","","","","",""
"instructions","3","163695","0.0-4.0","63e5c56c4ddeee504b9fa17f","bdp_rd","Sun Apr 02 2023 05:28:14 GMT-0700 (Pacific Daylight Time)","271098","[{""page_index"":0,""viewing_time"":71090},{""page_index"":1,""viewing_time"":3442},{""page_index"":2,""viewing_time"":2152}]","76684","","","","","","","","","","","","",""
"html-keyboard-response","4","164197","0.0-5.0-1.0","63e5c56c4ddeee504b9fa17f","bdp_rd","Sun Apr 02 2023 05:28:14 GMT-0700 (Pacific Daylight Time)","271098","","null","","","","FIX","","<div class='trialBorder'><div class='vertical-center'><img style='vertical-align:center; align:center' src=img/fixation3.jpg></div></div>","null","","","","","",""
"html-keyboard-response","5","167614","0.0-5.0-2.0","63e5c56c4ddeee504b9fa17f","bdp_rd","Sun Apr 02 2023 05:28:14 GMT-0700 (Pacific Daylight Time)","271098","","3417","","","","offer","","<div class='trialBorder'><div class='vertical-center'><img style='vertical-align:center; align:center' src=img/fixation3.jpg></div><div class='cl'><div class='vertical-center'>$37<br>with a<br>50% chance</div></div><div class='cr'><div class='vertical-center'>$20<br>for<br>sure</div></div><div class='respDivL'><div class='vertical-center'>(E)</div></div><div class='respDivR'><div class='vertical-center'>(I)</div></div></div>","E","$20","$37","1","20","37","RISKY"
"html-keyboard-response","6","167866","0.0-5.0-3.0","63e5c56c4ddeee504b9fa17f","bdp_rd","Sun Apr 02 2023 05:28:14 GMT-0700 (Pacific Daylight Time)","271098","","null","","","","offerFB","","<div class='trialBorder'><div class='vertical-center'><img style='vertical-align:center; align:center' src=img/fixation3.jpg></div><div class='cl'><div class='vertical-center'><font style='color:orange'>$37<br>with a<br>50% chance</font></div></div><div class='cr'><div class='vertical-center'>$20<br>for<br>sure</div></div><div class='respDivL'><div class='vertical-center'><font style='color:orange'>(E)</font></div></div><div class='respDivR'><div class='vertical-center'>(I)</div></div></div>","null","$20","$37","1","20","37",""
"html-keyboard-response","7","168368","0.0-5.0-1.1","63e5c56c4ddeee504b9fa17f","bdp_rd","Sun Apr 02 2023 05:28:14 GMT-0700 (Pacific Daylight Time)","271098","","null","","","","FIX","","<div class='trialBorder'><div class='vertical-center'><img style='vertical-align:center; align:center' src=img/fixation3.jpg></div></div>","null","","","","","",""
"html-keyboard-response","8","169167","0.0-5.0-2.1","63e5c56c4ddeee504b9fa17f","bdp_rd","Sun Apr 02 2023 05:28:14 GMT-0700 (Pacific Daylight Time)","271098","","799","","","","offer","","<div class='trialBorder'><div class='vertical-center'><img style='vertical-align:center; align:center' src=img/fixation3.jpg></div><div class='cl'><div class='vertical-center'>$2<br>for<br>sure</div></div><div class='cr'><div class='vertical-center'>$64<br>with a<br>50% chance</div></div><div class='respDivL'><div class='vertical-center'>(E)</div></div><div class='respDivR'><div class='vertical-center'>(I)</div></div></div>","I","$2","$64","0","2","64","RISKY"
"html-keyboard-response","9","169418","0.0-5.0-3.1","63e5c56c4ddeee504b9fa17f","bdp_rd","Sun Apr 02 2023 05:28:14 GMT-0700 (Pacific Daylight Time)","271098","","null","","","","offerFB","","<div class='trialBorder'><div class='vertical-center'><img style='vertical-align:center; align:center' src=img/fixation3.jpg></div><div class='cl'><div class='vertical-center'>$2<br>for<br>sure</div></div><div class='cr'><div class='vertical-center'><font style='color:orange'>$64<br>with a<br>50% chance</font></div></div><div class='respDivL'><div class='vertical-center'>(E)</div></div><div class='respDivR'><div class='vertical-center'><font style='color:orange'>(I)</font></div></div></div>","null","$2","$64","0","2","64",""
"html-keyboard-response","10","169919","0.0-5.0-1.2","63e5c56c4ddeee504b9fa17f","bdp_rd","Sun Apr 02 2023 05:28:14 GMT-0700 (Pacific Daylight Time)","271098","","null","","","","FIX","","<div class='trialBorder'><div class='vertical-center'><img style='vertical-align:center; align:center' src=img/fixation3.jpg></div></div>","null","","","","","",""
"html-keyboard-response","11","171804","0.0-5.0-2.2","63e5c56c4ddeee504b9fa17f","bdp_rd","Sun Apr 02 2023 05:28:14 GMT-0700 (Pacific Daylight Time)","271098","","1885","","","","offer","","<div class='trialBorder'><div class='vertical-center'><img style='vertical-align:center; align:center' src=img/fixation3.jpg></div><div class='cl'><div class='vertical-center'>$18<br>for<br>sure</div></div><div class='cr'><div class='vertical-center'>$39<br>with a<br>50% chance</div></div><div class='respDivL'><div class='vertical-center'>(E)</div></div><div class='respDivR'><div class='vertical-center'>(I)</div></div></div>","I","$18","$39","0","18","39","RISKY"
"html-keyboard-response","12","172055","0.0-5.0-3.2","63e5c56c4ddeee504b9fa17f","bdp_rd","Sun Apr 02 2023 05:28:14 GMT-0700 (Pacific Daylight Time)","271098","","null","","","","offerFB","","<div class='trialBorder'><div class='vertical-center'><img style='vertical-align:center; align:center' src=img/fixation3.jpg></div><div class='cl'><div class='vertical-center'>$18<br>for<br>sure</div></div><div class='cr'><div class='vertical-center'><font style='color:orange'>$39<br>with a<br>50% chance</font></div></div><div class='respDivL'><div class='vertical-center'>(E)</div></div><div class='respDivR'><div class='vertical-center'><font style='color:orange'>(I)</font></div></div></div>","null","$18","$39","0","18","39",""
"html-keyboard-response","13","172557","0.0-5.0-1.3","63e5c56c4ddeee504b9fa17f","bdp_rd","Sun Apr 02 2023 05:28:14 GMT-0700 (Pacific Daylight Time)","271098","","null","","","","FIX","","<div class='trialBorder'><div class='vertical-center'><img style='vertical-align:center; align:center' src=img/fixation3.jpg></div></div>","null","","","","","",""
"html-keyboard-response","14","173346","0.0-5.0-2.3","63e5c56c4ddeee504b9fa17f","bdp_rd","Sun Apr 02 2023 05:28:14 GMT-0700 (Pacific Daylight Time)","271098","","789","","","","offer","","<div class='trialBorder'><div class='vertical-center'><img style='vertical-align:center; align:center' src=img/fixation3.jpg></div><div class='cl'><div class='vertical-center'>$89<br>with a<br>50% chance</div></div><div class='cr'><div class='vertical-center'>$28<br>for<br>sure</div></div><div class='respDivL'><div class='vertical-center'>(E)</div></div><div class='respDivR'><div class='vertical-center'>(I)</div></div></div>","E","$28","$89","1","28","89","RISKY"
"html-keyboard-response","15","173597","0.0-5.0-3.3","63e5c56c4ddeee504b9fa17f","bdp_rd","Sun Apr 02 2023 05:28:14 GMT-0700 (Pacific Daylight Time)","271098","","null","","","","offerFB","","<div class='trialBorder'><div class='vertical-center'><img style='vertical-align:center; align:center' src=img/fixation3.jpg></div><div class='cl'><div class='vertical-center'><font style='color:orange'>$89<br>with a<br>50% chance</font></div></div><div class='cr'><div class='vertical-center'>$28<br>for<br>sure</div></div><div class='respDivL'><div class='vertical-center'><font style='color:orange'>(E)</font></div></div><div class='respDivR'><div class='vertical-center'>(I)</div></div></div>","null","$28","$89","1","28","89",""
"html-keyboard-response","16","174098","0.0-5.0-1.4","63e5c56c4ddeee504b9fa17f","bdp_rd","Sun Apr 02 2023 05:28:14 GMT-0700 (Pacific Daylight Time)","271098","","null","","","","FIX","","<div class='trialBorder'><div class='vertical-center'><img style='vertical-align:center; align:center' src=img/fixation3.jpg></div></div>","null","","","","","",""
"html-keyboard-response","17","175128","0.0-5.0-2.4","63e5c56c4ddeee504b9fa17f","bdp_rd","Sun Apr 02 2023 05:28:14 GMT-0700 (Pacific Daylight Time)","271098","","1029","","","","offer","","<div class='trialBorder'><div class='vertical-center'><img style='vertical-align:center; align:center' src=img/fixation3.jpg></div><div class='cl'><div class='vertical-center'>$12<br>for<br>sure</div></div><div class='cr'><div class='vertical-center'>$27<br>with a<br>50% chance</div></div><div class='respDivL'><div class='vertical-center'>(E)</div></div><div class='respDivR'><div class='vertical-center'>(I)</div></div></div>","I","$12","$27","0","12","27","RISKY"
"html-keyboard-response","18","175380","0.0-5.0-3.4","63e5c56c4ddeee504b9fa17f","bdp_rd","Sun Apr 02 2023 05:28:14 GMT-0700 (Pacific Daylight Time)","271098","","null","","","","offerFB","","<div class='trialBorder'><div class='vertical-center'><img style='vertical-align:center; align:center' src=img/fixation3.jpg></div><div class='cl'><div class='vertical-center'>$12<br>for<br>sure</div></div><div class='cr'><div class='vertical-center'><font style='color:orange'>$27<br>with a<br>50% chance</font></div></div><div class='respDivL'><div class='vertical-center'>(E)</div></div><div class='respDivR'><div class='vertical-center'><font style='color:orange'>(I)</font></div></div></div>","null","$12","$27","0","12","27",""
"html-keyboard-response","19","175882","0.0-5.0-1.5","63e5c56c4ddeee504b9fa17f","bdp_rd","Sun Apr 02 2023 05:28:14 GMT-0700 (Pacific Daylight Time)","271098","","null","","","","FIX","","<div class='trialBorder'><div class='vertical-center'><img style='vertical-align:center; align:center' src=img/fixation3.jpg></div></div>","null","","","","","",""
"html-keyboard-response","20","177402","0.0-5.0-2.5","63e5c56c4ddeee504b9fa17f","bdp_rd","Sun Apr 02 2023 05:28:14 GMT-0700 (Pacific Daylight Time)","271098","","1520","","","","offer","","<div class='trialBorder'><div class='vertical-center'><img style='vertical-align:center; align:center' src=img/fixation3.jpg></div><div class='cl'><div class='vertical-center'>$42<br>for<br>sure</div></div><div class='cr'><div class='vertical-center'>$73<br>with a<br>50% chance</div></div><div class='respDivL'><div class='vertical-center'>(E)</div></div><div class='respDivR'><div class='vertical-center'>(I)</div></div></div>","I","$42","$73","0","42","73","RISKY"
"html-keyboard-response","21","177653","0.0-5.0-3.5","63e5c56c4ddeee504b9fa17f","bdp_rd","Sun Apr 02 2023 05:28:14 GMT-0700 (Pacific Daylight Time)","271098","","null","","","","offerFB","","<div class='trialBorder'><div class='vertical-center'><img style='vertical-align:center; align:center' src=img/fixation3.jpg></div><div class='cl'><div class='vertical-center'>$42<br>for<br>sure</div></div><div class='cr'><div class='vertical-center'><font style='color:orange'>$73<br>with a<br>50% chance</font></div></div><div class='respDivL'><div class='vertical-center'>(E)</div></div><div class='respDivR'><div class='vertical-center'><font style='color:orange'>(I)</font></div></div></div>","null","$42","$73","0","42","73",""
"html-keyboard-response","22","178155","0.0-5.0-1.6","63e5c56c4ddeee504b9fa17f","bdp_rd","Sun Apr 02 2023 05:28:14 GMT-0700 (Pacific Daylight Time)","271098","","null","","","","FIX","","<div class='trialBorder'><div class='vertical-center'><img style='vertical-align:center; align:center' src=img/fixation3.jpg></div></div>","null","","","","","",""
"html-keyboard-response","23","178841","0.0-5.0-2.6","63e5c56c4ddeee504b9fa17f","bdp_rd","Sun Apr 02 2023 05:28:14 GMT-0700 (Pacific Daylight Time)","271098","","685","","","","offer","","<div class='trialBorder'><div class='vertical-center'><img style='vertical-align:center; align:center' src=img/fixation3.jpg></div><div class='cl'><div class='vertical-center'>$1<br>for<br>sure</div></div><div class='cr'><div class='vertical-center'>$30<br>with a<br>50% chance</div></div><div class='respDivL'><div class='vertical-center'>(E)</div></div><div class='respDivR'><div class='vertical-center'>(I)</div></div></div>","I","$1","$30","0","1","30","RISKY"
"html-keyboard-response","24","179092","0.0-5.0-3.6","63e5c56c4ddeee504b9fa17f","bdp_rd","Sun Apr 02 2023 05:28:14 GMT-0700 (Pacific Daylight Time)","271098","","null","","","","offerFB","","<div class='trialBorder'><div class='vertical-center'><img style='vertical-align:center; align:center' src=img/fixation3.jpg></div><div class='cl'><div class='vertical-center'>$1<br>for<br>sure</div></div><div class='cr'><div class='vertical-center'><font style='color:orange'>$30<br>with a<br>50% chance</font></div></div><div class='respDivL'><div class='vertical-center'>(E)</div></div><div class='respDivR'><div class='vertical-center'><font style='color:orange'>(I)</font></div></div></div>","null","$1","$30","0","1","30",""
"html-keyboard-response","25","179594","0.0-5.0-1.7","63e5c56c4ddeee504b9fa17f","bdp_rd","Sun Apr 02 2023 05:28:14 GMT-0700 (Pacific Daylight Time)","271098","","null","","","","FIX","","<div class='trialBorder'><div class='vertical-center'><img style='vertical-align:center; align:center' src=img/fixation3.jpg></div></div>","null","","","","","",""
"html-keyboard-response","26","180235","0.0-5.0-2.7","63e5c56c4ddeee504b9fa17f","bdp_rd","Sun Apr 02 2023 05:28:14 GMT-0700 (Pacific Daylight Time)","271098","","641","","","","offer","","<div class='trialBorder'><div class='vertical-center'><img style='vertical-align:center; align:center' src=img/fixation3.jpg></div><div class='cl'><div class='vertical-center'>$53<br>for<br>sure</div></div><div class='cr'><div class='vertical-center'>$98<br>with a<br>50% chance</div></div><div class='respDivL'><div class='vertical-center'>(E)</div></div><div class='respDivR'><div class='vertical-center'>(I)</div></div></div>","I","$53","$98","0","53","98","RISKY"
"html-keyboard-response","27","180486","0.0-5.0-3.7","63e5c56c4ddeee504b9fa17f","bdp_rd","Sun Apr 02 2023 05:28:14 GMT-0700 (Pacific Daylight Time)","271098","","null","","","","offerFB","","<div class='trialBorder'><div class='vertical-center'><img style='vertical-align:center; align:center' src=img/fixation3.jpg></div><div class='cl'><div class='vertical-center'>$53<br>for<br>sure</div></div><div class='cr'><div class='vertical-center'><font style='color:orange'>$98<br>with a<br>50% chance</font></div></div><div class='respDivL'><div class='vertical-center'>(E)</div></div><div class='respDivR'><div class='vertical-center'><font style='color:orange'>(I)</font></div></div></div>","null","$53","$98","0","53","98",""
"html-keyboard-response","28","180988","0.0-5.0-1.8","63e5c56c4ddeee504b9fa17f","bdp_rd","Sun Apr 02 2023 05:28:14 GMT-0700 (Pacific Daylight Time)","271098","","null","","","","FIX","","<div class='trialBorder'><div class='vertical-center'><img style='vertical-align:center; align:center' src=img/fixation3.jpg></div></div>","null","","","","","",""
"html-keyboard-response","29","181967","0.0-5.0-2.8","63e5c56c4ddeee504b9fa17f","bdp_rd","Sun Apr 02 2023 05:28:14 GMT-0700 (Pacific Daylight Time)","271098","","979","","","","offer","","<div class='trialBorder'><div class='vertical-center'><img style='vertical-align:center; align:center' src=img/fixation3.jpg></div><div class='cl'><div class='vertical-center'>$32<br>with a<br>50% chance</div></div><div class='cr'><div class='vertical-center'>$9<br>for<br>sure</div></div><div class='respDivL'><div class='vertical-center'>(E)</div></div><div class='respDivR'><div class='vertical-center'>(I)</div></div></div>","E","$9","$32","1","9","32","RISKY"
"html-keyboard-response","30","182218","0.0-5.0-3.8","63e5c56c4ddeee504b9fa17f","bdp_rd","Sun Apr 02 2023 05:28:14 GMT-0700 (Pacific Daylight Time)","271098","","null","","","","offerFB","","<div class='trialBorder'><div class='vertical-center'><img style='vertical-align:center; align:center' src=img/fixation3.jpg></div><div class='cl'><div class='vertical-center'><font style='color:orange'>$32<br>with a<br>50% chance</font></div></div><div class='cr'><div class='vertical-center'>$9<br>for<br>sure</div></div><div class='respDivL'><div class='vertical-center'><font style='color:orange'>(E)</font></div></div><div class='respDivR'><div class='vertical-center'>(I)</div></div></div>","null","$9","$32","1","9","32",""
"html-keyboard-response","31","182720","0.0-5.0-1.9","63e5c56c4ddeee504b9fa17f","bdp_rd","Sun Apr 02 2023 05:28:14 GMT-0700 (Pacific Daylight Time)","271098","","null","","","","FIX","","<div class='trialBorder'><div class='vertical-center'><img style='vertical-align:center; align:center' src=img/fixation3.jpg></div></div>","null","","","","","",""
"html-keyboard-response","32","183415","0.0-5.0-2.9","63e5c56c4ddeee504b9fa17f","bdp_rd","Sun Apr 02 2023 05:28:14 GMT-0700 (Pacific Daylight Time)","271098","","695","","","","offer","","<div class='trialBorder'><div class='vertical-center'><img style='vertical-align:center; align:center' src=img/fixation3.jpg></div><div class='cl'><div class='vertical-center'>$23<br>with a<br>50% chance</div></div><div class='cr'><div class='vertical-center'>$8<br>for<br>sure</div></div><div class='respDivL'><div class='vertical-center'>(E)</div></div><div class='respDivR'><div class='vertical-center'>(I)</div></div></div>","E","$8","$23","1","8","23","RISKY"
"html-keyboard-response","33","183667","0.0-5.0-3.9","63e5c56c4ddeee504b9fa17f","bdp_rd","Sun Apr 02 2023 05:28:14 GMT-0700 (Pacific Daylight Time)","271098","","null","","","","offerFB","","<div class='trialBorder'><div class='vertical-center'><img style='vertical-align:center; align:center' src=img/fixation3.jpg></div><div class='cl'><div class='vertical-center'><font style='color:orange'>$23<br>with a<br>50% chance</font></div></div><div class='cr'><div class='vertical-center'>$8<br>for<br>sure</div></div><div class='respDivL'><div class='vertical-center'><font style='color:orange'>(E)</font></div></div><div class='respDivR'><div class='vertical-center'>(I)</div></div></div>","null","$8","$23","1","8","23",""
"html-keyboard-response","34","184168","0.0-5.0-1.10","63e5c56c4ddeee504b9fa17f","bdp_rd","Sun Apr 02 2023 05:28:14 GMT-0700 (Pacific Daylight Time)","271098","","null","","","","FIX","","<div class='trialBorder'><div class='vertical-center'><img style='vertical-align:center; align:center' src=img/fixation3.jpg></div></div>","null","","","","","",""
"html-keyboard-response","35","185605","0.0-5.0-2.10","63e5c56c4ddeee504b9fa17f","bdp_rd","Sun Apr 02 2023 05:28:14 GMT-0700 (Pacific Daylight Time)","271098","","1437","","","","offer","","<div class='trialBorder'><div class='vertical-center'><img style='vertical-align:center; align:center' src=img/fixation3.jpg></div><div class='cl'><div class='vertical-center'>$15<br>with a<br>50% chance</div></div><div class='cr'><div class='vertical-center'>$6<br>for<br>sure</div></div><div class='respDivL'><div class='vertical-center'>(E)</div></div><div class='respDivR'><div class='vertical-center'>(I)</div></div></div>","E","$6","$15","1","6","15","RISKY"
"html-keyboard-response","36","185856","0.0-5.0-3.10","63e5c56c4ddeee504b9fa17f","bdp_rd","Sun Apr 02 2023 05:28:14 GMT-0700 (Pacific Daylight Time)","271098","","null","","","","offerFB","","<div class='trialBorder'><div class='vertical-center'><img style='vertical-align:center; align:center' src=img/fixation3.jpg></div><div class='cl'><div class='vertical-center'><font style='color:orange'>$15<br>with a<br>50% chance</font></div></div><div class='cr'><div class='vertical-center'>$6<br>for<br>sure</div></div><div class='respDivL'><div class='vertical-center'><font style='color:orange'>(E)</font></div></div><div class='respDivR'><div class='vertical-center'>(I)</div></div></div>","null","$6","$15","1","6","15",""
"html-keyboard-response","37","186357","0.0-5.0-1.11","63e5c56c4ddeee504b9fa17f","bdp_rd","Sun Apr 02 2023 05:28:14 GMT-0700 (Pacific Daylight Time)","271098","","null","","","","FIX","","<div class='trialBorder'><div class='vertical-center'><img style='vertical-align:center; align:center' src=img/fixation3.jpg></div></div>","null","","","","","",""
"html-keyboard-response","38","187376","0.0-5.0-2.11","63e5c56c4ddeee504b9fa17f","bdp_rd","Sun Apr 02 2023 05:28:14 GMT-0700 (Pacific Daylight Time)","271098","","1019","","","","offer","","<div class='trialBorder'><div class='vertical-center'><img style='vertical-align:center; align:center' src=img/fixation3.jpg></div><div class='cl'><div class='vertical-center'>$11<br>for<br>sure</div></div><div class='cr'><div class='vertical-center'>$26<br>with a<br>50% chance</div></div><div class='respDivL'><div class='vertical-center'>(E)</div></div><div class='respDivR'><div class='vertical-center'>(I)</div></div></div>","I","$11","$26","0","11","26","RISKY"
"html-keyboard-response","39","187627","0.0-5.0-3.11","63e5c56c4ddeee504b9fa17f","bdp_rd","Sun Apr 02 2023 05:28:14 GMT-0700 (Pacific Daylight Time)","271098","","null","","","","offerFB","","<div class='trialBorder'><div class='vertical-center'><img style='vertical-align:center; align:center' src=img/fixation3.jpg></div><div class='cl'><div class='vertical-center'>$11<br>for<br>sure</div></div><div class='cr'><div class='vertical-center'><font style='color:orange'>$26<br>with a<br>50% chance</font></div></div><div class='respDivL'><div class='vertical-center'>(E)</div></div><div class='respDivR'><div class='vertical-center'><font style='color:orange'>(I)</font></div></div></div>","null","$11","$26","0","11","26",""
"html-keyboard-response","40","188128","0.0-5.0-1.12","63e5c56c4ddeee504b9fa17f","bdp_rd","Sun Apr 02 2023 05:28:14 GMT-0700 (Pacific Daylight Time)","271098","","null","","","","FIX","","<div class='trialBorder'><div class='vertical-center'><img style='vertical-align:center; align:center' src=img/fixation3.jpg></div></div>","null","","","","","",""
"html-keyboard-response","41","189140","0.0-5.0-2.12","63e5c56c4ddeee504b9fa17f","bdp_rd","Sun Apr 02 2023 05:28:14 GMT-0700 (Pacific Daylight Time)","271098","","1012","","","","offer","","<div class='trialBorder'><div class='vertical-center'><img style='vertical-align:center; align:center' src=img/fixation3.jpg></div><div class='cl'><div class='vertical-center'>$22<br>for<br>sure</div></div><div class='cr'><div class='vertical-center'>$59<br>with a<br>50% chance</div></div><div class='respDivL'><div class='vertical-center'>(E)</div></div><div class='respDivR'><div class='vertical-center'>(I)</div></div></div>","I","$22","$59","0","22","59","RISKY"
"html-keyboard-response","42","189391","0.0-5.0-3.12","63e5c56c4ddeee504b9fa17f","bdp_rd","Sun Apr 02 2023 05:28:14 GMT-0700 (Pacific Daylight Time)","271098","","null","","","","offerFB","","<div class='trialBorder'><div class='vertical-center'><img style='vertical-align:center; align:center' src=img/fixation3.jpg></div><div class='cl'><div class='vertical-center'>$22<br>for<br>sure</div></div><div class='cr'><div class='vertical-center'><font style='color:orange'>$59<br>with a<br>50% chance</font></div></div><div class='respDivL'><div class='vertical-center'>(E)</div></div><div class='respDivR'><div class='vertical-center'><font style='color:orange'>(I)</font></div></div></div>","null","$22","$59","0","22","59",""
"html-keyboard-response","43","189892","0.0-5.0-1.13","63e5c56c4ddeee504b9fa17f","bdp_rd","Sun Apr 02 2023 05:28:14 GMT-0700 (Pacific Daylight Time)","271098","","null","","","","FIX","","<div class='trialBorder'><div class='vertical-center'><img style='vertical-align:center; align:center' src=img/fixation3.jpg></div></div>","null","","","","","",""
"html-keyboard-response","44","190504","0.0-5.0-2.13","63e5c56c4ddeee504b9fa17f","bdp_rd","Sun Apr 02 2023 05:28:14 GMT-0700 (Pacific Daylight Time)","271098","","611","","","","offer","","<div class='trialBorder'><div class='vertical-center'><img style='vertical-align:center; align:center' src=img/fixation3.jpg></div><div class='cl'><div class='vertical-center'>$19<br>for<br>sure</div></div><div class='cr'><div class='vertical-center'>$51<br>with a<br>50% chance</div></div><div class='respDivL'><div class='vertical-center'>(E)</div></div><div class='respDivR'><div class='vertical-center'>(I)</div></div></div>","I","$19","$51","0","19","51","RISKY"
"html-keyboard-response","45","190755","0.0-5.0-3.13","63e5c56c4ddeee504b9fa17f","bdp_rd","Sun Apr 02 2023 05:28:14 GMT-0700 (Pacific Daylight Time)","271098","","null","","","","offerFB","","<div class='trialBorder'><div class='vertical-center'><img style='vertical-align:center; align:center' src=img/fixation3.jpg></div><div class='cl'><div class='vertical-center'>$19<br>for<br>sure</div></div><div class='cr'><div class='vertical-center'><font style='color:orange'>$51<br>with a<br>50% chance</font></div></div><div class='respDivL'><div class='vertical-center'>(E)</div></div><div class='respDivR'><div class='vertical-center'><font style='color:orange'>(I)</font></div></div></div>","null","$19","$51","0","19","51",""
"html-keyboard-response","46","191256","0.0-5.0-1.14","63e5c56c4ddeee504b9fa17f","bdp_rd","Sun Apr 02 2023 05:28:14 GMT-0700 (Pacific Daylight Time)","271098","","null","","","","FIX","","<div class='trialBorder'><div class='vertical-center'><img style='vertical-align:center; align:center' src=img/fixation3.jpg></div></div>","null","","","","","",""
"html-keyboard-response","47","191629","0.0-5.0-2.14","63e5c56c4ddeee504b9fa17f","bdp_rd","Sun Apr 02 2023 05:28:14 GMT-0700 (Pacific Daylight Time)","271098","","372","","","","offer","","<div class='trialBorder'><div class='vertical-center'><img style='vertical-align:center; align:center' src=img/fixation3.jpg></div><div class='cl'><div class='vertical-center'>$5<br>for<br>sure</div></div><div class='cr'><div class='vertical-center'>$16<br>with a<br>50% chance</div></div><div class='respDivL'><div class='vertical-center'>(E)</div></div><div class='respDivR'><div class='vertical-center'>(I)</div></div></div>","I","$5","$16","0","5","16","RISKY"
"html-keyboard-response","48","191881","0.0-5.0-3.14","63e5c56c4ddeee504b9fa17f","bdp_rd","Sun Apr 02 2023 05:28:14 GMT-0700 (Pacific Daylight Time)","271098","","null","","","","offerFB","","<div class='trialBorder'><div class='vertical-center'><img style='vertical-align:center; align:center' src=img/fixation3.jpg></div><div class='cl'><div class='vertical-center'>$5<br>for<br>sure</div></div><div class='cr'><div class='vertical-center'><font style='color:orange'>$16<br>with a<br>50% chance</font></div></div><div class='respDivL'><div class='vertical-center'>(E)</div></div><div class='respDivR'><div class='vertical-center'><font style='color:orange'>(I)</font></div></div></div>","null","$5","$16","0","5","16",""
"html-keyboard-response","49","192382","0.0-5.0-1.15","63e5c56c4ddeee504b9fa17f","bdp_rd","Sun Apr 02 2023 05:28:14 GMT-0700 (Pacific Daylight Time)","271098","","null","","","","FIX","","<div class='trialBorder'><div class='vertical-center'><img style='vertical-align:center; align:center' src=img/fixation3.jpg></div></div>","null","","","","","",""
"html-keyboard-response","50","193031","0.0-5.0-2.15","63e5c56c4ddeee504b9fa17f","bdp_rd","Sun Apr 02 2023 05:28:14 GMT-0700 (Pacific Daylight Time)","271098","","649","","","","offer","","<div class='trialBorder'><div class='vertical-center'><img style='vertical-align:center; align:center' src=img/fixation3.jpg></div><div class='cl'><div class='vertical-center'>$46<br>for<br>sure</div></div><div class='cr'><div class='vertical-center'>$65<br>with a<br>50% chance</div></div><div class='respDivL'><div class='vertical-center'>(E)</div></div><div class='respDivR'><div class='vertical-center'>(I)</div></div></div>","I","$46","$65","0","46","65","RISKY"
"html-keyboard-response","51","193283","0.0-5.0-3.15","63e5c56c4ddeee504b9fa17f","bdp_rd","Sun Apr 02 2023 05:28:14 GMT-0700 (Pacific Daylight Time)","271098","","null","","","","offerFB","","<div class='trialBorder'><div class='vertical-center'><img style='vertical-align:center; align:center' src=img/fixation3.jpg></div><div class='cl'><div class='vertical-center'>$46<br>for<br>sure</div></div><div class='cr'><div class='vertical-center'><font style='color:orange'>$65<br>with a<br>50% chance</font></div></div><div class='respDivL'><div class='vertical-center'>(E)</div></div><div class='respDivR'><div class='vertical-center'><font style='color:orange'>(I)</font></div></div></div>","null","$46","$65","0","46","65",""
"html-keyboard-response","52","193784","0.0-5.0-1.16","63e5c56c4ddeee504b9fa17f","bdp_rd","Sun Apr 02 2023 05:28:14 GMT-0700 (Pacific Daylight Time)","271098","","null","","","","FIX","","<div class='trialBorder'><div class='vertical-center'><img style='vertical-align:center; align:center' src=img/fixation3.jpg></div></div>","null","","","","","",""
"html-keyboard-response","53","194379","0.0-5.0-2.16","63e5c56c4ddeee504b9fa17f","bdp_rd","Sun Apr 02 2023 05:28:14 GMT-0700 (Pacific Daylight Time)","271098","","595","","","","offer","","<div class='trialBorder'><div class='vertical-center'><img style='vertical-align:center; align:center' src=img/fixation3.jpg></div><div class='cl'><div class='vertical-center'>$17<br>for<br>sure</div></div><div class='cr'><div class='vertical-center'>$43<br>with a<br>50% chance</div></div><div class='respDivL'><div class='vertical-center'>(E)</div></div><div class='respDivR'><div class='vertical-center'>(I)</div></div></div>","I","$17","$43","0","17","43","RISKY"
"html-keyboard-response","54","194630","0.0-5.0-3.16","63e5c56c4ddeee504b9fa17f","bdp_rd","Sun Apr 02 2023 05:28:14 GMT-0700 (Pacific Daylight Time)","271098","","null","","","","offerFB","","<div class='trialBorder'><div class='vertical-center'><img style='vertical-align:center; align:center' src=img/fixation3.jpg></div><div class='cl'><div class='vertical-center'>$17<br>for<br>sure</div></div><div class='cr'><div class='vertical-center'><font style='color:orange'>$43<br>with a<br>50% chance</font></div></div><div class='respDivL'><div class='vertical-center'>(E)</div></div><div class='respDivR'><div class='vertical-center'><font style='color:orange'>(I)</font></div></div></div>","null","$17","$43","0","17","43",""
"html-keyboard-response","55","195131","0.0-5.0-1.17","63e5c56c4ddeee504b9fa17f","bdp_rd","Sun Apr 02 2023 05:28:14 GMT-0700 (Pacific Daylight Time)","271098","","null","","","","FIX","","<div class='trialBorder'><div class='vertical-center'><img style='vertical-align:center; align:center' src=img/fixation3.jpg></div></div>","null","","","","","",""
"html-keyboard-response","56","195534","0.0-5.0-2.17","63e5c56c4ddeee504b9fa17f","bdp_rd","Sun Apr 02 2023 05:28:14 GMT-0700 (Pacific Daylight Time)","271098","","402","","","","offer","","<div class='trialBorder'><div class='vertical-center'><img style='vertical-align:center; align:center' src=img/fixation3.jpg></div><div class='cl'><div class='vertical-center'>$45<br>with a<br>50% chance</div></div><div class='cr'><div class='vertical-center'>$8<br>for<br>sure</div></div><div class='respDivL'><div class='vertical-center'>(E)</div></div><div class='respDivR'><div class='vertical-center'>(I)</div></div></div>","E","$8","$45","1","8","45","RISKY"
"html-keyboard-response","57","195786","0.0-5.0-3.17","63e5c56c4ddeee504b9fa17f","bdp_rd","Sun Apr 02 2023 05:28:14 GMT-0700 (Pacific Daylight Time)","271098","","null","","","","offerFB","","<div class='trialBorder'><div class='vertical-center'><img style='vertical-align:center; align:center' src=img/fixation3.jpg></div><div class='cl'><div class='vertical-center'><font style='color:orange'>$45<br>with a<br>50% chance</font></div></div><div class='cr'><div class='vertical-center'>$8<br>for<br>sure</div></div><div class='respDivL'><div class='vertical-center'><font style='color:orange'>(E)</font></div></div><div class='respDivR'><div class='vertical-center'>(I)</div></div></div>","null","$8","$45","1","8","45",""
"html-keyboard-response","58","196287","0.0-5.0-1.18","63e5c56c4ddeee504b9fa17f","bdp_rd","Sun Apr 02 2023 05:28:14 GMT-0700 (Pacific Daylight Time)","271098","","null","","","","FIX","","<div class='trialBorder'><div class='vertical-center'><img style='vertical-align:center; align:center' src=img/fixation3.jpg></div></div>","null","","","","","",""
"html-keyboard-response","59","196570","0.0-5.0-2.18","63e5c56c4ddeee504b9fa17f","bdp_rd","Sun Apr 02 2023 05:28:14 GMT-0700 (Pacific Daylight Time)","271098","","282","","","","offer","","<div class='trialBorder'><div class='vertical-center'><img style='vertical-align:center; align:center' src=img/fixation3.jpg></div><div class='cl'><div class='vertical-center'>$12<br>for<br>sure</div></div><div class='cr'><div class='vertical-center'>$35<br>with a<br>50% chance</div></div><div class='respDivL'><div class='vertical-center'>(E)</div></div><div class='respDivR'><div class='vertical-center'>(I)</div></div></div>","I","$12","$35","0","12","35","RISKY"
"html-keyboard-response","60","196821","0.0-5.0-3.18","63e5c56c4ddeee504b9fa17f","bdp_rd","Sun Apr 02 2023 05:28:14 GMT-0700 (Pacific Daylight Time)","271098","","null","","","","offerFB","","<div class='trialBorder'><div class='vertical-center'><img style='vertical-align:center; align:center' src=img/fixation3.jpg></div><div class='cl'><div class='vertical-center'>$12<br>for<br>sure</div></div><div class='cr'><div class='vertical-center'><font style='color:orange'>$35<br>with a<br>50% chance</font></div></div><div class='respDivL'><div class='vertical-center'>(E)</div></div><div class='respDivR'><div class='vertical-center'><font style='color:orange'>(I)</font></div></div></div>","null","$12","$35","0","12","35",""
"html-keyboard-response","61","197323","0.0-5.0-1.19","63e5c56c4ddeee504b9fa17f","bdp_rd","Sun Apr 02 2023 05:28:14 GMT-0700 (Pacific Daylight Time)","271098","","null","","","","FIX","","<div class='trialBorder'><div class='vertical-center'><img style='vertical-align:center; align:center' src=img/fixation3.jpg></div></div>","null","","","","","",""
"html-keyboard-response","62","198636","0.0-5.0-2.19","63e5c56c4ddeee504b9fa17f","bdp_rd","Sun Apr 02 2023 05:28:14 GMT-0700 (Pacific Daylight Time)","271098","","1313","","","","offer","","<div class='trialBorder'><div class='vertical-center'><img style='vertical-align:center; align:center' src=img/fixation3.jpg></div><div class='cl'><div class='vertical-center'>$95<br>with a<br>50% chance</div></div><div class='cr'><div class='vertical-center'>$40<br>for<br>sure</div></div><div class='respDivL'><div class='vertical-center'>(E)</div></div><div class='respDivR'><div class='vertical-center'>(I)</div></div></div>","E","$40","$95","1","40","95","RISKY"
"html-keyboard-response","63","198887","0.0-5.0-3.19","63e5c56c4ddeee504b9fa17f","bdp_rd","Sun Apr 02 2023 05:28:14 GMT-0700 (Pacific Daylight Time)","271098","","null","","","","offerFB","","<div class='trialBorder'><div class='vertical-center'><img style='vertical-align:center; align:center' src=img/fixation3.jpg></div><div class='cl'><div class='vertical-center'><font style='color:orange'>$95<br>with a<br>50% chance</font></div></div><div class='cr'><div class='vertical-center'>$40<br>for<br>sure</div></div><div class='respDivL'><div class='vertical-center'><font style='color:orange'>(E)</font></div></div><div class='respDivR'><div class='vertical-center'>(I)</div></div></div>","null","$40","$95","1","40","95",""
"html-keyboard-response","64","199388","0.0-5.0-1.20","63e5c56c4ddeee504b9fa17f","bdp_rd","Sun Apr 02 2023 05:28:14 GMT-0700 (Pacific Daylight Time)","271098","","null","","","","FIX","","<div class='trialBorder'><div class='vertical-center'><img style='vertical-align:center; align:center' src=img/fixation3.jpg></div></div>","null","","","","","",""
"html-keyboard-response","65","199988","0.0-5.0-2.20","63e5c56c4ddeee504b9fa17f","bdp_rd","Sun Apr 02 2023 05:28:14 GMT-0700 (Pacific Daylight Time)","271098","","600","","","","offer","","<div class='trialBorder'><div class='vertical-center'><img style='vertical-align:center; align:center' src=img/fixation3.jpg></div><div class='cl'><div class='vertical-center'>$50<br>with a<br>50% chance</div></div><div class='cr'><div class='vertical-center'>$5<br>for<br>sure</div></div><div class='respDivL'><div class='vertical-center'>(E)</div></div><div class='respDivR'><div class='vertical-center'>(I)</div></div></div>","E","$5","$50","1","5","50","RISKY"
"html-keyboard-response","66","200239","0.0-5.0-3.20","63e5c56c4ddeee504b9fa17f","bdp_rd","Sun Apr 02 2023 05:28:14 GMT-0700 (Pacific Daylight Time)","271098","","null","","","","offerFB","","<div class='trialBorder'><div class='vertical-center'><img style='vertical-align:center; align:center' src=img/fixation3.jpg></div><div class='cl'><div class='vertical-center'><font style='color:orange'>$50<br>with a<br>50% chance</font></div></div><div class='cr'><div class='vertical-center'>$5<br>for<br>sure</div></div><div class='respDivL'><div class='vertical-center'><font style='color:orange'>(E)</font></div></div><div class='respDivR'><div class='vertical-center'>(I)</div></div></div>","null","$5","$50","1","5","50",""
"html-keyboard-response","67","200741","0.0-5.0-1.21","63e5c56c4ddeee504b9fa17f","bdp_rd","Sun Apr 02 2023 05:28:14 GMT-0700 (Pacific Daylight Time)","271098","","null","","","","FIX","","<div class='trialBorder'><div class='vertical-center'><img style='vertical-align:center; align:center' src=img/fixation3.jpg></div></div>","null","","","","","",""
"html-keyboard-response","68","201411","0.0-5.0-2.21","63e5c56c4ddeee504b9fa17f","bdp_rd","Sun Apr 02 2023 05:28:14 GMT-0700 (Pacific Daylight Time)","271098","","668","","","","offer","","<div class='trialBorder'><div class='vertical-center'><img style='vertical-align:center; align:center' src=img/fixation3.jpg></div><div class='cl'><div class='vertical-center'>$28<br>with a<br>50% chance</div></div><div class='cr'><div class='vertical-center'>$16<br>for<br>sure</div></div><div class='respDivL'><div class='vertical-center'>(E)</div></div><div class='respDivR'><div class='vertical-center'>(I)</div></div></div>","E","$16","$28","1","16","28","RISKY"
"html-keyboard-response","69","201662","0.0-5.0-3.21","63e5c56c4ddeee504b9fa17f","bdp_rd","Sun Apr 02 2023 05:28:14 GMT-0700 (Pacific Daylight Time)","271098","","null","","","","offerFB","","<div class='trialBorder'><div class='vertical-center'><img style='vertical-align:center; align:center' src=img/fixation3.jpg></div><div class='cl'><div class='vertical-center'><font style='color:orange'>$28<br>with a<br>50% chance</font></div></div><div class='cr'><div class='vertical-center'>$16<br>for<br>sure</div></div><div class='respDivL'><div class='vertical-center'><font style='color:orange'>(E)</font></div></div><div class='respDivR'><div class='vertical-center'>(I)</div></div></div>","null","$16","$28","1","16","28",""
"html-keyboard-response","70","202163","0.0-5.0-1.22","63e5c56c4ddeee504b9fa17f","bdp_rd","Sun Apr 02 2023 05:28:14 GMT-0700 (Pacific Daylight Time)","271098","","null","","","","FIX","","<div class='trialBorder'><div class='vertical-center'><img style='vertical-align:center; align:center' src=img/fixation3.jpg></div></div>","null","","","","","",""
"html-keyboard-response","71","202707","0.0-5.0-2.22","63e5c56c4ddeee504b9fa17f","bdp_rd","Sun Apr 02 2023 05:28:14 GMT-0700 (Pacific Daylight Time)","271098","","544","","","","offer","","<div class='trialBorder'><div class='vertical-center'><img style='vertical-align:center; align:center' src=img/fixation3.jpg></div><div class='cl'><div class='vertical-center'>$36<br>with a<br>50% chance</div></div><div class='cr'><div class='vertical-center'>$18<br>for<br>sure</div></div><div class='respDivL'><div class='vertical-center'>(E)</div></div><div class='respDivR'><div class='vertical-center'>(I)</div></div></div>","E","$18","$36","1","18","36","RISKY"
"html-keyboard-response","72","202959","0.0-5.0-3.22","63e5c56c4ddeee504b9fa17f","bdp_rd","Sun Apr 02 2023 05:28:14 GMT-0700 (Pacific Daylight Time)","271098","","null","","","","offerFB","","<div class='trialBorder'><div class='vertical-center'><img style='vertical-align:center; align:center' src=img/fixation3.jpg></div><div class='cl'><div class='vertical-center'><font style='color:orange'>$36<br>with a<br>50% chance</font></div></div><div class='cr'><div class='vertical-center'>$18<br>for<br>sure</div></div><div class='respDivL'><div class='vertical-center'><font style='color:orange'>(E)</font></div></div><div class='respDivR'><div class='vertical-center'>(I)</div></div></div>","null","$18","$36","1","18","36",""
"html-keyboard-response","73","203461","0.0-5.0-1.23","63e5c56c4ddeee504b9fa17f","bdp_rd","Sun Apr 02 2023 05:28:14 GMT-0700 (Pacific Daylight Time)","271098","","null","","","","FIX","","<div class='trialBorder'><div class='vertical-center'><img style='vertical-align:center; align:center' src=img/fixation3.jpg></div></div>","null","","","","","",""
"html-keyboard-response","74","203855","0.0-5.0-2.23","63e5c56c4ddeee504b9fa17f","bdp_rd","Sun Apr 02 2023 05:28:14 GMT-0700 (Pacific Daylight Time)","271098","","394","","","","offer","","<div class='trialBorder'><div class='vertical-center'><img style='vertical-align:center; align:center' src=img/fixation3.jpg></div><div class='cl'><div class='vertical-center'>$100<br>with a<br>50% chance</div></div><div class='cr'><div class='vertical-center'>$63<br>for<br>sure</div></div><div class='respDivL'><div class='vertical-center'>(E)</div></div><div class='respDivR'><div class='vertical-center'>(I)</div></div></div>","I","$63","$100","1","63","10","SURE"
"html-keyboard-response","75","204106","0.0-5.0-3.23","63e5c56c4ddeee504b9fa17f","bdp_rd","Sun Apr 02 2023 05:28:14 GMT-0700 (Pacific Daylight Time)","271098","","null","","","","offerFB","","<div class='trialBorder'><div class='vertical-center'><img style='vertical-align:center; align:center' src=img/fixation3.jpg></div><div class='cl'><div class='vertical-center'>$100<br>with a<br>50% chance</div></div><div class='cr'><div class='vertical-center'><font style='color:orange'>$63<br>for<br>sure</font></div></div><div class='respDivL'><div class='vertical-center'>(E)</div></div><div class='respDivR'><div class='vertical-center'><font style='color:orange'>(I)</font></div></div></div>","null","$63","$100","1","63","10",""
"html-keyboard-response","76","204608","0.0-5.0-1.24","63e5c56c4ddeee504b9fa17f","bdp_rd","Sun Apr 02 2023 05:28:14 GMT-0700 (Pacific Daylight Time)","271098","","null","","","","FIX","","<div class='trialBorder'><div class='vertical-center'><img style='vertical-align:center; align:center' src=img/fixation3.jpg></div></div>","null","","","","","",""
"html-keyboard-response","77","205485","0.0-5.0-2.24","63e5c56c4ddeee504b9fa17f","bdp_rd","Sun Apr 02 2023 05:28:14 GMT-0700 (Pacific Daylight Time)","271098","","877","","","","offer","","<div class='trialBorder'><div class='vertical-center'><img style='vertical-align:center; align:center' src=img/fixation3.jpg></div><div class='cl'><div class='vertical-center'>$41<br>with a<br>50% chance</div></div><div class='cr'><div class='vertical-center'>$13<br>for<br>sure</div></div><div class='respDivL'><div class='vertical-center'>(E)</div></div><div class='respDivR'><div class='vertical-center'>(I)</div></div></div>","E","$13","$41","1","13","41","RISKY"
"html-keyboard-response","78","205737","0.0-5.0-3.24","63e5c56c4ddeee504b9fa17f","bdp_rd","Sun Apr 02 2023 05:28:14 GMT-0700 (Pacific Daylight Time)","271098","","null","","","","offerFB","","<div class='trialBorder'><div class='vertical-center'><img style='vertical-align:center; align:center' src=img/fixation3.jpg></div><div class='cl'><div class='vertical-center'><font style='color:orange'>$41<br>with a<br>50% chance</font></div></div><div class='cr'><div class='vertical-center'>$13<br>for<br>sure</div></div><div class='respDivL'><div class='vertical-center'><font style='color:orange'>(E)</font></div></div><div class='respDivR'><div class='vertical-center'>(I)</div></div></div>","null","$13","$41","1","13","41",""
"html-keyboard-response","79","206238","0.0-5.0-1.25","63e5c56c4ddeee504b9fa17f","bdp_rd","Sun Apr 02 2023 05:28:14 GMT-0700 (Pacific Daylight Time)","271098","","null","","","","FIX","","<div class='trialBorder'><div class='vertical-center'><img style='vertical-align:center; align:center' src=img/fixation3.jpg></div></div>","null","","","","","",""
"html-keyboard-response","80","206751","0.0-5.0-2.25","63e5c56c4ddeee504b9fa17f","bdp_rd","Sun Apr 02 2023 05:28:14 GMT-0700 (Pacific Daylight Time)","271098","","512","","","","offer","","<div class='trialBorder'><div class='vertical-center'><img style='vertical-align:center; align:center' src=img/fixation3.jpg></div><div class='cl'><div class='vertical-center'>$3<br>for<br>sure</div></div><div class='cr'><div class='vertical-center'>$12<br>with a<br>50% chance</div></div><div class='respDivL'><div class='vertical-center'>(E)</div></div><div class='respDivR'><div class='vertical-center'>(I)</div></div></div>","I","$3","$12","0","3","12","RISKY"
"html-keyboard-response","81","207002","0.0-5.0-3.25","63e5c56c4ddeee504b9fa17f","bdp_rd","Sun Apr 02 2023 05:28:14 GMT-0700 (Pacific Daylight Time)","271098","","null","","","","offerFB","","<div class='trialBorder'><div class='vertical-center'><img style='vertical-align:center; align:center' src=img/fixation3.jpg></div><div class='cl'><div class='vertical-center'>$3<br>for<br>sure</div></div><div class='cr'><div class='vertical-center'><font style='color:orange'>$12<br>with a<br>50% chance</font></div></div><div class='respDivL'><div class='vertical-center'>(E)</div></div><div class='respDivR'><div class='vertical-center'><font style='color:orange'>(I)</font></div></div></div>","null","$3","$12","0","3","12",""
"html-keyboard-response","82","207503","0.0-5.0-1.26","63e5c56c4ddeee504b9fa17f","bdp_rd","Sun Apr 02 2023 05:28:14 GMT-0700 (Pacific Daylight Time)","271098","","null","","","","FIX","","<div class='trialBorder'><div class='vertical-center'><img style='vertical-align:center; align:center' src=img/fixation3.jpg></div></div>","null","","","","","",""
"html-keyboard-response","83","208316","0.0-5.0-2.26","63e5c56c4ddeee504b9fa17f","bdp_rd","Sun Apr 02 2023 05:28:14 GMT-0700 (Pacific Daylight Time)","271098","","813","","","","offer","","<div class='trialBorder'><div class='vertical-center'><img style='vertical-align:center; align:center' src=img/fixation3.jpg></div><div class='cl'><div class='vertical-center'>$11<br>for<br>sure</div></div><div class='cr'><div class='vertical-center'>$62<br>with a<br>50% chance</div></div><div class='respDivL'><div class='vertical-center'>(E)</div></div><div class='respDivR'><div class='vertical-center'>(I)</div></div></div>","I","$11","$62","0","11","62","RISKY"
"html-keyboard-response","84","208567","0.0-5.0-3.26","63e5c56c4ddeee504b9fa17f","bdp_rd","Sun Apr 02 2023 05:28:14 GMT-0700 (Pacific Daylight Time)","271098","","null","","","","offerFB","","<div class='trialBorder'><div class='vertical-center'><img style='vertical-align:center; align:center' src=img/fixation3.jpg></div><div class='cl'><div class='vertical-center'>$11<br>for<br>sure</div></div><div class='cr'><div class='vertical-center'><font style='color:orange'>$62<br>with a<br>50% chance</font></div></div><div class='respDivL'><div class='vertical-center'>(E)</div></div><div class='respDivR'><div class='vertical-center'><font style='color:orange'>(I)</font></div></div></div>","null","$11","$62","0","11","62",""
"html-keyboard-response","85","209068","0.0-5.0-1.27","63e5c56c4ddeee504b9fa17f","bdp_rd","Sun Apr 02 2023 05:28:14 GMT-0700 (Pacific Daylight Time)","271098","","null","","","","FIX","","<div class='trialBorder'><div class='vertical-center'><img style='vertical-align:center; align:center' src=img/fixation3.jpg></div></div>","null","","","","","",""
"html-keyboard-response","86","209720","0.0-5.0-2.27","63e5c56c4ddeee504b9fa17f","bdp_rd","Sun Apr 02 2023 05:28:14 GMT-0700 (Pacific Daylight Time)","271098","","652","","","","offer","","<div class='trialBorder'><div class='vertical-center'><img style='vertical-align:center; align:center' src=img/fixation3.jpg></div><div class='cl'><div class='vertical-center'>$27<br>for<br>sure</div></div><div class='cr'><div class='vertical-center'>$47<br>with a<br>50% chance</div></div><div class='respDivL'><div class='vertical-center'>(E)</div></div><div class='respDivR'><div class='vertical-center'>(I)</div></div></div>","I","$27","$47","0","27","47","RISKY"
"html-keyboard-response","87","209971","0.0-5.0-3.27","63e5c56c4ddeee504b9fa17f","bdp_rd","Sun Apr 02 2023 05:28:14 GMT-0700 (Pacific Daylight Time)","271098","","null","","","","offerFB","","<div class='trialBorder'><div class='vertical-center'><img style='vertical-align:center; align:center' src=img/fixation3.jpg></div><div class='cl'><div class='vertical-center'>$27<br>for<br>sure</div></div><div class='cr'><div class='vertical-center'><font style='color:orange'>$47<br>with a<br>50% chance</font></div></div><div class='respDivL'><div class='vertical-center'>(E)</div></div><div class='respDivR'><div class='vertical-center'><font style='color:orange'>(I)</font></div></div></div>","null","$27","$47","0","27","47",""
"html-keyboard-response","88","210472","0.0-5.0-1.28","63e5c56c4ddeee504b9fa17f","bdp_rd","Sun Apr 02 2023 05:28:14 GMT-0700 (Pacific Daylight Time)","271098","","null","","","","FIX","","<div class='trialBorder'><div class='vertical-center'><img style='vertical-align:center; align:center' src=img/fixation3.jpg></div></div>","null","","","","","",""
"html-keyboard-response","89","212114","0.0-5.0-2.28","63e5c56c4ddeee504b9fa17f","bdp_rd","Sun Apr 02 2023 05:28:14 GMT-0700 (Pacific Daylight Time)","271098","","1641","","","","offer","","<div class='trialBorder'><div class='vertical-center'><img style='vertical-align:center; align:center' src=img/fixation3.jpg></div><div class='cl'><div class='vertical-center'>$19<br>with a<br>50% chance</div></div><div class='cr'><div class='vertical-center'>$10<br>for<br>sure</div></div><div class='respDivL'><div class='vertical-center'>(E)</div></div><div class='respDivR'><div class='vertical-center'>(I)</div></div></div>","I","$10","$19","1","10","19","SURE"
"html-keyboard-response","90","212365","0.0-5.0-3.28","63e5c56c4ddeee504b9fa17f","bdp_rd","Sun Apr 02 2023 05:28:14 GMT-0700 (Pacific Daylight Time)","271098","","null","","","","offerFB","","<div class='trialBorder'><div class='vertical-center'><img style='vertical-align:center; align:center' src=img/fixation3.jpg></div><div class='cl'><div class='vertical-center'>$19<br>with a<br>50% chance</div></div><div class='cr'><div class='vertical-center'><font style='color:orange'>$10<br>for<br>sure</font></div></div><div class='respDivL'><div class='vertical-center'>(E)</div></div><div class='respDivR'><div class='vertical-center'><font style='color:orange'>(I)</font></div></div></div>","null","$10","$19","1","10","19",""
"html-keyboard-response","91","212867","0.0-5.0-1.29","63e5c56c4ddeee504b9fa17f","bdp_rd","Sun Apr 02 2023 05:28:14 GMT-0700 (Pacific Daylight Time)","271098","","null","","","","FIX","","<div class='trialBorder'><div class='vertical-center'><img style='vertical-align:center; align:center' src=img/fixation3.jpg></div></div>","null","","","","","",""
"html-keyboard-response","92","213448","0.0-5.0-2.29","63e5c56c4ddeee504b9fa17f","bdp_rd","Sun Apr 02 2023 05:28:14 GMT-0700 (Pacific Daylight Time)","271098","","580","","","","offer","","<div class='trialBorder'><div class='vertical-center'><img style='vertical-align:center; align:center' src=img/fixation3.jpg></div><div class='cl'><div class='vertical-center'>$78<br>with a<br>50% chance</div></div><div class='cr'><div class='vertical-center'>$31<br>for<br>sure</div></div><div class='respDivL'><div class='vertical-center'>(E)</div></div><div class='respDivR'><div class='vertical-center'>(I)</div></div></div>","E","$31","$78","1","31","78","RISKY"
"html-keyboard-response","93","213700","0.0-5.0-3.29","63e5c56c4ddeee504b9fa17f","bdp_rd","Sun Apr 02 2023 05:28:14 GMT-0700 (Pacific Daylight Time)","271098","","null","","","","offerFB","","<div class='trialBorder'><div class='vertical-center'><img style='vertical-align:center; align:center' src=img/fixation3.jpg></div><div class='cl'><div class='vertical-center'><font style='color:orange'>$78<br>with a<br>50% chance</font></div></div><div class='cr'><div class='vertical-center'>$31<br>for<br>sure</div></div><div class='respDivL'><div class='vertical-center'><font style='color:orange'>(E)</font></div></div><div class='respDivR'><div class='vertical-center'>(I)</div></div></div>","null","$31","$78","1","31","78",""
"html-keyboard-response","94","214200","0.0-5.0-1.30","63e5c56c4ddeee504b9fa17f","bdp_rd","Sun Apr 02 2023 05:28:14 GMT-0700 (Pacific Daylight Time)","271098","","null","","","","FIX","","<div class='trialBorder'><div class='vertical-center'><img style='vertical-align:center; align:center' src=img/fixation3.jpg></div></div>","null","","","","","",""
"html-keyboard-response","95","214906","0.0-5.0-2.30","63e5c56c4ddeee504b9fa17f","bdp_rd","Sun Apr 02 2023 05:28:14 GMT-0700 (Pacific Daylight Time)","271098","","705","","","","offer","","<div class='trialBorder'><div class='vertical-center'><img style='vertical-align:center; align:center' src=img/fixation3.jpg></div><div class='cl'><div class='vertical-center'>$13<br>for<br>sure</div></div><div class='cr'><div class='vertical-center'>$24<br>with a<br>50% chance</div></div><div class='respDivL'><div class='vertical-center'>(E)</div></div><div class='respDivR'><div class='vertical-center'>(I)</div></div></div>","I","$13","$24","0","13","24","RISKY"
"html-keyboard-response","96","215157","0.0-5.0-3.30","63e5c56c4ddeee504b9fa17f","bdp_rd","Sun Apr 02 2023 05:28:14 GMT-0700 (Pacific Daylight Time)","271098","","null","","","","offerFB","","<div class='trialBorder'><div class='vertical-center'><img style='vertical-align:center; align:center' src=img/fixation3.jpg></div><div class='cl'><div class='vertical-center'>$13<br>for<br>sure</div></div><div class='cr'><div class='vertical-center'><font style='color:orange'>$24<br>with a<br>50% chance</font></div></div><div class='respDivL'><div class='vertical-center'>(E)</div></div><div class='respDivR'><div class='vertical-center'><font style='color:orange'>(I)</font></div></div></div>","null","$13","$24","0","13","24",""
"html-keyboard-response","97","215658","0.0-5.0-1.31","63e5c56c4ddeee504b9fa17f","bdp_rd","Sun Apr 02 2023 05:28:14 GMT-0700 (Pacific Daylight Time)","271098","","null","","","","FIX","","<div class='trialBorder'><div class='vertical-center'><img style='vertical-align:center; align:center' src=img/fixation3.jpg></div></div>","null","","","","","",""
"html-keyboard-response","98","216720","0.0-5.0-2.31","63e5c56c4ddeee504b9fa17f","bdp_rd","Sun Apr 02 2023 05:28:14 GMT-0700 (Pacific Daylight Time)","271098","","1061","","","","offer","","<div class='trialBorder'><div class='vertical-center'><img style='vertical-align:center; align:center' src=img/fixation3.jpg></div><div class='cl'><div class='vertical-center'>$4<br>for<br>sure</div></div><div class='cr'><div class='vertical-center'>$11<br>with a<br>50% chance</div></div><div class='respDivL'><div class='vertical-center'>(E)</div></div><div class='respDivR'><div class='vertical-center'>(I)</div></div></div>","I","$4","$11","0","4","11","RISKY"
"html-keyboard-response","99","216971","0.0-5.0-3.31","63e5c56c4ddeee504b9fa17f","bdp_rd","Sun Apr 02 2023 05:28:14 GMT-0700 (Pacific Daylight Time)","271098","","null","","","","offerFB","","<div class='trialBorder'><div class='vertical-center'><img style='vertical-align:center; align:center' src=img/fixation3.jpg></div><div class='cl'><div class='vertical-center'>$4<br>for<br>sure</div></div><div class='cr'><div class='vertical-center'><font style='color:orange'>$11<br>with a<br>50% chance</font></div></div><div class='respDivL'><div class='vertical-center'>(E)</div></div><div class='respDivR'><div class='vertical-center'><font style='color:orange'>(I)</font></div></div></div>","null","$4","$11","0","4","11",""
"html-keyboard-response","100","217473","0.0-5.0-1.32","63e5c56c4ddeee504b9fa17f","bdp_rd","Sun Apr 02 2023 05:28:14 GMT-0700 (Pacific Daylight Time)","271098","","null","","","","FIX","","<div class='trialBorder'><div class='vertical-center'><img style='vertical-align:center; align:center' src=img/fixation3.jpg></div></div>","null","","","","","",""
"html-keyboard-response","101","221191","0.0-5.0-2.32","63e5c56c4ddeee504b9fa17f","bdp_rd","Sun Apr 02 2023 05:28:14 GMT-0700 (Pacific Daylight Time)","271098","","3718","","","","offer","","<div class='trialBorder'><div class='vertical-center'><img style='vertical-align:center; align:center' src=img/fixation3.jpg></div><div class='cl'><div class='vertical-center'>$21<br>for<br>sure</div></div><div class='cr'><div class='vertical-center'>$25<br>with a<br>50% chance</div></div><div class='respDivL'><div class='vertical-center'>(E)</div></div><div class='respDivR'><div class='vertical-center'>(I)</div></div></div>","E","$21","$25","0","21","25","SURE"
"html-keyboard-response","102","221442","0.0-5.0-3.32","63e5c56c4ddeee504b9fa17f","bdp_rd","Sun Apr 02 2023 05:28:14 GMT-0700 (Pacific Daylight Time)","271098","","null","","","","offerFB","","<div class='trialBorder'><div class='vertical-center'><img style='vertical-align:center; align:center' src=img/fixation3.jpg></div><div class='cl'><div class='vertical-center'><font style='color:orange'>$21<br>for<br>sure</font></div></div><div class='cr'><div class='vertical-center'>$25<br>with a<br>50% chance</div></div><div class='respDivL'><div class='vertical-center'><font style='color:orange'>(E)</font></div></div><div class='respDivR'><div class='vertical-center'>(I)</div></div></div>","null","$21","$25","0","21","25",""
"html-keyboard-response","103","221943","0.0-5.0-1.33","63e5c56c4ddeee504b9fa17f","bdp_rd","Sun Apr 02 2023 05:28:14 GMT-0700 (Pacific Daylight Time)","271098","","null","","","","FIX","","<div class='trialBorder'><div class='vertical-center'><img style='vertical-align:center; align:center' src=img/fixation3.jpg></div></div>","null","","","","","",""
"html-keyboard-response","104","223565","0.0-5.0-2.33","63e5c56c4ddeee504b9fa17f","bdp_rd","Sun Apr 02 2023 05:28:14 GMT-0700 (Pacific Daylight Time)","271098","","1622","","","","offer","","<div class='trialBorder'><div class='vertical-center'><img style='vertical-align:center; align:center' src=img/fixation3.jpg></div><div class='cl'><div class='vertical-center'>$37<br>for<br>sure</div></div><div class='cr'><div class='vertical-center'>$44<br>with a<br>50% chance</div></div><div class='respDivL'><div class='vertical-center'>(E)</div></div><div class='respDivR'><div class='vertical-center'>(I)</div></div></div>","I","$37","$44","0","37","44","RISKY"
"html-keyboard-response","105","223816","0.0-5.0-3.33","63e5c56c4ddeee504b9fa17f","bdp_rd","Sun Apr 02 2023 05:28:14 GMT-0700 (Pacific Daylight Time)","271098","","null","","","","offerFB","","<div class='trialBorder'><div class='vertical-center'><img style='vertical-align:center; align:center' src=img/fixation3.jpg></div><div class='cl'><div class='vertical-center'>$37<br>for<br>sure</div></div><div class='cr'><div class='vertical-center'><font style='color:orange'>$44<br>with a<br>50% chance</font></div></div><div class='respDivL'><div class='vertical-center'>(E)</div></div><div class='respDivR'><div class='vertical-center'><font style='color:orange'>(I)</font></div></div></div>","null","$37","$44","0","37","44",""
"html-keyboard-response","106","224318","0.0-5.0-1.34","63e5c56c4ddeee504b9fa17f","bdp_rd","Sun Apr 02 2023 05:28:14 GMT-0700 (Pacific Daylight Time)","271098","","null","","","","FIX","","<div class='trialBorder'><div class='vertical-center'><img style='vertical-align:center; align:center' src=img/fixation3.jpg></div></div>","null","","","","","",""
"html-keyboard-response","107","225701","0.0-5.0-2.34","63e5c56c4ddeee504b9fa17f","bdp_rd","Sun Apr 02 2023 05:28:14 GMT-0700 (Pacific Daylight Time)","271098","","1383","","","","offer","","<div class='trialBorder'><div class='vertical-center'><img style='vertical-align:center; align:center' src=img/fixation3.jpg></div><div class='cl'><div class='vertical-center'>$15<br>for<br>sure</div></div><div class='cr'><div class='vertical-center'>$31<br>with a<br>50% chance</div></div><div class='respDivL'><div class='vertical-center'>(E)</div></div><div class='respDivR'><div class='vertical-center'>(I)</div></div></div>","I","$15","$31","0","15","31","RISKY"
"html-keyboard-response","108","225952","0.0-5.0-3.34","63e5c56c4ddeee504b9fa17f","bdp_rd","Sun Apr 02 2023 05:28:14 GMT-0700 (Pacific Daylight Time)","271098","","null","","","","offerFB","","<div class='trialBorder'><div class='vertical-center'><img style='vertical-align:center; align:center' src=img/fixation3.jpg></div><div class='cl'><div class='vertical-center'>$15<br>for<br>sure</div></div><div class='cr'><div class='vertical-center'><font style='color:orange'>$31<br>with a<br>50% chance</font></div></div><div class='respDivL'><div class='vertical-center'>(E)</div></div><div class='respDivR'><div class='vertical-center'><font style='color:orange'>(I)</font></div></div></div>","null","$15","$31","0","15","31",""
"html-keyboard-response","109","226453","0.0-5.0-1.35","63e5c56c4ddeee504b9fa17f","bdp_rd","Sun Apr 02 2023 05:28:14 GMT-0700 (Pacific Daylight Time)","271098","","null","","","","FIX","","<div class='trialBorder'><div class='vertical-center'><img style='vertical-align:center; align:center' src=img/fixation3.jpg></div></div>","null","","","","","",""
"html-keyboard-response","110","228470","0.0-5.0-2.35","63e5c56c4ddeee504b9fa17f","bdp_rd","Sun Apr 02 2023 05:28:14 GMT-0700 (Pacific Daylight Time)","271098","","2017","","","","offer","","<div class='trialBorder'><div class='vertical-center'><img style='vertical-align:center; align:center' src=img/fixation3.jpg></div><div class='cl'><div class='vertical-center'>$48<br>with a<br>50% chance</div></div><div class='cr'><div class='vertical-center'>$34<br>for<br>sure</div></div><div class='respDivL'><div class='vertical-center'>(E)</div></div><div class='respDivR'><div class='vertical-center'>(I)</div></div></div>","E","$34","$48","1","34","48","RISKY"
"html-keyboard-response","111","228721","0.0-5.0-3.35","63e5c56c4ddeee504b9fa17f","bdp_rd","Sun Apr 02 2023 05:28:14 GMT-0700 (Pacific Daylight Time)","271098","","null","","","","offerFB","","<div class='trialBorder'><div class='vertical-center'><img style='vertical-align:center; align:center' src=img/fixation3.jpg></div><div class='cl'><div class='vertical-center'><font style='color:orange'>$48<br>with a<br>50% chance</font></div></div><div class='cr'><div class='vertical-center'>$34<br>for<br>sure</div></div><div class='respDivL'><div class='vertical-center'><font style='color:orange'>(E)</font></div></div><div class='respDivR'><div class='vertical-center'>(I)</div></div></div>","null","$34","$48","1","34","48",""
"html-keyboard-response","112","229222","0.0-5.0-1.36","63e5c56c4ddeee504b9fa17f","bdp_rd","Sun Apr 02 2023 05:28:14 GMT-0700 (Pacific Daylight Time)","271098","","null","","","","FIX","","<div class='trialBorder'><div class='vertical-center'><img style='vertical-align:center; align:center' src=img/fixation3.jpg></div></div>","null","","","","","",""
"html-keyboard-response","113","229973","0.0-5.0-2.36","63e5c56c4ddeee504b9fa17f","bdp_rd","Sun Apr 02 2023 05:28:14 GMT-0700 (Pacific Daylight Time)","271098","","751","","","","offer","","<div class='trialBorder'><div class='vertical-center'><img style='vertical-align:center; align:center' src=img/fixation3.jpg></div><div class='cl'><div class='vertical-center'>$92<br>with a<br>50% chance</div></div><div class='cr'><div class='vertical-center'>$26<br>for<br>sure</div></div><div class='respDivL'><div class='vertical-center'>(E)</div></div><div class='respDivR'><div class='vertical-center'>(I)</div></div></div>","E","$26","$92","1","26","92","RISKY"
"html-keyboard-response","114","230224","0.0-5.0-3.36","63e5c56c4ddeee504b9fa17f","bdp_rd","Sun Apr 02 2023 05:28:14 GMT-0700 (Pacific Daylight Time)","271098","","null","","","","offerFB","","<div class='trialBorder'><div class='vertical-center'><img style='vertical-align:center; align:center' src=img/fixation3.jpg></div><div class='cl'><div class='vertical-center'><font style='color:orange'>$92<br>with a<br>50% chance</font></div></div><div class='cr'><div class='vertical-center'>$26<br>for<br>sure</div></div><div class='respDivL'><div class='vertical-center'><font style='color:orange'>(E)</font></div></div><div class='respDivR'><div class='vertical-center'>(I)</div></div></div>","null","$26","$92","1","26","92",""
"html-keyboard-response","115","230725","0.0-5.0-1.37","63e5c56c4ddeee504b9fa17f","bdp_rd","Sun Apr 02 2023 05:28:14 GMT-0700 (Pacific Daylight Time)","271098","","null","","","","FIX","","<div class='trialBorder'><div class='vertical-center'><img style='vertical-align:center; align:center' src=img/fixation3.jpg></div></div>","null","","","","","",""
"html-keyboard-response","116","231492","0.0-5.0-2.37","63e5c56c4ddeee504b9fa17f","bdp_rd","Sun Apr 02 2023 05:28:14 GMT-0700 (Pacific Daylight Time)","271098","","767","","","","offer","","<div class='trialBorder'><div class='vertical-center'><img style='vertical-align:center; align:center' src=img/fixation3.jpg></div><div class='cl'><div class='vertical-center'>$29<br>with a<br>50% chance</div></div><div class='cr'><div class='vertical-center'>$14<br>for<br>sure</div></div><div class='respDivL'><div class='vertical-center'>(E)</div></div><div class='respDivR'><div class='vertical-center'>(I)</div></div></div>","E","$14","$29","1","14","29","RISKY"
"html-keyboard-response","117","231743","0.0-5.0-3.37","63e5c56c4ddeee504b9fa17f","bdp_rd","Sun Apr 02 2023 05:28:14 GMT-0700 (Pacific Daylight Time)","271098","","null","","","","offerFB","","<div class='trialBorder'><div class='vertical-center'><img style='vertical-align:center; align:center' src=img/fixation3.jpg></div><div class='cl'><div class='vertical-center'><font style='color:orange'>$29<br>with a<br>50% chance</font></div></div><div class='cr'><div class='vertical-center'>$14<br>for<br>sure</div></div><div class='respDivL'><div class='vertical-center'><font style='color:orange'>(E)</font></div></div><div class='respDivR'><div class='vertical-center'>(I)</div></div></div>","null","$14","$29","1","14","29",""
"html-keyboard-response","118","232244","0.0-5.0-1.38","63e5c56c4ddeee504b9fa17f","bdp_rd","Sun Apr 02 2023 05:28:14 GMT-0700 (Pacific Daylight Time)","271098","","null","","","","FIX","","<div class='trialBorder'><div class='vertical-center'><img style='vertical-align:center; align:center' src=img/fixation3.jpg></div></div>","null","","","","","",""
"html-keyboard-response","119","233390","0.0-5.0-2.38","63e5c56c4ddeee504b9fa17f","bdp_rd","Sun Apr 02 2023 05:28:14 GMT-0700 (Pacific Daylight Time)","271098","","1146","","","","offer","","<div class='trialBorder'><div class='vertical-center'><img style='vertical-align:center; align:center' src=img/fixation3.jpg></div><div class='cl'><div class='vertical-center'>$33<br>for<br>sure</div></div><div class='cr'><div class='vertical-center'>$66<br>with a<br>50% chance</div></div><div class='respDivL'><div class='vertical-center'>(E)</div></div><div class='respDivR'><div class='vertical-center'>(I)</div></div></div>","I","$33","$66","0","33","66","RISKY"
"html-keyboard-response","120","233641","0.0-5.0-3.38","63e5c56c4ddeee504b9fa17f","bdp_rd","Sun Apr 02 2023 05:28:14 GMT-0700 (Pacific Daylight Time)","271098","","null","","","","offerFB","","<div class='trialBorder'><div class='vertical-center'><img style='vertical-align:center; align:center' src=img/fixation3.jpg></div><div class='cl'><div class='vertical-center'>$33<br>for<br>sure</div></div><div class='cr'><div class='vertical-center'><font style='color:orange'>$66<br>with a<br>50% chance</font></div></div><div class='respDivL'><div class='vertical-center'>(E)</div></div><div class='respDivR'><div class='vertical-center'><font style='color:orange'>(I)</font></div></div></div>","null","$33","$66","0","33","66",""
"html-keyboard-response","121","234142","0.0-5.0-1.39","63e5c56c4ddeee504b9fa17f","bdp_rd","Sun Apr 02 2023 05:28:14 GMT-0700 (Pacific Daylight Time)","271098","","null","","","","FIX","","<div class='trialBorder'><div class='vertical-center'><img style='vertical-align:center; align:center' src=img/fixation3.jpg></div></div>","null","","","","","",""
"html-keyboard-response","122","235551","0.0-5.0-2.39","63e5c56c4ddeee504b9fa17f","bdp_rd","Sun Apr 02 2023 05:28:14 GMT-0700 (Pacific Daylight Time)","271098","","1409","","","","offer","","<div class='trialBorder'><div class='vertical-center'><img style='vertical-align:center; align:center' src=img/fixation3.jpg></div><div class='cl'><div class='vertical-center'>$9<br>for<br>sure</div></div><div class='cr'><div class='vertical-center'>$18<br>with a<br>50% chance</div></div><div class='respDivL'><div class='vertical-center'>(E)</div></div><div class='respDivR'><div class='vertical-center'>(I)</div></div></div>","I","$9","$18","0","9","18","RISKY"
"html-keyboard-response","123","235803","0.0-5.0-3.39","63e5c56c4ddeee504b9fa17f","bdp_rd","Sun Apr 02 2023 05:28:14 GMT-0700 (Pacific Daylight Time)","271098","","null","","","","offerFB","","<div class='trialBorder'><div class='vertical-center'><img style='vertical-align:center; align:center' src=img/fixation3.jpg></div><div class='cl'><div class='vertical-center'>$9<br>for<br>sure</div></div><div class='cr'><div class='vertical-center'><font style='color:orange'>$18<br>with a<br>50% chance</font></div></div><div class='respDivL'><div class='vertical-center'>(E)</div></div><div class='respDivR'><div class='vertical-center'><font style='color:orange'>(I)</font></div></div></div>","null","$9","$18","0","9","18",""
"html-keyboard-response","124","236305","0.0-5.0-1.40","63e5c56c4ddeee504b9fa17f","bdp_rd","Sun Apr 02 2023 05:28:14 GMT-0700 (Pacific Daylight Time)","271098","","null","","","","FIX","","<div class='trialBorder'><div class='vertical-center'><img style='vertical-align:center; align:center' src=img/fixation3.jpg></div></div>","null","","","","","",""
"html-keyboard-response","125","237063","0.0-5.0-2.40","63e5c56c4ddeee504b9fa17f","bdp_rd","Sun Apr 02 2023 05:28:14 GMT-0700 (Pacific Daylight Time)","271098","","758","","","","offer","","<div class='trialBorder'><div class='vertical-center'><img style='vertical-align:center; align:center' src=img/fixation3.jpg></div><div class='cl'><div class='vertical-center'>$24<br>for<br>sure</div></div><div class='cr'><div class='vertical-center'>$70<br>with a<br>50% chance</div></div><div class='respDivL'><div class='vertical-center'>(E)</div></div><div class='respDivR'><div class='vertical-center'>(I)</div></div></div>","I","$24","$70","0","24","70","RISKY"
"html-keyboard-response","126","237314","0.0-5.0-3.40","63e5c56c4ddeee504b9fa17f","bdp_rd","Sun Apr 02 2023 05:28:14 GMT-0700 (Pacific Daylight Time)","271098","","null","","","","offerFB","","<div class='trialBorder'><div class='vertical-center'><img style='vertical-align:center; align:center' src=img/fixation3.jpg></div><div class='cl'><div class='vertical-center'>$24<br>for<br>sure</div></div><div class='cr'><div class='vertical-center'><font style='color:orange'>$70<br>with a<br>50% chance</font></div></div><div class='respDivL'><div class='vertical-center'>(E)</div></div><div class='respDivR'><div class='vertical-center'><font style='color:orange'>(I)</font></div></div></div>","null","$24","$70","0","24","70",""
"html-keyboard-response","127","237815","0.0-5.0-1.41","63e5c56c4ddeee504b9fa17f","bdp_rd","Sun Apr 02 2023 05:28:14 GMT-0700 (Pacific Daylight Time)","271098","","null","","","","FIX","","<div class='trialBorder'><div class='vertical-center'><img style='vertical-align:center; align:center' src=img/fixation3.jpg></div></div>","null","","","","","",""
"html-keyboard-response","128","238848","0.0-5.0-2.41","63e5c56c4ddeee504b9fa17f","bdp_rd","Sun Apr 02 2023 05:28:14 GMT-0700 (Pacific Daylight Time)","271098","","1033","","","","offer","","<div class='trialBorder'><div class='vertical-center'><img style='vertical-align:center; align:center' src=img/fixation3.jpg></div><div class='cl'><div class='vertical-center'>$1<br>for<br>sure</div></div><div class='cr'><div class='vertical-center'>$33<br>with a<br>50% chance</div></div><div class='respDivL'><div class='vertical-center'>(E)</div></div><div class='respDivR'><div class='vertical-center'>(I)</div></div></div>","I","$1","$33","0","1","33","RISKY"
"html-keyboard-response","129","239099","0.0-5.0-3.41","63e5c56c4ddeee504b9fa17f","bdp_rd","Sun Apr 02 2023 05:28:14 GMT-0700 (Pacific Daylight Time)","271098","","null","","","","offerFB","","<div class='trialBorder'><div class='vertical-center'><img style='vertical-align:center; align:center' src=img/fixation3.jpg></div><div class='cl'><div class='vertical-center'>$1<br>for<br>sure</div></div><div class='cr'><div class='vertical-center'><font style='color:orange'>$33<br>with a<br>50% chance</font></div></div><div class='respDivL'><div class='vertical-center'>(E)</div></div><div class='respDivR'><div class='vertical-center'><font style='color:orange'>(I)</font></div></div></div>","null","$1","$33","0","1","33",""
"html-keyboard-response","130","239600","0.0-5.0-1.42","63e5c56c4ddeee504b9fa17f","bdp_rd","Sun Apr 02 2023 05:28:14 GMT-0700 (Pacific Daylight Time)","271098","","null","","","","FIX","","<div class='trialBorder'><div class='vertical-center'><img style='vertical-align:center; align:center' src=img/fixation3.jpg></div></div>","null","","","","","",""
"html-keyboard-response","131","240341","0.0-5.0-2.42","63e5c56c4ddeee504b9fa17f","bdp_rd","Sun Apr 02 2023 05:28:14 GMT-0700 (Pacific Daylight Time)","271098","","741","","","","offer","","<div class='trialBorder'><div class='vertical-center'><img style='vertical-align:center; align:center' src=img/fixation3.jpg></div><div class='cl'><div class='vertical-center'>$80<br>with a<br>50% chance</div></div><div class='cr'><div class='vertical-center'>$20<br>for<br>sure</div></div><div class='respDivL'><div class='vertical-center'>(E)</div></div><div class='respDivR'><div class='vertical-center'>(I)</div></div></div>","E","$20","$80","1","20","80","RISKY"
"html-keyboard-response","132","240592","0.0-5.0-3.42","63e5c56c4ddeee504b9fa17f","bdp_rd","Sun Apr 02 2023 05:28:14 GMT-0700 (Pacific Daylight Time)","271098","","null","","","","offerFB","","<div class='trialBorder'><div class='vertical-center'><img style='vertical-align:center; align:center' src=img/fixation3.jpg></div><div class='cl'><div class='vertical-center'><font style='color:orange'>$80<br>with a<br>50% chance</font></div></div><div class='cr'><div class='vertical-center'>$20<br>for<br>sure</div></div><div class='respDivL'><div class='vertical-center'><font style='color:orange'>(E)</font></div></div><div class='respDivR'><div class='vertical-center'>(I)</div></div></div>","null","$20","$80","1","20","80",""
"html-keyboard-response","133","241093","0.0-5.0-1.43","63e5c56c4ddeee504b9fa17f","bdp_rd","Sun Apr 02 2023 05:28:14 GMT-0700 (Pacific Daylight Time)","271098","","null","","","","FIX","","<div class='trialBorder'><div class='vertical-center'><img style='vertical-align:center; align:center' src=img/fixation3.jpg></div></div>","null","","","","","",""
"html-keyboard-response","134","242164","0.0-5.0-2.43","63e5c56c4ddeee504b9fa17f","bdp_rd","Sun Apr 02 2023 05:28:14 GMT-0700 (Pacific Daylight Time)","271098","","1070","","","","offer","","<div class='trialBorder'><div class='vertical-center'><img style='vertical-align:center; align:center' src=img/fixation3.jpg></div><div class='cl'><div class='vertical-center'>$34<br>with a<br>50% chance</div></div><div class='cr'><div class='vertical-center'>$15<br>for<br>sure</div></div><div class='respDivL'><div class='vertical-center'>(E)</div></div><div class='respDivR'><div class='vertical-center'>(I)</div></div></div>","E","$15","$34","1","15","34","RISKY"
"html-keyboard-response","135","242415","0.0-5.0-3.43","63e5c56c4ddeee504b9fa17f","bdp_rd","Sun Apr 02 2023 05:28:14 GMT-0700 (Pacific Daylight Time)","271098","","null","","","","offerFB","","<div class='trialBorder'><div class='vertical-center'><img style='vertical-align:center; align:center' src=img/fixation3.jpg></div><div class='cl'><div class='vertical-center'><font style='color:orange'>$34<br>with a<br>50% chance</font></div></div><div class='cr'><div class='vertical-center'>$15<br>for<br>sure</div></div><div class='respDivL'><div class='vertical-center'><font style='color:orange'>(E)</font></div></div><div class='respDivR'><div class='vertical-center'>(I)</div></div></div>","null","$15","$34","1","15","34",""
"html-keyboard-response","136","242916","0.0-5.0-1.44","63e5c56c4ddeee504b9fa17f","bdp_rd","Sun Apr 02 2023 05:28:14 GMT-0700 (Pacific Daylight Time)","271098","","null","","","","FIX","","<div class='trialBorder'><div class='vertical-center'><img style='vertical-align:center; align:center' src=img/fixation3.jpg></div></div>","null","","","","","",""
"html-keyboard-response","137","243869","0.0-5.0-2.44","63e5c56c4ddeee504b9fa17f","bdp_rd","Sun Apr 02 2023 05:28:14 GMT-0700 (Pacific Daylight Time)","271098","","952","","","","offer","","<div class='trialBorder'><div class='vertical-center'><img style='vertical-align:center; align:center' src=img/fixation3.jpg></div><div class='cl'><div class='vertical-center'>$54<br>with a<br>50% chance</div></div><div class='cr'><div class='vertical-center'>$25<br>for<br>sure</div></div><div class='respDivL'><div class='vertical-center'>(E)</div></div><div class='respDivR'><div class='vertical-center'>(I)</div></div></div>","E","$25","$54","1","25","54","RISKY"
"html-keyboard-response","138","244121","0.0-5.0-3.44","63e5c56c4ddeee504b9fa17f","bdp_rd","Sun Apr 02 2023 05:28:14 GMT-0700 (Pacific Daylight Time)","271098","","null","","","","offerFB","","<div class='trialBorder'><div class='vertical-center'><img style='vertical-align:center; align:center' src=img/fixation3.jpg></div><div class='cl'><div class='vertical-center'><font style='color:orange'>$54<br>with a<br>50% chance</font></div></div><div class='cr'><div class='vertical-center'>$25<br>for<br>sure</div></div><div class='respDivL'><div class='vertical-center'><font style='color:orange'>(E)</font></div></div><div class='respDivR'><div class='vertical-center'>(I)</div></div></div>","null","$25","$54","1","25","54",""
"html-keyboard-response","139","244622","0.0-5.0-1.45","63e5c56c4ddeee504b9fa17f","bdp_rd","Sun Apr 02 2023 05:28:14 GMT-0700 (Pacific Daylight Time)","271098","","null","","","","FIX","","<div class='trialBorder'><div class='vertical-center'><img style='vertical-align:center; align:center' src=img/fixation3.jpg></div></div>","null","","","","","",""
"html-keyboard-response","140","246189","0.0-5.0-2.45","63e5c56c4ddeee504b9fa17f","bdp_rd","Sun Apr 02 2023 05:28:14 GMT-0700 (Pacific Daylight Time)","271098","","1567","","","","offer","","<div class='trialBorder'><div class='vertical-center'><img style='vertical-align:center; align:center' src=img/fixation3.jpg></div><div class='cl'><div class='vertical-center'>$10<br>with a<br>50% chance</div></div><div class='cr'><div class='vertical-center'>$7<br>for<br>sure</div></div><div class='respDivL'><div class='vertical-center'>(E)</div></div><div class='respDivR'><div class='vertical-center'>(I)</div></div></div>","I","$7","$10","1","7","10","SURE"
"html-keyboard-response","141","246441","0.0-5.0-3.45","63e5c56c4ddeee504b9fa17f","bdp_rd","Sun Apr 02 2023 05:28:14 GMT-0700 (Pacific Daylight Time)","271098","","null","","","","offerFB","","<div class='trialBorder'><div class='vertical-center'><img style='vertical-align:center; align:center' src=img/fixation3.jpg></div><div class='cl'><div class='vertical-center'>$10<br>with a<br>50% chance</div></div><div class='cr'><div class='vertical-center'><font style='color:orange'>$7<br>for<br>sure</font></div></div><div class='respDivL'><div class='vertical-center'>(E)</div></div><div class='respDivR'><div class='vertical-center'><font style='color:orange'>(I)</font></div></div></div>","null","$7","$10","1","7","10",""
"html-keyboard-response","142","246942","0.0-5.0-1.46","63e5c56c4ddeee504b9fa17f","bdp_rd","Sun Apr 02 2023 05:28:14 GMT-0700 (Pacific Daylight Time)","271098","","null","","","","FIX","","<div class='trialBorder'><div class='vertical-center'><img style='vertical-align:center; align:center' src=img/fixation3.jpg></div></div>","null","","","","","",""
"html-keyboard-response","143","247820","0.0-5.0-2.46","63e5c56c4ddeee504b9fa17f","bdp_rd","Sun Apr 02 2023 05:28:14 GMT-0700 (Pacific Daylight Time)","271098","","877","","","","offer","","<div class='trialBorder'><div class='vertical-center'><img style='vertical-align:center; align:center' src=img/fixation3.jpg></div><div class='cl'><div class='vertical-center'>$21<br>with a<br>50% chance</div></div><div class='cr'><div class='vertical-center'>$2<br>for<br>sure</div></div><div class='respDivL'><div class='vertical-center'>(E)</div></div><div class='respDivR'><div class='vertical-center'>(I)</div></div></div>","E","$2","$21","1","2","21","RISKY"
"html-keyboard-response","144","248071","0.0-5.0-3.46","63e5c56c4ddeee504b9fa17f","bdp_rd","Sun Apr 02 2023 05:28:14 GMT-0700 (Pacific Daylight Time)","271098","","null","","","","offerFB","","<div class='trialBorder'><div class='vertical-center'><img style='vertical-align:center; align:center' src=img/fixation3.jpg></div><div class='cl'><div class='vertical-center'><font style='color:orange'>$21<br>with a<br>50% chance</font></div></div><div class='cr'><div class='vertical-center'>$2<br>for<br>sure</div></div><div class='respDivL'><div class='vertical-center'><font style='color:orange'>(E)</font></div></div><div class='respDivR'><div class='vertical-center'>(I)</div></div></div>","null","$2","$21","1","2","21",""
"html-keyboard-response","145","248571","0.0-5.0-1.47","63e5c56c4ddeee504b9fa17f","bdp_rd","Sun Apr 02 2023 05:28:14 GMT-0700 (Pacific Daylight Time)","271098","","null","","","","FIX","","<div class='trialBorder'><div class='vertical-center'><img style='vertical-align:center; align:center' src=img/fixation3.jpg></div></div>","null","","","","","",""
"html-keyboard-response","146","249367","0.0-5.0-2.47","63e5c56c4ddeee504b9fa17f","bdp_rd","Sun Apr 02 2023 05:28:14 GMT-0700 (Pacific Daylight Time)","271098","","795","","","","offer","","<div class='trialBorder'><div class='vertical-center'><img style='vertical-align:center; align:center' src=img/fixation3.jpg></div><div class='cl'><div class='vertical-center'>$58<br>for<br>sure</div></div><div class='cr'><div class='vertical-center'>$69<br>with a<br>50% chance</div></div><div class='respDivL'><div class='vertical-center'>(E)</div></div><div class='respDivR'><div class='vertical-center'>(I)</div></div></div>","I","$58","$69","0","58","69","RISKY"
"html-keyboard-response","147","249618","0.0-5.0-3.47","63e5c56c4ddeee504b9fa17f","bdp_rd","Sun Apr 02 2023 05:28:14 GMT-0700 (Pacific Daylight Time)","271098","","null","","","","offerFB","","<div class='trialBorder'><div class='vertical-center'><img style='vertical-align:center; align:center' src=img/fixation3.jpg></div><div class='cl'><div class='vertical-center'>$58<br>for<br>sure</div></div><div class='cr'><div class='vertical-center'><font style='color:orange'>$69<br>with a<br>50% chance</font></div></div><div class='respDivL'><div class='vertical-center'>(E)</div></div><div class='respDivR'><div class='vertical-center'><font style='color:orange'>(I)</font></div></div></div>","null","$58","$69","0","58","69",""
"html-keyboard-response","148","250120","0.0-5.0-1.48","63e5c56c4ddeee504b9fa17f","bdp_rd","Sun Apr 02 2023 05:28:14 GMT-0700 (Pacific Daylight Time)","271098","","null","","","","FIX","","<div class='trialBorder'><div class='vertical-center'><img style='vertical-align:center; align:center' src=img/fixation3.jpg></div></div>","null","","","","","",""
"html-keyboard-response","149","250603","0.0-5.0-2.48","63e5c56c4ddeee504b9fa17f","bdp_rd","Sun Apr 02 2023 05:28:14 GMT-0700 (Pacific Daylight Time)","271098","","483","","","","offer","","<div class='trialBorder'><div class='vertical-center'><img style='vertical-align:center; align:center' src=img/fixation3.jpg></div><div class='cl'><div class='vertical-center'>$7<br>for<br>sure</div></div><div class='cr'><div class='vertical-center'>$71<br>with a<br>50% chance</div></div><div class='respDivL'><div class='vertical-center'>(E)</div></div><div class='respDivR'><div class='vertical-center'>(I)</div></div></div>","I","$7","$71","0","7","71","RISKY"
"html-keyboard-response","150","250853","0.0-5.0-3.48","63e5c56c4ddeee504b9fa17f","bdp_rd","Sun Apr 02 2023 05:28:14 GMT-0700 (Pacific Daylight Time)","271098","","null","","","","offerFB","","<div class='trialBorder'><div class='vertical-center'><img style='vertical-align:center; align:center' src=img/fixation3.jpg></div><div class='cl'><div class='vertical-center'>$7<br>for<br>sure</div></div><div class='cr'><div class='vertical-center'><font style='color:orange'>$71<br>with a<br>50% chance</font></div></div><div class='respDivL'><div class='vertical-center'>(E)</div></div><div class='respDivR'><div class='vertical-center'><font style='color:orange'>(I)</font></div></div></div>","null","$7","$71","0","7","71",""
"html-keyboard-response","151","251356","0.0-5.0-1.49","63e5c56c4ddeee504b9fa17f","bdp_rd","Sun Apr 02 2023 05:28:14 GMT-0700 (Pacific Daylight Time)","271098","","null","","","","FIX","","<div class='trialBorder'><div class='vertical-center'><img style='vertical-align:center; align:center' src=img/fixation3.jpg></div></div>","null","","","","","",""
"html-keyboard-response","152","252097","0.0-5.0-2.49","63e5c56c4ddeee504b9fa17f","bdp_rd","Sun Apr 02 2023 05:28:14 GMT-0700 (Pacific Daylight Time)","271098","","740","","","","offer","","<div class='trialBorder'><div class='vertical-center'><img style='vertical-align:center; align:center' src=img/fixation3.jpg></div><div class='cl'><div class='vertical-center'>$81<br>with a<br>50% chance</div></div><div class='cr'><div class='vertical-center'>$39<br>for<br>sure</div></div><div class='respDivL'><div class='vertical-center'>(E)</div></div><div class='respDivR'><div class='vertical-center'>(I)</div></div></div>","E","$39","$81","1","39","81","RISKY"
"html-keyboard-response","153","252347","0.0-5.0-3.49","63e5c56c4ddeee504b9fa17f","bdp_rd","Sun Apr 02 2023 05:28:14 GMT-0700 (Pacific Daylight Time)","271098","","null","","","","offerFB","","<div class='trialBorder'><div class='vertical-center'><img style='vertical-align:center; align:center' src=img/fixation3.jpg></div><div class='cl'><div class='vertical-center'><font style='color:orange'>$81<br>with a<br>50% chance</font></div></div><div class='cr'><div class='vertical-center'>$39<br>for<br>sure</div></div><div class='respDivL'><div class='vertical-center'><font style='color:orange'>(E)</font></div></div><div class='respDivR'><div class='vertical-center'>(I)</div></div></div>","null","$39","$81","1","39","81",""
"html-keyboard-response","154","252848","0.0-5.0-1.50","63e5c56c4ddeee504b9fa17f","bdp_rd","Sun Apr 02 2023 05:28:14 GMT-0700 (Pacific Daylight Time)","271098","","null","","","","FIX","","<div class='trialBorder'><div class='vertical-center'><img style='vertical-align:center; align:center' src=img/fixation3.jpg></div></div>","null","","","","","",""
"html-keyboard-response","155","253390","0.0-5.0-2.50","63e5c56c4ddeee504b9fa17f","bdp_rd","Sun Apr 02 2023 05:28:14 GMT-0700 (Pacific Daylight Time)","271098","","540","","","","offer","","<div class='trialBorder'><div class='vertical-center'><img style='vertical-align:center; align:center' src=img/fixation3.jpg></div><div class='cl'><div class='vertical-center'>$17<br>with a<br>50% chance</div></div><div class='cr'><div class='vertical-center'>$3<br>for<br>sure</div></div><div class='respDivL'><div class='vertical-center'>(E)</div></div><div class='respDivR'><div class='vertical-center'>(I)</div></div></div>","E","$3","$17","1","3","17","RISKY"
"html-keyboard-response","156","253641","0.0-5.0-3.50","63e5c56c4ddeee504b9fa17f","bdp_rd","Sun Apr 02 2023 05:28:14 GMT-0700 (Pacific Daylight Time)","271098","","null","","","","offerFB","","<div class='trialBorder'><div class='vertical-center'><img style='vertical-align:center; align:center' src=img/fixation3.jpg></div><div class='cl'><div class='vertical-center'><font style='color:orange'>$17<br>with a<br>50% chance</font></div></div><div class='cr'><div class='vertical-center'>$3<br>for<br>sure</div></div><div class='respDivL'><div class='vertical-center'><font style='color:orange'>(E)</font></div></div><div class='respDivR'><div class='vertical-center'>(I)</div></div></div>","null","$3","$17","1","3","17",""
"html-keyboard-response","157","254142","0.0-5.0-1.51","63e5c56c4ddeee504b9fa17f","bdp_rd","Sun Apr 02 2023 05:28:14 GMT-0700 (Pacific Daylight Time)","271098","","null","","","","FIX","","<div class='trialBorder'><div class='vertical-center'><img style='vertical-align:center; align:center' src=img/fixation3.jpg></div></div>","null","","","","","",""
"html-keyboard-response","158","254705","0.0-5.0-2.51","63e5c56c4ddeee504b9fa17f","bdp_rd","Sun Apr 02 2023 05:28:14 GMT-0700 (Pacific Daylight Time)","271098","","561","","","","offer","","<div class='trialBorder'><div class='vertical-center'><img style='vertical-align:center; align:center' src=img/fixation3.jpg></div><div class='cl'><div class='vertical-center'>$45<br>for<br>sure</div></div><div class='cr'><div class='vertical-center'>$86<br>with a<br>50% chance</div></div><div class='respDivL'><div class='vertical-center'>(E)</div></div><div class='respDivR'><div class='vertical-center'>(I)</div></div></div>","I","$45","$86","0","45","86","RISKY"
"html-keyboard-response","159","254956","0.0-5.0-3.51","63e5c56c4ddeee504b9fa17f","bdp_rd","Sun Apr 02 2023 05:28:14 GMT-0700 (Pacific Daylight Time)","271098","","null","","","","offerFB","","<div class='trialBorder'><div class='vertical-center'><img style='vertical-align:center; align:center' src=img/fixation3.jpg></div><div class='cl'><div class='vertical-center'>$45<br>for<br>sure</div></div><div class='cr'><div class='vertical-center'><font style='color:orange'>$86<br>with a<br>50% chance</font></div></div><div class='respDivL'><div class='vertical-center'>(E)</div></div><div class='respDivR'><div class='vertical-center'><font style='color:orange'>(I)</font></div></div></div>","null","$45","$86","0","45","86",""
"html-keyboard-response","160","255456","0.0-5.0-1.52","63e5c56c4ddeee504b9fa17f","bdp_rd","Sun Apr 02 2023 05:28:14 GMT-0700 (Pacific Daylight Time)","271098","","null","","","","FIX","","<div class='trialBorder'><div class='vertical-center'><img style='vertical-align:center; align:center' src=img/fixation3.jpg></div></div>","null","","","","","",""
"html-keyboard-response","161","256152","0.0-5.0-2.52","63e5c56c4ddeee504b9fa17f","bdp_rd","Sun Apr 02 2023 05:28:14 GMT-0700 (Pacific Daylight Time)","271098","","695","","","","offer","","<div class='trialBorder'><div class='vertical-center'><img style='vertical-align:center; align:center' src=img/fixation3.jpg></div><div class='cl'><div class='vertical-center'>$42<br>with a<br>50% chance</div></div><div class='cr'><div class='vertical-center'>$22<br>for<br>sure</div></div><div class='respDivL'><div class='vertical-center'>(E)</div></div><div class='respDivR'><div class='vertical-center'>(I)</div></div></div>","E","$22","$42","1","22","42","RISKY"
"html-keyboard-response","162","256404","0.0-5.0-3.52","63e5c56c4ddeee504b9fa17f","bdp_rd","Sun Apr 02 2023 05:28:14 GMT-0700 (Pacific Daylight Time)","271098","","null","","","","offerFB","","<div class='trialBorder'><div class='vertical-center'><img style='vertical-align:center; align:center' src=img/fixation3.jpg></div><div class='cl'><div class='vertical-center'><font style='color:orange'>$42<br>with a<br>50% chance</font></div></div><div class='cr'><div class='vertical-center'>$22<br>for<br>sure</div></div><div class='respDivL'><div class='vertical-center'><font style='color:orange'>(E)</font></div></div><div class='respDivR'><div class='vertical-center'>(I)</div></div></div>","null","$22","$42","1","22","42",""
"html-keyboard-response","163","256905","0.0-5.0-1.53","63e5c56c4ddeee504b9fa17f","bdp_rd","Sun Apr 02 2023 05:28:14 GMT-0700 (Pacific Daylight Time)","271098","","null","","","","FIX","","<div class='trialBorder'><div class='vertical-center'><img style='vertical-align:center; align:center' src=img/fixation3.jpg></div></div>","null","","","","","",""
"html-keyboard-response","164","257545","0.0-5.0-2.53","63e5c56c4ddeee504b9fa17f","bdp_rd","Sun Apr 02 2023 05:28:14 GMT-0700 (Pacific Daylight Time)","271098","","640","","","","offer","","<div class='trialBorder'><div class='vertical-center'><img style='vertical-align:center; align:center' src=img/fixation3.jpg></div><div class='cl'><div class='vertical-center'>$38<br>with a<br>50% chance</div></div><div class='cr'><div class='vertical-center'>$16<br>for<br>sure</div></div><div class='respDivL'><div class='vertical-center'>(E)</div></div><div class='respDivR'><div class='vertical-center'>(I)</div></div></div>","E","$16","$38","1","16","38","RISKY"
"html-keyboard-response","165","257796","0.0-5.0-3.53","63e5c56c4ddeee504b9fa17f","bdp_rd","Sun Apr 02 2023 05:28:14 GMT-0700 (Pacific Daylight Time)","271098","","null","","","","offerFB","","<div class='trialBorder'><div class='vertical-center'><img style='vertical-align:center; align:center' src=img/fixation3.jpg></div><div class='cl'><div class='vertical-center'><font style='color:orange'>$38<br>with a<br>50% chance</font></div></div><div class='cr'><div class='vertical-center'>$16<br>for<br>sure</div></div><div class='respDivL'><div class='vertical-center'><font style='color:orange'>(E)</font></div></div><div class='respDivR'><div class='vertical-center'>(I)</div></div></div>","null","$16","$38","1","16","38",""
"html-keyboard-response","166","258297","0.0-5.0-1.54","63e5c56c4ddeee504b9fa17f","bdp_rd","Sun Apr 02 2023 05:28:14 GMT-0700 (Pacific Daylight Time)","271098","","null","","","","FIX","","<div class='trialBorder'><div class='vertical-center'><img style='vertical-align:center; align:center' src=img/fixation3.jpg></div></div>","null","","","","","",""
"html-keyboard-response","167","259001","0.0-5.0-2.54","63e5c56c4ddeee504b9fa17f","bdp_rd","Sun Apr 02 2023 05:28:14 GMT-0700 (Pacific Daylight Time)","271098","","703","","","","offer","","<div class='trialBorder'><div class='vertical-center'><img style='vertical-align:center; align:center' src=img/fixation3.jpg></div><div class='cl'><div class='vertical-center'>$40<br>with a<br>50% chance</div></div><div class='cr'><div class='vertical-center'>$10<br>for<br>sure</div></div><div class='respDivL'><div class='vertical-center'>(E)</div></div><div class='respDivR'><div class='vertical-center'>(I)</div></div></div>","E","$10","$40","1","10","40","RISKY"
"html-keyboard-response","168","259253","0.0-5.0-3.54","63e5c56c4ddeee504b9fa17f","bdp_rd","Sun Apr 02 2023 05:28:14 GMT-0700 (Pacific Daylight Time)","271098","","null","","","","offerFB","","<div class='trialBorder'><div class='vertical-center'><img style='vertical-align:center; align:center' src=img/fixation3.jpg></div><div class='cl'><div class='vertical-center'><font style='color:orange'>$40<br>with a<br>50% chance</font></div></div><div class='cr'><div class='vertical-center'>$10<br>for<br>sure</div></div><div class='respDivL'><div class='vertical-center'><font style='color:orange'>(E)</font></div></div><div class='respDivR'><div class='vertical-center'>(I)</div></div></div>","null","$10","$40","1","10","40",""
"html-keyboard-response","169","259754","0.0-5.0-1.55","63e5c56c4ddeee504b9fa17f","bdp_rd","Sun Apr 02 2023 05:28:14 GMT-0700 (Pacific Daylight Time)","271098","","null","","","","FIX","","<div class='trialBorder'><div class='vertical-center'><img style='vertical-align:center; align:center' src=img/fixation3.jpg></div></div>","null","","","","","",""
"html-keyboard-response","170","260869","0.0-5.0-2.55","63e5c56c4ddeee504b9fa17f","bdp_rd","Sun Apr 02 2023 05:28:14 GMT-0700 (Pacific Daylight Time)","271098","","1114","","","","offer","","<div class='trialBorder'><div class='vertical-center'><img style='vertical-align:center; align:center' src=img/fixation3.jpg></div><div class='cl'><div class='vertical-center'>$46<br>with a<br>50% chance</div></div><div class='cr'><div class='vertical-center'>$29<br>for<br>sure</div></div><div class='respDivL'><div class='vertical-center'>(E)</div></div><div class='respDivR'><div class='vertical-center'>(I)</div></div></div>","E","$29","$46","1","29","46","RISKY"
"html-keyboard-response","171","261120","0.0-5.0-3.55","63e5c56c4ddeee504b9fa17f","bdp_rd","Sun Apr 02 2023 05:28:14 GMT-0700 (Pacific Daylight Time)","271098","","null","","","","offerFB","","<div class='trialBorder'><div class='vertical-center'><img style='vertical-align:center; align:center' src=img/fixation3.jpg></div><div class='cl'><div class='vertical-center'><font style='color:orange'>$46<br>with a<br>50% chance</font></div></div><div class='cr'><div class='vertical-center'>$29<br>for<br>sure</div></div><div class='respDivL'><div class='vertical-center'><font style='color:orange'>(E)</font></div></div><div class='respDivR'><div class='vertical-center'>(I)</div></div></div>","null","$29","$46","1","29","46",""
"html-keyboard-response","172","261621","0.0-5.0-1.56","63e5c56c4ddeee504b9fa17f","bdp_rd","Sun Apr 02 2023 05:28:14 GMT-0700 (Pacific Daylight Time)","271098","","null","","","","FIX","","<div class='trialBorder'><div class='vertical-center'><img style='vertical-align:center; align:center' src=img/fixation3.jpg></div></div>","null","","","","","",""
"html-keyboard-response","173","262411","0.0-5.0-2.56","63e5c56c4ddeee504b9fa17f","bdp_rd","Sun Apr 02 2023 05:28:14 GMT-0700 (Pacific Daylight Time)","271098","","790","","","","offer","","<div class='trialBorder'><div class='vertical-center'><img style='vertical-align:center; align:center' src=img/fixation3.jpg></div><div class='cl'><div class='vertical-center'>$30<br>for<br>sure</div></div><div class='cr'><div class='vertical-center'>$68<br>with a<br>50% chance</div></div><div class='respDivL'><div class='vertical-center'>(E)</div></div><div class='respDivR'><div class='vertical-center'>(I)</div></div></div>","I","$30","$68","0","30","68","RISKY"
