"event","trial","time","trialtype","subject_id","task","startTime","totalTime","trial_type","trial_index","time_elapsed","internal_node_id","view_history","rt","numBlurs","success","stimulus","key_press","sureOffer","riskyOffer","riskyLeft","sureAmt","riskyAmt","chosen"
"focus","0","0","focusevent","63d80b500adef5b476e289a8","bdp_rd","Tue Mar 28 2023 13:31:28 GMT-0400 (Eastern Daylight Time)","112593","","","","","","","","","","","","","","","",""
"","","","","63d80b500adef5b476e289a8","bdp_rd","Tue Mar 28 2023 13:31:28 GMT-0400 (Eastern Daylight Time)","112593","pavlovia","0","17","0.0-0.0","","","","","","","","","","","",""
"","","","","63d80b500adef5b476e289a8","bdp_rd","Tue Mar 28 2023 13:31:28 GMT-0400 (Eastern Daylight Time)","112593","instructions","1","1549","0.0-1.0","[{""page_index"":0,""viewing_time"":1532}]","1532","","","","","","","","","",""
"blur","2","2876","blurevent","63d80b500adef5b476e289a8","bdp_rd","Tue Mar 28 2023 13:31:28 GMT-0400 (Eastern Daylight Time)","112593","","","","","","","1","","","","","","","","",""
"focus","2","4135","focusevent","63d80b500adef5b476e289a8","bdp_rd","Tue Mar 28 2023 13:31:28 GMT-0400 (Eastern Daylight Time)","112593","","","","","","","","","","","","","","","",""
"fullscreenexit","2","5335","fullscreenexit","63d80b500adef5b476e289a8","bdp_rd","Tue Mar 28 2023 13:31:28 GMT-0400 (Eastern Daylight Time)","112593","","","","","","","","","","","","","","","",""
"","","","","63d80b500adef5b476e289a8","bdp_rd","Tue Mar 28 2023 13:31:28 GMT-0400 (Eastern Daylight Time)","112593","fullscreen","2","6098","0.0-2.0","","","","true","","","","","","","",""
"","","","fullscreenfail","63d80b500adef5b476e289a8","bdp_rd","Tue Mar 28 2023 13:31:28 GMT-0400 (Eastern Daylight Time)","112593","image-keyboard-response","3","6937","0.0-3.0-0.0","","836","","","","32","","","","","",""
"","","","","63d80b500adef5b476e289a8","bdp_rd","Tue Mar 28 2023 13:31:28 GMT-0400 (Eastern Daylight Time)","112593","instructions","4","22924","0.0-4.0","[{""page_index"":0,""viewing_time"":10657},{""page_index"":1,""viewing_time"":2200},{""page_index"":2,""viewing_time"":2875}]","15732","","","","","","","","","",""
"","","","blurwarn","63d80b500adef5b476e289a8","bdp_rd","Tue Mar 28 2023 13:31:28 GMT-0400 (Eastern Daylight Time)","112593","image-keyboard-response","5","30260","0.0-5.0-0.0-0.0","","7334","1","","","49","","","","","",""
"","","","FIX","63d80b500adef5b476e289a8","bdp_rd","Tue Mar 28 2023 13:31:28 GMT-0400 (Eastern Daylight Time)","112593","html-keyboard-response","6","31016","0.0-5.0-1.0","","null","","","<div class='trialBorder'><div class='vertical-center'><img style='vertical-align:center; align:center' src=img/fixation3.jpg></div></div>","null","","","","","",""
"","","","offer","63d80b500adef5b476e289a8","bdp_rd","Tue Mar 28 2023 13:31:28 GMT-0400 (Eastern Daylight Time)","112593","html-keyboard-response","7","33460","0.0-5.0-2.0","","2441","","","<div class='trialBorder'><div class='vertical-center'><img style='vertical-align:center; align:center' src=img/fixation3.jpg></div><div class='cl'><div class='vertical-center'>$80<br>with a<br>50% chance</div></div><div class='cr'><div class='vertical-center'>$20<br>for<br>sure</div></div><div class='respDivL'><div class='vertical-center'>(E)</div></div><div class='respDivR'><div class='vertical-center'>(I)</div></div></div>","I","$20","$80","1","20","80","SURE"
"","","","offerFB","63d80b500adef5b476e289a8","bdp_rd","Tue Mar 28 2023 13:31:28 GMT-0400 (Eastern Daylight Time)","112593","html-keyboard-response","8","33715","0.0-5.0-3.0","","null","","","<div class='trialBorder'><div class='vertical-center'><img style='vertical-align:center; align:center' src=img/fixation3.jpg></div><div class='cl'><div class='vertical-center'>$80<br>with a<br>50% chance</div></div><div class='cr'><div class='vertical-center'><font style='color:orange'>$20<br>for<br>sure</font></div></div><div class='respDivL'><div class='vertical-center'>(E)</div></div><div class='respDivR'><div class='vertical-center'><font style='color:orange'>(I)</font></div></div></div>","null","$20","$80","1","20","80",""
"","","","FIX","63d80b500adef5b476e289a8","bdp_rd","Tue Mar 28 2023 13:31:28 GMT-0400 (Eastern Daylight Time)","112593","html-keyboard-response","9","34222","0.0-5.0-1.1","","null","","","<div class='trialBorder'><div class='vertical-center'><img style='vertical-align:center; align:center' src=img/fixation3.jpg></div></div>","null","","","","","",""
"","","","offer","63d80b500adef5b476e289a8","bdp_rd","Tue Mar 28 2023 13:31:28 GMT-0400 (Eastern Daylight Time)","112593","html-keyboard-response","10","34912","0.0-5.0-2.1","","689","","","<div class='trialBorder'><div class='vertical-center'><img style='vertical-align:center; align:center' src=img/fixation3.jpg></div><div class='cl'><div class='vertical-center'>$12<br>for<br>sure</div></div><div class='cr'><div class='vertical-center'>$27<br>with a<br>50% chance</div></div><div class='respDivL'><div class='vertical-center'>(E)</div></div><div class='respDivR'><div class='vertical-center'>(I)</div></div></div>","E","$12","$27","0","12","27","SURE"
"","","","offerFB","63d80b500adef5b476e289a8","bdp_rd","Tue Mar 28 2023 13:31:28 GMT-0400 (Eastern Daylight Time)","112593","html-keyboard-response","11","35165","0.0-5.0-3.1","","null","","","<div class='trialBorder'><div class='vertical-center'><img style='vertical-align:center; align:center' src=img/fixation3.jpg></div><div class='cl'><div class='vertical-center'><font style='color:orange'>$12<br>for<br>sure</font></div></div><div class='cr'><div class='vertical-center'>$27<br>with a<br>50% chance</div></div><div class='respDivL'><div class='vertical-center'><font style='color:orange'>(E)</font></div></div><div class='respDivR'><div class='vertical-center'>(I)</div></div></div>","null","$12","$27","0","12","27",""
"","","","FIX","63d80b500adef5b476e289a8","bdp_rd","Tue Mar 28 2023 13:31:28 GMT-0400 (Eastern Daylight Time)","112593","html-keyboard-response","12","35669","0.0-5.0-1.2","","null","","","<div class='trialBorder'><div class='vertical-center'><img style='vertical-align:center; align:center' src=img/fixation3.jpg></div></div>","null","","","","","",""
"","","","offer","63d80b500adef5b476e289a8","bdp_rd","Tue Mar 28 2023 13:31:28 GMT-0400 (Eastern Daylight Time)","112593","html-keyboard-response","13","36200","0.0-5.0-2.2","","530","","","<div class='trialBorder'><div class='vertical-center'><img style='vertical-align:center; align:center' src=img/fixation3.jpg></div><div class='cl'><div class='vertical-center'>$30<br>with a<br>50% chance</div></div><div class='cr'><div class='vertical-center'>$1<br>for<br>sure</div></div><div class='respDivL'><div class='vertical-center'>(E)</div></div><div class='respDivR'><div class='vertical-center'>(I)</div></div></div>","I","$1","$30","1","1","30","SURE"
"","","","offerFB","63d80b500adef5b476e289a8","bdp_rd","Tue Mar 28 2023 13:31:28 GMT-0400 (Eastern Daylight Time)","112593","html-keyboard-response","14","36456","0.0-5.0-3.2","","null","","","<div class='trialBorder'><div class='vertical-center'><img style='vertical-align:center; align:center' src=img/fixation3.jpg></div><div class='cl'><div class='vertical-center'>$30<br>with a<br>50% chance</div></div><div class='cr'><div class='vertical-center'><font style='color:orange'>$1<br>for<br>sure</font></div></div><div class='respDivL'><div class='vertical-center'>(E)</div></div><div class='respDivR'><div class='vertical-center'><font style='color:orange'>(I)</font></div></div></div>","null","$1","$30","1","1","30",""
"","","","FIX","63d80b500adef5b476e289a8","bdp_rd","Tue Mar 28 2023 13:31:28 GMT-0400 (Eastern Daylight Time)","112593","html-keyboard-response","15","36961","0.0-5.0-1.3","","null","","","<div class='trialBorder'><div class='vertical-center'><img style='vertical-align:center; align:center' src=img/fixation3.jpg></div></div>","null","","","","","",""
"","","","offer","63d80b500adef5b476e289a8","bdp_rd","Tue Mar 28 2023 13:31:28 GMT-0400 (Eastern Daylight Time)","112593","html-keyboard-response","16","37543","0.0-5.0-2.3","","580","","","<div class='trialBorder'><div class='vertical-center'><img style='vertical-align:center; align:center' src=img/fixation3.jpg></div><div class='cl'><div class='vertical-center'>$69<br>with a<br>50% chance</div></div><div class='cr'><div class='vertical-center'>$58<br>for<br>sure</div></div><div class='respDivL'><div class='vertical-center'>(E)</div></div><div class='respDivR'><div class='vertical-center'>(I)</div></div></div>","I","$58","$69","1","58","69","SURE"
"","","","offerFB","63d80b500adef5b476e289a8","bdp_rd","Tue Mar 28 2023 13:31:28 GMT-0400 (Eastern Daylight Time)","112593","html-keyboard-response","17","37799","0.0-5.0-3.3","","null","","","<div class='trialBorder'><div class='vertical-center'><img style='vertical-align:center; align:center' src=img/fixation3.jpg></div><div class='cl'><div class='vertical-center'>$69<br>with a<br>50% chance</div></div><div class='cr'><div class='vertical-center'><font style='color:orange'>$58<br>for<br>sure</font></div></div><div class='respDivL'><div class='vertical-center'>(E)</div></div><div class='respDivR'><div class='vertical-center'><font style='color:orange'>(I)</font></div></div></div>","null","$58","$69","1","58","69",""
"","","","FIX","63d80b500adef5b476e289a8","bdp_rd","Tue Mar 28 2023 13:31:28 GMT-0400 (Eastern Daylight Time)","112593","html-keyboard-response","18","38305","0.0-5.0-1.4","","null","","","<div class='trialBorder'><div class='vertical-center'><img style='vertical-align:center; align:center' src=img/fixation3.jpg></div></div>","null","","","","","",""
"","","","offer","63d80b500adef5b476e289a8","bdp_rd","Tue Mar 28 2023 13:31:28 GMT-0400 (Eastern Daylight Time)","112593","html-keyboard-response","19","38880","0.0-5.0-2.4","","574","","","<div class='trialBorder'><div class='vertical-center'><img style='vertical-align:center; align:center' src=img/fixation3.jpg></div><div class='cl'><div class='vertical-center'>$38<br>with a<br>50% chance</div></div><div class='cr'><div class='vertical-center'>$16<br>for<br>sure</div></div><div class='respDivL'><div class='vertical-center'>(E)</div></div><div class='respDivR'><div class='vertical-center'>(I)</div></div></div>","I","$16","$38","1","16","38","SURE"
"","","","offerFB","63d80b500adef5b476e289a8","bdp_rd","Tue Mar 28 2023 13:31:28 GMT-0400 (Eastern Daylight Time)","112593","html-keyboard-response","20","39136","0.0-5.0-3.4","","null","","","<div class='trialBorder'><div class='vertical-center'><img style='vertical-align:center; align:center' src=img/fixation3.jpg></div><div class='cl'><div class='vertical-center'>$38<br>with a<br>50% chance</div></div><div class='cr'><div class='vertical-center'><font style='color:orange'>$16<br>for<br>sure</font></div></div><div class='respDivL'><div class='vertical-center'>(E)</div></div><div class='respDivR'><div class='vertical-center'><font style='color:orange'>(I)</font></div></div></div>","null","$16","$38","1","16","38",""
"","","","FIX","63d80b500adef5b476e289a8","bdp_rd","Tue Mar 28 2023 13:31:28 GMT-0400 (Eastern Daylight Time)","112593","html-keyboard-response","21","39642","0.0-5.0-1.5","","null","","","<div class='trialBorder'><div class='vertical-center'><img style='vertical-align:center; align:center' src=img/fixation3.jpg></div></div>","null","","","","","",""
"","","","offer","63d80b500adef5b476e289a8","bdp_rd","Tue Mar 28 2023 13:31:28 GMT-0400 (Eastern Daylight Time)","112593","html-keyboard-response","22","40138","0.0-5.0-2.5","","495","","","<div class='trialBorder'><div class='vertical-center'><img style='vertical-align:center; align:center' src=img/fixation3.jpg></div><div class='cl'><div class='vertical-center'>$31<br>with a<br>50% chance</div></div><div class='cr'><div class='vertical-center'>$15<br>for<br>sure</div></div><div class='respDivL'><div class='vertical-center'>(E)</div></div><div class='respDivR'><div class='vertical-center'>(I)</div></div></div>","I","$15","$31","1","15","31","SURE"
"","","","offerFB","63d80b500adef5b476e289a8","bdp_rd","Tue Mar 28 2023 13:31:28 GMT-0400 (Eastern Daylight Time)","112593","html-keyboard-response","23","40392","0.0-5.0-3.5","","null","","","<div class='trialBorder'><div class='vertical-center'><img style='vertical-align:center; align:center' src=img/fixation3.jpg></div><div class='cl'><div class='vertical-center'>$31<br>with a<br>50% chance</div></div><div class='cr'><div class='vertical-center'><font style='color:orange'>$15<br>for<br>sure</font></div></div><div class='respDivL'><div class='vertical-center'>(E)</div></div><div class='respDivR'><div class='vertical-center'><font style='color:orange'>(I)</font></div></div></div>","null","$15","$31","1","15","31",""
"","","","FIX","63d80b500adef5b476e289a8","bdp_rd","Tue Mar 28 2023 13:31:28 GMT-0400 (Eastern Daylight Time)","112593","html-keyboard-response","24","40898","0.0-5.0-1.6","","null","","","<div class='trialBorder'><div class='vertical-center'><img style='vertical-align:center; align:center' src=img/fixation3.jpg></div></div>","null","","","","","",""
"","","","offer","63d80b500adef5b476e289a8","bdp_rd","Tue Mar 28 2023 13:31:28 GMT-0400 (Eastern Daylight Time)","112593","html-keyboard-response","25","41344","0.0-5.0-2.6","","446","","","<div class='trialBorder'><div class='vertical-center'><img style='vertical-align:center; align:center' src=img/fixation3.jpg></div><div class='cl'><div class='vertical-center'>$45<br>with a<br>50% chance</div></div><div class='cr'><div class='vertical-center'>$8<br>for<br>sure</div></div><div class='respDivL'><div class='vertical-center'>(E)</div></div><div class='respDivR'><div class='vertical-center'>(I)</div></div></div>","I","$8","$45","1","8","45","SURE"
"","","","offerFB","63d80b500adef5b476e289a8","bdp_rd","Tue Mar 28 2023 13:31:28 GMT-0400 (Eastern Daylight Time)","112593","html-keyboard-response","26","41600","0.0-5.0-3.6","","null","","","<div class='trialBorder'><div class='vertical-center'><img style='vertical-align:center; align:center' src=img/fixation3.jpg></div><div class='cl'><div class='vertical-center'>$45<br>with a<br>50% chance</div></div><div class='cr'><div class='vertical-center'><font style='color:orange'>$8<br>for<br>sure</font></div></div><div class='respDivL'><div class='vertical-center'>(E)</div></div><div class='respDivR'><div class='vertical-center'><font style='color:orange'>(I)</font></div></div></div>","null","$8","$45","1","8","45",""
"","","","FIX","63d80b500adef5b476e289a8","bdp_rd","Tue Mar 28 2023 13:31:28 GMT-0400 (Eastern Daylight Time)","112593","html-keyboard-response","27","42104","0.0-5.0-1.7","","null","","","<div class='trialBorder'><div class='vertical-center'><img style='vertical-align:center; align:center' src=img/fixation3.jpg></div></div>","null","","","","","",""
"","","","offer","63d80b500adef5b476e289a8","bdp_rd","Tue Mar 28 2023 13:31:28 GMT-0400 (Eastern Daylight Time)","112593","html-keyboard-response","28","42640","0.0-5.0-2.7","","535","","","<div class='trialBorder'><div class='vertical-center'><img style='vertical-align:center; align:center' src=img/fixation3.jpg></div><div class='cl'><div class='vertical-center'>$98<br>with a<br>50% chance</div></div><div class='cr'><div class='vertical-center'>$53<br>for<br>sure</div></div><div class='respDivL'><div class='vertical-center'>(E)</div></div><div class='respDivR'><div class='vertical-center'>(I)</div></div></div>","I","$53","$98","1","53","98","SURE"
"","","","offerFB","63d80b500adef5b476e289a8","bdp_rd","Tue Mar 28 2023 13:31:28 GMT-0400 (Eastern Daylight Time)","112593","html-keyboard-response","29","42896","0.0-5.0-3.7","","null","","","<div class='trialBorder'><div class='vertical-center'><img style='vertical-align:center; align:center' src=img/fixation3.jpg></div><div class='cl'><div class='vertical-center'>$98<br>with a<br>50% chance</div></div><div class='cr'><div class='vertical-center'><font style='color:orange'>$53<br>for<br>sure</font></div></div><div class='respDivL'><div class='vertical-center'>(E)</div></div><div class='respDivR'><div class='vertical-center'><font style='color:orange'>(I)</font></div></div></div>","null","$53","$98","1","53","98",""
"","","","FIX","63d80b500adef5b476e289a8","bdp_rd","Tue Mar 28 2023 13:31:28 GMT-0400 (Eastern Daylight Time)","112593","html-keyboard-response","30","43400","0.0-5.0-1.8","","null","","","<div class='trialBorder'><div class='vertical-center'><img style='vertical-align:center; align:center' src=img/fixation3.jpg></div></div>","null","","","","","",""
"","","","offer","63d80b500adef5b476e289a8","bdp_rd","Tue Mar 28 2023 13:31:28 GMT-0400 (Eastern Daylight Time)","112593","html-keyboard-response","31","44104","0.0-5.0-2.8","","703","","","<div class='trialBorder'><div class='vertical-center'><img style='vertical-align:center; align:center' src=img/fixation3.jpg></div><div class='cl'><div class='vertical-center'>$11<br>for<br>sure</div></div><div class='cr'><div class='vertical-center'>$62<br>with a<br>50% chance</div></div><div class='respDivL'><div class='vertical-center'>(E)</div></div><div class='respDivR'><div class='vertical-center'>(I)</div></div></div>","E","$11","$62","0","11","62","SURE"
"","","","offerFB","63d80b500adef5b476e289a8","bdp_rd","Tue Mar 28 2023 13:31:28 GMT-0400 (Eastern Daylight Time)","112593","html-keyboard-response","32","44360","0.0-5.0-3.8","","null","","","<div class='trialBorder'><div class='vertical-center'><img style='vertical-align:center; align:center' src=img/fixation3.jpg></div><div class='cl'><div class='vertical-center'><font style='color:orange'>$11<br>for<br>sure</font></div></div><div class='cr'><div class='vertical-center'>$62<br>with a<br>50% chance</div></div><div class='respDivL'><div class='vertical-center'><font style='color:orange'>(E)</font></div></div><div class='respDivR'><div class='vertical-center'>(I)</div></div></div>","null","$11","$62","0","11","62",""
"","","","FIX","63d80b500adef5b476e289a8","bdp_rd","Tue Mar 28 2023 13:31:28 GMT-0400 (Eastern Daylight Time)","112593","html-keyboard-response","33","44864","0.0-5.0-1.9","","null","","","<div class='trialBorder'><div class='vertical-center'><img style='vertical-align:center; align:center' src=img/fixation3.jpg></div></div>","null","","","","","",""
"","","","offer","63d80b500adef5b476e289a8","bdp_rd","Tue Mar 28 2023 13:31:28 GMT-0400 (Eastern Daylight Time)","112593","html-keyboard-response","34","45446","0.0-5.0-2.9","","582","","","<div class='trialBorder'><div class='vertical-center'><img style='vertical-align:center; align:center' src=img/fixation3.jpg></div><div class='cl'><div class='vertical-center'>$6<br>for<br>sure</div></div><div class='cr'><div class='vertical-center'>$13<br>with a<br>50% chance</div></div><div class='respDivL'><div class='vertical-center'>(E)</div></div><div class='respDivR'><div class='vertical-center'>(I)</div></div></div>","E","$6","$13","0","6","13","SURE"
"","","","offerFB","63d80b500adef5b476e289a8","bdp_rd","Tue Mar 28 2023 13:31:28 GMT-0400 (Eastern Daylight Time)","112593","html-keyboard-response","35","45702","0.0-5.0-3.9","","null","","","<div class='trialBorder'><div class='vertical-center'><img style='vertical-align:center; align:center' src=img/fixation3.jpg></div><div class='cl'><div class='vertical-center'><font style='color:orange'>$6<br>for<br>sure</font></div></div><div class='cr'><div class='vertical-center'>$13<br>with a<br>50% chance</div></div><div class='respDivL'><div class='vertical-center'><font style='color:orange'>(E)</font></div></div><div class='respDivR'><div class='vertical-center'>(I)</div></div></div>","null","$6","$13","0","6","13",""
"","","","FIX","63d80b500adef5b476e289a8","bdp_rd","Tue Mar 28 2023 13:31:28 GMT-0400 (Eastern Daylight Time)","112593","html-keyboard-response","36","46207","0.0-5.0-1.10","","null","","","<div class='trialBorder'><div class='vertical-center'><img style='vertical-align:center; align:center' src=img/fixation3.jpg></div></div>","null","","","","","",""
"","","","offer","63d80b500adef5b476e289a8","bdp_rd","Tue Mar 28 2023 13:31:28 GMT-0400 (Eastern Daylight Time)","112593","html-keyboard-response","37","46747","0.0-5.0-2.10","","539","","","<div class='trialBorder'><div class='vertical-center'><img style='vertical-align:center; align:center' src=img/fixation3.jpg></div><div class='cl'><div class='vertical-center'>$25<br>for<br>sure</div></div><div class='cr'><div class='vertical-center'>$54<br>with a<br>50% chance</div></div><div class='respDivL'><div class='vertical-center'>(E)</div></div><div class='respDivR'><div class='vertical-center'>(I)</div></div></div>","E","$25","$54","0","25","54","SURE"
"","","","offerFB","63d80b500adef5b476e289a8","bdp_rd","Tue Mar 28 2023 13:31:28 GMT-0400 (Eastern Daylight Time)","112593","html-keyboard-response","38","47001","0.0-5.0-3.10","","null","","","<div class='trialBorder'><div class='vertical-center'><img style='vertical-align:center; align:center' src=img/fixation3.jpg></div><div class='cl'><div class='vertical-center'><font style='color:orange'>$25<br>for<br>sure</font></div></div><div class='cr'><div class='vertical-center'>$54<br>with a<br>50% chance</div></div><div class='respDivL'><div class='vertical-center'><font style='color:orange'>(E)</font></div></div><div class='respDivR'><div class='vertical-center'>(I)</div></div></div>","null","$25","$54","0","25","54",""
"","","","FIX","63d80b500adef5b476e289a8","bdp_rd","Tue Mar 28 2023 13:31:28 GMT-0400 (Eastern Daylight Time)","112593","html-keyboard-response","39","47503","0.0-5.0-1.11","","null","","","<div class='trialBorder'><div class='vertical-center'><img style='vertical-align:center; align:center' src=img/fixation3.jpg></div></div>","null","","","","","",""
"","","","offer","63d80b500adef5b476e289a8","bdp_rd","Tue Mar 28 2023 13:31:28 GMT-0400 (Eastern Daylight Time)","112593","html-keyboard-response","40","48222","0.0-5.0-2.11","","719","","","<div class='trialBorder'><div class='vertical-center'><img style='vertical-align:center; align:center' src=img/fixation3.jpg></div><div class='cl'><div class='vertical-center'>$16<br>with a<br>50% chance</div></div><div class='cr'><div class='vertical-center'>$5<br>for<br>sure</div></div><div class='respDivL'><div class='vertical-center'>(E)</div></div><div class='respDivR'><div class='vertical-center'>(I)</div></div></div>","I","$5","$16","1","5","16","SURE"
"","","","offerFB","63d80b500adef5b476e289a8","bdp_rd","Tue Mar 28 2023 13:31:28 GMT-0400 (Eastern Daylight Time)","112593","html-keyboard-response","41","48478","0.0-5.0-3.11","","null","","","<div class='trialBorder'><div class='vertical-center'><img style='vertical-align:center; align:center' src=img/fixation3.jpg></div><div class='cl'><div class='vertical-center'>$16<br>with a<br>50% chance</div></div><div class='cr'><div class='vertical-center'><font style='color:orange'>$5<br>for<br>sure</font></div></div><div class='respDivL'><div class='vertical-center'>(E)</div></div><div class='respDivR'><div class='vertical-center'><font style='color:orange'>(I)</font></div></div></div>","null","$5","$16","1","5","16",""
"","","","FIX","63d80b500adef5b476e289a8","bdp_rd","Tue Mar 28 2023 13:31:28 GMT-0400 (Eastern Daylight Time)","112593","html-keyboard-response","42","48984","0.0-5.0-1.12","","null","","","<div class='trialBorder'><div class='vertical-center'><img style='vertical-align:center; align:center' src=img/fixation3.jpg></div></div>","null","","","","","",""
"","","","offer","63d80b500adef5b476e289a8","bdp_rd","Tue Mar 28 2023 13:31:28 GMT-0400 (Eastern Daylight Time)","112593","html-keyboard-response","43","49495","0.0-5.0-2.12","","510","","","<div class='trialBorder'><div class='vertical-center'><img style='vertical-align:center; align:center' src=img/fixation3.jpg></div><div class='cl'><div class='vertical-center'>$73<br>with a<br>50% chance</div></div><div class='cr'><div class='vertical-center'>$42<br>for<br>sure</div></div><div class='respDivL'><div class='vertical-center'>(E)</div></div><div class='respDivR'><div class='vertical-center'>(I)</div></div></div>","I","$42","$73","1","42","73","SURE"
"","","","offerFB","63d80b500adef5b476e289a8","bdp_rd","Tue Mar 28 2023 13:31:28 GMT-0400 (Eastern Daylight Time)","112593","html-keyboard-response","44","49752","0.0-5.0-3.12","","null","","","<div class='trialBorder'><div class='vertical-center'><img style='vertical-align:center; align:center' src=img/fixation3.jpg></div><div class='cl'><div class='vertical-center'>$73<br>with a<br>50% chance</div></div><div class='cr'><div class='vertical-center'><font style='color:orange'>$42<br>for<br>sure</font></div></div><div class='respDivL'><div class='vertical-center'>(E)</div></div><div class='respDivR'><div class='vertical-center'><font style='color:orange'>(I)</font></div></div></div>","null","$42","$73","1","42","73",""
"","","","FIX","63d80b500adef5b476e289a8","bdp_rd","Tue Mar 28 2023 13:31:28 GMT-0400 (Eastern Daylight Time)","112593","html-keyboard-response","45","50254","0.0-5.0-1.13","","null","","","<div class='trialBorder'><div class='vertical-center'><img style='vertical-align:center; align:center' src=img/fixation3.jpg></div></div>","null","","","","","",""
"","","","offer","63d80b500adef5b476e289a8","bdp_rd","Tue Mar 28 2023 13:31:28 GMT-0400 (Eastern Daylight Time)","112593","html-keyboard-response","46","50844","0.0-5.0-2.13","","589","","","<div class='trialBorder'><div class='vertical-center'><img style='vertical-align:center; align:center' src=img/fixation3.jpg></div><div class='cl'><div class='vertical-center'>$15<br>with a<br>50% chance</div></div><div class='cr'><div class='vertical-center'>$6<br>for<br>sure</div></div><div class='respDivL'><div class='vertical-center'>(E)</div></div><div class='respDivR'><div class='vertical-center'>(I)</div></div></div>","I","$6","$15","1","6","15","SURE"
"","","","offerFB","63d80b500adef5b476e289a8","bdp_rd","Tue Mar 28 2023 13:31:28 GMT-0400 (Eastern Daylight Time)","112593","html-keyboard-response","47","51098","0.0-5.0-3.13","","null","","","<div class='trialBorder'><div class='vertical-center'><img style='vertical-align:center; align:center' src=img/fixation3.jpg></div><div class='cl'><div class='vertical-center'>$15<br>with a<br>50% chance</div></div><div class='cr'><div class='vertical-center'><font style='color:orange'>$6<br>for<br>sure</font></div></div><div class='respDivL'><div class='vertical-center'>(E)</div></div><div class='respDivR'><div class='vertical-center'><font style='color:orange'>(I)</font></div></div></div>","null","$6","$15","1","6","15",""
"","","","FIX","63d80b500adef5b476e289a8","bdp_rd","Tue Mar 28 2023 13:31:28 GMT-0400 (Eastern Daylight Time)","112593","html-keyboard-response","48","51605","0.0-5.0-1.14","","null","","","<div class='trialBorder'><div class='vertical-center'><img style='vertical-align:center; align:center' src=img/fixation3.jpg></div></div>","null","","","","","",""
"","","","offer","63d80b500adef5b476e289a8","bdp_rd","Tue Mar 28 2023 13:31:28 GMT-0400 (Eastern Daylight Time)","112593","html-keyboard-response","49","52432","0.0-5.0-2.14","","826","","","<div class='trialBorder'><div class='vertical-center'><img style='vertical-align:center; align:center' src=img/fixation3.jpg></div><div class='cl'><div class='vertical-center'>$16<br>for<br>sure</div></div><div class='cr'><div class='vertical-center'>$28<br>with a<br>50% chance</div></div><div class='respDivL'><div class='vertical-center'>(E)</div></div><div class='respDivR'><div class='vertical-center'>(I)</div></div></div>","E","$16","$28","0","16","28","SURE"
"","","","offerFB","63d80b500adef5b476e289a8","bdp_rd","Tue Mar 28 2023 13:31:28 GMT-0400 (Eastern Daylight Time)","112593","html-keyboard-response","50","52688","0.0-5.0-3.14","","null","","","<div class='trialBorder'><div class='vertical-center'><img style='vertical-align:center; align:center' src=img/fixation3.jpg></div><div class='cl'><div class='vertical-center'><font style='color:orange'>$16<br>for<br>sure</font></div></div><div class='cr'><div class='vertical-center'>$28<br>with a<br>50% chance</div></div><div class='respDivL'><div class='vertical-center'><font style='color:orange'>(E)</font></div></div><div class='respDivR'><div class='vertical-center'>(I)</div></div></div>","null","$16","$28","0","16","28",""
"","","","FIX","63d80b500adef5b476e289a8","bdp_rd","Tue Mar 28 2023 13:31:28 GMT-0400 (Eastern Daylight Time)","112593","html-keyboard-response","51","53194","0.0-5.0-1.15","","null","","","<div class='trialBorder'><div class='vertical-center'><img style='vertical-align:center; align:center' src=img/fixation3.jpg></div></div>","null","","","","","",""
"","","","offer","63d80b500adef5b476e289a8","bdp_rd","Tue Mar 28 2023 13:31:28 GMT-0400 (Eastern Daylight Time)","112593","html-keyboard-response","52","53726","0.0-5.0-2.15","","532","","","<div class='trialBorder'><div class='vertical-center'><img style='vertical-align:center; align:center' src=img/fixation3.jpg></div><div class='cl'><div class='vertical-center'>$7<br>for<br>sure</div></div><div class='cr'><div class='vertical-center'>$71<br>with a<br>50% chance</div></div><div class='respDivL'><div class='vertical-center'>(E)</div></div><div class='respDivR'><div class='vertical-center'>(I)</div></div></div>","E","$7","$71","0","7","71","SURE"
"","","","offerFB","63d80b500adef5b476e289a8","bdp_rd","Tue Mar 28 2023 13:31:28 GMT-0400 (Eastern Daylight Time)","112593","html-keyboard-response","53","53982","0.0-5.0-3.15","","null","","","<div class='trialBorder'><div class='vertical-center'><img style='vertical-align:center; align:center' src=img/fixation3.jpg></div><div class='cl'><div class='vertical-center'><font style='color:orange'>$7<br>for<br>sure</font></div></div><div class='cr'><div class='vertical-center'>$71<br>with a<br>50% chance</div></div><div class='respDivL'><div class='vertical-center'><font style='color:orange'>(E)</font></div></div><div class='respDivR'><div class='vertical-center'>(I)</div></div></div>","null","$7","$71","0","7","71",""
"","","","FIX","63d80b500adef5b476e289a8","bdp_rd","Tue Mar 28 2023 13:31:28 GMT-0400 (Eastern Daylight Time)","112593","html-keyboard-response","54","54484","0.0-5.0-1.16","","null","","","<div class='trialBorder'><div class='vertical-center'><img style='vertical-align:center; align:center' src=img/fixation3.jpg></div></div>","null","","","","","",""
"","","","offer","63d80b500adef5b476e289a8","bdp_rd","Tue Mar 28 2023 13:31:28 GMT-0400 (Eastern Daylight Time)","112593","html-keyboard-response","55","54991","0.0-5.0-2.16","","506","","","<div class='trialBorder'><div class='vertical-center'><img style='vertical-align:center; align:center' src=img/fixation3.jpg></div><div class='cl'><div class='vertical-center'>$70<br>with a<br>50% chance</div></div><div class='cr'><div class='vertical-center'>$24<br>for<br>sure</div></div><div class='respDivL'><div class='vertical-center'>(E)</div></div><div class='respDivR'><div class='vertical-center'>(I)</div></div></div>","I","$24","$70","1","24","70","SURE"
"","","","offerFB","63d80b500adef5b476e289a8","bdp_rd","Tue Mar 28 2023 13:31:28 GMT-0400 (Eastern Daylight Time)","112593","html-keyboard-response","56","55248","0.0-5.0-3.16","","null","","","<div class='trialBorder'><div class='vertical-center'><img style='vertical-align:center; align:center' src=img/fixation3.jpg></div><div class='cl'><div class='vertical-center'>$70<br>with a<br>50% chance</div></div><div class='cr'><div class='vertical-center'><font style='color:orange'>$24<br>for<br>sure</font></div></div><div class='respDivL'><div class='vertical-center'>(E)</div></div><div class='respDivR'><div class='vertical-center'><font style='color:orange'>(I)</font></div></div></div>","null","$24","$70","1","24","70",""
"","","","FIX","63d80b500adef5b476e289a8","bdp_rd","Tue Mar 28 2023 13:31:28 GMT-0400 (Eastern Daylight Time)","112593","html-keyboard-response","57","55753","0.0-5.0-1.17","","null","","","<div class='trialBorder'><div class='vertical-center'><img style='vertical-align:center; align:center' src=img/fixation3.jpg></div></div>","null","","","","","",""
"","","","offer","63d80b500adef5b476e289a8","bdp_rd","Tue Mar 28 2023 13:31:28 GMT-0400 (Eastern Daylight Time)","112593","html-keyboard-response","58","56264","0.0-5.0-2.17","","510","","","<div class='trialBorder'><div class='vertical-center'><img style='vertical-align:center; align:center' src=img/fixation3.jpg></div><div class='cl'><div class='vertical-center'>$18<br>for<br>sure</div></div><div class='cr'><div class='vertical-center'>$39<br>with a<br>50% chance</div></div><div class='respDivL'><div class='vertical-center'>(E)</div></div><div class='respDivR'><div class='vertical-center'>(I)</div></div></div>","E","$18","$39","0","18","39","SURE"
"","","","offerFB","63d80b500adef5b476e289a8","bdp_rd","Tue Mar 28 2023 13:31:28 GMT-0400 (Eastern Daylight Time)","112593","html-keyboard-response","59","56517","0.0-5.0-3.17","","null","","","<div class='trialBorder'><div class='vertical-center'><img style='vertical-align:center; align:center' src=img/fixation3.jpg></div><div class='cl'><div class='vertical-center'><font style='color:orange'>$18<br>for<br>sure</font></div></div><div class='cr'><div class='vertical-center'>$39<br>with a<br>50% chance</div></div><div class='respDivL'><div class='vertical-center'><font style='color:orange'>(E)</font></div></div><div class='respDivR'><div class='vertical-center'>(I)</div></div></div>","null","$18","$39","0","18","39",""
"","","","FIX","63d80b500adef5b476e289a8","bdp_rd","Tue Mar 28 2023 13:31:28 GMT-0400 (Eastern Daylight Time)","112593","html-keyboard-response","60","57021","0.0-5.0-1.18","","null","","","<div class='trialBorder'><div class='vertical-center'><img style='vertical-align:center; align:center' src=img/fixation3.jpg></div></div>","null","","","","","",""
"","","","offer","63d80b500adef5b476e289a8","bdp_rd","Tue Mar 28 2023 13:31:28 GMT-0400 (Eastern Daylight Time)","112593","html-keyboard-response","61","57575","0.0-5.0-2.18","","553","","","<div class='trialBorder'><div class='vertical-center'><img style='vertical-align:center; align:center' src=img/fixation3.jpg></div><div class='cl'><div class='vertical-center'>$11<br>for<br>sure</div></div><div class='cr'><div class='vertical-center'>$26<br>with a<br>50% chance</div></div><div class='respDivL'><div class='vertical-center'>(E)</div></div><div class='respDivR'><div class='vertical-center'>(I)</div></div></div>","E","$11","$26","0","11","26","SURE"
"","","","offerFB","63d80b500adef5b476e289a8","bdp_rd","Tue Mar 28 2023 13:31:28 GMT-0400 (Eastern Daylight Time)","112593","html-keyboard-response","62","57829","0.0-5.0-3.18","","null","","","<div class='trialBorder'><div class='vertical-center'><img style='vertical-align:center; align:center' src=img/fixation3.jpg></div><div class='cl'><div class='vertical-center'><font style='color:orange'>$11<br>for<br>sure</font></div></div><div class='cr'><div class='vertical-center'>$26<br>with a<br>50% chance</div></div><div class='respDivL'><div class='vertical-center'><font style='color:orange'>(E)</font></div></div><div class='respDivR'><div class='vertical-center'>(I)</div></div></div>","null","$11","$26","0","11","26",""
"","","","FIX","63d80b500adef5b476e289a8","bdp_rd","Tue Mar 28 2023 13:31:28 GMT-0400 (Eastern Daylight Time)","112593","html-keyboard-response","63","58336","0.0-5.0-1.19","","null","","","<div class='trialBorder'><div class='vertical-center'><img style='vertical-align:center; align:center' src=img/fixation3.jpg></div></div>","null","","","","","",""
"","","","offer","63d80b500adef5b476e289a8","bdp_rd","Tue Mar 28 2023 13:31:28 GMT-0400 (Eastern Daylight Time)","112593","html-keyboard-response","64","58870","0.0-5.0-2.19","","534","","","<div class='trialBorder'><div class='vertical-center'><img style='vertical-align:center; align:center' src=img/fixation3.jpg></div><div class='cl'><div class='vertical-center'>$27<br>for<br>sure</div></div><div class='cr'><div class='vertical-center'>$47<br>with a<br>50% chance</div></div><div class='respDivL'><div class='vertical-center'>(E)</div></div><div class='respDivR'><div class='vertical-center'>(I)</div></div></div>","E","$27","$47","0","27","47","SURE"
"","","","offerFB","63d80b500adef5b476e289a8","bdp_rd","Tue Mar 28 2023 13:31:28 GMT-0400 (Eastern Daylight Time)","112593","html-keyboard-response","65","59122","0.0-5.0-3.19","","null","","","<div class='trialBorder'><div class='vertical-center'><img style='vertical-align:center; align:center' src=img/fixation3.jpg></div><div class='cl'><div class='vertical-center'><font style='color:orange'>$27<br>for<br>sure</font></div></div><div class='cr'><div class='vertical-center'>$47<br>with a<br>50% chance</div></div><div class='respDivL'><div class='vertical-center'><font style='color:orange'>(E)</font></div></div><div class='respDivR'><div class='vertical-center'>(I)</div></div></div>","null","$27","$47","0","27","47",""
"","","","FIX","63d80b500adef5b476e289a8","bdp_rd","Tue Mar 28 2023 13:31:28 GMT-0400 (Eastern Daylight Time)","112593","html-keyboard-response","66","59623","0.0-5.0-1.20","","null","","","<div class='trialBorder'><div class='vertical-center'><img style='vertical-align:center; align:center' src=img/fixation3.jpg></div></div>","null","","","","","",""
"","","","offer","63d80b500adef5b476e289a8","bdp_rd","Tue Mar 28 2023 13:31:28 GMT-0400 (Eastern Daylight Time)","112593","html-keyboard-response","67","60100","0.0-5.0-2.20","","476","","","<div class='trialBorder'><div class='vertical-center'><img style='vertical-align:center; align:center' src=img/fixation3.jpg></div><div class='cl'><div class='vertical-center'>$15<br>for<br>sure</div></div><div class='cr'><div class='vertical-center'>$34<br>with a<br>50% chance</div></div><div class='respDivL'><div class='vertical-center'>(E)</div></div><div class='respDivR'><div class='vertical-center'>(I)</div></div></div>","E","$15","$34","0","15","34","SURE"
"","","","offerFB","63d80b500adef5b476e289a8","bdp_rd","Tue Mar 28 2023 13:31:28 GMT-0400 (Eastern Daylight Time)","112593","html-keyboard-response","68","60357","0.0-5.0-3.20","","null","","","<div class='trialBorder'><div class='vertical-center'><img style='vertical-align:center; align:center' src=img/fixation3.jpg></div><div class='cl'><div class='vertical-center'><font style='color:orange'>$15<br>for<br>sure</font></div></div><div class='cr'><div class='vertical-center'>$34<br>with a<br>50% chance</div></div><div class='respDivL'><div class='vertical-center'><font style='color:orange'>(E)</font></div></div><div class='respDivR'><div class='vertical-center'>(I)</div></div></div>","null","$15","$34","0","15","34",""
"","","","FIX","63d80b500adef5b476e289a8","bdp_rd","Tue Mar 28 2023 13:31:28 GMT-0400 (Eastern Daylight Time)","112593","html-keyboard-response","69","60862","0.0-5.0-1.21","","null","","","<div class='trialBorder'><div class='vertical-center'><img style='vertical-align:center; align:center' src=img/fixation3.jpg></div></div>","null","","","","","",""
"","","","offer","63d80b500adef5b476e289a8","bdp_rd","Tue Mar 28 2023 13:31:28 GMT-0400 (Eastern Daylight Time)","112593","html-keyboard-response","70","61340","0.0-5.0-2.21","","478","","","<div class='trialBorder'><div class='vertical-center'><img style='vertical-align:center; align:center' src=img/fixation3.jpg></div><div class='cl'><div class='vertical-center'>$39<br>for<br>sure</div></div><div class='cr'><div class='vertical-center'>$81<br>with a<br>50% chance</div></div><div class='respDivL'><div class='vertical-center'>(E)</div></div><div class='respDivR'><div class='vertical-center'>(I)</div></div></div>","E","$39","$81","0","39","81","SURE"
"","","","offerFB","63d80b500adef5b476e289a8","bdp_rd","Tue Mar 28 2023 13:31:28 GMT-0400 (Eastern Daylight Time)","112593","html-keyboard-response","71","61596","0.0-5.0-3.21","","null","","","<div class='trialBorder'><div class='vertical-center'><img style='vertical-align:center; align:center' src=img/fixation3.jpg></div><div class='cl'><div class='vertical-center'><font style='color:orange'>$39<br>for<br>sure</font></div></div><div class='cr'><div class='vertical-center'>$81<br>with a<br>50% chance</div></div><div class='respDivL'><div class='vertical-center'><font style='color:orange'>(E)</font></div></div><div class='respDivR'><div class='vertical-center'>(I)</div></div></div>","null","$39","$81","0","39","81",""
"","","","FIX","63d80b500adef5b476e289a8","bdp_rd","Tue Mar 28 2023 13:31:28 GMT-0400 (Eastern Daylight Time)","112593","html-keyboard-response","72","62101","0.0-5.0-1.22","","null","","","<div class='trialBorder'><div class='vertical-center'><img style='vertical-align:center; align:center' src=img/fixation3.jpg></div></div>","null","","","","","",""
"","","","offer","63d80b500adef5b476e289a8","bdp_rd","Tue Mar 28 2023 13:31:28 GMT-0400 (Eastern Daylight Time)","112593","html-keyboard-response","73","62787","0.0-5.0-2.22","","686","","","<div class='trialBorder'><div class='vertical-center'><img style='vertical-align:center; align:center' src=img/fixation3.jpg></div><div class='cl'><div class='vertical-center'>$24<br>with a<br>50% chance</div></div><div class='cr'><div class='vertical-center'>$13<br>for<br>sure</div></div><div class='respDivL'><div class='vertical-center'>(E)</div></div><div class='respDivR'><div class='vertical-center'>(I)</div></div></div>","I","$13","$24","1","13","24","SURE"
"","","","offerFB","63d80b500adef5b476e289a8","bdp_rd","Tue Mar 28 2023 13:31:28 GMT-0400 (Eastern Daylight Time)","112593","html-keyboard-response","74","63044","0.0-5.0-3.22","","null","","","<div class='trialBorder'><div class='vertical-center'><img style='vertical-align:center; align:center' src=img/fixation3.jpg></div><div class='cl'><div class='vertical-center'>$24<br>with a<br>50% chance</div></div><div class='cr'><div class='vertical-center'><font style='color:orange'>$13<br>for<br>sure</font></div></div><div class='respDivL'><div class='vertical-center'>(E)</div></div><div class='respDivR'><div class='vertical-center'><font style='color:orange'>(I)</font></div></div></div>","null","$13","$24","1","13","24",""
"","","","FIX","63d80b500adef5b476e289a8","bdp_rd","Tue Mar 28 2023 13:31:28 GMT-0400 (Eastern Daylight Time)","112593","html-keyboard-response","75","63549","0.0-5.0-1.23","","null","","","<div class='trialBorder'><div class='vertical-center'><img style='vertical-align:center; align:center' src=img/fixation3.jpg></div></div>","null","","","","","",""
"","","","offer","63d80b500adef5b476e289a8","bdp_rd","Tue Mar 28 2023 13:31:28 GMT-0400 (Eastern Daylight Time)","112593","html-keyboard-response","76","64129","0.0-5.0-2.23","","579","","","<div class='trialBorder'><div class='vertical-center'><img style='vertical-align:center; align:center' src=img/fixation3.jpg></div><div class='cl'><div class='vertical-center'>$51<br>with a<br>50% chance</div></div><div class='cr'><div class='vertical-center'>$19<br>for<br>sure</div></div><div class='respDivL'><div class='vertical-center'>(E)</div></div><div class='respDivR'><div class='vertical-center'>(I)</div></div></div>","I","$19","$51","1","19","51","SURE"
"","","","offerFB","63d80b500adef5b476e289a8","bdp_rd","Tue Mar 28 2023 13:31:28 GMT-0400 (Eastern Daylight Time)","112593","html-keyboard-response","77","64385","0.0-5.0-3.23","","null","","","<div class='trialBorder'><div class='vertical-center'><img style='vertical-align:center; align:center' src=img/fixation3.jpg></div><div class='cl'><div class='vertical-center'>$51<br>with a<br>50% chance</div></div><div class='cr'><div class='vertical-center'><font style='color:orange'>$19<br>for<br>sure</font></div></div><div class='respDivL'><div class='vertical-center'>(E)</div></div><div class='respDivR'><div class='vertical-center'><font style='color:orange'>(I)</font></div></div></div>","null","$19","$51","1","19","51",""
"","","","FIX","63d80b500adef5b476e289a8","bdp_rd","Tue Mar 28 2023 13:31:28 GMT-0400 (Eastern Daylight Time)","112593","html-keyboard-response","78","64890","0.0-5.0-1.24","","null","","","<div class='trialBorder'><div class='vertical-center'><img style='vertical-align:center; align:center' src=img/fixation3.jpg></div></div>","null","","","","","",""
"","","","offer","63d80b500adef5b476e289a8","bdp_rd","Tue Mar 28 2023 13:31:28 GMT-0400 (Eastern Daylight Time)","112593","html-keyboard-response","79","65388","0.0-5.0-2.24","","498","","","<div class='trialBorder'><div class='vertical-center'><img style='vertical-align:center; align:center' src=img/fixation3.jpg></div><div class='cl'><div class='vertical-center'>$10<br>for<br>sure</div></div><div class='cr'><div class='vertical-center'>$19<br>with a<br>50% chance</div></div><div class='respDivL'><div class='vertical-center'>(E)</div></div><div class='respDivR'><div class='vertical-center'>(I)</div></div></div>","E","$10","$19","0","10","19","SURE"
"","","","offerFB","63d80b500adef5b476e289a8","bdp_rd","Tue Mar 28 2023 13:31:28 GMT-0400 (Eastern Daylight Time)","112593","html-keyboard-response","80","65640","0.0-5.0-3.24","","null","","","<div class='trialBorder'><div class='vertical-center'><img style='vertical-align:center; align:center' src=img/fixation3.jpg></div><div class='cl'><div class='vertical-center'><font style='color:orange'>$10<br>for<br>sure</font></div></div><div class='cr'><div class='vertical-center'>$19<br>with a<br>50% chance</div></div><div class='respDivL'><div class='vertical-center'><font style='color:orange'>(E)</font></div></div><div class='respDivR'><div class='vertical-center'>(I)</div></div></div>","null","$10","$19","0","10","19",""
"","","","FIX","63d80b500adef5b476e289a8","bdp_rd","Tue Mar 28 2023 13:31:28 GMT-0400 (Eastern Daylight Time)","112593","html-keyboard-response","81","66144","0.0-5.0-1.25","","null","","","<div class='trialBorder'><div class='vertical-center'><img style='vertical-align:center; align:center' src=img/fixation3.jpg></div></div>","null","","","","","",""
"","","","offer","63d80b500adef5b476e289a8","bdp_rd","Tue Mar 28 2023 13:31:28 GMT-0400 (Eastern Daylight Time)","112593","html-keyboard-response","82","66584","0.0-5.0-2.25","","438","","","<div class='trialBorder'><div class='vertical-center'><img style='vertical-align:center; align:center' src=img/fixation3.jpg></div><div class='cl'><div class='vertical-center'>$21<br>for<br>sure</div></div><div class='cr'><div class='vertical-center'>$25<br>with a<br>50% chance</div></div><div class='respDivL'><div class='vertical-center'>(E)</div></div><div class='respDivR'><div class='vertical-center'>(I)</div></div></div>","E","$21","$25","0","21","25","SURE"
"","","","offerFB","63d80b500adef5b476e289a8","bdp_rd","Tue Mar 28 2023 13:31:28 GMT-0400 (Eastern Daylight Time)","112593","html-keyboard-response","83","66841","0.0-5.0-3.25","","null","","","<div class='trialBorder'><div class='vertical-center'><img style='vertical-align:center; align:center' src=img/fixation3.jpg></div><div class='cl'><div class='vertical-center'><font style='color:orange'>$21<br>for<br>sure</font></div></div><div class='cr'><div class='vertical-center'>$25<br>with a<br>50% chance</div></div><div class='respDivL'><div class='vertical-center'><font style='color:orange'>(E)</font></div></div><div class='respDivR'><div class='vertical-center'>(I)</div></div></div>","null","$21","$25","0","21","25",""
"","","","FIX","63d80b500adef5b476e289a8","bdp_rd","Tue Mar 28 2023 13:31:28 GMT-0400 (Eastern Daylight Time)","112593","html-keyboard-response","84","67344","0.0-5.0-1.26","","null","","","<div class='trialBorder'><div class='vertical-center'><img style='vertical-align:center; align:center' src=img/fixation3.jpg></div></div>","null","","","","","",""
"","","","offer","63d80b500adef5b476e289a8","bdp_rd","Tue Mar 28 2023 13:31:28 GMT-0400 (Eastern Daylight Time)","112593","html-keyboard-response","85","67917","0.0-5.0-2.26","","572","","","<div class='trialBorder'><div class='vertical-center'><img style='vertical-align:center; align:center' src=img/fixation3.jpg></div><div class='cl'><div class='vertical-center'>$11<br>with a<br>50% chance</div></div><div class='cr'><div class='vertical-center'>$4<br>for<br>sure</div></div><div class='respDivL'><div class='vertical-center'>(E)</div></div><div class='respDivR'><div class='vertical-center'>(I)</div></div></div>","I","$4","$11","1","4","11","SURE"
"","","","offerFB","63d80b500adef5b476e289a8","bdp_rd","Tue Mar 28 2023 13:31:28 GMT-0400 (Eastern Daylight Time)","112593","html-keyboard-response","86","68171","0.0-5.0-3.26","","null","","","<div class='trialBorder'><div class='vertical-center'><img style='vertical-align:center; align:center' src=img/fixation3.jpg></div><div class='cl'><div class='vertical-center'>$11<br>with a<br>50% chance</div></div><div class='cr'><div class='vertical-center'><font style='color:orange'>$4<br>for<br>sure</font></div></div><div class='respDivL'><div class='vertical-center'>(E)</div></div><div class='respDivR'><div class='vertical-center'><font style='color:orange'>(I)</font></div></div></div>","null","$4","$11","1","4","11",""
"","","","FIX","63d80b500adef5b476e289a8","bdp_rd","Tue Mar 28 2023 13:31:28 GMT-0400 (Eastern Daylight Time)","112593","html-keyboard-response","87","68677","0.0-5.0-1.27","","null","","","<div class='trialBorder'><div class='vertical-center'><img style='vertical-align:center; align:center' src=img/fixation3.jpg></div></div>","null","","","","","",""
"","","","offer","63d80b500adef5b476e289a8","bdp_rd","Tue Mar 28 2023 13:31:28 GMT-0400 (Eastern Daylight Time)","112593","html-keyboard-response","88","69174","0.0-5.0-2.27","","494","","","<div class='trialBorder'><div class='vertical-center'><img style='vertical-align:center; align:center' src=img/fixation3.jpg></div><div class='cl'><div class='vertical-center'>$9<br>for<br>sure</div></div><div class='cr'><div class='vertical-center'>$18<br>with a<br>50% chance</div></div><div class='respDivL'><div class='vertical-center'>(E)</div></div><div class='respDivR'><div class='vertical-center'>(I)</div></div></div>","E","$9","$18","0","9","18","SURE"
"","","","offerFB","63d80b500adef5b476e289a8","bdp_rd","Tue Mar 28 2023 13:31:28 GMT-0400 (Eastern Daylight Time)","112593","html-keyboard-response","89","69430","0.0-5.0-3.27","","null","","","<div class='trialBorder'><div class='vertical-center'><img style='vertical-align:center; align:center' src=img/fixation3.jpg></div><div class='cl'><div class='vertical-center'><font style='color:orange'>$9<br>for<br>sure</font></div></div><div class='cr'><div class='vertical-center'>$18<br>with a<br>50% chance</div></div><div class='respDivL'><div class='vertical-center'><font style='color:orange'>(E)</font></div></div><div class='respDivR'><div class='vertical-center'>(I)</div></div></div>","null","$9","$18","0","9","18",""
"","","","FIX","63d80b500adef5b476e289a8","bdp_rd","Tue Mar 28 2023 13:31:28 GMT-0400 (Eastern Daylight Time)","112593","html-keyboard-response","90","69932","0.0-5.0-1.28","","null","","","<div class='trialBorder'><div class='vertical-center'><img style='vertical-align:center; align:center' src=img/fixation3.jpg></div></div>","null","","","","","",""
"","","","offer","63d80b500adef5b476e289a8","bdp_rd","Tue Mar 28 2023 13:31:28 GMT-0400 (Eastern Daylight Time)","112593","html-keyboard-response","91","70534","0.0-5.0-2.28","","601","","","<div class='trialBorder'><div class='vertical-center'><img style='vertical-align:center; align:center' src=img/fixation3.jpg></div><div class='cl'><div class='vertical-center'>$22<br>for<br>sure</div></div><div class='cr'><div class='vertical-center'>$59<br>with a<br>50% chance</div></div><div class='respDivL'><div class='vertical-center'>(E)</div></div><div class='respDivR'><div class='vertical-center'>(I)</div></div></div>","E","$22","$59","0","22","59","SURE"
"","","","offerFB","63d80b500adef5b476e289a8","bdp_rd","Tue Mar 28 2023 13:31:28 GMT-0400 (Eastern Daylight Time)","112593","html-keyboard-response","92","70790","0.0-5.0-3.28","","null","","","<div class='trialBorder'><div class='vertical-center'><img style='vertical-align:center; align:center' src=img/fixation3.jpg></div><div class='cl'><div class='vertical-center'><font style='color:orange'>$22<br>for<br>sure</font></div></div><div class='cr'><div class='vertical-center'>$59<br>with a<br>50% chance</div></div><div class='respDivL'><div class='vertical-center'><font style='color:orange'>(E)</font></div></div><div class='respDivR'><div class='vertical-center'>(I)</div></div></div>","null","$22","$59","0","22","59",""
"","","","FIX","63d80b500adef5b476e289a8","bdp_rd","Tue Mar 28 2023 13:31:28 GMT-0400 (Eastern Daylight Time)","112593","html-keyboard-response","93","71291","0.0-5.0-1.29","","null","","","<div class='trialBorder'><div class='vertical-center'><img style='vertical-align:center; align:center' src=img/fixation3.jpg></div></div>","null","","","","","",""
"","","","offer","63d80b500adef5b476e289a8","bdp_rd","Tue Mar 28 2023 13:31:28 GMT-0400 (Eastern Daylight Time)","112593","html-keyboard-response","94","71895","0.0-5.0-2.29","","603","","","<div class='trialBorder'><div class='vertical-center'><img style='vertical-align:center; align:center' src=img/fixation3.jpg></div><div class='cl'><div class='vertical-center'>$41<br>with a<br>50% chance</div></div><div class='cr'><div class='vertical-center'>$13<br>for<br>sure</div></div><div class='respDivL'><div class='vertical-center'>(E)</div></div><div class='respDivR'><div class='vertical-center'>(I)</div></div></div>","I","$13","$41","1","13","41","SURE"
"","","","offerFB","63d80b500adef5b476e289a8","bdp_rd","Tue Mar 28 2023 13:31:28 GMT-0400 (Eastern Daylight Time)","112593","html-keyboard-response","95","72152","0.0-5.0-3.29","","null","","","<div class='trialBorder'><div class='vertical-center'><img style='vertical-align:center; align:center' src=img/fixation3.jpg></div><div class='cl'><div class='vertical-center'>$41<br>with a<br>50% chance</div></div><div class='cr'><div class='vertical-center'><font style='color:orange'>$13<br>for<br>sure</font></div></div><div class='respDivL'><div class='vertical-center'>(E)</div></div><div class='respDivR'><div class='vertical-center'><font style='color:orange'>(I)</font></div></div></div>","null","$13","$41","1","13","41",""
"","","","FIX","63d80b500adef5b476e289a8","bdp_rd","Tue Mar 28 2023 13:31:28 GMT-0400 (Eastern Daylight Time)","112593","html-keyboard-response","96","72656","0.0-5.0-1.30","","null","","","<div class='trialBorder'><div class='vertical-center'><img style='vertical-align:center; align:center' src=img/fixation3.jpg></div></div>","null","","","","","",""
"","","","offer","63d80b500adef5b476e289a8","bdp_rd","Tue Mar 28 2023 13:31:28 GMT-0400 (Eastern Daylight Time)","112593","html-keyboard-response","97","73376","0.0-5.0-2.30","","719","","","<div class='trialBorder'><div class='vertical-center'><img style='vertical-align:center; align:center' src=img/fixation3.jpg></div><div class='cl'><div class='vertical-center'>$33<br>with a<br>50% chance</div></div><div class='cr'><div class='vertical-center'>$1<br>for<br>sure</div></div><div class='respDivL'><div class='vertical-center'>(E)</div></div><div class='respDivR'><div class='vertical-center'>(I)</div></div></div>","I","$1","$33","1","1","33","SURE"
"","","","offerFB","63d80b500adef5b476e289a8","bdp_rd","Tue Mar 28 2023 13:31:28 GMT-0400 (Eastern Daylight Time)","112593","html-keyboard-response","98","73634","0.0-5.0-3.30","","null","","","<div class='trialBorder'><div class='vertical-center'><img style='vertical-align:center; align:center' src=img/fixation3.jpg></div><div class='cl'><div class='vertical-center'>$33<br>with a<br>50% chance</div></div><div class='cr'><div class='vertical-center'><font style='color:orange'>$1<br>for<br>sure</font></div></div><div class='respDivL'><div class='vertical-center'>(E)</div></div><div class='respDivR'><div class='vertical-center'><font style='color:orange'>(I)</font></div></div></div>","null","$1","$33","1","1","33",""
"","","","FIX","63d80b500adef5b476e289a8","bdp_rd","Tue Mar 28 2023 13:31:28 GMT-0400 (Eastern Daylight Time)","112593","html-keyboard-response","99","74139","0.0-5.0-1.31","","null","","","<div class='trialBorder'><div class='vertical-center'><img style='vertical-align:center; align:center' src=img/fixation3.jpg></div></div>","null","","","","","",""
"","","","offer","63d80b500adef5b476e289a8","bdp_rd","Tue Mar 28 2023 13:31:28 GMT-0400 (Eastern Daylight Time)","112593","html-keyboard-response","100","74757","0.0-5.0-2.31","","616","","","<div class='trialBorder'><div class='vertical-center'><img style='vertical-align:center; align:center' src=img/fixation3.jpg></div><div class='cl'><div class='vertical-center'>$50<br>with a<br>50% chance</div></div><div class='cr'><div class='vertical-center'>$5<br>for<br>sure</div></div><div class='respDivL'><div class='vertical-center'>(E)</div></div><div class='respDivR'><div class='vertical-center'>(I)</div></div></div>","I","$5","$50","1","5","50","SURE"
"","","","offerFB","63d80b500adef5b476e289a8","bdp_rd","Tue Mar 28 2023 13:31:28 GMT-0400 (Eastern Daylight Time)","112593","html-keyboard-response","101","75013","0.0-5.0-3.31","","null","","","<div class='trialBorder'><div class='vertical-center'><img style='vertical-align:center; align:center' src=img/fixation3.jpg></div><div class='cl'><div class='vertical-center'>$50<br>with a<br>50% chance</div></div><div class='cr'><div class='vertical-center'><font style='color:orange'>$5<br>for<br>sure</font></div></div><div class='respDivL'><div class='vertical-center'>(E)</div></div><div class='respDivR'><div class='vertical-center'><font style='color:orange'>(I)</font></div></div></div>","null","$5","$50","1","5","50",""
"","","","FIX","63d80b500adef5b476e289a8","bdp_rd","Tue Mar 28 2023 13:31:28 GMT-0400 (Eastern Daylight Time)","112593","html-keyboard-response","102","75520","0.0-5.0-1.32","","null","","","<div class='trialBorder'><div class='vertical-center'><img style='vertical-align:center; align:center' src=img/fixation3.jpg></div></div>","null","","","","","",""
"","","","offer","63d80b500adef5b476e289a8","bdp_rd","Tue Mar 28 2023 13:31:28 GMT-0400 (Eastern Daylight Time)","112593","html-keyboard-response","103","76023","0.0-5.0-2.32","","503","","","<div class='trialBorder'><div class='vertical-center'><img style='vertical-align:center; align:center' src=img/fixation3.jpg></div><div class='cl'><div class='vertical-center'>$18<br>for<br>sure</div></div><div class='cr'><div class='vertical-center'>$36<br>with a<br>50% chance</div></div><div class='respDivL'><div class='vertical-center'>(E)</div></div><div class='respDivR'><div class='vertical-center'>(I)</div></div></div>","E","$18","$36","0","18","36","SURE"
"","","","offerFB","63d80b500adef5b476e289a8","bdp_rd","Tue Mar 28 2023 13:31:28 GMT-0400 (Eastern Daylight Time)","112593","html-keyboard-response","104","76276","0.0-5.0-3.32","","null","","","<div class='trialBorder'><div class='vertical-center'><img style='vertical-align:center; align:center' src=img/fixation3.jpg></div><div class='cl'><div class='vertical-center'><font style='color:orange'>$18<br>for<br>sure</font></div></div><div class='cr'><div class='vertical-center'>$36<br>with a<br>50% chance</div></div><div class='respDivL'><div class='vertical-center'><font style='color:orange'>(E)</font></div></div><div class='respDivR'><div class='vertical-center'>(I)</div></div></div>","null","$18","$36","0","18","36",""
"","","","FIX","63d80b500adef5b476e289a8","bdp_rd","Tue Mar 28 2023 13:31:28 GMT-0400 (Eastern Daylight Time)","112593","html-keyboard-response","105","76781","0.0-5.0-1.33","","null","","","<div class='trialBorder'><div class='vertical-center'><img style='vertical-align:center; align:center' src=img/fixation3.jpg></div></div>","null","","","","","",""
"","","","offer","63d80b500adef5b476e289a8","bdp_rd","Tue Mar 28 2023 13:31:28 GMT-0400 (Eastern Daylight Time)","112593","html-keyboard-response","106","77319","0.0-5.0-2.33","","538","","","<div class='trialBorder'><div class='vertical-center'><img style='vertical-align:center; align:center' src=img/fixation3.jpg></div><div class='cl'><div class='vertical-center'>$40<br>for<br>sure</div></div><div class='cr'><div class='vertical-center'>$95<br>with a<br>50% chance</div></div><div class='respDivL'><div class='vertical-center'>(E)</div></div><div class='respDivR'><div class='vertical-center'>(I)</div></div></div>","E","$40","$95","0","40","95","SURE"
"","","","offerFB","63d80b500adef5b476e289a8","bdp_rd","Tue Mar 28 2023 13:31:28 GMT-0400 (Eastern Daylight Time)","112593","html-keyboard-response","107","77572","0.0-5.0-3.33","","null","","","<div class='trialBorder'><div class='vertical-center'><img style='vertical-align:center; align:center' src=img/fixation3.jpg></div><div class='cl'><div class='vertical-center'><font style='color:orange'>$40<br>for<br>sure</font></div></div><div class='cr'><div class='vertical-center'>$95<br>with a<br>50% chance</div></div><div class='respDivL'><div class='vertical-center'><font style='color:orange'>(E)</font></div></div><div class='respDivR'><div class='vertical-center'>(I)</div></div></div>","null","$40","$95","0","40","95",""
"","","","FIX","63d80b500adef5b476e289a8","bdp_rd","Tue Mar 28 2023 13:31:28 GMT-0400 (Eastern Daylight Time)","112593","html-keyboard-response","108","78078","0.0-5.0-1.34","","null","","","<div class='trialBorder'><div class='vertical-center'><img style='vertical-align:center; align:center' src=img/fixation3.jpg></div></div>","null","","","","","",""
"","","","offer","63d80b500adef5b476e289a8","bdp_rd","Tue Mar 28 2023 13:31:28 GMT-0400 (Eastern Daylight Time)","112593","html-keyboard-response","109","78693","0.0-5.0-2.34","","614","","","<div class='trialBorder'><div class='vertical-center'><img style='vertical-align:center; align:center' src=img/fixation3.jpg></div><div class='cl'><div class='vertical-center'>$68<br>with a<br>50% chance</div></div><div class='cr'><div class='vertical-center'>$30<br>for<br>sure</div></div><div class='respDivL'><div class='vertical-center'>(E)</div></div><div class='respDivR'><div class='vertical-center'>(I)</div></div></div>","I","$30","$68","1","30","68","SURE"
"","","","offerFB","63d80b500adef5b476e289a8","bdp_rd","Tue Mar 28 2023 13:31:28 GMT-0400 (Eastern Daylight Time)","112593","html-keyboard-response","110","78950","0.0-5.0-3.34","","null","","","<div class='trialBorder'><div class='vertical-center'><img style='vertical-align:center; align:center' src=img/fixation3.jpg></div><div class='cl'><div class='vertical-center'>$68<br>with a<br>50% chance</div></div><div class='cr'><div class='vertical-center'><font style='color:orange'>$30<br>for<br>sure</font></div></div><div class='respDivL'><div class='vertical-center'>(E)</div></div><div class='respDivR'><div class='vertical-center'><font style='color:orange'>(I)</font></div></div></div>","null","$30","$68","1","30","68",""
"","","","FIX","63d80b500adef5b476e289a8","bdp_rd","Tue Mar 28 2023 13:31:28 GMT-0400 (Eastern Daylight Time)","112593","html-keyboard-response","111","79456","0.0-5.0-1.35","","null","","","<div class='trialBorder'><div class='vertical-center'><img style='vertical-align:center; align:center' src=img/fixation3.jpg></div></div>","null","","","","","",""
"","","","offer","63d80b500adef5b476e289a8","bdp_rd","Tue Mar 28 2023 13:31:28 GMT-0400 (Eastern Daylight Time)","112593","html-keyboard-response","112","80005","0.0-5.0-2.35","","548","","","<div class='trialBorder'><div class='vertical-center'><img style='vertical-align:center; align:center' src=img/fixation3.jpg></div><div class='cl'><div class='vertical-center'>$65<br>with a<br>50% chance</div></div><div class='cr'><div class='vertical-center'>$46<br>for<br>sure</div></div><div class='respDivL'><div class='vertical-center'>(E)</div></div><div class='respDivR'><div class='vertical-center'>(I)</div></div></div>","I","$46","$65","1","46","65","SURE"
"","","","offerFB","63d80b500adef5b476e289a8","bdp_rd","Tue Mar 28 2023 13:31:28 GMT-0400 (Eastern Daylight Time)","112593","html-keyboard-response","113","80257","0.0-5.0-3.35","","null","","","<div class='trialBorder'><div class='vertical-center'><img style='vertical-align:center; align:center' src=img/fixation3.jpg></div><div class='cl'><div class='vertical-center'>$65<br>with a<br>50% chance</div></div><div class='cr'><div class='vertical-center'><font style='color:orange'>$46<br>for<br>sure</font></div></div><div class='respDivL'><div class='vertical-center'>(E)</div></div><div class='respDivR'><div class='vertical-center'><font style='color:orange'>(I)</font></div></div></div>","null","$46","$65","1","46","65",""
"","","","FIX","63d80b500adef5b476e289a8","bdp_rd","Tue Mar 28 2023 13:31:28 GMT-0400 (Eastern Daylight Time)","112593","html-keyboard-response","114","80761","0.0-5.0-1.36","","null","","","<div class='trialBorder'><div class='vertical-center'><img style='vertical-align:center; align:center' src=img/fixation3.jpg></div></div>","null","","","","","",""
"","","","offer","63d80b500adef5b476e289a8","bdp_rd","Tue Mar 28 2023 13:31:28 GMT-0400 (Eastern Daylight Time)","112593","html-keyboard-response","115","81275","0.0-5.0-2.36","","513","","","<div class='trialBorder'><div class='vertical-center'><img style='vertical-align:center; align:center' src=img/fixation3.jpg></div><div class='cl'><div class='vertical-center'>$35<br>with a<br>50% chance</div></div><div class='cr'><div class='vertical-center'>$12<br>for<br>sure</div></div><div class='respDivL'><div class='vertical-center'>(E)</div></div><div class='respDivR'><div class='vertical-center'>(I)</div></div></div>","I","$12","$35","1","12","35","SURE"
"","","","offerFB","63d80b500adef5b476e289a8","bdp_rd","Tue Mar 28 2023 13:31:28 GMT-0400 (Eastern Daylight Time)","112593","html-keyboard-response","116","81530","0.0-5.0-3.36","","null","","","<div class='trialBorder'><div class='vertical-center'><img style='vertical-align:center; align:center' src=img/fixation3.jpg></div><div class='cl'><div class='vertical-center'>$35<br>with a<br>50% chance</div></div><div class='cr'><div class='vertical-center'><font style='color:orange'>$12<br>for<br>sure</font></div></div><div class='respDivL'><div class='vertical-center'>(E)</div></div><div class='respDivR'><div class='vertical-center'><font style='color:orange'>(I)</font></div></div></div>","null","$12","$35","1","12","35",""
"","","","FIX","63d80b500adef5b476e289a8","bdp_rd","Tue Mar 28 2023 13:31:28 GMT-0400 (Eastern Daylight Time)","112593","html-keyboard-response","117","82034","0.0-5.0-1.37","","null","","","<div class='trialBorder'><div class='vertical-center'><img style='vertical-align:center; align:center' src=img/fixation3.jpg></div></div>","null","","","","","",""
"","","","offer","63d80b500adef5b476e289a8","bdp_rd","Tue Mar 28 2023 13:31:28 GMT-0400 (Eastern Daylight Time)","112593","html-keyboard-response","118","82507","0.0-5.0-2.37","","473","","","<div class='trialBorder'><div class='vertical-center'><img style='vertical-align:center; align:center' src=img/fixation3.jpg></div><div class='cl'><div class='vertical-center'>$14<br>for<br>sure</div></div><div class='cr'><div class='vertical-center'>$29<br>with a<br>50% chance</div></div><div class='respDivL'><div class='vertical-center'>(E)</div></div><div class='respDivR'><div class='vertical-center'>(I)</div></div></div>","E","$14","$29","0","14","29","SURE"
"","","","offerFB","63d80b500adef5b476e289a8","bdp_rd","Tue Mar 28 2023 13:31:28 GMT-0400 (Eastern Daylight Time)","112593","html-keyboard-response","119","82764","0.0-5.0-3.37","","null","","","<div class='trialBorder'><div class='vertical-center'><img style='vertical-align:center; align:center' src=img/fixation3.jpg></div><div class='cl'><div class='vertical-center'><font style='color:orange'>$14<br>for<br>sure</font></div></div><div class='cr'><div class='vertical-center'>$29<br>with a<br>50% chance</div></div><div class='respDivL'><div class='vertical-center'><font style='color:orange'>(E)</font></div></div><div class='respDivR'><div class='vertical-center'>(I)</div></div></div>","null","$14","$29","0","14","29",""
"","","","FIX","63d80b500adef5b476e289a8","bdp_rd","Tue Mar 28 2023 13:31:28 GMT-0400 (Eastern Daylight Time)","112593","html-keyboard-response","120","83267","0.0-5.0-1.38","","null","","","<div class='trialBorder'><div class='vertical-center'><img style='vertical-align:center; align:center' src=img/fixation3.jpg></div></div>","null","","","","","",""
"","","","offer","63d80b500adef5b476e289a8","bdp_rd","Tue Mar 28 2023 13:31:28 GMT-0400 (Eastern Daylight Time)","112593","html-keyboard-response","121","83791","0.0-5.0-2.38","","524","","","<div class='trialBorder'><div class='vertical-center'><img style='vertical-align:center; align:center' src=img/fixation3.jpg></div><div class='cl'><div class='vertical-center'>$2<br>for<br>sure</div></div><div class='cr'><div class='vertical-center'>$64<br>with a<br>50% chance</div></div><div class='respDivL'><div class='vertical-center'>(E)</div></div><div class='respDivR'><div class='vertical-center'>(I)</div></div></div>","E","$2","$64","0","2","64","SURE"
"","","","offerFB","63d80b500adef5b476e289a8","bdp_rd","Tue Mar 28 2023 13:31:28 GMT-0400 (Eastern Daylight Time)","112593","html-keyboard-response","122","84044","0.0-5.0-3.38","","null","","","<div class='trialBorder'><div class='vertical-center'><img style='vertical-align:center; align:center' src=img/fixation3.jpg></div><div class='cl'><div class='vertical-center'><font style='color:orange'>$2<br>for<br>sure</font></div></div><div class='cr'><div class='vertical-center'>$64<br>with a<br>50% chance</div></div><div class='respDivL'><div class='vertical-center'><font style='color:orange'>(E)</font></div></div><div class='respDivR'><div class='vertical-center'>(I)</div></div></div>","null","$2","$64","0","2","64",""
"","","","FIX","63d80b500adef5b476e289a8","bdp_rd","Tue Mar 28 2023 13:31:28 GMT-0400 (Eastern Daylight Time)","112593","html-keyboard-response","123","84545","0.0-5.0-1.39","","null","","","<div class='trialBorder'><div class='vertical-center'><img style='vertical-align:center; align:center' src=img/fixation3.jpg></div></div>","null","","","","","",""
"","","","offer","63d80b500adef5b476e289a8","bdp_rd","Tue Mar 28 2023 13:31:28 GMT-0400 (Eastern Daylight Time)","112593","html-keyboard-response","124","85196","0.0-5.0-2.39","","649","","","<div class='trialBorder'><div class='vertical-center'><img style='vertical-align:center; align:center' src=img/fixation3.jpg></div><div class='cl'><div class='vertical-center'>$46<br>with a<br>50% chance</div></div><div class='cr'><div class='vertical-center'>$29<br>for<br>sure</div></div><div class='respDivL'><div class='vertical-center'>(E)</div></div><div class='respDivR'><div class='vertical-center'>(I)</div></div></div>","I","$29","$46","1","29","46","SURE"
"","","","offerFB","63d80b500adef5b476e289a8","bdp_rd","Tue Mar 28 2023 13:31:28 GMT-0400 (Eastern Daylight Time)","112593","html-keyboard-response","125","85452","0.0-5.0-3.39","","null","","","<div class='trialBorder'><div class='vertical-center'><img style='vertical-align:center; align:center' src=img/fixation3.jpg></div><div class='cl'><div class='vertical-center'>$46<br>with a<br>50% chance</div></div><div class='cr'><div class='vertical-center'><font style='color:orange'>$29<br>for<br>sure</font></div></div><div class='respDivL'><div class='vertical-center'>(E)</div></div><div class='respDivR'><div class='vertical-center'><font style='color:orange'>(I)</font></div></div></div>","null","$29","$46","1","29","46",""
"","","","FIX","63d80b500adef5b476e289a8","bdp_rd","Tue Mar 28 2023 13:31:28 GMT-0400 (Eastern Daylight Time)","112593","html-keyboard-response","126","85954","0.0-5.0-1.40","","null","","","<div class='trialBorder'><div class='vertical-center'><img style='vertical-align:center; align:center' src=img/fixation3.jpg></div></div>","null","","","","","",""
"","","","offer","63d80b500adef5b476e289a8","bdp_rd","Tue Mar 28 2023 13:31:28 GMT-0400 (Eastern Daylight Time)","112593","html-keyboard-response","127","86460","0.0-5.0-2.40","","504","","","<div class='trialBorder'><div class='vertical-center'><img style='vertical-align:center; align:center' src=img/fixation3.jpg></div><div class='cl'><div class='vertical-center'>$3<br>for<br>sure</div></div><div class='cr'><div class='vertical-center'>$12<br>with a<br>50% chance</div></div><div class='respDivL'><div class='vertical-center'>(E)</div></div><div class='respDivR'><div class='vertical-center'>(I)</div></div></div>","E","$3","$12","0","3","12","SURE"
"","","","offerFB","63d80b500adef5b476e289a8","bdp_rd","Tue Mar 28 2023 13:31:28 GMT-0400 (Eastern Daylight Time)","112593","html-keyboard-response","128","86716","0.0-5.0-3.40","","null","","","<div class='trialBorder'><div class='vertical-center'><img style='vertical-align:center; align:center' src=img/fixation3.jpg></div><div class='cl'><div class='vertical-center'><font style='color:orange'>$3<br>for<br>sure</font></div></div><div class='cr'><div class='vertical-center'>$12<br>with a<br>50% chance</div></div><div class='respDivL'><div class='vertical-center'><font style='color:orange'>(E)</font></div></div><div class='respDivR'><div class='vertical-center'>(I)</div></div></div>","null","$3","$12","0","3","12",""
"","","","FIX","63d80b500adef5b476e289a8","bdp_rd","Tue Mar 28 2023 13:31:28 GMT-0400 (Eastern Daylight Time)","112593","html-keyboard-response","129","87220","0.0-5.0-1.41","","null","","","<div class='trialBorder'><div class='vertical-center'><img style='vertical-align:center; align:center' src=img/fixation3.jpg></div></div>","null","","","","","",""
"","","","offer","63d80b500adef5b476e289a8","bdp_rd","Tue Mar 28 2023 13:31:28 GMT-0400 (Eastern Daylight Time)","112593","html-keyboard-response","130","87818","0.0-5.0-2.41","","597","","","<div class='trialBorder'><div class='vertical-center'><img style='vertical-align:center; align:center' src=img/fixation3.jpg></div><div class='cl'><div class='vertical-center'>$17<br>with a<br>50% chance</div></div><div class='cr'><div class='vertical-center'>$3<br>for<br>sure</div></div><div class='respDivL'><div class='vertical-center'>(E)</div></div><div class='respDivR'><div class='vertical-center'>(I)</div></div></div>","I","$3","$17","1","3","17","SURE"
"","","","offerFB","63d80b500adef5b476e289a8","bdp_rd","Tue Mar 28 2023 13:31:28 GMT-0400 (Eastern Daylight Time)","112593","html-keyboard-response","131","88071","0.0-5.0-3.41","","null","","","<div class='trialBorder'><div class='vertical-center'><img style='vertical-align:center; align:center' src=img/fixation3.jpg></div><div class='cl'><div class='vertical-center'>$17<br>with a<br>50% chance</div></div><div class='cr'><div class='vertical-center'><font style='color:orange'>$3<br>for<br>sure</font></div></div><div class='respDivL'><div class='vertical-center'>(E)</div></div><div class='respDivR'><div class='vertical-center'><font style='color:orange'>(I)</font></div></div></div>","null","$3","$17","1","3","17",""
"","","","FIX","63d80b500adef5b476e289a8","bdp_rd","Tue Mar 28 2023 13:31:28 GMT-0400 (Eastern Daylight Time)","112593","html-keyboard-response","132","88576","0.0-5.0-1.42","","null","","","<div class='trialBorder'><div class='vertical-center'><img style='vertical-align:center; align:center' src=img/fixation3.jpg></div></div>","null","","","","","",""
"","","","offer","63d80b500adef5b476e289a8","bdp_rd","Tue Mar 28 2023 13:31:28 GMT-0400 (Eastern Daylight Time)","112593","html-keyboard-response","133","89041","0.0-5.0-2.42","","464","","","<div class='trialBorder'><div class='vertical-center'><img style='vertical-align:center; align:center' src=img/fixation3.jpg></div><div class='cl'><div class='vertical-center'>$31<br>for<br>sure</div></div><div class='cr'><div class='vertical-center'>$78<br>with a<br>50% chance</div></div><div class='respDivL'><div class='vertical-center'>(E)</div></div><div class='respDivR'><div class='vertical-center'>(I)</div></div></div>","E","$31","$78","0","31","78","SURE"
"","","","offerFB","63d80b500adef5b476e289a8","bdp_rd","Tue Mar 28 2023 13:31:28 GMT-0400 (Eastern Daylight Time)","112593","html-keyboard-response","134","89294","0.0-5.0-3.42","","null","","","<div class='trialBorder'><div class='vertical-center'><img style='vertical-align:center; align:center' src=img/fixation3.jpg></div><div class='cl'><div class='vertical-center'><font style='color:orange'>$31<br>for<br>sure</font></div></div><div class='cr'><div class='vertical-center'>$78<br>with a<br>50% chance</div></div><div class='respDivL'><div class='vertical-center'><font style='color:orange'>(E)</font></div></div><div class='respDivR'><div class='vertical-center'>(I)</div></div></div>","null","$31","$78","0","31","78",""
"","","","FIX","63d80b500adef5b476e289a8","bdp_rd","Tue Mar 28 2023 13:31:28 GMT-0400 (Eastern Daylight Time)","112593","html-keyboard-response","135","89800","0.0-5.0-1.43","","null","","","<div class='trialBorder'><div class='vertical-center'><img style='vertical-align:center; align:center' src=img/fixation3.jpg></div></div>","null","","","","","",""
"","","","offer","63d80b500adef5b476e289a8","bdp_rd","Tue Mar 28 2023 13:31:28 GMT-0400 (Eastern Daylight Time)","112593","html-keyboard-response","136","90451","0.0-5.0-2.43","","650","","","<div class='trialBorder'><div class='vertical-center'><img style='vertical-align:center; align:center' src=img/fixation3.jpg></div><div class='cl'><div class='vertical-center'>$66<br>with a<br>50% chance</div></div><div class='cr'><div class='vertical-center'>$33<br>for<br>sure</div></div><div class='respDivL'><div class='vertical-center'>(E)</div></div><div class='respDivR'><div class='vertical-center'>(I)</div></div></div>","I","$33","$66","1","33","66","SURE"
"","","","offerFB","63d80b500adef5b476e289a8","bdp_rd","Tue Mar 28 2023 13:31:28 GMT-0400 (Eastern Daylight Time)","112593","html-keyboard-response","137","90707","0.0-5.0-3.43","","null","","","<div class='trialBorder'><div class='vertical-center'><img style='vertical-align:center; align:center' src=img/fixation3.jpg></div><div class='cl'><div class='vertical-center'>$66<br>with a<br>50% chance</div></div><div class='cr'><div class='vertical-center'><font style='color:orange'>$33<br>for<br>sure</font></div></div><div class='respDivL'><div class='vertical-center'>(E)</div></div><div class='respDivR'><div class='vertical-center'><font style='color:orange'>(I)</font></div></div></div>","null","$33","$66","1","33","66",""
"","","","FIX","63d80b500adef5b476e289a8","bdp_rd","Tue Mar 28 2023 13:31:28 GMT-0400 (Eastern Daylight Time)","112593","html-keyboard-response","138","91213","0.0-5.0-1.44","","null","","","<div class='trialBorder'><div class='vertical-center'><img style='vertical-align:center; align:center' src=img/fixation3.jpg></div></div>","null","","","","","",""
"","","","offer","63d80b500adef5b476e289a8","bdp_rd","Tue Mar 28 2023 13:31:28 GMT-0400 (Eastern Daylight Time)","112593","html-keyboard-response","139","91748","0.0-5.0-2.44","","534","","","<div class='trialBorder'><div class='vertical-center'><img style='vertical-align:center; align:center' src=img/fixation3.jpg></div><div class='cl'><div class='vertical-center'>$8<br>for<br>sure</div></div><div class='cr'><div class='vertical-center'>$23<br>with a<br>50% chance</div></div><div class='respDivL'><div class='vertical-center'>(E)</div></div><div class='respDivR'><div class='vertical-center'>(I)</div></div></div>","E","$8","$23","0","8","23","SURE"
"","","","offerFB","63d80b500adef5b476e289a8","bdp_rd","Tue Mar 28 2023 13:31:28 GMT-0400 (Eastern Daylight Time)","112593","html-keyboard-response","140","92005","0.0-5.0-3.44","","null","","","<div class='trialBorder'><div class='vertical-center'><img style='vertical-align:center; align:center' src=img/fixation3.jpg></div><div class='cl'><div class='vertical-center'><font style='color:orange'>$8<br>for<br>sure</font></div></div><div class='cr'><div class='vertical-center'>$23<br>with a<br>50% chance</div></div><div class='respDivL'><div class='vertical-center'><font style='color:orange'>(E)</font></div></div><div class='respDivR'><div class='vertical-center'>(I)</div></div></div>","null","$8","$23","0","8","23",""
"","","","FIX","63d80b500adef5b476e289a8","bdp_rd","Tue Mar 28 2023 13:31:28 GMT-0400 (Eastern Daylight Time)","112593","html-keyboard-response","141","92510","0.0-5.0-1.45","","null","","","<div class='trialBorder'><div class='vertical-center'><img style='vertical-align:center; align:center' src=img/fixation3.jpg></div></div>","null","","","","","",""
"","","","offer","63d80b500adef5b476e289a8","bdp_rd","Tue Mar 28 2023 13:31:28 GMT-0400 (Eastern Daylight Time)","112593","html-keyboard-response","142","93078","0.0-5.0-2.45","","568","","","<div class='trialBorder'><div class='vertical-center'><img style='vertical-align:center; align:center' src=img/fixation3.jpg></div><div class='cl'><div class='vertical-center'>$32<br>with a<br>50% chance</div></div><div class='cr'><div class='vertical-center'>$9<br>for<br>sure</div></div><div class='respDivL'><div class='vertical-center'>(E)</div></div><div class='respDivR'><div class='vertical-center'>(I)</div></div></div>","I","$9","$32","1","9","32","SURE"
"","","","offerFB","63d80b500adef5b476e289a8","bdp_rd","Tue Mar 28 2023 13:31:28 GMT-0400 (Eastern Daylight Time)","112593","html-keyboard-response","143","93332","0.0-5.0-3.45","","null","","","<div class='trialBorder'><div class='vertical-center'><img style='vertical-align:center; align:center' src=img/fixation3.jpg></div><div class='cl'><div class='vertical-center'>$32<br>with a<br>50% chance</div></div><div class='cr'><div class='vertical-center'><font style='color:orange'>$9<br>for<br>sure</font></div></div><div class='respDivL'><div class='vertical-center'>(E)</div></div><div class='respDivR'><div class='vertical-center'><font style='color:orange'>(I)</font></div></div></div>","null","$9","$32","1","9","32",""
"","","","FIX","63d80b500adef5b476e289a8","bdp_rd","Tue Mar 28 2023 13:31:28 GMT-0400 (Eastern Daylight Time)","112593","html-keyboard-response","144","93835","0.0-5.0-1.46","","null","","","<div class='trialBorder'><div class='vertical-center'><img style='vertical-align:center; align:center' src=img/fixation3.jpg></div></div>","null","","","","","",""
"","","","offer","63d80b500adef5b476e289a8","bdp_rd","Tue Mar 28 2023 13:31:28 GMT-0400 (Eastern Daylight Time)","112593","html-keyboard-response","145","94308","0.0-5.0-2.46","","473","","","<div class='trialBorder'><div class='vertical-center'><img style='vertical-align:center; align:center' src=img/fixation3.jpg></div><div class='cl'><div class='vertical-center'>$26<br>for<br>sure</div></div><div class='cr'><div class='vertical-center'>$92<br>with a<br>50% chance</div></div><div class='respDivL'><div class='vertical-center'>(E)</div></div><div class='respDivR'><div class='vertical-center'>(I)</div></div></div>","E","$26","$92","0","26","92","SURE"
"","","","offerFB","63d80b500adef5b476e289a8","bdp_rd","Tue Mar 28 2023 13:31:28 GMT-0400 (Eastern Daylight Time)","112593","html-keyboard-response","146","94565","0.0-5.0-3.46","","null","","","<div class='trialBorder'><div class='vertical-center'><img style='vertical-align:center; align:center' src=img/fixation3.jpg></div><div class='cl'><div class='vertical-center'><font style='color:orange'>$26<br>for<br>sure</font></div></div><div class='cr'><div class='vertical-center'>$92<br>with a<br>50% chance</div></div><div class='respDivL'><div class='vertical-center'><font style='color:orange'>(E)</font></div></div><div class='respDivR'><div class='vertical-center'>(I)</div></div></div>","null","$26","$92","0","26","92",""
"","","","FIX","63d80b500adef5b476e289a8","bdp_rd","Tue Mar 28 2023 13:31:28 GMT-0400 (Eastern Daylight Time)","112593","html-keyboard-response","147","95070","0.0-5.0-1.47","","null","","","<div class='trialBorder'><div class='vertical-center'><img style='vertical-align:center; align:center' src=img/fixation3.jpg></div></div>","null","","","","","",""
"","","","offer","63d80b500adef5b476e289a8","bdp_rd","Tue Mar 28 2023 13:31:28 GMT-0400 (Eastern Daylight Time)","112593","html-keyboard-response","148","95703","0.0-5.0-2.47","","632","","","<div class='trialBorder'><div class='vertical-center'><img style='vertical-align:center; align:center' src=img/fixation3.jpg></div><div class='cl'><div class='vertical-center'>$86<br>with a<br>50% chance</div></div><div class='cr'><div class='vertical-center'>$45<br>for<br>sure</div></div><div class='respDivL'><div class='vertical-center'>(E)</div></div><div class='respDivR'><div class='vertical-center'>(I)</div></div></div>","I","$45","$86","1","45","86","SURE"
"","","","offerFB","63d80b500adef5b476e289a8","bdp_rd","Tue Mar 28 2023 13:31:28 GMT-0400 (Eastern Daylight Time)","112593","html-keyboard-response","149","95955","0.0-5.0-3.47","","null","","","<div class='trialBorder'><div class='vertical-center'><img style='vertical-align:center; align:center' src=img/fixation3.jpg></div><div class='cl'><div class='vertical-center'>$86<br>with a<br>50% chance</div></div><div class='cr'><div class='vertical-center'><font style='color:orange'>$45<br>for<br>sure</font></div></div><div class='respDivL'><div class='vertical-center'>(E)</div></div><div class='respDivR'><div class='vertical-center'><font style='color:orange'>(I)</font></div></div></div>","null","$45","$86","1","45","86",""
"","","","FIX","63d80b500adef5b476e289a8","bdp_rd","Tue Mar 28 2023 13:31:28 GMT-0400 (Eastern Daylight Time)","112593","html-keyboard-response","150","96461","0.0-5.0-1.48","","null","","","<div class='trialBorder'><div class='vertical-center'><img style='vertical-align:center; align:center' src=img/fixation3.jpg></div></div>","null","","","","","",""
"","","","offer","63d80b500adef5b476e289a8","bdp_rd","Tue Mar 28 2023 13:31:28 GMT-0400 (Eastern Daylight Time)","112593","html-keyboard-response","151","97004","0.0-5.0-2.48","","543","","","<div class='trialBorder'><div class='vertical-center'><img style='vertical-align:center; align:center' src=img/fixation3.jpg></div><div class='cl'><div class='vertical-center'>$44<br>with a<br>50% chance</div></div><div class='cr'><div class='vertical-center'>$37<br>for<br>sure</div></div><div class='respDivL'><div class='vertical-center'>(E)</div></div><div class='respDivR'><div class='vertical-center'>(I)</div></div></div>","I","$37","$44","1","37","44","SURE"
"","","","offerFB","63d80b500adef5b476e289a8","bdp_rd","Tue Mar 28 2023 13:31:28 GMT-0400 (Eastern Daylight Time)","112593","html-keyboard-response","152","97260","0.0-5.0-3.48","","null","","","<div class='trialBorder'><div class='vertical-center'><img style='vertical-align:center; align:center' src=img/fixation3.jpg></div><div class='cl'><div class='vertical-center'>$44<br>with a<br>50% chance</div></div><div class='cr'><div class='vertical-center'><font style='color:orange'>$37<br>for<br>sure</font></div></div><div class='respDivL'><div class='vertical-center'>(E)</div></div><div class='respDivR'><div class='vertical-center'><font style='color:orange'>(I)</font></div></div></div>","null","$37","$44","1","37","44",""
"","","","FIX","63d80b500adef5b476e289a8","bdp_rd","Tue Mar 28 2023 13:31:28 GMT-0400 (Eastern Daylight Time)","112593","html-keyboard-response","153","97766","0.0-5.0-1.49","","null","","","<div class='trialBorder'><div class='vertical-center'><img style='vertical-align:center; align:center' src=img/fixation3.jpg></div></div>","null","","","","","",""
"","","","offer","63d80b500adef5b476e289a8","bdp_rd","Tue Mar 28 2023 13:31:28 GMT-0400 (Eastern Daylight Time)","112593","html-keyboard-response","154","98280","0.0-5.0-2.49","","512","","","<div class='trialBorder'><div class='vertical-center'><img style='vertical-align:center; align:center' src=img/fixation3.jpg></div><div class='cl'><div class='vertical-center'>$14<br>with a<br>50% chance</div></div><div class='cr'><div class='vertical-center'>$4<br>for<br>sure</div></div><div class='respDivL'><div class='vertical-center'>(E)</div></div><div class='respDivR'><div class='vertical-center'>(I)</div></div></div>","I","$4","$14","1","4","14","SURE"
"","","","offerFB","63d80b500adef5b476e289a8","bdp_rd","Tue Mar 28 2023 13:31:28 GMT-0400 (Eastern Daylight Time)","112593","html-keyboard-response","155","98537","0.0-5.0-3.49","","null","","","<div class='trialBorder'><div class='vertical-center'><img style='vertical-align:center; align:center' src=img/fixation3.jpg></div><div class='cl'><div class='vertical-center'>$14<br>with a<br>50% chance</div></div><div class='cr'><div class='vertical-center'><font style='color:orange'>$4<br>for<br>sure</font></div></div><div class='respDivL'><div class='vertical-center'>(E)</div></div><div class='respDivR'><div class='vertical-center'><font style='color:orange'>(I)</font></div></div></div>","null","$4","$14","1","4","14",""
"","","","FIX","63d80b500adef5b476e289a8","bdp_rd","Tue Mar 28 2023 13:31:28 GMT-0400 (Eastern Daylight Time)","112593","html-keyboard-response","156","99042","0.0-5.0-1.50","","null","","","<div class='trialBorder'><div class='vertical-center'><img style='vertical-align:center; align:center' src=img/fixation3.jpg></div></div>","null","","","","","",""
"","","","offer","63d80b500adef5b476e289a8","bdp_rd","Tue Mar 28 2023 13:31:28 GMT-0400 (Eastern Daylight Time)","112593","html-keyboard-response","157","99514","0.0-5.0-2.50","","472","","","<div class='trialBorder'><div class='vertical-center'><img style='vertical-align:center; align:center' src=img/fixation3.jpg></div><div class='cl'><div class='vertical-center'>$63<br>for<br>sure</div></div><div class='cr'><div class='vertical-center'>$100<br>with a<br>50% chance</div></div><div class='respDivL'><div class='vertical-center'>(E)</div></div><div class='respDivR'><div class='vertical-center'>(I)</div></div></div>","E","$63","$100","0","63","10","SURE"
"","","","offerFB","63d80b500adef5b476e289a8","bdp_rd","Tue Mar 28 2023 13:31:28 GMT-0400 (Eastern Daylight Time)","112593","html-keyboard-response","158","99771","0.0-5.0-3.50","","null","","","<div class='trialBorder'><div class='vertical-center'><img style='vertical-align:center; align:center' src=img/fixation3.jpg></div><div class='cl'><div class='vertical-center'><font style='color:orange'>$63<br>for<br>sure</font></div></div><div class='cr'><div class='vertical-center'>$100<br>with a<br>50% chance</div></div><div class='respDivL'><div class='vertical-center'><font style='color:orange'>(E)</font></div></div><div class='respDivR'><div class='vertical-center'>(I)</div></div></div>","null","$63","$100","0","63","10",""
"","","","FIX","63d80b500adef5b476e289a8","bdp_rd","Tue Mar 28 2023 13:31:28 GMT-0400 (Eastern Daylight Time)","112593","html-keyboard-response","159","100274","0.0-5.0-1.51","","null","","","<div class='trialBorder'><div class='vertical-center'><img style='vertical-align:center; align:center' src=img/fixation3.jpg></div></div>","null","","","","","",""
"","","","offer","63d80b500adef5b476e289a8","bdp_rd","Tue Mar 28 2023 13:31:28 GMT-0400 (Eastern Daylight Time)","112593","html-keyboard-response","160","100796","0.0-5.0-2.51","","521","","","<div class='trialBorder'><div class='vertical-center'><img style='vertical-align:center; align:center' src=img/fixation3.jpg></div><div class='cl'><div class='vertical-center'>$17<br>for<br>sure</div></div><div class='cr'><div class='vertical-center'>$43<br>with a<br>50% chance</div></div><div class='respDivL'><div class='vertical-center'>(E)</div></div><div class='respDivR'><div class='vertical-center'>(I)</div></div></div>","E","$17","$43","0","17","43","SURE"
"","","","offerFB","63d80b500adef5b476e289a8","bdp_rd","Tue Mar 28 2023 13:31:28 GMT-0400 (Eastern Daylight Time)","112593","html-keyboard-response","161","101053","0.0-5.0-3.51","","null","","","<div class='trialBorder'><div class='vertical-center'><img style='vertical-align:center; align:center' src=img/fixation3.jpg></div><div class='cl'><div class='vertical-center'><font style='color:orange'>$17<br>for<br>sure</font></div></div><div class='cr'><div class='vertical-center'>$43<br>with a<br>50% chance</div></div><div class='respDivL'><div class='vertical-center'><font style='color:orange'>(E)</font></div></div><div class='respDivR'><div class='vertical-center'>(I)</div></div></div>","null","$17","$43","0","17","43",""
"","","","FIX","63d80b500adef5b476e289a8","bdp_rd","Tue Mar 28 2023 13:31:28 GMT-0400 (Eastern Daylight Time)","112593","html-keyboard-response","162","101558","0.0-5.0-1.52","","null","","","<div class='trialBorder'><div class='vertical-center'><img style='vertical-align:center; align:center' src=img/fixation3.jpg></div></div>","null","","","","","",""
"","","","offer","63d80b500adef5b476e289a8","bdp_rd","Tue Mar 28 2023 13:31:28 GMT-0400 (Eastern Daylight Time)","112593","html-keyboard-response","163","102018","0.0-5.0-2.52","","459","","","<div class='trialBorder'><div class='vertical-center'><img style='vertical-align:center; align:center' src=img/fixation3.jpg></div><div class='cl'><div class='vertical-center'>$28<br>for<br>sure</div></div><div class='cr'><div class='vertical-center'>$89<br>with a<br>50% chance</div></div><div class='respDivL'><div class='vertical-center'>(E)</div></div><div class='respDivR'><div class='vertical-center'>(I)</div></div></div>","E","$28","$89","0","28","89","SURE"
"","","","offerFB","63d80b500adef5b476e289a8","bdp_rd","Tue Mar 28 2023 13:31:28 GMT-0400 (Eastern Daylight Time)","112593","html-keyboard-response","164","102273","0.0-5.0-3.52","","null","","","<div class='trialBorder'><div class='vertical-center'><img style='vertical-align:center; align:center' src=img/fixation3.jpg></div><div class='cl'><div class='vertical-center'><font style='color:orange'>$28<br>for<br>sure</font></div></div><div class='cr'><div class='vertical-center'>$89<br>with a<br>50% chance</div></div><div class='respDivL'><div class='vertical-center'><font style='color:orange'>(E)</font></div></div><div class='respDivR'><div class='vertical-center'>(I)</div></div></div>","null","$28","$89","0","28","89",""
"","","","FIX","63d80b500adef5b476e289a8","bdp_rd","Tue Mar 28 2023 13:31:28 GMT-0400 (Eastern Daylight Time)","112593","html-keyboard-response","165","102777","0.0-5.0-1.53","","null","","","<div class='trialBorder'><div class='vertical-center'><img style='vertical-align:center; align:center' src=img/fixation3.jpg></div></div>","null","","","","","",""
"","","","offer","63d80b500adef5b476e289a8","bdp_rd","Tue Mar 28 2023 13:31:28 GMT-0400 (Eastern Daylight Time)","112593","html-keyboard-response","166","103404","0.0-5.0-2.53","","626","","","<div class='trialBorder'><div class='vertical-center'><img style='vertical-align:center; align:center' src=img/fixation3.jpg></div><div class='cl'><div class='vertical-center'>$10<br>for<br>sure</div></div><div class='cr'><div class='vertical-center'>$40<br>with a<br>50% chance</div></div><div class='respDivL'><div class='vertical-center'>(E)</div></div><div class='respDivR'><div class='vertical-center'>(I)</div></div></div>","E","$10","$40","0","10","40","SURE"
"","","","offerFB","63d80b500adef5b476e289a8","bdp_rd","Tue Mar 28 2023 13:31:28 GMT-0400 (Eastern Daylight Time)","112593","html-keyboard-response","167","103655","0.0-5.0-3.53","","null","","","<div class='trialBorder'><div class='vertical-center'><img style='vertical-align:center; align:center' src=img/fixation3.jpg></div><div class='cl'><div class='vertical-center'><font style='color:orange'>$10<br>for<br>sure</font></div></div><div class='cr'><div class='vertical-center'>$40<br>with a<br>50% chance</div></div><div class='respDivL'><div class='vertical-center'><font style='color:orange'>(E)</font></div></div><div class='respDivR'><div class='vertical-center'>(I)</div></div></div>","null","$10","$40","0","10","40",""
"","","","FIX","63d80b500adef5b476e289a8","bdp_rd","Tue Mar 28 2023 13:31:28 GMT-0400 (Eastern Daylight Time)","112593","html-keyboard-response","168","104161","0.0-5.0-1.54","","null","","","<div class='trialBorder'><div class='vertical-center'><img style='vertical-align:center; align:center' src=img/fixation3.jpg></div></div>","null","","","","","",""
"","","","offer","63d80b500adef5b476e289a8","bdp_rd","Tue Mar 28 2023 13:31:28 GMT-0400 (Eastern Daylight Time)","112593","html-keyboard-response","169","104778","0.0-5.0-2.54","","616","","","<div class='trialBorder'><div class='vertical-center'><img style='vertical-align:center; align:center' src=img/fixation3.jpg></div><div class='cl'><div class='vertical-center'>$37<br>with a<br>50% chance</div></div><div class='cr'><div class='vertical-center'>$20<br>for<br>sure</div></div><div class='respDivL'><div class='vertical-center'>(E)</div></div><div class='respDivR'><div class='vertical-center'>(I)</div></div></div>","I","$20","$37","1","20","37","SURE"
"","","","offerFB","63d80b500adef5b476e289a8","bdp_rd","Tue Mar 28 2023 13:31:28 GMT-0400 (Eastern Daylight Time)","112593","html-keyboard-response","170","105035","0.0-5.0-3.54","","null","","","<div class='trialBorder'><div class='vertical-center'><img style='vertical-align:center; align:center' src=img/fixation3.jpg></div><div class='cl'><div class='vertical-center'>$37<br>with a<br>50% chance</div></div><div class='cr'><div class='vertical-center'><font style='color:orange'>$20<br>for<br>sure</font></div></div><div class='respDivL'><div class='vertical-center'>(E)</div></div><div class='respDivR'><div class='vertical-center'><font style='color:orange'>(I)</font></div></div></div>","null","$20","$37","1","20","37",""
"","","","FIX","63d80b500adef5b476e289a8","bdp_rd","Tue Mar 28 2023 13:31:28 GMT-0400 (Eastern Daylight Time)","112593","html-keyboard-response","171","105540","0.0-5.0-1.55","","null","","","<div class='trialBorder'><div class='vertical-center'><img style='vertical-align:center; align:center' src=img/fixation3.jpg></div></div>","null","","","","","",""
"","","","offer","63d80b500adef5b476e289a8","bdp_rd","Tue Mar 28 2023 13:31:28 GMT-0400 (Eastern Daylight Time)","112593","html-keyboard-response","172","106021","0.0-5.0-2.55","","480","","","<div class='trialBorder'><div class='vertical-center'><img style='vertical-align:center; align:center' src=img/fixation3.jpg></div><div class='cl'><div class='vertical-center'>$48<br>with a<br>50% chance</div></div><div class='cr'><div class='vertical-center'>$34<br>for<br>sure</div></div><div class='respDivL'><div class='vertical-center'>(E)</div></div><div class='respDivR'><div class='vertical-center'>(I)</div></div></div>","I","$34","$48","1","34","48","SURE"
"","","","offerFB","63d80b500adef5b476e289a8","bdp_rd","Tue Mar 28 2023 13:31:28 GMT-0400 (Eastern Daylight Time)","112593","html-keyboard-response","173","106277","0.0-5.0-3.55","","null","","","<div class='trialBorder'><div class='vertical-center'><img style='vertical-align:center; align:center' src=img/fixation3.jpg></div><div class='cl'><div class='vertical-center'>$48<br>with a<br>50% chance</div></div><div class='cr'><div class='vertical-center'><font style='color:orange'>$34<br>for<br>sure</font></div></div><div class='respDivL'><div class='vertical-center'>(E)</div></div><div class='respDivR'><div class='vertical-center'><font style='color:orange'>(I)</font></div></div></div>","null","$34","$48","1","34","48",""
