"trial_type","trial_index","time_elapsed","internal_node_id","subject_id","task","startTime","totalTime","view_history","rt","event","trial","time","trialtype","success","stimulus","key_press","sureOffer","riskyOffer","riskyLeft","sureAmt","riskyAmt","chosen"
"pavlovia","0","3","0.0-0.0","594936ad4152bf0001bfd5cd","bdp_rd","Sat Mar 25 2023 21:02:54 GMT-0400 (Eastern Daylight Time)","174221","","","","","","","","","","","","","","",""
"instructions","1","1911","0.0-1.0","594936ad4152bf0001bfd5cd","bdp_rd","Sat Mar 25 2023 21:02:54 GMT-0400 (Eastern Daylight Time)","174221","[{""page_index"":0,""viewing_time"":1908}]","1908","","","","","","","","","","","","",""
"","","","","594936ad4152bf0001bfd5cd","bdp_rd","Sat Mar 25 2023 21:02:54 GMT-0400 (Eastern Daylight Time)","174221","","","fullscreenenter","2","4027","fullscreenenter","","","","","","","","",""
"fullscreen","2","5013","0.0-2.0","594936ad4152bf0001bfd5cd","bdp_rd","Sat Mar 25 2023 21:02:54 GMT-0400 (Eastern Daylight Time)","174221","","","","","","","true","","","","","","","",""
"instructions","3","16174","0.0-4.0","594936ad4152bf0001bfd5cd","bdp_rd","Sat Mar 25 2023 21:02:54 GMT-0400 (Eastern Daylight Time)","174221","[{""page_index"":0,""viewing_time"":7004},{""page_index"":1,""viewing_time"":2424},{""page_index"":2,""viewing_time"":1731}]","11159","","","","","","","","","","","","",""
"html-keyboard-response","4","16677","0.0-5.0-1.0","594936ad4152bf0001bfd5cd","bdp_rd","Sat Mar 25 2023 21:02:54 GMT-0400 (Eastern Daylight Time)","174221","","null","","","","FIX","","<div class='trialBorder'><div class='vertical-center'><img style='vertical-align:center; align:center' src=img/fixation3.jpg></div></div>","null","","","","","",""
"html-keyboard-response","5","20793","0.0-5.0-2.0","594936ad4152bf0001bfd5cd","bdp_rd","Sat Mar 25 2023 21:02:54 GMT-0400 (Eastern Daylight Time)","174221","","4113","","","","offer","","<div class='trialBorder'><div class='vertical-center'><img style='vertical-align:center; align:center' src=img/fixation3.jpg></div><div class='cl'><div class='vertical-center'>$18<br>for<br>sure</div></div><div class='cr'><div class='vertical-center'>$36<br>with a<br>50% chance</div></div><div class='respDivL'><div class='vertical-center'>(E)</div></div><div class='respDivR'><div class='vertical-center'>(I)</div></div></div>","E","$18","$36","0","18","36","SURE"
"html-keyboard-response","6","21048","0.0-5.0-3.0","594936ad4152bf0001bfd5cd","bdp_rd","Sat Mar 25 2023 21:02:54 GMT-0400 (Eastern Daylight Time)","174221","","null","","","","offerFB","","<div class='trialBorder'><div class='vertical-center'><img style='vertical-align:center; align:center' src=img/fixation3.jpg></div><div class='cl'><div class='vertical-center'><font style='color:orange'>$18<br>for<br>sure</font></div></div><div class='cr'><div class='vertical-center'>$36<br>with a<br>50% chance</div></div><div class='respDivL'><div class='vertical-center'><font style='color:orange'>(E)</font></div></div><div class='respDivR'><div class='vertical-center'>(I)</div></div></div>","null","$18","$36","0","18","36",""
"html-keyboard-response","7","21550","0.0-5.0-1.1","594936ad4152bf0001bfd5cd","bdp_rd","Sat Mar 25 2023 21:02:54 GMT-0400 (Eastern Daylight Time)","174221","","null","","","","FIX","","<div class='trialBorder'><div class='vertical-center'><img style='vertical-align:center; align:center' src=img/fixation3.jpg></div></div>","null","","","","","",""
"html-keyboard-response","8","23383","0.0-5.0-2.1","594936ad4152bf0001bfd5cd","bdp_rd","Sat Mar 25 2023 21:02:54 GMT-0400 (Eastern Daylight Time)","174221","","1831","","","","offer","","<div class='trialBorder'><div class='vertical-center'><img style='vertical-align:center; align:center' src=img/fixation3.jpg></div><div class='cl'><div class='vertical-center'>$6<br>for<br>sure</div></div><div class='cr'><div class='vertical-center'>$15<br>with a<br>50% chance</div></div><div class='respDivL'><div class='vertical-center'>(E)</div></div><div class='respDivR'><div class='vertical-center'>(I)</div></div></div>","I","$6","$15","0","6","15","RISKY"
"html-keyboard-response","9","23635","0.0-5.0-3.1","594936ad4152bf0001bfd5cd","bdp_rd","Sat Mar 25 2023 21:02:54 GMT-0400 (Eastern Daylight Time)","174221","","null","","","","offerFB","","<div class='trialBorder'><div class='vertical-center'><img style='vertical-align:center; align:center' src=img/fixation3.jpg></div><div class='cl'><div class='vertical-center'>$6<br>for<br>sure</div></div><div class='cr'><div class='vertical-center'><font style='color:orange'>$15<br>with a<br>50% chance</font></div></div><div class='respDivL'><div class='vertical-center'>(E)</div></div><div class='respDivR'><div class='vertical-center'><font style='color:orange'>(I)</font></div></div></div>","null","$6","$15","0","6","15",""
"html-keyboard-response","10","24138","0.0-5.0-1.2","594936ad4152bf0001bfd5cd","bdp_rd","Sat Mar 25 2023 21:02:54 GMT-0400 (Eastern Daylight Time)","174221","","null","","","","FIX","","<div class='trialBorder'><div class='vertical-center'><img style='vertical-align:center; align:center' src=img/fixation3.jpg></div></div>","null","","","","","",""
"html-keyboard-response","11","27312","0.0-5.0-2.2","594936ad4152bf0001bfd5cd","bdp_rd","Sat Mar 25 2023 21:02:54 GMT-0400 (Eastern Daylight Time)","174221","","3173","","","","offer","","<div class='trialBorder'><div class='vertical-center'><img style='vertical-align:center; align:center' src=img/fixation3.jpg></div><div class='cl'><div class='vertical-center'>$22<br>for<br>sure</div></div><div class='cr'><div class='vertical-center'>$59<br>with a<br>50% chance</div></div><div class='respDivL'><div class='vertical-center'>(E)</div></div><div class='respDivR'><div class='vertical-center'>(I)</div></div></div>","I","$22","$59","0","22","59","RISKY"
"html-keyboard-response","12","27565","0.0-5.0-3.2","594936ad4152bf0001bfd5cd","bdp_rd","Sat Mar 25 2023 21:02:54 GMT-0400 (Eastern Daylight Time)","174221","","null","","","","offerFB","","<div class='trialBorder'><div class='vertical-center'><img style='vertical-align:center; align:center' src=img/fixation3.jpg></div><div class='cl'><div class='vertical-center'>$22<br>for<br>sure</div></div><div class='cr'><div class='vertical-center'><font style='color:orange'>$59<br>with a<br>50% chance</font></div></div><div class='respDivL'><div class='vertical-center'>(E)</div></div><div class='respDivR'><div class='vertical-center'><font style='color:orange'>(I)</font></div></div></div>","null","$22","$59","0","22","59",""
"html-keyboard-response","13","28066","0.0-5.0-1.3","594936ad4152bf0001bfd5cd","bdp_rd","Sat Mar 25 2023 21:02:54 GMT-0400 (Eastern Daylight Time)","174221","","null","","","","FIX","","<div class='trialBorder'><div class='vertical-center'><img style='vertical-align:center; align:center' src=img/fixation3.jpg></div></div>","null","","","","","",""
"html-keyboard-response","14","29455","0.0-5.0-2.3","594936ad4152bf0001bfd5cd","bdp_rd","Sat Mar 25 2023 21:02:54 GMT-0400 (Eastern Daylight Time)","174221","","1388","","","","offer","","<div class='trialBorder'><div class='vertical-center'><img style='vertical-align:center; align:center' src=img/fixation3.jpg></div><div class='cl'><div class='vertical-center'>$10<br>for<br>sure</div></div><div class='cr'><div class='vertical-center'>$40<br>with a<br>50% chance</div></div><div class='respDivL'><div class='vertical-center'>(E)</div></div><div class='respDivR'><div class='vertical-center'>(I)</div></div></div>","I","$10","$40","0","10","40","RISKY"
"html-keyboard-response","15","29708","0.0-5.0-3.3","594936ad4152bf0001bfd5cd","bdp_rd","Sat Mar 25 2023 21:02:54 GMT-0400 (Eastern Daylight Time)","174221","","null","","","","offerFB","","<div class='trialBorder'><div class='vertical-center'><img style='vertical-align:center; align:center' src=img/fixation3.jpg></div><div class='cl'><div class='vertical-center'>$10<br>for<br>sure</div></div><div class='cr'><div class='vertical-center'><font style='color:orange'>$40<br>with a<br>50% chance</font></div></div><div class='respDivL'><div class='vertical-center'>(E)</div></div><div class='respDivR'><div class='vertical-center'><font style='color:orange'>(I)</font></div></div></div>","null","$10","$40","0","10","40",""
"html-keyboard-response","16","30210","0.0-5.0-1.4","594936ad4152bf0001bfd5cd","bdp_rd","Sat Mar 25 2023 21:02:54 GMT-0400 (Eastern Daylight Time)","174221","","null","","","","FIX","","<div class='trialBorder'><div class='vertical-center'><img style='vertical-align:center; align:center' src=img/fixation3.jpg></div></div>","null","","","","","",""
"html-keyboard-response","17","32503","0.0-5.0-2.4","594936ad4152bf0001bfd5cd","bdp_rd","Sat Mar 25 2023 21:02:54 GMT-0400 (Eastern Daylight Time)","174221","","2292","","","","offer","","<div class='trialBorder'><div class='vertical-center'><img style='vertical-align:center; align:center' src=img/fixation3.jpg></div><div class='cl'><div class='vertical-center'>$86<br>with a<br>50% chance</div></div><div class='cr'><div class='vertical-center'>$45<br>for<br>sure</div></div><div class='respDivL'><div class='vertical-center'>(E)</div></div><div class='respDivR'><div class='vertical-center'>(I)</div></div></div>","I","$45","$86","1","45","86","SURE"
"html-keyboard-response","18","32755","0.0-5.0-3.4","594936ad4152bf0001bfd5cd","bdp_rd","Sat Mar 25 2023 21:02:54 GMT-0400 (Eastern Daylight Time)","174221","","null","","","","offerFB","","<div class='trialBorder'><div class='vertical-center'><img style='vertical-align:center; align:center' src=img/fixation3.jpg></div><div class='cl'><div class='vertical-center'>$86<br>with a<br>50% chance</div></div><div class='cr'><div class='vertical-center'><font style='color:orange'>$45<br>for<br>sure</font></div></div><div class='respDivL'><div class='vertical-center'>(E)</div></div><div class='respDivR'><div class='vertical-center'><font style='color:orange'>(I)</font></div></div></div>","null","$45","$86","1","45","86",""
"html-keyboard-response","19","33257","0.0-5.0-1.5","594936ad4152bf0001bfd5cd","bdp_rd","Sat Mar 25 2023 21:02:54 GMT-0400 (Eastern Daylight Time)","174221","","null","","","","FIX","","<div class='trialBorder'><div class='vertical-center'><img style='vertical-align:center; align:center' src=img/fixation3.jpg></div></div>","null","","","","","",""
"html-keyboard-response","20","35756","0.0-5.0-2.5","594936ad4152bf0001bfd5cd","bdp_rd","Sat Mar 25 2023 21:02:54 GMT-0400 (Eastern Daylight Time)","174221","","2498","","","","offer","","<div class='trialBorder'><div class='vertical-center'><img style='vertical-align:center; align:center' src=img/fixation3.jpg></div><div class='cl'><div class='vertical-center'>$98<br>with a<br>50% chance</div></div><div class='cr'><div class='vertical-center'>$53<br>for<br>sure</div></div><div class='respDivL'><div class='vertical-center'>(E)</div></div><div class='respDivR'><div class='vertical-center'>(I)</div></div></div>","I","$53","$98","1","53","98","SURE"
"html-keyboard-response","21","36008","0.0-5.0-3.5","594936ad4152bf0001bfd5cd","bdp_rd","Sat Mar 25 2023 21:02:54 GMT-0400 (Eastern Daylight Time)","174221","","null","","","","offerFB","","<div class='trialBorder'><div class='vertical-center'><img style='vertical-align:center; align:center' src=img/fixation3.jpg></div><div class='cl'><div class='vertical-center'>$98<br>with a<br>50% chance</div></div><div class='cr'><div class='vertical-center'><font style='color:orange'>$53<br>for<br>sure</font></div></div><div class='respDivL'><div class='vertical-center'>(E)</div></div><div class='respDivR'><div class='vertical-center'><font style='color:orange'>(I)</font></div></div></div>","null","$53","$98","1","53","98",""
"html-keyboard-response","22","36510","0.0-5.0-1.6","594936ad4152bf0001bfd5cd","bdp_rd","Sat Mar 25 2023 21:02:54 GMT-0400 (Eastern Daylight Time)","174221","","null","","","","FIX","","<div class='trialBorder'><div class='vertical-center'><img style='vertical-align:center; align:center' src=img/fixation3.jpg></div></div>","null","","","","","",""
"html-keyboard-response","23","38078","0.0-5.0-2.6","594936ad4152bf0001bfd5cd","bdp_rd","Sat Mar 25 2023 21:02:54 GMT-0400 (Eastern Daylight Time)","174221","","1568","","","","offer","","<div class='trialBorder'><div class='vertical-center'><img style='vertical-align:center; align:center' src=img/fixation3.jpg></div><div class='cl'><div class='vertical-center'>$25<br>with a<br>50% chance</div></div><div class='cr'><div class='vertical-center'>$21<br>for<br>sure</div></div><div class='respDivL'><div class='vertical-center'>(E)</div></div><div class='respDivR'><div class='vertical-center'>(I)</div></div></div>","I","$21","$25","1","21","25","SURE"
"html-keyboard-response","24","38331","0.0-5.0-3.6","594936ad4152bf0001bfd5cd","bdp_rd","Sat Mar 25 2023 21:02:54 GMT-0400 (Eastern Daylight Time)","174221","","null","","","","offerFB","","<div class='trialBorder'><div class='vertical-center'><img style='vertical-align:center; align:center' src=img/fixation3.jpg></div><div class='cl'><div class='vertical-center'>$25<br>with a<br>50% chance</div></div><div class='cr'><div class='vertical-center'><font style='color:orange'>$21<br>for<br>sure</font></div></div><div class='respDivL'><div class='vertical-center'>(E)</div></div><div class='respDivR'><div class='vertical-center'><font style='color:orange'>(I)</font></div></div></div>","null","$21","$25","1","21","25",""
"html-keyboard-response","25","38833","0.0-5.0-1.7","594936ad4152bf0001bfd5cd","bdp_rd","Sat Mar 25 2023 21:02:54 GMT-0400 (Eastern Daylight Time)","174221","","null","","","","FIX","","<div class='trialBorder'><div class='vertical-center'><img style='vertical-align:center; align:center' src=img/fixation3.jpg></div></div>","null","","","","","",""
"html-keyboard-response","26","40460","0.0-5.0-2.7","594936ad4152bf0001bfd5cd","bdp_rd","Sat Mar 25 2023 21:02:54 GMT-0400 (Eastern Daylight Time)","174221","","1626","","","","offer","","<div class='trialBorder'><div class='vertical-center'><img style='vertical-align:center; align:center' src=img/fixation3.jpg></div><div class='cl'><div class='vertical-center'>$1<br>for<br>sure</div></div><div class='cr'><div class='vertical-center'>$30<br>with a<br>50% chance</div></div><div class='respDivL'><div class='vertical-center'>(E)</div></div><div class='respDivR'><div class='vertical-center'>(I)</div></div></div>","I","$1","$30","0","1","30","RISKY"
"html-keyboard-response","27","40712","0.0-5.0-3.7","594936ad4152bf0001bfd5cd","bdp_rd","Sat Mar 25 2023 21:02:54 GMT-0400 (Eastern Daylight Time)","174221","","null","","","","offerFB","","<div class='trialBorder'><div class='vertical-center'><img style='vertical-align:center; align:center' src=img/fixation3.jpg></div><div class='cl'><div class='vertical-center'>$1<br>for<br>sure</div></div><div class='cr'><div class='vertical-center'><font style='color:orange'>$30<br>with a<br>50% chance</font></div></div><div class='respDivL'><div class='vertical-center'>(E)</div></div><div class='respDivR'><div class='vertical-center'><font style='color:orange'>(I)</font></div></div></div>","null","$1","$30","0","1","30",""
"html-keyboard-response","28","41213","0.0-5.0-1.8","594936ad4152bf0001bfd5cd","bdp_rd","Sat Mar 25 2023 21:02:54 GMT-0400 (Eastern Daylight Time)","174221","","null","","","","FIX","","<div class='trialBorder'><div class='vertical-center'><img style='vertical-align:center; align:center' src=img/fixation3.jpg></div></div>","null","","","","","",""
"html-keyboard-response","29","43040","0.0-5.0-2.8","594936ad4152bf0001bfd5cd","bdp_rd","Sat Mar 25 2023 21:02:54 GMT-0400 (Eastern Daylight Time)","174221","","1826","","","","offer","","<div class='trialBorder'><div class='vertical-center'><img style='vertical-align:center; align:center' src=img/fixation3.jpg></div><div class='cl'><div class='vertical-center'>$34<br>with a<br>50% chance</div></div><div class='cr'><div class='vertical-center'>$15<br>for<br>sure</div></div><div class='respDivL'><div class='vertical-center'>(E)</div></div><div class='respDivR'><div class='vertical-center'>(I)</div></div></div>","E","$15","$34","1","15","34","RISKY"
"html-keyboard-response","30","43291","0.0-5.0-3.8","594936ad4152bf0001bfd5cd","bdp_rd","Sat Mar 25 2023 21:02:54 GMT-0400 (Eastern Daylight Time)","174221","","null","","","","offerFB","","<div class='trialBorder'><div class='vertical-center'><img style='vertical-align:center; align:center' src=img/fixation3.jpg></div><div class='cl'><div class='vertical-center'><font style='color:orange'>$34<br>with a<br>50% chance</font></div></div><div class='cr'><div class='vertical-center'>$15<br>for<br>sure</div></div><div class='respDivL'><div class='vertical-center'><font style='color:orange'>(E)</font></div></div><div class='respDivR'><div class='vertical-center'>(I)</div></div></div>","null","$15","$34","1","15","34",""
"html-keyboard-response","31","43793","0.0-5.0-1.9","594936ad4152bf0001bfd5cd","bdp_rd","Sat Mar 25 2023 21:02:54 GMT-0400 (Eastern Daylight Time)","174221","","null","","","","FIX","","<div class='trialBorder'><div class='vertical-center'><img style='vertical-align:center; align:center' src=img/fixation3.jpg></div></div>","null","","","","","",""
"html-keyboard-response","32","46381","0.0-5.0-2.9","594936ad4152bf0001bfd5cd","bdp_rd","Sat Mar 25 2023 21:02:54 GMT-0400 (Eastern Daylight Time)","174221","","2588","","","","offer","","<div class='trialBorder'><div class='vertical-center'><img style='vertical-align:center; align:center' src=img/fixation3.jpg></div><div class='cl'><div class='vertical-center'>$13<br>with a<br>50% chance</div></div><div class='cr'><div class='vertical-center'>$6<br>for<br>sure</div></div><div class='respDivL'><div class='vertical-center'>(E)</div></div><div class='respDivR'><div class='vertical-center'>(I)</div></div></div>","E","$6","$13","1","6","13","RISKY"
"html-keyboard-response","33","46633","0.0-5.0-3.9","594936ad4152bf0001bfd5cd","bdp_rd","Sat Mar 25 2023 21:02:54 GMT-0400 (Eastern Daylight Time)","174221","","null","","","","offerFB","","<div class='trialBorder'><div class='vertical-center'><img style='vertical-align:center; align:center' src=img/fixation3.jpg></div><div class='cl'><div class='vertical-center'><font style='color:orange'>$13<br>with a<br>50% chance</font></div></div><div class='cr'><div class='vertical-center'>$6<br>for<br>sure</div></div><div class='respDivL'><div class='vertical-center'><font style='color:orange'>(E)</font></div></div><div class='respDivR'><div class='vertical-center'>(I)</div></div></div>","null","$6","$13","1","6","13",""
"html-keyboard-response","34","47135","0.0-5.0-1.10","594936ad4152bf0001bfd5cd","bdp_rd","Sat Mar 25 2023 21:02:54 GMT-0400 (Eastern Daylight Time)","174221","","null","","","","FIX","","<div class='trialBorder'><div class='vertical-center'><img style='vertical-align:center; align:center' src=img/fixation3.jpg></div></div>","null","","","","","",""
"html-keyboard-response","35","49734","0.0-5.0-2.10","594936ad4152bf0001bfd5cd","bdp_rd","Sat Mar 25 2023 21:02:54 GMT-0400 (Eastern Daylight Time)","174221","","2598","","","","offer","","<div class='trialBorder'><div class='vertical-center'><img style='vertical-align:center; align:center' src=img/fixation3.jpg></div><div class='cl'><div class='vertical-center'>$33<br>for<br>sure</div></div><div class='cr'><div class='vertical-center'>$66<br>with a<br>50% chance</div></div><div class='respDivL'><div class='vertical-center'>(E)</div></div><div class='respDivR'><div class='vertical-center'>(I)</div></div></div>","I","$33","$66","0","33","66","RISKY"
"html-keyboard-response","36","49987","0.0-5.0-3.10","594936ad4152bf0001bfd5cd","bdp_rd","Sat Mar 25 2023 21:02:54 GMT-0400 (Eastern Daylight Time)","174221","","null","","","","offerFB","","<div class='trialBorder'><div class='vertical-center'><img style='vertical-align:center; align:center' src=img/fixation3.jpg></div><div class='cl'><div class='vertical-center'>$33<br>for<br>sure</div></div><div class='cr'><div class='vertical-center'><font style='color:orange'>$66<br>with a<br>50% chance</font></div></div><div class='respDivL'><div class='vertical-center'>(E)</div></div><div class='respDivR'><div class='vertical-center'><font style='color:orange'>(I)</font></div></div></div>","null","$33","$66","0","33","66",""
"html-keyboard-response","37","50489","0.0-5.0-1.11","594936ad4152bf0001bfd5cd","bdp_rd","Sat Mar 25 2023 21:02:54 GMT-0400 (Eastern Daylight Time)","174221","","null","","","","FIX","","<div class='trialBorder'><div class='vertical-center'><img style='vertical-align:center; align:center' src=img/fixation3.jpg></div></div>","null","","","","","",""
"html-keyboard-response","38","55151","0.0-5.0-2.11","594936ad4152bf0001bfd5cd","bdp_rd","Sat Mar 25 2023 21:02:54 GMT-0400 (Eastern Daylight Time)","174221","","4661","","","","offer","","<div class='trialBorder'><div class='vertical-center'><img style='vertical-align:center; align:center' src=img/fixation3.jpg></div><div class='cl'><div class='vertical-center'>$69<br>with a<br>50% chance</div></div><div class='cr'><div class='vertical-center'>$58<br>for<br>sure</div></div><div class='respDivL'><div class='vertical-center'>(E)</div></div><div class='respDivR'><div class='vertical-center'>(I)</div></div></div>","I","$58","$69","1","58","69","SURE"
"html-keyboard-response","39","55402","0.0-5.0-3.11","594936ad4152bf0001bfd5cd","bdp_rd","Sat Mar 25 2023 21:02:54 GMT-0400 (Eastern Daylight Time)","174221","","null","","","","offerFB","","<div class='trialBorder'><div class='vertical-center'><img style='vertical-align:center; align:center' src=img/fixation3.jpg></div><div class='cl'><div class='vertical-center'>$69<br>with a<br>50% chance</div></div><div class='cr'><div class='vertical-center'><font style='color:orange'>$58<br>for<br>sure</font></div></div><div class='respDivL'><div class='vertical-center'>(E)</div></div><div class='respDivR'><div class='vertical-center'><font style='color:orange'>(I)</font></div></div></div>","null","$58","$69","1","58","69",""
"html-keyboard-response","40","55903","0.0-5.0-1.12","594936ad4152bf0001bfd5cd","bdp_rd","Sat Mar 25 2023 21:02:54 GMT-0400 (Eastern Daylight Time)","174221","","null","","","","FIX","","<div class='trialBorder'><div class='vertical-center'><img style='vertical-align:center; align:center' src=img/fixation3.jpg></div></div>","null","","","","","",""
"html-keyboard-response","41","58982","0.0-5.0-2.12","594936ad4152bf0001bfd5cd","bdp_rd","Sat Mar 25 2023 21:02:54 GMT-0400 (Eastern Daylight Time)","174221","","3078","","","","offer","","<div class='trialBorder'><div class='vertical-center'><img style='vertical-align:center; align:center' src=img/fixation3.jpg></div><div class='cl'><div class='vertical-center'>$43<br>with a<br>50% chance</div></div><div class='cr'><div class='vertical-center'>$17<br>for<br>sure</div></div><div class='respDivL'><div class='vertical-center'>(E)</div></div><div class='respDivR'><div class='vertical-center'>(I)</div></div></div>","E","$17","$43","1","17","43","RISKY"
"html-keyboard-response","42","59235","0.0-5.0-3.12","594936ad4152bf0001bfd5cd","bdp_rd","Sat Mar 25 2023 21:02:54 GMT-0400 (Eastern Daylight Time)","174221","","null","","","","offerFB","","<div class='trialBorder'><div class='vertical-center'><img style='vertical-align:center; align:center' src=img/fixation3.jpg></div><div class='cl'><div class='vertical-center'><font style='color:orange'>$43<br>with a<br>50% chance</font></div></div><div class='cr'><div class='vertical-center'>$17<br>for<br>sure</div></div><div class='respDivL'><div class='vertical-center'><font style='color:orange'>(E)</font></div></div><div class='respDivR'><div class='vertical-center'>(I)</div></div></div>","null","$17","$43","1","17","43",""
"html-keyboard-response","43","59736","0.0-5.0-1.13","594936ad4152bf0001bfd5cd","bdp_rd","Sat Mar 25 2023 21:02:54 GMT-0400 (Eastern Daylight Time)","174221","","null","","","","FIX","","<div class='trialBorder'><div class='vertical-center'><img style='vertical-align:center; align:center' src=img/fixation3.jpg></div></div>","null","","","","","",""
"html-keyboard-response","44","61422","0.0-5.0-2.13","594936ad4152bf0001bfd5cd","bdp_rd","Sat Mar 25 2023 21:02:54 GMT-0400 (Eastern Daylight Time)","174221","","1686","","","","offer","","<div class='trialBorder'><div class='vertical-center'><img style='vertical-align:center; align:center' src=img/fixation3.jpg></div><div class='cl'><div class='vertical-center'>$50<br>with a<br>50% chance</div></div><div class='cr'><div class='vertical-center'>$5<br>for<br>sure</div></div><div class='respDivL'><div class='vertical-center'>(E)</div></div><div class='respDivR'><div class='vertical-center'>(I)</div></div></div>","E","$5","$50","1","5","50","RISKY"
"html-keyboard-response","45","61673","0.0-5.0-3.13","594936ad4152bf0001bfd5cd","bdp_rd","Sat Mar 25 2023 21:02:54 GMT-0400 (Eastern Daylight Time)","174221","","null","","","","offerFB","","<div class='trialBorder'><div class='vertical-center'><img style='vertical-align:center; align:center' src=img/fixation3.jpg></div><div class='cl'><div class='vertical-center'><font style='color:orange'>$50<br>with a<br>50% chance</font></div></div><div class='cr'><div class='vertical-center'>$5<br>for<br>sure</div></div><div class='respDivL'><div class='vertical-center'><font style='color:orange'>(E)</font></div></div><div class='respDivR'><div class='vertical-center'>(I)</div></div></div>","null","$5","$50","1","5","50",""
"html-keyboard-response","46","62174","0.0-5.0-1.14","594936ad4152bf0001bfd5cd","bdp_rd","Sat Mar 25 2023 21:02:54 GMT-0400 (Eastern Daylight Time)","174221","","null","","","","FIX","","<div class='trialBorder'><div class='vertical-center'><img style='vertical-align:center; align:center' src=img/fixation3.jpg></div></div>","null","","","","","",""
"html-keyboard-response","47","64702","0.0-5.0-2.14","594936ad4152bf0001bfd5cd","bdp_rd","Sat Mar 25 2023 21:02:54 GMT-0400 (Eastern Daylight Time)","174221","","2526","","","","offer","","<div class='trialBorder'><div class='vertical-center'><img style='vertical-align:center; align:center' src=img/fixation3.jpg></div><div class='cl'><div class='vertical-center'>$19<br>for<br>sure</div></div><div class='cr'><div class='vertical-center'>$51<br>with a<br>50% chance</div></div><div class='respDivL'><div class='vertical-center'>(E)</div></div><div class='respDivR'><div class='vertical-center'>(I)</div></div></div>","I","$19","$51","0","19","51","RISKY"
"html-keyboard-response","48","64954","0.0-5.0-3.14","594936ad4152bf0001bfd5cd","bdp_rd","Sat Mar 25 2023 21:02:54 GMT-0400 (Eastern Daylight Time)","174221","","null","","","","offerFB","","<div class='trialBorder'><div class='vertical-center'><img style='vertical-align:center; align:center' src=img/fixation3.jpg></div><div class='cl'><div class='vertical-center'>$19<br>for<br>sure</div></div><div class='cr'><div class='vertical-center'><font style='color:orange'>$51<br>with a<br>50% chance</font></div></div><div class='respDivL'><div class='vertical-center'>(E)</div></div><div class='respDivR'><div class='vertical-center'><font style='color:orange'>(I)</font></div></div></div>","null","$19","$51","0","19","51",""
"html-keyboard-response","49","65457","0.0-5.0-1.15","594936ad4152bf0001bfd5cd","bdp_rd","Sat Mar 25 2023 21:02:54 GMT-0400 (Eastern Daylight Time)","174221","","null","","","","FIX","","<div class='trialBorder'><div class='vertical-center'><img style='vertical-align:center; align:center' src=img/fixation3.jpg></div></div>","null","","","","","",""
"html-keyboard-response","50","66981","0.0-5.0-2.15","594936ad4152bf0001bfd5cd","bdp_rd","Sat Mar 25 2023 21:02:54 GMT-0400 (Eastern Daylight Time)","174221","","1522","","","","offer","","<div class='trialBorder'><div class='vertical-center'><img style='vertical-align:center; align:center' src=img/fixation3.jpg></div><div class='cl'><div class='vertical-center'>$17<br>with a<br>50% chance</div></div><div class='cr'><div class='vertical-center'>$3<br>for<br>sure</div></div><div class='respDivL'><div class='vertical-center'>(E)</div></div><div class='respDivR'><div class='vertical-center'>(I)</div></div></div>","E","$3","$17","1","3","17","RISKY"
"html-keyboard-response","51","67233","0.0-5.0-3.15","594936ad4152bf0001bfd5cd","bdp_rd","Sat Mar 25 2023 21:02:54 GMT-0400 (Eastern Daylight Time)","174221","","null","","","","offerFB","","<div class='trialBorder'><div class='vertical-center'><img style='vertical-align:center; align:center' src=img/fixation3.jpg></div><div class='cl'><div class='vertical-center'><font style='color:orange'>$17<br>with a<br>50% chance</font></div></div><div class='cr'><div class='vertical-center'>$3<br>for<br>sure</div></div><div class='respDivL'><div class='vertical-center'><font style='color:orange'>(E)</font></div></div><div class='respDivR'><div class='vertical-center'>(I)</div></div></div>","null","$3","$17","1","3","17",""
"html-keyboard-response","52","67734","0.0-5.0-1.16","594936ad4152bf0001bfd5cd","bdp_rd","Sat Mar 25 2023 21:02:54 GMT-0400 (Eastern Daylight Time)","174221","","null","","","","FIX","","<div class='trialBorder'><div class='vertical-center'><img style='vertical-align:center; align:center' src=img/fixation3.jpg></div></div>","null","","","","","",""
"html-keyboard-response","53","69608","0.0-5.0-2.16","594936ad4152bf0001bfd5cd","bdp_rd","Sat Mar 25 2023 21:02:54 GMT-0400 (Eastern Daylight Time)","174221","","1873","","","","offer","","<div class='trialBorder'><div class='vertical-center'><img style='vertical-align:center; align:center' src=img/fixation3.jpg></div><div class='cl'><div class='vertical-center'>$31<br>for<br>sure</div></div><div class='cr'><div class='vertical-center'>$78<br>with a<br>50% chance</div></div><div class='respDivL'><div class='vertical-center'>(E)</div></div><div class='respDivR'><div class='vertical-center'>(I)</div></div></div>","I","$31","$78","0","31","78","RISKY"
"html-keyboard-response","54","69860","0.0-5.0-3.16","594936ad4152bf0001bfd5cd","bdp_rd","Sat Mar 25 2023 21:02:54 GMT-0400 (Eastern Daylight Time)","174221","","null","","","","offerFB","","<div class='trialBorder'><div class='vertical-center'><img style='vertical-align:center; align:center' src=img/fixation3.jpg></div><div class='cl'><div class='vertical-center'>$31<br>for<br>sure</div></div><div class='cr'><div class='vertical-center'><font style='color:orange'>$78<br>with a<br>50% chance</font></div></div><div class='respDivL'><div class='vertical-center'>(E)</div></div><div class='respDivR'><div class='vertical-center'><font style='color:orange'>(I)</font></div></div></div>","null","$31","$78","0","31","78",""
"html-keyboard-response","55","70362","0.0-5.0-1.17","594936ad4152bf0001bfd5cd","bdp_rd","Sat Mar 25 2023 21:02:54 GMT-0400 (Eastern Daylight Time)","174221","","null","","","","FIX","","<div class='trialBorder'><div class='vertical-center'><img style='vertical-align:center; align:center' src=img/fixation3.jpg></div></div>","null","","","","","",""
"html-keyboard-response","56","71589","0.0-5.0-2.17","594936ad4152bf0001bfd5cd","bdp_rd","Sat Mar 25 2023 21:02:54 GMT-0400 (Eastern Daylight Time)","174221","","1227","","","","offer","","<div class='trialBorder'><div class='vertical-center'><img style='vertical-align:center; align:center' src=img/fixation3.jpg></div><div class='cl'><div class='vertical-center'>$4<br>for<br>sure</div></div><div class='cr'><div class='vertical-center'>$14<br>with a<br>50% chance</div></div><div class='respDivL'><div class='vertical-center'>(E)</div></div><div class='respDivR'><div class='vertical-center'>(I)</div></div></div>","I","$4","$14","0","4","14","RISKY"
"html-keyboard-response","57","71840","0.0-5.0-3.17","594936ad4152bf0001bfd5cd","bdp_rd","Sat Mar 25 2023 21:02:54 GMT-0400 (Eastern Daylight Time)","174221","","null","","","","offerFB","","<div class='trialBorder'><div class='vertical-center'><img style='vertical-align:center; align:center' src=img/fixation3.jpg></div><div class='cl'><div class='vertical-center'>$4<br>for<br>sure</div></div><div class='cr'><div class='vertical-center'><font style='color:orange'>$14<br>with a<br>50% chance</font></div></div><div class='respDivL'><div class='vertical-center'>(E)</div></div><div class='respDivR'><div class='vertical-center'><font style='color:orange'>(I)</font></div></div></div>","null","$4","$14","0","4","14",""
"html-keyboard-response","58","72342","0.0-5.0-1.18","594936ad4152bf0001bfd5cd","bdp_rd","Sat Mar 25 2023 21:02:54 GMT-0400 (Eastern Daylight Time)","174221","","null","","","","FIX","","<div class='trialBorder'><div class='vertical-center'><img style='vertical-align:center; align:center' src=img/fixation3.jpg></div></div>","null","","","","","",""
"html-keyboard-response","59","74394","0.0-5.0-2.18","594936ad4152bf0001bfd5cd","bdp_rd","Sat Mar 25 2023 21:02:54 GMT-0400 (Eastern Daylight Time)","174221","","2052","","","","offer","","<div class='trialBorder'><div class='vertical-center'><img style='vertical-align:center; align:center' src=img/fixation3.jpg></div><div class='cl'><div class='vertical-center'>$71<br>with a<br>50% chance</div></div><div class='cr'><div class='vertical-center'>$7<br>for<br>sure</div></div><div class='respDivL'><div class='vertical-center'>(E)</div></div><div class='respDivR'><div class='vertical-center'>(I)</div></div></div>","E","$7","$71","1","7","71","RISKY"
"html-keyboard-response","60","74647","0.0-5.0-3.18","594936ad4152bf0001bfd5cd","bdp_rd","Sat Mar 25 2023 21:02:54 GMT-0400 (Eastern Daylight Time)","174221","","null","","","","offerFB","","<div class='trialBorder'><div class='vertical-center'><img style='vertical-align:center; align:center' src=img/fixation3.jpg></div><div class='cl'><div class='vertical-center'><font style='color:orange'>$71<br>with a<br>50% chance</font></div></div><div class='cr'><div class='vertical-center'>$7<br>for<br>sure</div></div><div class='respDivL'><div class='vertical-center'><font style='color:orange'>(E)</font></div></div><div class='respDivR'><div class='vertical-center'>(I)</div></div></div>","null","$7","$71","1","7","71",""
"html-keyboard-response","61","75148","0.0-5.0-1.19","594936ad4152bf0001bfd5cd","bdp_rd","Sat Mar 25 2023 21:02:54 GMT-0400 (Eastern Daylight Time)","174221","","null","","","","FIX","","<div class='trialBorder'><div class='vertical-center'><img style='vertical-align:center; align:center' src=img/fixation3.jpg></div></div>","null","","","","","",""
"html-keyboard-response","62","76710","0.0-5.0-2.19","594936ad4152bf0001bfd5cd","bdp_rd","Sat Mar 25 2023 21:02:54 GMT-0400 (Eastern Daylight Time)","174221","","1561","","","","offer","","<div class='trialBorder'><div class='vertical-center'><img style='vertical-align:center; align:center' src=img/fixation3.jpg></div><div class='cl'><div class='vertical-center'>$27<br>for<br>sure</div></div><div class='cr'><div class='vertical-center'>$47<br>with a<br>50% chance</div></div><div class='respDivL'><div class='vertical-center'>(E)</div></div><div class='respDivR'><div class='vertical-center'>(I)</div></div></div>","I","$27","$47","0","27","47","RISKY"
"html-keyboard-response","63","76960","0.0-5.0-3.19","594936ad4152bf0001bfd5cd","bdp_rd","Sat Mar 25 2023 21:02:54 GMT-0400 (Eastern Daylight Time)","174221","","null","","","","offerFB","","<div class='trialBorder'><div class='vertical-center'><img style='vertical-align:center; align:center' src=img/fixation3.jpg></div><div class='cl'><div class='vertical-center'>$27<br>for<br>sure</div></div><div class='cr'><div class='vertical-center'><font style='color:orange'>$47<br>with a<br>50% chance</font></div></div><div class='respDivL'><div class='vertical-center'>(E)</div></div><div class='respDivR'><div class='vertical-center'><font style='color:orange'>(I)</font></div></div></div>","null","$27","$47","0","27","47",""
"html-keyboard-response","64","77462","0.0-5.0-1.20","594936ad4152bf0001bfd5cd","bdp_rd","Sat Mar 25 2023 21:02:54 GMT-0400 (Eastern Daylight Time)","174221","","null","","","","FIX","","<div class='trialBorder'><div class='vertical-center'><img style='vertical-align:center; align:center' src=img/fixation3.jpg></div></div>","null","","","","","",""
"html-keyboard-response","65","78301","0.0-5.0-2.20","594936ad4152bf0001bfd5cd","bdp_rd","Sat Mar 25 2023 21:02:54 GMT-0400 (Eastern Daylight Time)","174221","","838","","","","offer","","<div class='trialBorder'><div class='vertical-center'><img style='vertical-align:center; align:center' src=img/fixation3.jpg></div><div class='cl'><div class='vertical-center'>$39<br>for<br>sure</div></div><div class='cr'><div class='vertical-center'>$81<br>with a<br>50% chance</div></div><div class='respDivL'><div class='vertical-center'>(E)</div></div><div class='respDivR'><div class='vertical-center'>(I)</div></div></div>","I","$39","$81","0","39","81","RISKY"
"html-keyboard-response","66","78553","0.0-5.0-3.20","594936ad4152bf0001bfd5cd","bdp_rd","Sat Mar 25 2023 21:02:54 GMT-0400 (Eastern Daylight Time)","174221","","null","","","","offerFB","","<div class='trialBorder'><div class='vertical-center'><img style='vertical-align:center; align:center' src=img/fixation3.jpg></div><div class='cl'><div class='vertical-center'>$39<br>for<br>sure</div></div><div class='cr'><div class='vertical-center'><font style='color:orange'>$81<br>with a<br>50% chance</font></div></div><div class='respDivL'><div class='vertical-center'>(E)</div></div><div class='respDivR'><div class='vertical-center'><font style='color:orange'>(I)</font></div></div></div>","null","$39","$81","0","39","81",""
"html-keyboard-response","67","79053","0.0-5.0-1.21","594936ad4152bf0001bfd5cd","bdp_rd","Sat Mar 25 2023 21:02:54 GMT-0400 (Eastern Daylight Time)","174221","","null","","","","FIX","","<div class='trialBorder'><div class='vertical-center'><img style='vertical-align:center; align:center' src=img/fixation3.jpg></div></div>","null","","","","","",""
"html-keyboard-response","68","81480","0.0-5.0-2.21","594936ad4152bf0001bfd5cd","bdp_rd","Sat Mar 25 2023 21:02:54 GMT-0400 (Eastern Daylight Time)","174221","","2425","","","","offer","","<div class='trialBorder'><div class='vertical-center'><img style='vertical-align:center; align:center' src=img/fixation3.jpg></div><div class='cl'><div class='vertical-center'>$7<br>for<br>sure</div></div><div class='cr'><div class='vertical-center'>$10<br>with a<br>50% chance</div></div><div class='respDivL'><div class='vertical-center'>(E)</div></div><div class='respDivR'><div class='vertical-center'>(I)</div></div></div>","I","$7","$10","0","7","10","RISKY"
"html-keyboard-response","69","81732","0.0-5.0-3.21","594936ad4152bf0001bfd5cd","bdp_rd","Sat Mar 25 2023 21:02:54 GMT-0400 (Eastern Daylight Time)","174221","","null","","","","offerFB","","<div class='trialBorder'><div class='vertical-center'><img style='vertical-align:center; align:center' src=img/fixation3.jpg></div><div class='cl'><div class='vertical-center'>$7<br>for<br>sure</div></div><div class='cr'><div class='vertical-center'><font style='color:orange'>$10<br>with a<br>50% chance</font></div></div><div class='respDivL'><div class='vertical-center'>(E)</div></div><div class='respDivR'><div class='vertical-center'><font style='color:orange'>(I)</font></div></div></div>","null","$7","$10","0","7","10",""
"html-keyboard-response","70","82234","0.0-5.0-1.22","594936ad4152bf0001bfd5cd","bdp_rd","Sat Mar 25 2023 21:02:54 GMT-0400 (Eastern Daylight Time)","174221","","null","","","","FIX","","<div class='trialBorder'><div class='vertical-center'><img style='vertical-align:center; align:center' src=img/fixation3.jpg></div></div>","null","","","","","",""
"html-keyboard-response","71","83916","0.0-5.0-2.22","594936ad4152bf0001bfd5cd","bdp_rd","Sat Mar 25 2023 21:02:54 GMT-0400 (Eastern Daylight Time)","174221","","1680","","","","offer","","<div class='trialBorder'><div class='vertical-center'><img style='vertical-align:center; align:center' src=img/fixation3.jpg></div><div class='cl'><div class='vertical-center'>$24<br>for<br>sure</div></div><div class='cr'><div class='vertical-center'>$70<br>with a<br>50% chance</div></div><div class='respDivL'><div class='vertical-center'>(E)</div></div><div class='respDivR'><div class='vertical-center'>(I)</div></div></div>","I","$24","$70","0","24","70","RISKY"
"html-keyboard-response","72","84167","0.0-5.0-3.22","594936ad4152bf0001bfd5cd","bdp_rd","Sat Mar 25 2023 21:02:54 GMT-0400 (Eastern Daylight Time)","174221","","null","","","","offerFB","","<div class='trialBorder'><div class='vertical-center'><img style='vertical-align:center; align:center' src=img/fixation3.jpg></div><div class='cl'><div class='vertical-center'>$24<br>for<br>sure</div></div><div class='cr'><div class='vertical-center'><font style='color:orange'>$70<br>with a<br>50% chance</font></div></div><div class='respDivL'><div class='vertical-center'>(E)</div></div><div class='respDivR'><div class='vertical-center'><font style='color:orange'>(I)</font></div></div></div>","null","$24","$70","0","24","70",""
"html-keyboard-response","73","84669","0.0-5.0-1.23","594936ad4152bf0001bfd5cd","bdp_rd","Sat Mar 25 2023 21:02:54 GMT-0400 (Eastern Daylight Time)","174221","","null","","","","FIX","","<div class='trialBorder'><div class='vertical-center'><img style='vertical-align:center; align:center' src=img/fixation3.jpg></div></div>","null","","","","","",""
"html-keyboard-response","74","86200","0.0-5.0-2.23","594936ad4152bf0001bfd5cd","bdp_rd","Sat Mar 25 2023 21:02:54 GMT-0400 (Eastern Daylight Time)","174221","","1530","","","","offer","","<div class='trialBorder'><div class='vertical-center'><img style='vertical-align:center; align:center' src=img/fixation3.jpg></div><div class='cl'><div class='vertical-center'>$4<br>for<br>sure</div></div><div class='cr'><div class='vertical-center'>$11<br>with a<br>50% chance</div></div><div class='respDivL'><div class='vertical-center'>(E)</div></div><div class='respDivR'><div class='vertical-center'>(I)</div></div></div>","I","$4","$11","0","4","11","RISKY"
"html-keyboard-response","75","86452","0.0-5.0-3.23","594936ad4152bf0001bfd5cd","bdp_rd","Sat Mar 25 2023 21:02:54 GMT-0400 (Eastern Daylight Time)","174221","","null","","","","offerFB","","<div class='trialBorder'><div class='vertical-center'><img style='vertical-align:center; align:center' src=img/fixation3.jpg></div><div class='cl'><div class='vertical-center'>$4<br>for<br>sure</div></div><div class='cr'><div class='vertical-center'><font style='color:orange'>$11<br>with a<br>50% chance</font></div></div><div class='respDivL'><div class='vertical-center'>(E)</div></div><div class='respDivR'><div class='vertical-center'><font style='color:orange'>(I)</font></div></div></div>","null","$4","$11","0","4","11",""
"html-keyboard-response","76","86954","0.0-5.0-1.24","594936ad4152bf0001bfd5cd","bdp_rd","Sat Mar 25 2023 21:02:54 GMT-0400 (Eastern Daylight Time)","174221","","null","","","","FIX","","<div class='trialBorder'><div class='vertical-center'><img style='vertical-align:center; align:center' src=img/fixation3.jpg></div></div>","null","","","","","",""
"html-keyboard-response","77","90970","0.0-5.0-2.24","594936ad4152bf0001bfd5cd","bdp_rd","Sat Mar 25 2023 21:02:54 GMT-0400 (Eastern Daylight Time)","174221","","4016","","","","offer","","<div class='trialBorder'><div class='vertical-center'><img style='vertical-align:center; align:center' src=img/fixation3.jpg></div><div class='cl'><div class='vertical-center'>$28<br>with a<br>50% chance</div></div><div class='cr'><div class='vertical-center'>$16<br>for<br>sure</div></div><div class='respDivL'><div class='vertical-center'>(E)</div></div><div class='respDivR'><div class='vertical-center'>(I)</div></div></div>","I","$16","$28","1","16","28","SURE"
"html-keyboard-response","78","91223","0.0-5.0-3.24","594936ad4152bf0001bfd5cd","bdp_rd","Sat Mar 25 2023 21:02:54 GMT-0400 (Eastern Daylight Time)","174221","","null","","","","offerFB","","<div class='trialBorder'><div class='vertical-center'><img style='vertical-align:center; align:center' src=img/fixation3.jpg></div><div class='cl'><div class='vertical-center'>$28<br>with a<br>50% chance</div></div><div class='cr'><div class='vertical-center'><font style='color:orange'>$16<br>for<br>sure</font></div></div><div class='respDivL'><div class='vertical-center'>(E)</div></div><div class='respDivR'><div class='vertical-center'><font style='color:orange'>(I)</font></div></div></div>","null","$16","$28","1","16","28",""
"html-keyboard-response","79","91724","0.0-5.0-1.25","594936ad4152bf0001bfd5cd","bdp_rd","Sat Mar 25 2023 21:02:54 GMT-0400 (Eastern Daylight Time)","174221","","null","","","","FIX","","<div class='trialBorder'><div class='vertical-center'><img style='vertical-align:center; align:center' src=img/fixation3.jpg></div></div>","null","","","","","",""
"html-keyboard-response","80","93373","0.0-5.0-2.25","594936ad4152bf0001bfd5cd","bdp_rd","Sat Mar 25 2023 21:02:54 GMT-0400 (Eastern Daylight Time)","174221","","1647","","","","offer","","<div class='trialBorder'><div class='vertical-center'><img style='vertical-align:center; align:center' src=img/fixation3.jpg></div><div class='cl'><div class='vertical-center'>$26<br>for<br>sure</div></div><div class='cr'><div class='vertical-center'>$92<br>with a<br>50% chance</div></div><div class='respDivL'><div class='vertical-center'>(E)</div></div><div class='respDivR'><div class='vertical-center'>(I)</div></div></div>","I","$26","$92","0","26","92","RISKY"
"html-keyboard-response","81","93624","0.0-5.0-3.25","594936ad4152bf0001bfd5cd","bdp_rd","Sat Mar 25 2023 21:02:54 GMT-0400 (Eastern Daylight Time)","174221","","null","","","","offerFB","","<div class='trialBorder'><div class='vertical-center'><img style='vertical-align:center; align:center' src=img/fixation3.jpg></div><div class='cl'><div class='vertical-center'>$26<br>for<br>sure</div></div><div class='cr'><div class='vertical-center'><font style='color:orange'>$92<br>with a<br>50% chance</font></div></div><div class='respDivL'><div class='vertical-center'>(E)</div></div><div class='respDivR'><div class='vertical-center'><font style='color:orange'>(I)</font></div></div></div>","null","$26","$92","0","26","92",""
"html-keyboard-response","82","94127","0.0-5.0-1.26","594936ad4152bf0001bfd5cd","bdp_rd","Sat Mar 25 2023 21:02:54 GMT-0400 (Eastern Daylight Time)","174221","","null","","","","FIX","","<div class='trialBorder'><div class='vertical-center'><img style='vertical-align:center; align:center' src=img/fixation3.jpg></div></div>","null","","","","","",""
"html-keyboard-response","83","96179","0.0-5.0-2.26","594936ad4152bf0001bfd5cd","bdp_rd","Sat Mar 25 2023 21:02:54 GMT-0400 (Eastern Daylight Time)","174221","","2052","","","","offer","","<div class='trialBorder'><div class='vertical-center'><img style='vertical-align:center; align:center' src=img/fixation3.jpg></div><div class='cl'><div class='vertical-center'>$45<br>with a<br>50% chance</div></div><div class='cr'><div class='vertical-center'>$8<br>for<br>sure</div></div><div class='respDivL'><div class='vertical-center'>(E)</div></div><div class='respDivR'><div class='vertical-center'>(I)</div></div></div>","E","$8","$45","1","8","45","RISKY"
"html-keyboard-response","84","96430","0.0-5.0-3.26","594936ad4152bf0001bfd5cd","bdp_rd","Sat Mar 25 2023 21:02:54 GMT-0400 (Eastern Daylight Time)","174221","","null","","","","offerFB","","<div class='trialBorder'><div class='vertical-center'><img style='vertical-align:center; align:center' src=img/fixation3.jpg></div><div class='cl'><div class='vertical-center'><font style='color:orange'>$45<br>with a<br>50% chance</font></div></div><div class='cr'><div class='vertical-center'>$8<br>for<br>sure</div></div><div class='respDivL'><div class='vertical-center'><font style='color:orange'>(E)</font></div></div><div class='respDivR'><div class='vertical-center'>(I)</div></div></div>","null","$8","$45","1","8","45",""
"html-keyboard-response","85","96932","0.0-5.0-1.27","594936ad4152bf0001bfd5cd","bdp_rd","Sat Mar 25 2023 21:02:54 GMT-0400 (Eastern Daylight Time)","174221","","null","","","","FIX","","<div class='trialBorder'><div class='vertical-center'><img style='vertical-align:center; align:center' src=img/fixation3.jpg></div></div>","null","","","","","",""
"html-keyboard-response","86","98489","0.0-5.0-2.27","594936ad4152bf0001bfd5cd","bdp_rd","Sat Mar 25 2023 21:02:54 GMT-0400 (Eastern Daylight Time)","174221","","1557","","","","offer","","<div class='trialBorder'><div class='vertical-center'><img style='vertical-align:center; align:center' src=img/fixation3.jpg></div><div class='cl'><div class='vertical-center'>$100<br>with a<br>50% chance</div></div><div class='cr'><div class='vertical-center'>$63<br>for<br>sure</div></div><div class='respDivL'><div class='vertical-center'>(E)</div></div><div class='respDivR'><div class='vertical-center'>(I)</div></div></div>","I","$63","$100","1","63","10","SURE"
"html-keyboard-response","87","98740","0.0-5.0-3.27","594936ad4152bf0001bfd5cd","bdp_rd","Sat Mar 25 2023 21:02:54 GMT-0400 (Eastern Daylight Time)","174221","","null","","","","offerFB","","<div class='trialBorder'><div class='vertical-center'><img style='vertical-align:center; align:center' src=img/fixation3.jpg></div><div class='cl'><div class='vertical-center'>$100<br>with a<br>50% chance</div></div><div class='cr'><div class='vertical-center'><font style='color:orange'>$63<br>for<br>sure</font></div></div><div class='respDivL'><div class='vertical-center'>(E)</div></div><div class='respDivR'><div class='vertical-center'><font style='color:orange'>(I)</font></div></div></div>","null","$63","$100","1","63","10",""
"html-keyboard-response","88","99243","0.0-5.0-1.28","594936ad4152bf0001bfd5cd","bdp_rd","Sat Mar 25 2023 21:02:54 GMT-0400 (Eastern Daylight Time)","174221","","null","","","","FIX","","<div class='trialBorder'><div class='vertical-center'><img style='vertical-align:center; align:center' src=img/fixation3.jpg></div></div>","null","","","","","",""
"html-keyboard-response","89","100618","0.0-5.0-2.28","594936ad4152bf0001bfd5cd","bdp_rd","Sat Mar 25 2023 21:02:54 GMT-0400 (Eastern Daylight Time)","174221","","1373","","","","offer","","<div class='trialBorder'><div class='vertical-center'><img style='vertical-align:center; align:center' src=img/fixation3.jpg></div><div class='cl'><div class='vertical-center'>$41<br>with a<br>50% chance</div></div><div class='cr'><div class='vertical-center'>$13<br>for<br>sure</div></div><div class='respDivL'><div class='vertical-center'>(E)</div></div><div class='respDivR'><div class='vertical-center'>(I)</div></div></div>","E","$13","$41","1","13","41","RISKY"
"html-keyboard-response","90","100869","0.0-5.0-3.28","594936ad4152bf0001bfd5cd","bdp_rd","Sat Mar 25 2023 21:02:54 GMT-0400 (Eastern Daylight Time)","174221","","null","","","","offerFB","","<div class='trialBorder'><div class='vertical-center'><img style='vertical-align:center; align:center' src=img/fixation3.jpg></div><div class='cl'><div class='vertical-center'><font style='color:orange'>$41<br>with a<br>50% chance</font></div></div><div class='cr'><div class='vertical-center'>$13<br>for<br>sure</div></div><div class='respDivL'><div class='vertical-center'><font style='color:orange'>(E)</font></div></div><div class='respDivR'><div class='vertical-center'>(I)</div></div></div>","null","$13","$41","1","13","41",""
"html-keyboard-response","91","101370","0.0-5.0-1.29","594936ad4152bf0001bfd5cd","bdp_rd","Sat Mar 25 2023 21:02:54 GMT-0400 (Eastern Daylight Time)","174221","","null","","","","FIX","","<div class='trialBorder'><div class='vertical-center'><img style='vertical-align:center; align:center' src=img/fixation3.jpg></div></div>","null","","","","","",""
"html-keyboard-response","92","102535","0.0-5.0-2.29","594936ad4152bf0001bfd5cd","bdp_rd","Sat Mar 25 2023 21:02:54 GMT-0400 (Eastern Daylight Time)","174221","","1163","","","","offer","","<div class='trialBorder'><div class='vertical-center'><img style='vertical-align:center; align:center' src=img/fixation3.jpg></div><div class='cl'><div class='vertical-center'>$54<br>with a<br>50% chance</div></div><div class='cr'><div class='vertical-center'>$25<br>for<br>sure</div></div><div class='respDivL'><div class='vertical-center'>(E)</div></div><div class='respDivR'><div class='vertical-center'>(I)</div></div></div>","E","$25","$54","1","25","54","RISKY"
"html-keyboard-response","93","102787","0.0-5.0-3.29","594936ad4152bf0001bfd5cd","bdp_rd","Sat Mar 25 2023 21:02:54 GMT-0400 (Eastern Daylight Time)","174221","","null","","","","offerFB","","<div class='trialBorder'><div class='vertical-center'><img style='vertical-align:center; align:center' src=img/fixation3.jpg></div><div class='cl'><div class='vertical-center'><font style='color:orange'>$54<br>with a<br>50% chance</font></div></div><div class='cr'><div class='vertical-center'>$25<br>for<br>sure</div></div><div class='respDivL'><div class='vertical-center'><font style='color:orange'>(E)</font></div></div><div class='respDivR'><div class='vertical-center'>(I)</div></div></div>","null","$25","$54","1","25","54",""
"html-keyboard-response","94","103289","0.0-5.0-1.30","594936ad4152bf0001bfd5cd","bdp_rd","Sat Mar 25 2023 21:02:54 GMT-0400 (Eastern Daylight Time)","174221","","null","","","","FIX","","<div class='trialBorder'><div class='vertical-center'><img style='vertical-align:center; align:center' src=img/fixation3.jpg></div></div>","null","","","","","",""
"html-keyboard-response","95","104230","0.0-5.0-2.30","594936ad4152bf0001bfd5cd","bdp_rd","Sat Mar 25 2023 21:02:54 GMT-0400 (Eastern Daylight Time)","174221","","940","","","","offer","","<div class='trialBorder'><div class='vertical-center'><img style='vertical-align:center; align:center' src=img/fixation3.jpg></div><div class='cl'><div class='vertical-center'>$21<br>with a<br>50% chance</div></div><div class='cr'><div class='vertical-center'>$2<br>for<br>sure</div></div><div class='respDivL'><div class='vertical-center'>(E)</div></div><div class='respDivR'><div class='vertical-center'>(I)</div></div></div>","E","$2","$21","1","2","21","RISKY"
"html-keyboard-response","96","104482","0.0-5.0-3.30","594936ad4152bf0001bfd5cd","bdp_rd","Sat Mar 25 2023 21:02:54 GMT-0400 (Eastern Daylight Time)","174221","","null","","","","offerFB","","<div class='trialBorder'><div class='vertical-center'><img style='vertical-align:center; align:center' src=img/fixation3.jpg></div><div class='cl'><div class='vertical-center'><font style='color:orange'>$21<br>with a<br>50% chance</font></div></div><div class='cr'><div class='vertical-center'>$2<br>for<br>sure</div></div><div class='respDivL'><div class='vertical-center'><font style='color:orange'>(E)</font></div></div><div class='respDivR'><div class='vertical-center'>(I)</div></div></div>","null","$2","$21","1","2","21",""
"html-keyboard-response","97","104983","0.0-5.0-1.31","594936ad4152bf0001bfd5cd","bdp_rd","Sat Mar 25 2023 21:02:54 GMT-0400 (Eastern Daylight Time)","174221","","null","","","","FIX","","<div class='trialBorder'><div class='vertical-center'><img style='vertical-align:center; align:center' src=img/fixation3.jpg></div></div>","null","","","","","",""
"html-keyboard-response","98","106245","0.0-5.0-2.31","594936ad4152bf0001bfd5cd","bdp_rd","Sat Mar 25 2023 21:02:54 GMT-0400 (Eastern Daylight Time)","174221","","1260","","","","offer","","<div class='trialBorder'><div class='vertical-center'><img style='vertical-align:center; align:center' src=img/fixation3.jpg></div><div class='cl'><div class='vertical-center'>$65<br>with a<br>50% chance</div></div><div class='cr'><div class='vertical-center'>$46<br>for<br>sure</div></div><div class='respDivL'><div class='vertical-center'>(E)</div></div><div class='respDivR'><div class='vertical-center'>(I)</div></div></div>","I","$46","$65","1","46","65","SURE"
"html-keyboard-response","99","106498","0.0-5.0-3.31","594936ad4152bf0001bfd5cd","bdp_rd","Sat Mar 25 2023 21:02:54 GMT-0400 (Eastern Daylight Time)","174221","","null","","","","offerFB","","<div class='trialBorder'><div class='vertical-center'><img style='vertical-align:center; align:center' src=img/fixation3.jpg></div><div class='cl'><div class='vertical-center'>$65<br>with a<br>50% chance</div></div><div class='cr'><div class='vertical-center'><font style='color:orange'>$46<br>for<br>sure</font></div></div><div class='respDivL'><div class='vertical-center'>(E)</div></div><div class='respDivR'><div class='vertical-center'><font style='color:orange'>(I)</font></div></div></div>","null","$46","$65","1","46","65",""
"html-keyboard-response","100","107000","0.0-5.0-1.32","594936ad4152bf0001bfd5cd","bdp_rd","Sat Mar 25 2023 21:02:54 GMT-0400 (Eastern Daylight Time)","174221","","null","","","","FIX","","<div class='trialBorder'><div class='vertical-center'><img style='vertical-align:center; align:center' src=img/fixation3.jpg></div></div>","null","","","","","",""
"html-keyboard-response","101","108195","0.0-5.0-2.32","594936ad4152bf0001bfd5cd","bdp_rd","Sat Mar 25 2023 21:02:54 GMT-0400 (Eastern Daylight Time)","174221","","1195","","","","offer","","<div class='trialBorder'><div class='vertical-center'><img style='vertical-align:center; align:center' src=img/fixation3.jpg></div><div class='cl'><div class='vertical-center'>$11<br>for<br>sure</div></div><div class='cr'><div class='vertical-center'>$26<br>with a<br>50% chance</div></div><div class='respDivL'><div class='vertical-center'>(E)</div></div><div class='respDivR'><div class='vertical-center'>(I)</div></div></div>","I","$11","$26","0","11","26","RISKY"
"html-keyboard-response","102","108447","0.0-5.0-3.32","594936ad4152bf0001bfd5cd","bdp_rd","Sat Mar 25 2023 21:02:54 GMT-0400 (Eastern Daylight Time)","174221","","null","","","","offerFB","","<div class='trialBorder'><div class='vertical-center'><img style='vertical-align:center; align:center' src=img/fixation3.jpg></div><div class='cl'><div class='vertical-center'>$11<br>for<br>sure</div></div><div class='cr'><div class='vertical-center'><font style='color:orange'>$26<br>with a<br>50% chance</font></div></div><div class='respDivL'><div class='vertical-center'>(E)</div></div><div class='respDivR'><div class='vertical-center'><font style='color:orange'>(I)</font></div></div></div>","null","$11","$26","0","11","26",""
"html-keyboard-response","103","108949","0.0-5.0-1.33","594936ad4152bf0001bfd5cd","bdp_rd","Sat Mar 25 2023 21:02:54 GMT-0400 (Eastern Daylight Time)","174221","","null","","","","FIX","","<div class='trialBorder'><div class='vertical-center'><img style='vertical-align:center; align:center' src=img/fixation3.jpg></div></div>","null","","","","","",""
"html-keyboard-response","104","110572","0.0-5.0-2.33","594936ad4152bf0001bfd5cd","bdp_rd","Sat Mar 25 2023 21:02:54 GMT-0400 (Eastern Daylight Time)","174221","","1623","","","","offer","","<div class='trialBorder'><div class='vertical-center'><img style='vertical-align:center; align:center' src=img/fixation3.jpg></div><div class='cl'><div class='vertical-center'>$44<br>with a<br>50% chance</div></div><div class='cr'><div class='vertical-center'>$37<br>for<br>sure</div></div><div class='respDivL'><div class='vertical-center'>(E)</div></div><div class='respDivR'><div class='vertical-center'>(I)</div></div></div>","I","$37","$44","1","37","44","SURE"
"html-keyboard-response","105","110824","0.0-5.0-3.33","594936ad4152bf0001bfd5cd","bdp_rd","Sat Mar 25 2023 21:02:54 GMT-0400 (Eastern Daylight Time)","174221","","null","","","","offerFB","","<div class='trialBorder'><div class='vertical-center'><img style='vertical-align:center; align:center' src=img/fixation3.jpg></div><div class='cl'><div class='vertical-center'>$44<br>with a<br>50% chance</div></div><div class='cr'><div class='vertical-center'><font style='color:orange'>$37<br>for<br>sure</font></div></div><div class='respDivL'><div class='vertical-center'>(E)</div></div><div class='respDivR'><div class='vertical-center'><font style='color:orange'>(I)</font></div></div></div>","null","$37","$44","1","37","44",""
"html-keyboard-response","106","111324","0.0-5.0-1.34","594936ad4152bf0001bfd5cd","bdp_rd","Sat Mar 25 2023 21:02:54 GMT-0400 (Eastern Daylight Time)","174221","","null","","","","FIX","","<div class='trialBorder'><div class='vertical-center'><img style='vertical-align:center; align:center' src=img/fixation3.jpg></div></div>","null","","","","","",""
"html-keyboard-response","107","113954","0.0-5.0-2.34","594936ad4152bf0001bfd5cd","bdp_rd","Sat Mar 25 2023 21:02:54 GMT-0400 (Eastern Daylight Time)","174221","","2628","","","","offer","","<div class='trialBorder'><div class='vertical-center'><img style='vertical-align:center; align:center' src=img/fixation3.jpg></div><div class='cl'><div class='vertical-center'>$18<br>for<br>sure</div></div><div class='cr'><div class='vertical-center'>$39<br>with a<br>50% chance</div></div><div class='respDivL'><div class='vertical-center'>(E)</div></div><div class='respDivR'><div class='vertical-center'>(I)</div></div></div>","I","$18","$39","0","18","39","RISKY"
"html-keyboard-response","108","114207","0.0-5.0-3.34","594936ad4152bf0001bfd5cd","bdp_rd","Sat Mar 25 2023 21:02:54 GMT-0400 (Eastern Daylight Time)","174221","","null","","","","offerFB","","<div class='trialBorder'><div class='vertical-center'><img style='vertical-align:center; align:center' src=img/fixation3.jpg></div><div class='cl'><div class='vertical-center'>$18<br>for<br>sure</div></div><div class='cr'><div class='vertical-center'><font style='color:orange'>$39<br>with a<br>50% chance</font></div></div><div class='respDivL'><div class='vertical-center'>(E)</div></div><div class='respDivR'><div class='vertical-center'><font style='color:orange'>(I)</font></div></div></div>","null","$18","$39","0","18","39",""
"html-keyboard-response","109","114710","0.0-5.0-1.35","594936ad4152bf0001bfd5cd","bdp_rd","Sat Mar 25 2023 21:02:54 GMT-0400 (Eastern Daylight Time)","174221","","null","","","","FIX","","<div class='trialBorder'><div class='vertical-center'><img style='vertical-align:center; align:center' src=img/fixation3.jpg></div></div>","null","","","","","",""
"html-keyboard-response","110","116527","0.0-5.0-2.35","594936ad4152bf0001bfd5cd","bdp_rd","Sat Mar 25 2023 21:02:54 GMT-0400 (Eastern Daylight Time)","174221","","1817","","","","offer","","<div class='trialBorder'><div class='vertical-center'><img style='vertical-align:center; align:center' src=img/fixation3.jpg></div><div class='cl'><div class='vertical-center'>$19<br>with a<br>50% chance</div></div><div class='cr'><div class='vertical-center'>$10<br>for<br>sure</div></div><div class='respDivL'><div class='vertical-center'>(E)</div></div><div class='respDivR'><div class='vertical-center'>(I)</div></div></div>","I","$10","$19","1","10","19","SURE"
"html-keyboard-response","111","116779","0.0-5.0-3.35","594936ad4152bf0001bfd5cd","bdp_rd","Sat Mar 25 2023 21:02:54 GMT-0400 (Eastern Daylight Time)","174221","","null","","","","offerFB","","<div class='trialBorder'><div class='vertical-center'><img style='vertical-align:center; align:center' src=img/fixation3.jpg></div><div class='cl'><div class='vertical-center'>$19<br>with a<br>50% chance</div></div><div class='cr'><div class='vertical-center'><font style='color:orange'>$10<br>for<br>sure</font></div></div><div class='respDivL'><div class='vertical-center'>(E)</div></div><div class='respDivR'><div class='vertical-center'><font style='color:orange'>(I)</font></div></div></div>","null","$10","$19","1","10","19",""
"html-keyboard-response","112","117281","0.0-5.0-1.36","594936ad4152bf0001bfd5cd","bdp_rd","Sat Mar 25 2023 21:02:54 GMT-0400 (Eastern Daylight Time)","174221","","null","","","","FIX","","<div class='trialBorder'><div class='vertical-center'><img style='vertical-align:center; align:center' src=img/fixation3.jpg></div></div>","null","","","","","",""
"html-keyboard-response","113","120105","0.0-5.0-2.36","594936ad4152bf0001bfd5cd","bdp_rd","Sat Mar 25 2023 21:02:54 GMT-0400 (Eastern Daylight Time)","174221","","2823","","","","offer","","<div class='trialBorder'><div class='vertical-center'><img style='vertical-align:center; align:center' src=img/fixation3.jpg></div><div class='cl'><div class='vertical-center'>$15<br>for<br>sure</div></div><div class='cr'><div class='vertical-center'>$31<br>with a<br>50% chance</div></div><div class='respDivL'><div class='vertical-center'>(E)</div></div><div class='respDivR'><div class='vertical-center'>(I)</div></div></div>","I","$15","$31","0","15","31","RISKY"
"html-keyboard-response","114","120356","0.0-5.0-3.36","594936ad4152bf0001bfd5cd","bdp_rd","Sat Mar 25 2023 21:02:54 GMT-0400 (Eastern Daylight Time)","174221","","null","","","","offerFB","","<div class='trialBorder'><div class='vertical-center'><img style='vertical-align:center; align:center' src=img/fixation3.jpg></div><div class='cl'><div class='vertical-center'>$15<br>for<br>sure</div></div><div class='cr'><div class='vertical-center'><font style='color:orange'>$31<br>with a<br>50% chance</font></div></div><div class='respDivL'><div class='vertical-center'>(E)</div></div><div class='respDivR'><div class='vertical-center'><font style='color:orange'>(I)</font></div></div></div>","null","$15","$31","0","15","31",""
"html-keyboard-response","115","120858","0.0-5.0-1.37","594936ad4152bf0001bfd5cd","bdp_rd","Sat Mar 25 2023 21:02:54 GMT-0400 (Eastern Daylight Time)","174221","","null","","","","FIX","","<div class='trialBorder'><div class='vertical-center'><img style='vertical-align:center; align:center' src=img/fixation3.jpg></div></div>","null","","","","","",""
"html-keyboard-response","116","122155","0.0-5.0-2.37","594936ad4152bf0001bfd5cd","bdp_rd","Sat Mar 25 2023 21:02:54 GMT-0400 (Eastern Daylight Time)","174221","","1297","","","","offer","","<div class='trialBorder'><div class='vertical-center'><img style='vertical-align:center; align:center' src=img/fixation3.jpg></div><div class='cl'><div class='vertical-center'>$18<br>with a<br>50% chance</div></div><div class='cr'><div class='vertical-center'>$9<br>for<br>sure</div></div><div class='respDivL'><div class='vertical-center'>(E)</div></div><div class='respDivR'><div class='vertical-center'>(I)</div></div></div>","E","$9","$18","1","9","18","RISKY"
"html-keyboard-response","117","122405","0.0-5.0-3.37","594936ad4152bf0001bfd5cd","bdp_rd","Sat Mar 25 2023 21:02:54 GMT-0400 (Eastern Daylight Time)","174221","","null","","","","offerFB","","<div class='trialBorder'><div class='vertical-center'><img style='vertical-align:center; align:center' src=img/fixation3.jpg></div><div class='cl'><div class='vertical-center'><font style='color:orange'>$18<br>with a<br>50% chance</font></div></div><div class='cr'><div class='vertical-center'>$9<br>for<br>sure</div></div><div class='respDivL'><div class='vertical-center'><font style='color:orange'>(E)</font></div></div><div class='respDivR'><div class='vertical-center'>(I)</div></div></div>","null","$9","$18","1","9","18",""
"html-keyboard-response","118","122907","0.0-5.0-1.38","594936ad4152bf0001bfd5cd","bdp_rd","Sat Mar 25 2023 21:02:54 GMT-0400 (Eastern Daylight Time)","174221","","null","","","","FIX","","<div class='trialBorder'><div class='vertical-center'><img style='vertical-align:center; align:center' src=img/fixation3.jpg></div></div>","null","","","","","",""
"html-keyboard-response","119","124735","0.0-5.0-2.38","594936ad4152bf0001bfd5cd","bdp_rd","Sat Mar 25 2023 21:02:54 GMT-0400 (Eastern Daylight Time)","174221","","1828","","","","offer","","<div class='trialBorder'><div class='vertical-center'><img style='vertical-align:center; align:center' src=img/fixation3.jpg></div><div class='cl'><div class='vertical-center'>$68<br>with a<br>50% chance</div></div><div class='cr'><div class='vertical-center'>$30<br>for<br>sure</div></div><div class='respDivL'><div class='vertical-center'>(E)</div></div><div class='respDivR'><div class='vertical-center'>(I)</div></div></div>","I","$30","$68","1","30","68","SURE"
"html-keyboard-response","120","124986","0.0-5.0-3.38","594936ad4152bf0001bfd5cd","bdp_rd","Sat Mar 25 2023 21:02:54 GMT-0400 (Eastern Daylight Time)","174221","","null","","","","offerFB","","<div class='trialBorder'><div class='vertical-center'><img style='vertical-align:center; align:center' src=img/fixation3.jpg></div><div class='cl'><div class='vertical-center'>$68<br>with a<br>50% chance</div></div><div class='cr'><div class='vertical-center'><font style='color:orange'>$30<br>for<br>sure</font></div></div><div class='respDivL'><div class='vertical-center'>(E)</div></div><div class='respDivR'><div class='vertical-center'><font style='color:orange'>(I)</font></div></div></div>","null","$30","$68","1","30","68",""
"html-keyboard-response","121","125489","0.0-5.0-1.39","594936ad4152bf0001bfd5cd","bdp_rd","Sat Mar 25 2023 21:02:54 GMT-0400 (Eastern Daylight Time)","174221","","null","","","","FIX","","<div class='trialBorder'><div class='vertical-center'><img style='vertical-align:center; align:center' src=img/fixation3.jpg></div></div>","null","","","","","",""
"html-keyboard-response","122","126874","0.0-5.0-2.39","594936ad4152bf0001bfd5cd","bdp_rd","Sat Mar 25 2023 21:02:54 GMT-0400 (Eastern Daylight Time)","174221","","1384","","","","offer","","<div class='trialBorder'><div class='vertical-center'><img style='vertical-align:center; align:center' src=img/fixation3.jpg></div><div class='cl'><div class='vertical-center'>$20<br>for<br>sure</div></div><div class='cr'><div class='vertical-center'>$80<br>with a<br>50% chance</div></div><div class='respDivL'><div class='vertical-center'>(E)</div></div><div class='respDivR'><div class='vertical-center'>(I)</div></div></div>","I","$20","$80","0","20","80","RISKY"
"html-keyboard-response","123","127126","0.0-5.0-3.39","594936ad4152bf0001bfd5cd","bdp_rd","Sat Mar 25 2023 21:02:54 GMT-0400 (Eastern Daylight Time)","174221","","null","","","","offerFB","","<div class='trialBorder'><div class='vertical-center'><img style='vertical-align:center; align:center' src=img/fixation3.jpg></div><div class='cl'><div class='vertical-center'>$20<br>for<br>sure</div></div><div class='cr'><div class='vertical-center'><font style='color:orange'>$80<br>with a<br>50% chance</font></div></div><div class='respDivL'><div class='vertical-center'>(E)</div></div><div class='respDivR'><div class='vertical-center'><font style='color:orange'>(I)</font></div></div></div>","null","$20","$80","0","20","80",""
"html-keyboard-response","124","127628","0.0-5.0-1.40","594936ad4152bf0001bfd5cd","bdp_rd","Sat Mar 25 2023 21:02:54 GMT-0400 (Eastern Daylight Time)","174221","","null","","","","FIX","","<div class='trialBorder'><div class='vertical-center'><img style='vertical-align:center; align:center' src=img/fixation3.jpg></div></div>","null","","","","","",""
"html-keyboard-response","125","128735","0.0-5.0-2.40","594936ad4152bf0001bfd5cd","bdp_rd","Sat Mar 25 2023 21:02:54 GMT-0400 (Eastern Daylight Time)","174221","","1106","","","","offer","","<div class='trialBorder'><div class='vertical-center'><img style='vertical-align:center; align:center' src=img/fixation3.jpg></div><div class='cl'><div class='vertical-center'>$64<br>with a<br>50% chance</div></div><div class='cr'><div class='vertical-center'>$2<br>for<br>sure</div></div><div class='respDivL'><div class='vertical-center'>(E)</div></div><div class='respDivR'><div class='vertical-center'>(I)</div></div></div>","E","$2","$64","1","2","64","RISKY"
"html-keyboard-response","126","128986","0.0-5.0-3.40","594936ad4152bf0001bfd5cd","bdp_rd","Sat Mar 25 2023 21:02:54 GMT-0400 (Eastern Daylight Time)","174221","","null","","","","offerFB","","<div class='trialBorder'><div class='vertical-center'><img style='vertical-align:center; align:center' src=img/fixation3.jpg></div><div class='cl'><div class='vertical-center'><font style='color:orange'>$64<br>with a<br>50% chance</font></div></div><div class='cr'><div class='vertical-center'>$2<br>for<br>sure</div></div><div class='respDivL'><div class='vertical-center'><font style='color:orange'>(E)</font></div></div><div class='respDivR'><div class='vertical-center'>(I)</div></div></div>","null","$2","$64","1","2","64",""
"html-keyboard-response","127","129488","0.0-5.0-1.41","594936ad4152bf0001bfd5cd","bdp_rd","Sat Mar 25 2023 21:02:54 GMT-0400 (Eastern Daylight Time)","174221","","null","","","","FIX","","<div class='trialBorder'><div class='vertical-center'><img style='vertical-align:center; align:center' src=img/fixation3.jpg></div></div>","null","","","","","",""
"html-keyboard-response","128","130610","0.0-5.0-2.41","594936ad4152bf0001bfd5cd","bdp_rd","Sat Mar 25 2023 21:02:54 GMT-0400 (Eastern Daylight Time)","174221","","1121","","","","offer","","<div class='trialBorder'><div class='vertical-center'><img style='vertical-align:center; align:center' src=img/fixation3.jpg></div><div class='cl'><div class='vertical-center'>$20<br>for<br>sure</div></div><div class='cr'><div class='vertical-center'>$37<br>with a<br>50% chance</div></div><div class='respDivL'><div class='vertical-center'>(E)</div></div><div class='respDivR'><div class='vertical-center'>(I)</div></div></div>","I","$20","$37","0","20","37","RISKY"
"html-keyboard-response","129","130861","0.0-5.0-3.41","594936ad4152bf0001bfd5cd","bdp_rd","Sat Mar 25 2023 21:02:54 GMT-0400 (Eastern Daylight Time)","174221","","null","","","","offerFB","","<div class='trialBorder'><div class='vertical-center'><img style='vertical-align:center; align:center' src=img/fixation3.jpg></div><div class='cl'><div class='vertical-center'>$20<br>for<br>sure</div></div><div class='cr'><div class='vertical-center'><font style='color:orange'>$37<br>with a<br>50% chance</font></div></div><div class='respDivL'><div class='vertical-center'>(E)</div></div><div class='respDivR'><div class='vertical-center'><font style='color:orange'>(I)</font></div></div></div>","null","$20","$37","0","20","37",""
"html-keyboard-response","130","131363","0.0-5.0-1.42","594936ad4152bf0001bfd5cd","bdp_rd","Sat Mar 25 2023 21:02:54 GMT-0400 (Eastern Daylight Time)","174221","","null","","","","FIX","","<div class='trialBorder'><div class='vertical-center'><img style='vertical-align:center; align:center' src=img/fixation3.jpg></div></div>","null","","","","","",""
"html-keyboard-response","131","132191","0.0-5.0-2.42","594936ad4152bf0001bfd5cd","bdp_rd","Sat Mar 25 2023 21:02:54 GMT-0400 (Eastern Daylight Time)","174221","","828","","","","offer","","<div class='trialBorder'><div class='vertical-center'><img style='vertical-align:center; align:center' src=img/fixation3.jpg></div><div class='cl'><div class='vertical-center'>$5<br>for<br>sure</div></div><div class='cr'><div class='vertical-center'>$16<br>with a<br>50% chance</div></div><div class='respDivL'><div class='vertical-center'>(E)</div></div><div class='respDivR'><div class='vertical-center'>(I)</div></div></div>","I","$5","$16","0","5","16","RISKY"
"html-keyboard-response","132","132442","0.0-5.0-3.42","594936ad4152bf0001bfd5cd","bdp_rd","Sat Mar 25 2023 21:02:54 GMT-0400 (Eastern Daylight Time)","174221","","null","","","","offerFB","","<div class='trialBorder'><div class='vertical-center'><img style='vertical-align:center; align:center' src=img/fixation3.jpg></div><div class='cl'><div class='vertical-center'>$5<br>for<br>sure</div></div><div class='cr'><div class='vertical-center'><font style='color:orange'>$16<br>with a<br>50% chance</font></div></div><div class='respDivL'><div class='vertical-center'>(E)</div></div><div class='respDivR'><div class='vertical-center'><font style='color:orange'>(I)</font></div></div></div>","null","$5","$16","0","5","16",""
"html-keyboard-response","133","132944","0.0-5.0-1.43","594936ad4152bf0001bfd5cd","bdp_rd","Sat Mar 25 2023 21:02:54 GMT-0400 (Eastern Daylight Time)","174221","","null","","","","FIX","","<div class='trialBorder'><div class='vertical-center'><img style='vertical-align:center; align:center' src=img/fixation3.jpg></div></div>","null","","","","","",""
"html-keyboard-response","134","134320","0.0-5.0-2.43","594936ad4152bf0001bfd5cd","bdp_rd","Sat Mar 25 2023 21:02:54 GMT-0400 (Eastern Daylight Time)","174221","","1375","","","","offer","","<div class='trialBorder'><div class='vertical-center'><img style='vertical-align:center; align:center' src=img/fixation3.jpg></div><div class='cl'><div class='vertical-center'>$40<br>for<br>sure</div></div><div class='cr'><div class='vertical-center'>$95<br>with a<br>50% chance</div></div><div class='respDivL'><div class='vertical-center'>(E)</div></div><div class='respDivR'><div class='vertical-center'>(I)</div></div></div>","E","$40","$95","0","40","95","SURE"
"html-keyboard-response","135","134572","0.0-5.0-3.43","594936ad4152bf0001bfd5cd","bdp_rd","Sat Mar 25 2023 21:02:54 GMT-0400 (Eastern Daylight Time)","174221","","null","","","","offerFB","","<div class='trialBorder'><div class='vertical-center'><img style='vertical-align:center; align:center' src=img/fixation3.jpg></div><div class='cl'><div class='vertical-center'><font style='color:orange'>$40<br>for<br>sure</font></div></div><div class='cr'><div class='vertical-center'>$95<br>with a<br>50% chance</div></div><div class='respDivL'><div class='vertical-center'><font style='color:orange'>(E)</font></div></div><div class='respDivR'><div class='vertical-center'>(I)</div></div></div>","null","$40","$95","0","40","95",""
"html-keyboard-response","136","135073","0.0-5.0-1.44","594936ad4152bf0001bfd5cd","bdp_rd","Sat Mar 25 2023 21:02:54 GMT-0400 (Eastern Daylight Time)","174221","","null","","","","FIX","","<div class='trialBorder'><div class='vertical-center'><img style='vertical-align:center; align:center' src=img/fixation3.jpg></div></div>","null","","","","","",""
"html-keyboard-response","137","135988","0.0-5.0-2.44","594936ad4152bf0001bfd5cd","bdp_rd","Sat Mar 25 2023 21:02:54 GMT-0400 (Eastern Daylight Time)","174221","","913","","","","offer","","<div class='trialBorder'><div class='vertical-center'><img style='vertical-align:center; align:center' src=img/fixation3.jpg></div><div class='cl'><div class='vertical-center'>$33<br>with a<br>50% chance</div></div><div class='cr'><div class='vertical-center'>$1<br>for<br>sure</div></div><div class='respDivL'><div class='vertical-center'>(E)</div></div><div class='respDivR'><div class='vertical-center'>(I)</div></div></div>","E","$1","$33","1","1","33","RISKY"
"html-keyboard-response","138","136241","0.0-5.0-3.44","594936ad4152bf0001bfd5cd","bdp_rd","Sat Mar 25 2023 21:02:54 GMT-0400 (Eastern Daylight Time)","174221","","null","","","","offerFB","","<div class='trialBorder'><div class='vertical-center'><img style='vertical-align:center; align:center' src=img/fixation3.jpg></div><div class='cl'><div class='vertical-center'><font style='color:orange'>$33<br>with a<br>50% chance</font></div></div><div class='cr'><div class='vertical-center'>$1<br>for<br>sure</div></div><div class='respDivL'><div class='vertical-center'><font style='color:orange'>(E)</font></div></div><div class='respDivR'><div class='vertical-center'>(I)</div></div></div>","null","$1","$33","1","1","33",""
"html-keyboard-response","139","136742","0.0-5.0-1.45","594936ad4152bf0001bfd5cd","bdp_rd","Sat Mar 25 2023 21:02:54 GMT-0400 (Eastern Daylight Time)","174221","","null","","","","FIX","","<div class='trialBorder'><div class='vertical-center'><img style='vertical-align:center; align:center' src=img/fixation3.jpg></div></div>","null","","","","","",""
"html-keyboard-response","140","137676","0.0-5.0-2.45","594936ad4152bf0001bfd5cd","bdp_rd","Sat Mar 25 2023 21:02:54 GMT-0400 (Eastern Daylight Time)","174221","","932","","","","offer","","<div class='trialBorder'><div class='vertical-center'><img style='vertical-align:center; align:center' src=img/fixation3.jpg></div><div class='cl'><div class='vertical-center'>$8<br>for<br>sure</div></div><div class='cr'><div class='vertical-center'>$23<br>with a<br>50% chance</div></div><div class='respDivL'><div class='vertical-center'>(E)</div></div><div class='respDivR'><div class='vertical-center'>(I)</div></div></div>","I","$8","$23","0","8","23","RISKY"
"html-keyboard-response","141","137928","0.0-5.0-3.45","594936ad4152bf0001bfd5cd","bdp_rd","Sat Mar 25 2023 21:02:54 GMT-0400 (Eastern Daylight Time)","174221","","null","","","","offerFB","","<div class='trialBorder'><div class='vertical-center'><img style='vertical-align:center; align:center' src=img/fixation3.jpg></div><div class='cl'><div class='vertical-center'>$8<br>for<br>sure</div></div><div class='cr'><div class='vertical-center'><font style='color:orange'>$23<br>with a<br>50% chance</font></div></div><div class='respDivL'><div class='vertical-center'>(E)</div></div><div class='respDivR'><div class='vertical-center'><font style='color:orange'>(I)</font></div></div></div>","null","$8","$23","0","8","23",""
"html-keyboard-response","142","138430","0.0-5.0-1.46","594936ad4152bf0001bfd5cd","bdp_rd","Sat Mar 25 2023 21:02:54 GMT-0400 (Eastern Daylight Time)","174221","","null","","","","FIX","","<div class='trialBorder'><div class='vertical-center'><img style='vertical-align:center; align:center' src=img/fixation3.jpg></div></div>","null","","","","","",""
"html-keyboard-response","143","140119","0.0-5.0-2.46","594936ad4152bf0001bfd5cd","bdp_rd","Sat Mar 25 2023 21:02:54 GMT-0400 (Eastern Daylight Time)","174221","","1689","","","","offer","","<div class='trialBorder'><div class='vertical-center'><img style='vertical-align:center; align:center' src=img/fixation3.jpg></div><div class='cl'><div class='vertical-center'>$89<br>with a<br>50% chance</div></div><div class='cr'><div class='vertical-center'>$28<br>for<br>sure</div></div><div class='respDivL'><div class='vertical-center'>(E)</div></div><div class='respDivR'><div class='vertical-center'>(I)</div></div></div>","E","$28","$89","1","28","89","RISKY"
"html-keyboard-response","144","140372","0.0-5.0-3.46","594936ad4152bf0001bfd5cd","bdp_rd","Sat Mar 25 2023 21:02:54 GMT-0400 (Eastern Daylight Time)","174221","","null","","","","offerFB","","<div class='trialBorder'><div class='vertical-center'><img style='vertical-align:center; align:center' src=img/fixation3.jpg></div><div class='cl'><div class='vertical-center'><font style='color:orange'>$89<br>with a<br>50% chance</font></div></div><div class='cr'><div class='vertical-center'>$28<br>for<br>sure</div></div><div class='respDivL'><div class='vertical-center'><font style='color:orange'>(E)</font></div></div><div class='respDivR'><div class='vertical-center'>(I)</div></div></div>","null","$28","$89","1","28","89",""
"html-keyboard-response","145","140873","0.0-5.0-1.47","594936ad4152bf0001bfd5cd","bdp_rd","Sat Mar 25 2023 21:02:54 GMT-0400 (Eastern Daylight Time)","174221","","null","","","","FIX","","<div class='trialBorder'><div class='vertical-center'><img style='vertical-align:center; align:center' src=img/fixation3.jpg></div></div>","null","","","","","",""
"html-keyboard-response","146","142391","0.0-5.0-2.47","594936ad4152bf0001bfd5cd","bdp_rd","Sat Mar 25 2023 21:02:54 GMT-0400 (Eastern Daylight Time)","174221","","1517","","","","offer","","<div class='trialBorder'><div class='vertical-center'><img style='vertical-align:center; align:center' src=img/fixation3.jpg></div><div class='cl'><div class='vertical-center'>$3<br>for<br>sure</div></div><div class='cr'><div class='vertical-center'>$12<br>with a<br>50% chance</div></div><div class='respDivL'><div class='vertical-center'>(E)</div></div><div class='respDivR'><div class='vertical-center'>(I)</div></div></div>","I","$3","$12","0","3","12","RISKY"
"html-keyboard-response","147","142642","0.0-5.0-3.47","594936ad4152bf0001bfd5cd","bdp_rd","Sat Mar 25 2023 21:02:54 GMT-0400 (Eastern Daylight Time)","174221","","null","","","","offerFB","","<div class='trialBorder'><div class='vertical-center'><img style='vertical-align:center; align:center' src=img/fixation3.jpg></div><div class='cl'><div class='vertical-center'>$3<br>for<br>sure</div></div><div class='cr'><div class='vertical-center'><font style='color:orange'>$12<br>with a<br>50% chance</font></div></div><div class='respDivL'><div class='vertical-center'>(E)</div></div><div class='respDivR'><div class='vertical-center'><font style='color:orange'>(I)</font></div></div></div>","null","$3","$12","0","3","12",""
"html-keyboard-response","148","143144","0.0-5.0-1.48","594936ad4152bf0001bfd5cd","bdp_rd","Sat Mar 25 2023 21:02:54 GMT-0400 (Eastern Daylight Time)","174221","","null","","","","FIX","","<div class='trialBorder'><div class='vertical-center'><img style='vertical-align:center; align:center' src=img/fixation3.jpg></div></div>","null","","","","","",""
"html-keyboard-response","149","145498","0.0-5.0-2.48","594936ad4152bf0001bfd5cd","bdp_rd","Sat Mar 25 2023 21:02:54 GMT-0400 (Eastern Daylight Time)","174221","","2353","","","","offer","","<div class='trialBorder'><div class='vertical-center'><img style='vertical-align:center; align:center' src=img/fixation3.jpg></div><div class='cl'><div class='vertical-center'>$32<br>with a<br>50% chance</div></div><div class='cr'><div class='vertical-center'>$9<br>for<br>sure</div></div><div class='respDivL'><div class='vertical-center'>(E)</div></div><div class='respDivR'><div class='vertical-center'>(I)</div></div></div>","E","$9","$32","1","9","32","RISKY"
"html-keyboard-response","150","145750","0.0-5.0-3.48","594936ad4152bf0001bfd5cd","bdp_rd","Sat Mar 25 2023 21:02:54 GMT-0400 (Eastern Daylight Time)","174221","","null","","","","offerFB","","<div class='trialBorder'><div class='vertical-center'><img style='vertical-align:center; align:center' src=img/fixation3.jpg></div><div class='cl'><div class='vertical-center'><font style='color:orange'>$32<br>with a<br>50% chance</font></div></div><div class='cr'><div class='vertical-center'>$9<br>for<br>sure</div></div><div class='respDivL'><div class='vertical-center'><font style='color:orange'>(E)</font></div></div><div class='respDivR'><div class='vertical-center'>(I)</div></div></div>","null","$9","$32","1","9","32",""
"html-keyboard-response","151","146252","0.0-5.0-1.49","594936ad4152bf0001bfd5cd","bdp_rd","Sat Mar 25 2023 21:02:54 GMT-0400 (Eastern Daylight Time)","174221","","null","","","","FIX","","<div class='trialBorder'><div class='vertical-center'><img style='vertical-align:center; align:center' src=img/fixation3.jpg></div></div>","null","","","","","",""
"html-keyboard-response","152","149479","0.0-5.0-2.49","594936ad4152bf0001bfd5cd","bdp_rd","Sat Mar 25 2023 21:02:54 GMT-0400 (Eastern Daylight Time)","174221","","3226","","","","offer","","<div class='trialBorder'><div class='vertical-center'><img style='vertical-align:center; align:center' src=img/fixation3.jpg></div><div class='cl'><div class='vertical-center'>$29<br>for<br>sure</div></div><div class='cr'><div class='vertical-center'>$46<br>with a<br>50% chance</div></div><div class='respDivL'><div class='vertical-center'>(E)</div></div><div class='respDivR'><div class='vertical-center'>(I)</div></div></div>","I","$29","$46","0","29","46","RISKY"
"html-keyboard-response","153","149731","0.0-5.0-3.49","594936ad4152bf0001bfd5cd","bdp_rd","Sat Mar 25 2023 21:02:54 GMT-0400 (Eastern Daylight Time)","174221","","null","","","","offerFB","","<div class='trialBorder'><div class='vertical-center'><img style='vertical-align:center; align:center' src=img/fixation3.jpg></div><div class='cl'><div class='vertical-center'>$29<br>for<br>sure</div></div><div class='cr'><div class='vertical-center'><font style='color:orange'>$46<br>with a<br>50% chance</font></div></div><div class='respDivL'><div class='vertical-center'>(E)</div></div><div class='respDivR'><div class='vertical-center'><font style='color:orange'>(I)</font></div></div></div>","null","$29","$46","0","29","46",""
"html-keyboard-response","154","150232","0.0-5.0-1.50","594936ad4152bf0001bfd5cd","bdp_rd","Sat Mar 25 2023 21:02:54 GMT-0400 (Eastern Daylight Time)","174221","","null","","","","FIX","","<div class='trialBorder'><div class='vertical-center'><img style='vertical-align:center; align:center' src=img/fixation3.jpg></div></div>","null","","","","","",""
"html-keyboard-response","155","152261","0.0-5.0-2.50","594936ad4152bf0001bfd5cd","bdp_rd","Sat Mar 25 2023 21:02:54 GMT-0400 (Eastern Daylight Time)","174221","","2028","","","","offer","","<div class='trialBorder'><div class='vertical-center'><img style='vertical-align:center; align:center' src=img/fixation3.jpg></div><div class='cl'><div class='vertical-center'>$48<br>with a<br>50% chance</div></div><div class='cr'><div class='vertical-center'>$34<br>for<br>sure</div></div><div class='respDivL'><div class='vertical-center'>(E)</div></div><div class='respDivR'><div class='vertical-center'>(I)</div></div></div>","E","$34","$48","1","34","48","RISKY"
"html-keyboard-response","156","152512","0.0-5.0-3.50","594936ad4152bf0001bfd5cd","bdp_rd","Sat Mar 25 2023 21:02:54 GMT-0400 (Eastern Daylight Time)","174221","","null","","","","offerFB","","<div class='trialBorder'><div class='vertical-center'><img style='vertical-align:center; align:center' src=img/fixation3.jpg></div><div class='cl'><div class='vertical-center'><font style='color:orange'>$48<br>with a<br>50% chance</font></div></div><div class='cr'><div class='vertical-center'>$34<br>for<br>sure</div></div><div class='respDivL'><div class='vertical-center'><font style='color:orange'>(E)</font></div></div><div class='respDivR'><div class='vertical-center'>(I)</div></div></div>","null","$34","$48","1","34","48",""
"html-keyboard-response","157","153014","0.0-5.0-1.51","594936ad4152bf0001bfd5cd","bdp_rd","Sat Mar 25 2023 21:02:54 GMT-0400 (Eastern Daylight Time)","174221","","null","","","","FIX","","<div class='trialBorder'><div class='vertical-center'><img style='vertical-align:center; align:center' src=img/fixation3.jpg></div></div>","null","","","","","",""
"html-keyboard-response","158","154219","0.0-5.0-2.51","594936ad4152bf0001bfd5cd","bdp_rd","Sat Mar 25 2023 21:02:54 GMT-0400 (Eastern Daylight Time)","174221","","1205","","","","offer","","<div class='trialBorder'><div class='vertical-center'><img style='vertical-align:center; align:center' src=img/fixation3.jpg></div><div class='cl'><div class='vertical-center'>$73<br>with a<br>50% chance</div></div><div class='cr'><div class='vertical-center'>$42<br>for<br>sure</div></div><div class='respDivL'><div class='vertical-center'>(E)</div></div><div class='respDivR'><div class='vertical-center'>(I)</div></div></div>","I","$42","$73","1","42","73","SURE"
"html-keyboard-response","159","154471","0.0-5.0-3.51","594936ad4152bf0001bfd5cd","bdp_rd","Sat Mar 25 2023 21:02:54 GMT-0400 (Eastern Daylight Time)","174221","","null","","","","offerFB","","<div class='trialBorder'><div class='vertical-center'><img style='vertical-align:center; align:center' src=img/fixation3.jpg></div><div class='cl'><div class='vertical-center'>$73<br>with a<br>50% chance</div></div><div class='cr'><div class='vertical-center'><font style='color:orange'>$42<br>for<br>sure</font></div></div><div class='respDivL'><div class='vertical-center'>(E)</div></div><div class='respDivR'><div class='vertical-center'><font style='color:orange'>(I)</font></div></div></div>","null","$42","$73","1","42","73",""
"html-keyboard-response","160","154973","0.0-5.0-1.52","594936ad4152bf0001bfd5cd","bdp_rd","Sat Mar 25 2023 21:02:54 GMT-0400 (Eastern Daylight Time)","174221","","null","","","","FIX","","<div class='trialBorder'><div class='vertical-center'><img style='vertical-align:center; align:center' src=img/fixation3.jpg></div></div>","null","","","","","",""
"html-keyboard-response","161","156731","0.0-5.0-2.52","594936ad4152bf0001bfd5cd","bdp_rd","Sat Mar 25 2023 21:02:54 GMT-0400 (Eastern Daylight Time)","174221","","1756","","","","offer","","<div class='trialBorder'><div class='vertical-center'><img style='vertical-align:center; align:center' src=img/fixation3.jpg></div><div class='cl'><div class='vertical-center'>$13<br>for<br>sure</div></div><div class='cr'><div class='vertical-center'>$24<br>with a<br>50% chance</div></div><div class='respDivL'><div class='vertical-center'>(E)</div></div><div class='respDivR'><div class='vertical-center'>(I)</div></div></div>","I","$13","$24","0","13","24","RISKY"
"html-keyboard-response","162","156983","0.0-5.0-3.52","594936ad4152bf0001bfd5cd","bdp_rd","Sat Mar 25 2023 21:02:54 GMT-0400 (Eastern Daylight Time)","174221","","null","","","","offerFB","","<div class='trialBorder'><div class='vertical-center'><img style='vertical-align:center; align:center' src=img/fixation3.jpg></div><div class='cl'><div class='vertical-center'>$13<br>for<br>sure</div></div><div class='cr'><div class='vertical-center'><font style='color:orange'>$24<br>with a<br>50% chance</font></div></div><div class='respDivL'><div class='vertical-center'>(E)</div></div><div class='respDivR'><div class='vertical-center'><font style='color:orange'>(I)</font></div></div></div>","null","$13","$24","0","13","24",""
"html-keyboard-response","163","157485","0.0-5.0-1.53","594936ad4152bf0001bfd5cd","bdp_rd","Sat Mar 25 2023 21:02:54 GMT-0400 (Eastern Daylight Time)","174221","","null","","","","FIX","","<div class='trialBorder'><div class='vertical-center'><img style='vertical-align:center; align:center' src=img/fixation3.jpg></div></div>","null","","","","","",""
"html-keyboard-response","164","158298","0.0-5.0-2.53","594936ad4152bf0001bfd5cd","bdp_rd","Sat Mar 25 2023 21:02:54 GMT-0400 (Eastern Daylight Time)","174221","","811","","","","offer","","<div class='trialBorder'><div class='vertical-center'><img style='vertical-align:center; align:center' src=img/fixation3.jpg></div><div class='cl'><div class='vertical-center'>$12<br>for<br>sure</div></div><div class='cr'><div class='vertical-center'>$35<br>with a<br>50% chance</div></div><div class='respDivL'><div class='vertical-center'>(E)</div></div><div class='respDivR'><div class='vertical-center'>(I)</div></div></div>","I","$12","$35","0","12","35","RISKY"
"html-keyboard-response","165","158550","0.0-5.0-3.53","594936ad4152bf0001bfd5cd","bdp_rd","Sat Mar 25 2023 21:02:54 GMT-0400 (Eastern Daylight Time)","174221","","null","","","","offerFB","","<div class='trialBorder'><div class='vertical-center'><img style='vertical-align:center; align:center' src=img/fixation3.jpg></div><div class='cl'><div class='vertical-center'>$12<br>for<br>sure</div></div><div class='cr'><div class='vertical-center'><font style='color:orange'>$35<br>with a<br>50% chance</font></div></div><div class='respDivL'><div class='vertical-center'>(E)</div></div><div class='respDivR'><div class='vertical-center'><font style='color:orange'>(I)</font></div></div></div>","null","$12","$35","0","12","35",""
"html-keyboard-response","166","159051","0.0-5.0-1.54","594936ad4152bf0001bfd5cd","bdp_rd","Sat Mar 25 2023 21:02:54 GMT-0400 (Eastern Daylight Time)","174221","","null","","","","FIX","","<div class='trialBorder'><div class='vertical-center'><img style='vertical-align:center; align:center' src=img/fixation3.jpg></div></div>","null","","","","","",""
"html-keyboard-response","167","160090","0.0-5.0-2.54","594936ad4152bf0001bfd5cd","bdp_rd","Sat Mar 25 2023 21:02:54 GMT-0400 (Eastern Daylight Time)","174221","","1038","","","","offer","","<div class='trialBorder'><div class='vertical-center'><img style='vertical-align:center; align:center' src=img/fixation3.jpg></div><div class='cl'><div class='vertical-center'>$14<br>for<br>sure</div></div><div class='cr'><div class='vertical-center'>$29<br>with a<br>50% chance</div></div><div class='respDivL'><div class='vertical-center'>(E)</div></div><div class='respDivR'><div class='vertical-center'>(I)</div></div></div>","I","$14","$29","0","14","29","RISKY"
"html-keyboard-response","168","160341","0.0-5.0-3.54","594936ad4152bf0001bfd5cd","bdp_rd","Sat Mar 25 2023 21:02:54 GMT-0400 (Eastern Daylight Time)","174221","","null","","","","offerFB","","<div class='trialBorder'><div class='vertical-center'><img style='vertical-align:center; align:center' src=img/fixation3.jpg></div><div class='cl'><div class='vertical-center'>$14<br>for<br>sure</div></div><div class='cr'><div class='vertical-center'><font style='color:orange'>$29<br>with a<br>50% chance</font></div></div><div class='respDivL'><div class='vertical-center'>(E)</div></div><div class='respDivR'><div class='vertical-center'><font style='color:orange'>(I)</font></div></div></div>","null","$14","$29","0","14","29",""
"html-keyboard-response","169","160843","0.0-5.0-1.55","594936ad4152bf0001bfd5cd","bdp_rd","Sat Mar 25 2023 21:02:54 GMT-0400 (Eastern Daylight Time)","174221","","null","","","","FIX","","<div class='trialBorder'><div class='vertical-center'><img style='vertical-align:center; align:center' src=img/fixation3.jpg></div></div>","null","","","","","",""
"html-keyboard-response","170","162840","0.0-5.0-2.55","594936ad4152bf0001bfd5cd","bdp_rd","Sat Mar 25 2023 21:02:54 GMT-0400 (Eastern Daylight Time)","174221","","1996","","","","offer","","<div class='trialBorder'><div class='vertical-center'><img style='vertical-align:center; align:center' src=img/fixation3.jpg></div><div class='cl'><div class='vertical-center'>$22<br>for<br>sure</div></div><div class='cr'><div class='vertical-center'>$42<br>with a<br>50% chance</div></div><div class='respDivL'><div class='vertical-center'>(E)</div></div><div class='respDivR'><div class='vertical-center'>(I)</div></div></div>","E","$22","$42","0","22","42","SURE"
"html-keyboard-response","171","163093","0.0-5.0-3.55","594936ad4152bf0001bfd5cd","bdp_rd","Sat Mar 25 2023 21:02:54 GMT-0400 (Eastern Daylight Time)","174221","","null","","","","offerFB","","<div class='trialBorder'><div class='vertical-center'><img style='vertical-align:center; align:center' src=img/fixation3.jpg></div><div class='cl'><div class='vertical-center'><font style='color:orange'>$22<br>for<br>sure</font></div></div><div class='cr'><div class='vertical-center'>$42<br>with a<br>50% chance</div></div><div class='respDivL'><div class='vertical-center'><font style='color:orange'>(E)</font></div></div><div class='respDivR'><div class='vertical-center'>(I)</div></div></div>","null","$22","$42","0","22","42",""
"html-keyboard-response","172","163596","0.0-5.0-1.56","594936ad4152bf0001bfd5cd","bdp_rd","Sat Mar 25 2023 21:02:54 GMT-0400 (Eastern Daylight Time)","174221","","null","","","","FIX","","<div class='trialBorder'><div class='vertical-center'><img style='vertical-align:center; align:center' src=img/fixation3.jpg></div></div>","null","","","","","",""
"html-keyboard-response","173","167115","0.0-5.0-2.56","594936ad4152bf0001bfd5cd","bdp_rd","Sat Mar 25 2023 21:02:54 GMT-0400 (Eastern Daylight Time)","174221","","3518","","","","offer","","<div class='trialBorder'><div class='vertical-center'><img style='vertical-align:center; align:center' src=img/fixation3.jpg></div><div class='cl'><div class='vertical-center'>$27<br>with a<br>50% chance</div></div><div class='cr'><div class='vertical-center'>$12<br>for<br>sure</div></div><div class='respDivL'><div class='vertical-center'>(E)</div></div><div class='respDivR'><div class='vertical-center'>(I)</div></div></div>","E","$12","$27","1","12","27","RISKY"
