"trial_type","trial_index","time_elapsed","internal_node_id","subject_id","task","startTime","totalTime","view_history","rt","event","trial","time","trialtype","success","stimulus","key_press","sureOffer","riskyOffer","riskyLeft","sureAmt","riskyAmt","chosen"
"pavlovia","0","3","0.0-0.0","608d0831835bd8f85ac9237e","bdp_rd","Sat Mar 25 2023 19:14:57 GMT-0400 (Eastern Daylight Time)","205835","","","","","","","","","","","","","","",""
"instructions","1","2798","0.0-1.0","608d0831835bd8f85ac9237e","bdp_rd","Sat Mar 25 2023 19:14:57 GMT-0400 (Eastern Daylight Time)","205835","[{""page_index"":0,""viewing_time"":2795}]","2795","","","","","","","","","","","","",""
"","","","","608d0831835bd8f85ac9237e","bdp_rd","Sat Mar 25 2023 19:14:57 GMT-0400 (Eastern Daylight Time)","205835","","","fullscreenenter","2","5367","fullscreenenter","","","","","","","","",""
"fullscreen","2","6357","0.0-2.0","608d0831835bd8f85ac9237e","bdp_rd","Sat Mar 25 2023 19:14:57 GMT-0400 (Eastern Daylight Time)","205835","","","","","","","true","","","","","","","",""
"instructions","3","52918","0.0-4.0","608d0831835bd8f85ac9237e","bdp_rd","Sat Mar 25 2023 19:14:57 GMT-0400 (Eastern Daylight Time)","205835","[{""page_index"":0,""viewing_time"":35056},{""page_index"":1,""viewing_time"":6653},{""page_index"":2,""viewing_time"":4850}]","46559","","","","","","","","","","","","",""
"html-keyboard-response","4","53423","0.0-5.0-1.0","608d0831835bd8f85ac9237e","bdp_rd","Sat Mar 25 2023 19:14:57 GMT-0400 (Eastern Daylight Time)","205835","","null","","","","FIX","","<div class='trialBorder'><div class='vertical-center'><img style='vertical-align:center; align:center' src=img/fixation3.jpg></div></div>","null","","","","","",""
"html-keyboard-response","5","57295","0.0-5.0-2.0","608d0831835bd8f85ac9237e","bdp_rd","Sat Mar 25 2023 19:14:57 GMT-0400 (Eastern Daylight Time)","205835","","3869","","","","offer","","<div class='trialBorder'><div class='vertical-center'><img style='vertical-align:center; align:center' src=img/fixation3.jpg></div><div class='cl'><div class='vertical-center'>$73<br>with a<br>50% chance</div></div><div class='cr'><div class='vertical-center'>$42<br>for<br>sure</div></div><div class='respDivL'><div class='vertical-center'>(E)</div></div><div class='respDivR'><div class='vertical-center'>(I)</div></div></div>","I","$42","$73","1","42","73","SURE"
"html-keyboard-response","6","57549","0.0-5.0-3.0","608d0831835bd8f85ac9237e","bdp_rd","Sat Mar 25 2023 19:14:57 GMT-0400 (Eastern Daylight Time)","205835","","null","","","","offerFB","","<div class='trialBorder'><div class='vertical-center'><img style='vertical-align:center; align:center' src=img/fixation3.jpg></div><div class='cl'><div class='vertical-center'>$73<br>with a<br>50% chance</div></div><div class='cr'><div class='vertical-center'><font style='color:orange'>$42<br>for<br>sure</font></div></div><div class='respDivL'><div class='vertical-center'>(E)</div></div><div class='respDivR'><div class='vertical-center'><font style='color:orange'>(I)</font></div></div></div>","null","$42","$73","1","42","73",""
"html-keyboard-response","7","58051","0.0-5.0-1.1","608d0831835bd8f85ac9237e","bdp_rd","Sat Mar 25 2023 19:14:57 GMT-0400 (Eastern Daylight Time)","205835","","null","","","","FIX","","<div class='trialBorder'><div class='vertical-center'><img style='vertical-align:center; align:center' src=img/fixation3.jpg></div></div>","null","","","","","",""
"html-keyboard-response","8","60940","0.0-5.0-2.1","608d0831835bd8f85ac9237e","bdp_rd","Sat Mar 25 2023 19:14:57 GMT-0400 (Eastern Daylight Time)","205835","","2888","","","","offer","","<div class='trialBorder'><div class='vertical-center'><img style='vertical-align:center; align:center' src=img/fixation3.jpg></div><div class='cl'><div class='vertical-center'>$43<br>with a<br>50% chance</div></div><div class='cr'><div class='vertical-center'>$17<br>for<br>sure</div></div><div class='respDivL'><div class='vertical-center'>(E)</div></div><div class='respDivR'><div class='vertical-center'>(I)</div></div></div>","E","$17","$43","1","17","43","RISKY"
"html-keyboard-response","9","61192","0.0-5.0-3.1","608d0831835bd8f85ac9237e","bdp_rd","Sat Mar 25 2023 19:14:57 GMT-0400 (Eastern Daylight Time)","205835","","null","","","","offerFB","","<div class='trialBorder'><div class='vertical-center'><img style='vertical-align:center; align:center' src=img/fixation3.jpg></div><div class='cl'><div class='vertical-center'><font style='color:orange'>$43<br>with a<br>50% chance</font></div></div><div class='cr'><div class='vertical-center'>$17<br>for<br>sure</div></div><div class='respDivL'><div class='vertical-center'><font style='color:orange'>(E)</font></div></div><div class='respDivR'><div class='vertical-center'>(I)</div></div></div>","null","$17","$43","1","17","43",""
"html-keyboard-response","10","61695","0.0-5.0-1.2","608d0831835bd8f85ac9237e","bdp_rd","Sat Mar 25 2023 19:14:57 GMT-0400 (Eastern Daylight Time)","205835","","null","","","","FIX","","<div class='trialBorder'><div class='vertical-center'><img style='vertical-align:center; align:center' src=img/fixation3.jpg></div></div>","null","","","","","",""
"html-keyboard-response","11","66855","0.0-5.0-2.2","608d0831835bd8f85ac9237e","bdp_rd","Sat Mar 25 2023 19:14:57 GMT-0400 (Eastern Daylight Time)","205835","","5158","","","","offer","","<div class='trialBorder'><div class='vertical-center'><img style='vertical-align:center; align:center' src=img/fixation3.jpg></div><div class='cl'><div class='vertical-center'>$14<br>for<br>sure</div></div><div class='cr'><div class='vertical-center'>$29<br>with a<br>50% chance</div></div><div class='respDivL'><div class='vertical-center'>(E)</div></div><div class='respDivR'><div class='vertical-center'>(I)</div></div></div>","I","$14","$29","0","14","29","RISKY"
"html-keyboard-response","12","67108","0.0-5.0-3.2","608d0831835bd8f85ac9237e","bdp_rd","Sat Mar 25 2023 19:14:57 GMT-0400 (Eastern Daylight Time)","205835","","null","","","","offerFB","","<div class='trialBorder'><div class='vertical-center'><img style='vertical-align:center; align:center' src=img/fixation3.jpg></div><div class='cl'><div class='vertical-center'>$14<br>for<br>sure</div></div><div class='cr'><div class='vertical-center'><font style='color:orange'>$29<br>with a<br>50% chance</font></div></div><div class='respDivL'><div class='vertical-center'>(E)</div></div><div class='respDivR'><div class='vertical-center'><font style='color:orange'>(I)</font></div></div></div>","null","$14","$29","0","14","29",""
"html-keyboard-response","13","67610","0.0-5.0-1.3","608d0831835bd8f85ac9237e","bdp_rd","Sat Mar 25 2023 19:14:57 GMT-0400 (Eastern Daylight Time)","205835","","null","","","","FIX","","<div class='trialBorder'><div class='vertical-center'><img style='vertical-align:center; align:center' src=img/fixation3.jpg></div></div>","null","","","","","",""
"html-keyboard-response","14","70477","0.0-5.0-2.3","608d0831835bd8f85ac9237e","bdp_rd","Sat Mar 25 2023 19:14:57 GMT-0400 (Eastern Daylight Time)","205835","","2866","","","","offer","","<div class='trialBorder'><div class='vertical-center'><img style='vertical-align:center; align:center' src=img/fixation3.jpg></div><div class='cl'><div class='vertical-center'>$92<br>with a<br>50% chance</div></div><div class='cr'><div class='vertical-center'>$26<br>for<br>sure</div></div><div class='respDivL'><div class='vertical-center'>(E)</div></div><div class='respDivR'><div class='vertical-center'>(I)</div></div></div>","E","$26","$92","1","26","92","RISKY"
"html-keyboard-response","15","70730","0.0-5.0-3.3","608d0831835bd8f85ac9237e","bdp_rd","Sat Mar 25 2023 19:14:57 GMT-0400 (Eastern Daylight Time)","205835","","null","","","","offerFB","","<div class='trialBorder'><div class='vertical-center'><img style='vertical-align:center; align:center' src=img/fixation3.jpg></div><div class='cl'><div class='vertical-center'><font style='color:orange'>$92<br>with a<br>50% chance</font></div></div><div class='cr'><div class='vertical-center'>$26<br>for<br>sure</div></div><div class='respDivL'><div class='vertical-center'><font style='color:orange'>(E)</font></div></div><div class='respDivR'><div class='vertical-center'>(I)</div></div></div>","null","$26","$92","1","26","92",""
"html-keyboard-response","16","71232","0.0-5.0-1.4","608d0831835bd8f85ac9237e","bdp_rd","Sat Mar 25 2023 19:14:57 GMT-0400 (Eastern Daylight Time)","205835","","null","","","","FIX","","<div class='trialBorder'><div class='vertical-center'><img style='vertical-align:center; align:center' src=img/fixation3.jpg></div></div>","null","","","","","",""
"html-keyboard-response","17","73717","0.0-5.0-2.4","608d0831835bd8f85ac9237e","bdp_rd","Sat Mar 25 2023 19:14:57 GMT-0400 (Eastern Daylight Time)","205835","","2484","","","","offer","","<div class='trialBorder'><div class='vertical-center'><img style='vertical-align:center; align:center' src=img/fixation3.jpg></div><div class='cl'><div class='vertical-center'>$65<br>with a<br>50% chance</div></div><div class='cr'><div class='vertical-center'>$46<br>for<br>sure</div></div><div class='respDivL'><div class='vertical-center'>(E)</div></div><div class='respDivR'><div class='vertical-center'>(I)</div></div></div>","I","$46","$65","1","46","65","SURE"
"html-keyboard-response","18","73969","0.0-5.0-3.4","608d0831835bd8f85ac9237e","bdp_rd","Sat Mar 25 2023 19:14:57 GMT-0400 (Eastern Daylight Time)","205835","","null","","","","offerFB","","<div class='trialBorder'><div class='vertical-center'><img style='vertical-align:center; align:center' src=img/fixation3.jpg></div><div class='cl'><div class='vertical-center'>$65<br>with a<br>50% chance</div></div><div class='cr'><div class='vertical-center'><font style='color:orange'>$46<br>for<br>sure</font></div></div><div class='respDivL'><div class='vertical-center'>(E)</div></div><div class='respDivR'><div class='vertical-center'><font style='color:orange'>(I)</font></div></div></div>","null","$46","$65","1","46","65",""
"html-keyboard-response","19","74470","0.0-5.0-1.5","608d0831835bd8f85ac9237e","bdp_rd","Sat Mar 25 2023 19:14:57 GMT-0400 (Eastern Daylight Time)","205835","","null","","","","FIX","","<div class='trialBorder'><div class='vertical-center'><img style='vertical-align:center; align:center' src=img/fixation3.jpg></div></div>","null","","","","","",""
"html-keyboard-response","20","76422","0.0-5.0-2.5","608d0831835bd8f85ac9237e","bdp_rd","Sat Mar 25 2023 19:14:57 GMT-0400 (Eastern Daylight Time)","205835","","1949","","","","offer","","<div class='trialBorder'><div class='vertical-center'><img style='vertical-align:center; align:center' src=img/fixation3.jpg></div><div class='cl'><div class='vertical-center'>$24<br>with a<br>50% chance</div></div><div class='cr'><div class='vertical-center'>$13<br>for<br>sure</div></div><div class='respDivL'><div class='vertical-center'>(E)</div></div><div class='respDivR'><div class='vertical-center'>(I)</div></div></div>","I","$13","$24","1","13","24","SURE"
"html-keyboard-response","21","76675","0.0-5.0-3.5","608d0831835bd8f85ac9237e","bdp_rd","Sat Mar 25 2023 19:14:57 GMT-0400 (Eastern Daylight Time)","205835","","null","","","","offerFB","","<div class='trialBorder'><div class='vertical-center'><img style='vertical-align:center; align:center' src=img/fixation3.jpg></div><div class='cl'><div class='vertical-center'>$24<br>with a<br>50% chance</div></div><div class='cr'><div class='vertical-center'><font style='color:orange'>$13<br>for<br>sure</font></div></div><div class='respDivL'><div class='vertical-center'>(E)</div></div><div class='respDivR'><div class='vertical-center'><font style='color:orange'>(I)</font></div></div></div>","null","$13","$24","1","13","24",""
"html-keyboard-response","22","77178","0.0-5.0-1.6","608d0831835bd8f85ac9237e","bdp_rd","Sat Mar 25 2023 19:14:57 GMT-0400 (Eastern Daylight Time)","205835","","null","","","","FIX","","<div class='trialBorder'><div class='vertical-center'><img style='vertical-align:center; align:center' src=img/fixation3.jpg></div></div>","null","","","","","",""
"html-keyboard-response","23","79622","0.0-5.0-2.6","608d0831835bd8f85ac9237e","bdp_rd","Sat Mar 25 2023 19:14:57 GMT-0400 (Eastern Daylight Time)","205835","","2443","","","","offer","","<div class='trialBorder'><div class='vertical-center'><img style='vertical-align:center; align:center' src=img/fixation3.jpg></div><div class='cl'><div class='vertical-center'>$3<br>for<br>sure</div></div><div class='cr'><div class='vertical-center'>$17<br>with a<br>50% chance</div></div><div class='respDivL'><div class='vertical-center'>(E)</div></div><div class='respDivR'><div class='vertical-center'>(I)</div></div></div>","I","$3","$17","0","3","17","RISKY"
"html-keyboard-response","24","79876","0.0-5.0-3.6","608d0831835bd8f85ac9237e","bdp_rd","Sat Mar 25 2023 19:14:57 GMT-0400 (Eastern Daylight Time)","205835","","null","","","","offerFB","","<div class='trialBorder'><div class='vertical-center'><img style='vertical-align:center; align:center' src=img/fixation3.jpg></div><div class='cl'><div class='vertical-center'>$3<br>for<br>sure</div></div><div class='cr'><div class='vertical-center'><font style='color:orange'>$17<br>with a<br>50% chance</font></div></div><div class='respDivL'><div class='vertical-center'>(E)</div></div><div class='respDivR'><div class='vertical-center'><font style='color:orange'>(I)</font></div></div></div>","null","$3","$17","0","3","17",""
"html-keyboard-response","25","80378","0.0-5.0-1.7","608d0831835bd8f85ac9237e","bdp_rd","Sat Mar 25 2023 19:14:57 GMT-0400 (Eastern Daylight Time)","205835","","null","","","","FIX","","<div class='trialBorder'><div class='vertical-center'><img style='vertical-align:center; align:center' src=img/fixation3.jpg></div></div>","null","","","","","",""
"html-keyboard-response","26","81757","0.0-5.0-2.7","608d0831835bd8f85ac9237e","bdp_rd","Sat Mar 25 2023 19:14:57 GMT-0400 (Eastern Daylight Time)","205835","","1377","","","","offer","","<div class='trialBorder'><div class='vertical-center'><img style='vertical-align:center; align:center' src=img/fixation3.jpg></div><div class='cl'><div class='vertical-center'>$38<br>with a<br>50% chance</div></div><div class='cr'><div class='vertical-center'>$16<br>for<br>sure</div></div><div class='respDivL'><div class='vertical-center'>(E)</div></div><div class='respDivR'><div class='vertical-center'>(I)</div></div></div>","E","$16","$38","1","16","38","RISKY"
"html-keyboard-response","27","82010","0.0-5.0-3.7","608d0831835bd8f85ac9237e","bdp_rd","Sat Mar 25 2023 19:14:57 GMT-0400 (Eastern Daylight Time)","205835","","null","","","","offerFB","","<div class='trialBorder'><div class='vertical-center'><img style='vertical-align:center; align:center' src=img/fixation3.jpg></div><div class='cl'><div class='vertical-center'><font style='color:orange'>$38<br>with a<br>50% chance</font></div></div><div class='cr'><div class='vertical-center'>$16<br>for<br>sure</div></div><div class='respDivL'><div class='vertical-center'><font style='color:orange'>(E)</font></div></div><div class='respDivR'><div class='vertical-center'>(I)</div></div></div>","null","$16","$38","1","16","38",""
"html-keyboard-response","28","82513","0.0-5.0-1.8","608d0831835bd8f85ac9237e","bdp_rd","Sat Mar 25 2023 19:14:57 GMT-0400 (Eastern Daylight Time)","205835","","null","","","","FIX","","<div class='trialBorder'><div class='vertical-center'><img style='vertical-align:center; align:center' src=img/fixation3.jpg></div></div>","null","","","","","",""
"html-keyboard-response","29","85630","0.0-5.0-2.8","608d0831835bd8f85ac9237e","bdp_rd","Sat Mar 25 2023 19:14:57 GMT-0400 (Eastern Daylight Time)","205835","","3115","","","","offer","","<div class='trialBorder'><div class='vertical-center'><img style='vertical-align:center; align:center' src=img/fixation3.jpg></div><div class='cl'><div class='vertical-center'>$47<br>with a<br>50% chance</div></div><div class='cr'><div class='vertical-center'>$27<br>for<br>sure</div></div><div class='respDivL'><div class='vertical-center'>(E)</div></div><div class='respDivR'><div class='vertical-center'>(I)</div></div></div>","E","$27","$47","1","27","47","RISKY"
"html-keyboard-response","30","85883","0.0-5.0-3.8","608d0831835bd8f85ac9237e","bdp_rd","Sat Mar 25 2023 19:14:57 GMT-0400 (Eastern Daylight Time)","205835","","null","","","","offerFB","","<div class='trialBorder'><div class='vertical-center'><img style='vertical-align:center; align:center' src=img/fixation3.jpg></div><div class='cl'><div class='vertical-center'><font style='color:orange'>$47<br>with a<br>50% chance</font></div></div><div class='cr'><div class='vertical-center'>$27<br>for<br>sure</div></div><div class='respDivL'><div class='vertical-center'><font style='color:orange'>(E)</font></div></div><div class='respDivR'><div class='vertical-center'>(I)</div></div></div>","null","$27","$47","1","27","47",""
"html-keyboard-response","31","86385","0.0-5.0-1.9","608d0831835bd8f85ac9237e","bdp_rd","Sat Mar 25 2023 19:14:57 GMT-0400 (Eastern Daylight Time)","205835","","null","","","","FIX","","<div class='trialBorder'><div class='vertical-center'><img style='vertical-align:center; align:center' src=img/fixation3.jpg></div></div>","null","","","","","",""
"html-keyboard-response","32","87989","0.0-5.0-2.9","608d0831835bd8f85ac9237e","bdp_rd","Sat Mar 25 2023 19:14:57 GMT-0400 (Eastern Daylight Time)","205835","","1602","","","","offer","","<div class='trialBorder'><div class='vertical-center'><img style='vertical-align:center; align:center' src=img/fixation3.jpg></div><div class='cl'><div class='vertical-center'>$13<br>for<br>sure</div></div><div class='cr'><div class='vertical-center'>$41<br>with a<br>50% chance</div></div><div class='respDivL'><div class='vertical-center'>(E)</div></div><div class='respDivR'><div class='vertical-center'>(I)</div></div></div>","I","$13","$41","0","13","41","RISKY"
"html-keyboard-response","33","88242","0.0-5.0-3.9","608d0831835bd8f85ac9237e","bdp_rd","Sat Mar 25 2023 19:14:57 GMT-0400 (Eastern Daylight Time)","205835","","null","","","","offerFB","","<div class='trialBorder'><div class='vertical-center'><img style='vertical-align:center; align:center' src=img/fixation3.jpg></div><div class='cl'><div class='vertical-center'>$13<br>for<br>sure</div></div><div class='cr'><div class='vertical-center'><font style='color:orange'>$41<br>with a<br>50% chance</font></div></div><div class='respDivL'><div class='vertical-center'>(E)</div></div><div class='respDivR'><div class='vertical-center'><font style='color:orange'>(I)</font></div></div></div>","null","$13","$41","0","13","41",""
"html-keyboard-response","34","88744","0.0-5.0-1.10","608d0831835bd8f85ac9237e","bdp_rd","Sat Mar 25 2023 19:14:57 GMT-0400 (Eastern Daylight Time)","205835","","null","","","","FIX","","<div class='trialBorder'><div class='vertical-center'><img style='vertical-align:center; align:center' src=img/fixation3.jpg></div></div>","null","","","","","",""
"html-keyboard-response","35","90647","0.0-5.0-2.10","608d0831835bd8f85ac9237e","bdp_rd","Sat Mar 25 2023 19:14:57 GMT-0400 (Eastern Daylight Time)","205835","","1901","","","","offer","","<div class='trialBorder'><div class='vertical-center'><img style='vertical-align:center; align:center' src=img/fixation3.jpg></div><div class='cl'><div class='vertical-center'>$5<br>for<br>sure</div></div><div class='cr'><div class='vertical-center'>$16<br>with a<br>50% chance</div></div><div class='respDivL'><div class='vertical-center'>(E)</div></div><div class='respDivR'><div class='vertical-center'>(I)</div></div></div>","I","$5","$16","0","5","16","RISKY"
"html-keyboard-response","36","90899","0.0-5.0-3.10","608d0831835bd8f85ac9237e","bdp_rd","Sat Mar 25 2023 19:14:57 GMT-0400 (Eastern Daylight Time)","205835","","null","","","","offerFB","","<div class='trialBorder'><div class='vertical-center'><img style='vertical-align:center; align:center' src=img/fixation3.jpg></div><div class='cl'><div class='vertical-center'>$5<br>for<br>sure</div></div><div class='cr'><div class='vertical-center'><font style='color:orange'>$16<br>with a<br>50% chance</font></div></div><div class='respDivL'><div class='vertical-center'>(E)</div></div><div class='respDivR'><div class='vertical-center'><font style='color:orange'>(I)</font></div></div></div>","null","$5","$16","0","5","16",""
"html-keyboard-response","37","91401","0.0-5.0-1.11","608d0831835bd8f85ac9237e","bdp_rd","Sat Mar 25 2023 19:14:57 GMT-0400 (Eastern Daylight Time)","205835","","null","","","","FIX","","<div class='trialBorder'><div class='vertical-center'><img style='vertical-align:center; align:center' src=img/fixation3.jpg></div></div>","null","","","","","",""
"html-keyboard-response","38","93182","0.0-5.0-2.11","608d0831835bd8f85ac9237e","bdp_rd","Sat Mar 25 2023 19:14:57 GMT-0400 (Eastern Daylight Time)","205835","","1779","","","","offer","","<div class='trialBorder'><div class='vertical-center'><img style='vertical-align:center; align:center' src=img/fixation3.jpg></div><div class='cl'><div class='vertical-center'>$26<br>with a<br>50% chance</div></div><div class='cr'><div class='vertical-center'>$11<br>for<br>sure</div></div><div class='respDivL'><div class='vertical-center'>(E)</div></div><div class='respDivR'><div class='vertical-center'>(I)</div></div></div>","I","$11","$26","1","11","26","SURE"
"html-keyboard-response","39","93435","0.0-5.0-3.11","608d0831835bd8f85ac9237e","bdp_rd","Sat Mar 25 2023 19:14:57 GMT-0400 (Eastern Daylight Time)","205835","","null","","","","offerFB","","<div class='trialBorder'><div class='vertical-center'><img style='vertical-align:center; align:center' src=img/fixation3.jpg></div><div class='cl'><div class='vertical-center'>$26<br>with a<br>50% chance</div></div><div class='cr'><div class='vertical-center'><font style='color:orange'>$11<br>for<br>sure</font></div></div><div class='respDivL'><div class='vertical-center'>(E)</div></div><div class='respDivR'><div class='vertical-center'><font style='color:orange'>(I)</font></div></div></div>","null","$11","$26","1","11","26",""
"html-keyboard-response","40","93938","0.0-5.0-1.12","608d0831835bd8f85ac9237e","bdp_rd","Sat Mar 25 2023 19:14:57 GMT-0400 (Eastern Daylight Time)","205835","","null","","","","FIX","","<div class='trialBorder'><div class='vertical-center'><img style='vertical-align:center; align:center' src=img/fixation3.jpg></div></div>","null","","","","","",""
"html-keyboard-response","41","95238","0.0-5.0-2.12","608d0831835bd8f85ac9237e","bdp_rd","Sat Mar 25 2023 19:14:57 GMT-0400 (Eastern Daylight Time)","205835","","1298","","","","offer","","<div class='trialBorder'><div class='vertical-center'><img style='vertical-align:center; align:center' src=img/fixation3.jpg></div><div class='cl'><div class='vertical-center'>$37<br>with a<br>50% chance</div></div><div class='cr'><div class='vertical-center'>$20<br>for<br>sure</div></div><div class='respDivL'><div class='vertical-center'>(E)</div></div><div class='respDivR'><div class='vertical-center'>(I)</div></div></div>","I","$20","$37","1","20","37","SURE"
"html-keyboard-response","42","95490","0.0-5.0-3.12","608d0831835bd8f85ac9237e","bdp_rd","Sat Mar 25 2023 19:14:57 GMT-0400 (Eastern Daylight Time)","205835","","null","","","","offerFB","","<div class='trialBorder'><div class='vertical-center'><img style='vertical-align:center; align:center' src=img/fixation3.jpg></div><div class='cl'><div class='vertical-center'>$37<br>with a<br>50% chance</div></div><div class='cr'><div class='vertical-center'><font style='color:orange'>$20<br>for<br>sure</font></div></div><div class='respDivL'><div class='vertical-center'>(E)</div></div><div class='respDivR'><div class='vertical-center'><font style='color:orange'>(I)</font></div></div></div>","null","$20","$37","1","20","37",""
"html-keyboard-response","43","95991","0.0-5.0-1.13","608d0831835bd8f85ac9237e","bdp_rd","Sat Mar 25 2023 19:14:57 GMT-0400 (Eastern Daylight Time)","205835","","null","","","","FIX","","<div class='trialBorder'><div class='vertical-center'><img style='vertical-align:center; align:center' src=img/fixation3.jpg></div></div>","null","","","","","",""
"html-keyboard-response","44","97973","0.0-5.0-2.13","608d0831835bd8f85ac9237e","bdp_rd","Sat Mar 25 2023 19:14:57 GMT-0400 (Eastern Daylight Time)","205835","","1981","","","","offer","","<div class='trialBorder'><div class='vertical-center'><img style='vertical-align:center; align:center' src=img/fixation3.jpg></div><div class='cl'><div class='vertical-center'>$98<br>with a<br>50% chance</div></div><div class='cr'><div class='vertical-center'>$53<br>for<br>sure</div></div><div class='respDivL'><div class='vertical-center'>(E)</div></div><div class='respDivR'><div class='vertical-center'>(I)</div></div></div>","I","$53","$98","1","53","98","SURE"
"html-keyboard-response","45","98226","0.0-5.0-3.13","608d0831835bd8f85ac9237e","bdp_rd","Sat Mar 25 2023 19:14:57 GMT-0400 (Eastern Daylight Time)","205835","","null","","","","offerFB","","<div class='trialBorder'><div class='vertical-center'><img style='vertical-align:center; align:center' src=img/fixation3.jpg></div><div class='cl'><div class='vertical-center'>$98<br>with a<br>50% chance</div></div><div class='cr'><div class='vertical-center'><font style='color:orange'>$53<br>for<br>sure</font></div></div><div class='respDivL'><div class='vertical-center'>(E)</div></div><div class='respDivR'><div class='vertical-center'><font style='color:orange'>(I)</font></div></div></div>","null","$53","$98","1","53","98",""
"html-keyboard-response","46","98729","0.0-5.0-1.14","608d0831835bd8f85ac9237e","bdp_rd","Sat Mar 25 2023 19:14:57 GMT-0400 (Eastern Daylight Time)","205835","","null","","","","FIX","","<div class='trialBorder'><div class='vertical-center'><img style='vertical-align:center; align:center' src=img/fixation3.jpg></div></div>","null","","","","","",""
"html-keyboard-response","47","102614","0.0-5.0-2.14","608d0831835bd8f85ac9237e","bdp_rd","Sat Mar 25 2023 19:14:57 GMT-0400 (Eastern Daylight Time)","205835","","3883","","","","offer","","<div class='trialBorder'><div class='vertical-center'><img style='vertical-align:center; align:center' src=img/fixation3.jpg></div><div class='cl'><div class='vertical-center'>$100<br>with a<br>50% chance</div></div><div class='cr'><div class='vertical-center'>$63<br>for<br>sure</div></div><div class='respDivL'><div class='vertical-center'>(E)</div></div><div class='respDivR'><div class='vertical-center'>(I)</div></div></div>","E","$63","$100","1","63","10","RISKY"
"html-keyboard-response","48","102867","0.0-5.0-3.14","608d0831835bd8f85ac9237e","bdp_rd","Sat Mar 25 2023 19:14:57 GMT-0400 (Eastern Daylight Time)","205835","","null","","","","offerFB","","<div class='trialBorder'><div class='vertical-center'><img style='vertical-align:center; align:center' src=img/fixation3.jpg></div><div class='cl'><div class='vertical-center'><font style='color:orange'>$100<br>with a<br>50% chance</font></div></div><div class='cr'><div class='vertical-center'>$63<br>for<br>sure</div></div><div class='respDivL'><div class='vertical-center'><font style='color:orange'>(E)</font></div></div><div class='respDivR'><div class='vertical-center'>(I)</div></div></div>","null","$63","$100","1","63","10",""
"html-keyboard-response","49","103369","0.0-5.0-1.15","608d0831835bd8f85ac9237e","bdp_rd","Sat Mar 25 2023 19:14:57 GMT-0400 (Eastern Daylight Time)","205835","","null","","","","FIX","","<div class='trialBorder'><div class='vertical-center'><img style='vertical-align:center; align:center' src=img/fixation3.jpg></div></div>","null","","","","","",""
"html-keyboard-response","50","105475","0.0-5.0-2.15","608d0831835bd8f85ac9237e","bdp_rd","Sat Mar 25 2023 19:14:57 GMT-0400 (Eastern Daylight Time)","205835","","2105","","","","offer","","<div class='trialBorder'><div class='vertical-center'><img style='vertical-align:center; align:center' src=img/fixation3.jpg></div><div class='cl'><div class='vertical-center'>$2<br>for<br>sure</div></div><div class='cr'><div class='vertical-center'>$21<br>with a<br>50% chance</div></div><div class='respDivL'><div class='vertical-center'>(E)</div></div><div class='respDivR'><div class='vertical-center'>(I)</div></div></div>","I","$2","$21","0","2","21","RISKY"
"html-keyboard-response","51","105727","0.0-5.0-3.15","608d0831835bd8f85ac9237e","bdp_rd","Sat Mar 25 2023 19:14:57 GMT-0400 (Eastern Daylight Time)","205835","","null","","","","offerFB","","<div class='trialBorder'><div class='vertical-center'><img style='vertical-align:center; align:center' src=img/fixation3.jpg></div><div class='cl'><div class='vertical-center'>$2<br>for<br>sure</div></div><div class='cr'><div class='vertical-center'><font style='color:orange'>$21<br>with a<br>50% chance</font></div></div><div class='respDivL'><div class='vertical-center'>(E)</div></div><div class='respDivR'><div class='vertical-center'><font style='color:orange'>(I)</font></div></div></div>","null","$2","$21","0","2","21",""
"html-keyboard-response","52","106233","0.0-5.0-1.16","608d0831835bd8f85ac9237e","bdp_rd","Sat Mar 25 2023 19:14:57 GMT-0400 (Eastern Daylight Time)","205835","","null","","","","FIX","","<div class='trialBorder'><div class='vertical-center'><img style='vertical-align:center; align:center' src=img/fixation3.jpg></div></div>","null","","","","","",""
"html-keyboard-response","53","109372","0.0-5.0-2.16","608d0831835bd8f85ac9237e","bdp_rd","Sat Mar 25 2023 19:14:57 GMT-0400 (Eastern Daylight Time)","205835","","3137","","","","offer","","<div class='trialBorder'><div class='vertical-center'><img style='vertical-align:center; align:center' src=img/fixation3.jpg></div><div class='cl'><div class='vertical-center'>$46<br>with a<br>50% chance</div></div><div class='cr'><div class='vertical-center'>$29<br>for<br>sure</div></div><div class='respDivL'><div class='vertical-center'>(E)</div></div><div class='respDivR'><div class='vertical-center'>(I)</div></div></div>","I","$29","$46","1","29","46","SURE"
"html-keyboard-response","54","109625","0.0-5.0-3.16","608d0831835bd8f85ac9237e","bdp_rd","Sat Mar 25 2023 19:14:57 GMT-0400 (Eastern Daylight Time)","205835","","null","","","","offerFB","","<div class='trialBorder'><div class='vertical-center'><img style='vertical-align:center; align:center' src=img/fixation3.jpg></div><div class='cl'><div class='vertical-center'>$46<br>with a<br>50% chance</div></div><div class='cr'><div class='vertical-center'><font style='color:orange'>$29<br>for<br>sure</font></div></div><div class='respDivL'><div class='vertical-center'>(E)</div></div><div class='respDivR'><div class='vertical-center'><font style='color:orange'>(I)</font></div></div></div>","null","$29","$46","1","29","46",""
"html-keyboard-response","55","110126","0.0-5.0-1.17","608d0831835bd8f85ac9237e","bdp_rd","Sat Mar 25 2023 19:14:57 GMT-0400 (Eastern Daylight Time)","205835","","null","","","","FIX","","<div class='trialBorder'><div class='vertical-center'><img style='vertical-align:center; align:center' src=img/fixation3.jpg></div></div>","null","","","","","",""
"html-keyboard-response","56","112244","0.0-5.0-2.17","608d0831835bd8f85ac9237e","bdp_rd","Sat Mar 25 2023 19:14:57 GMT-0400 (Eastern Daylight Time)","205835","","2117","","","","offer","","<div class='trialBorder'><div class='vertical-center'><img style='vertical-align:center; align:center' src=img/fixation3.jpg></div><div class='cl'><div class='vertical-center'>$33<br>for<br>sure</div></div><div class='cr'><div class='vertical-center'>$66<br>with a<br>50% chance</div></div><div class='respDivL'><div class='vertical-center'>(E)</div></div><div class='respDivR'><div class='vertical-center'>(I)</div></div></div>","I","$33","$66","0","33","66","RISKY"
"html-keyboard-response","57","112496","0.0-5.0-3.17","608d0831835bd8f85ac9237e","bdp_rd","Sat Mar 25 2023 19:14:57 GMT-0400 (Eastern Daylight Time)","205835","","null","","","","offerFB","","<div class='trialBorder'><div class='vertical-center'><img style='vertical-align:center; align:center' src=img/fixation3.jpg></div><div class='cl'><div class='vertical-center'>$33<br>for<br>sure</div></div><div class='cr'><div class='vertical-center'><font style='color:orange'>$66<br>with a<br>50% chance</font></div></div><div class='respDivL'><div class='vertical-center'>(E)</div></div><div class='respDivR'><div class='vertical-center'><font style='color:orange'>(I)</font></div></div></div>","null","$33","$66","0","33","66",""
"html-keyboard-response","58","112998","0.0-5.0-1.18","608d0831835bd8f85ac9237e","bdp_rd","Sat Mar 25 2023 19:14:57 GMT-0400 (Eastern Daylight Time)","205835","","null","","","","FIX","","<div class='trialBorder'><div class='vertical-center'><img style='vertical-align:center; align:center' src=img/fixation3.jpg></div></div>","null","","","","","",""
"html-keyboard-response","59","113885","0.0-5.0-2.18","608d0831835bd8f85ac9237e","bdp_rd","Sat Mar 25 2023 19:14:57 GMT-0400 (Eastern Daylight Time)","205835","","885","","","","offer","","<div class='trialBorder'><div class='vertical-center'><img style='vertical-align:center; align:center' src=img/fixation3.jpg></div><div class='cl'><div class='vertical-center'>$3<br>for<br>sure</div></div><div class='cr'><div class='vertical-center'>$12<br>with a<br>50% chance</div></div><div class='respDivL'><div class='vertical-center'>(E)</div></div><div class='respDivR'><div class='vertical-center'>(I)</div></div></div>","I","$3","$12","0","3","12","RISKY"
"html-keyboard-response","60","114138","0.0-5.0-3.18","608d0831835bd8f85ac9237e","bdp_rd","Sat Mar 25 2023 19:14:57 GMT-0400 (Eastern Daylight Time)","205835","","null","","","","offerFB","","<div class='trialBorder'><div class='vertical-center'><img style='vertical-align:center; align:center' src=img/fixation3.jpg></div><div class='cl'><div class='vertical-center'>$3<br>for<br>sure</div></div><div class='cr'><div class='vertical-center'><font style='color:orange'>$12<br>with a<br>50% chance</font></div></div><div class='respDivL'><div class='vertical-center'>(E)</div></div><div class='respDivR'><div class='vertical-center'><font style='color:orange'>(I)</font></div></div></div>","null","$3","$12","0","3","12",""
"html-keyboard-response","61","114640","0.0-5.0-1.19","608d0831835bd8f85ac9237e","bdp_rd","Sat Mar 25 2023 19:14:57 GMT-0400 (Eastern Daylight Time)","205835","","null","","","","FIX","","<div class='trialBorder'><div class='vertical-center'><img style='vertical-align:center; align:center' src=img/fixation3.jpg></div></div>","null","","","","","",""
"html-keyboard-response","62","115867","0.0-5.0-2.19","608d0831835bd8f85ac9237e","bdp_rd","Sat Mar 25 2023 19:14:57 GMT-0400 (Eastern Daylight Time)","205835","","1227","","","","offer","","<div class='trialBorder'><div class='vertical-center'><img style='vertical-align:center; align:center' src=img/fixation3.jpg></div><div class='cl'><div class='vertical-center'>$28<br>with a<br>50% chance</div></div><div class='cr'><div class='vertical-center'>$16<br>for<br>sure</div></div><div class='respDivL'><div class='vertical-center'>(E)</div></div><div class='respDivR'><div class='vertical-center'>(I)</div></div></div>","E","$16","$28","1","16","28","RISKY"
"html-keyboard-response","63","116118","0.0-5.0-3.19","608d0831835bd8f85ac9237e","bdp_rd","Sat Mar 25 2023 19:14:57 GMT-0400 (Eastern Daylight Time)","205835","","null","","","","offerFB","","<div class='trialBorder'><div class='vertical-center'><img style='vertical-align:center; align:center' src=img/fixation3.jpg></div><div class='cl'><div class='vertical-center'><font style='color:orange'>$28<br>with a<br>50% chance</font></div></div><div class='cr'><div class='vertical-center'>$16<br>for<br>sure</div></div><div class='respDivL'><div class='vertical-center'><font style='color:orange'>(E)</font></div></div><div class='respDivR'><div class='vertical-center'>(I)</div></div></div>","null","$16","$28","1","16","28",""
"html-keyboard-response","64","116620","0.0-5.0-1.20","608d0831835bd8f85ac9237e","bdp_rd","Sat Mar 25 2023 19:14:57 GMT-0400 (Eastern Daylight Time)","205835","","null","","","","FIX","","<div class='trialBorder'><div class='vertical-center'><img style='vertical-align:center; align:center' src=img/fixation3.jpg></div></div>","null","","","","","",""
"html-keyboard-response","65","118452","0.0-5.0-2.20","608d0831835bd8f85ac9237e","bdp_rd","Sat Mar 25 2023 19:14:57 GMT-0400 (Eastern Daylight Time)","205835","","1831","","","","offer","","<div class='trialBorder'><div class='vertical-center'><img style='vertical-align:center; align:center' src=img/fixation3.jpg></div><div class='cl'><div class='vertical-center'>$10<br>with a<br>50% chance</div></div><div class='cr'><div class='vertical-center'>$7<br>for<br>sure</div></div><div class='respDivL'><div class='vertical-center'>(E)</div></div><div class='respDivR'><div class='vertical-center'>(I)</div></div></div>","I","$7","$10","1","7","10","SURE"
"html-keyboard-response","66","118704","0.0-5.0-3.20","608d0831835bd8f85ac9237e","bdp_rd","Sat Mar 25 2023 19:14:57 GMT-0400 (Eastern Daylight Time)","205835","","null","","","","offerFB","","<div class='trialBorder'><div class='vertical-center'><img style='vertical-align:center; align:center' src=img/fixation3.jpg></div><div class='cl'><div class='vertical-center'>$10<br>with a<br>50% chance</div></div><div class='cr'><div class='vertical-center'><font style='color:orange'>$7<br>for<br>sure</font></div></div><div class='respDivL'><div class='vertical-center'>(E)</div></div><div class='respDivR'><div class='vertical-center'><font style='color:orange'>(I)</font></div></div></div>","null","$7","$10","1","7","10",""
"html-keyboard-response","67","119206","0.0-5.0-1.21","608d0831835bd8f85ac9237e","bdp_rd","Sat Mar 25 2023 19:14:57 GMT-0400 (Eastern Daylight Time)","205835","","null","","","","FIX","","<div class='trialBorder'><div class='vertical-center'><img style='vertical-align:center; align:center' src=img/fixation3.jpg></div></div>","null","","","","","",""
"html-keyboard-response","68","121356","0.0-5.0-2.21","608d0831835bd8f85ac9237e","bdp_rd","Sat Mar 25 2023 19:14:57 GMT-0400 (Eastern Daylight Time)","205835","","2149","","","","offer","","<div class='trialBorder'><div class='vertical-center'><img style='vertical-align:center; align:center' src=img/fixation3.jpg></div><div class='cl'><div class='vertical-center'>$31<br>for<br>sure</div></div><div class='cr'><div class='vertical-center'>$78<br>with a<br>50% chance</div></div><div class='respDivL'><div class='vertical-center'>(E)</div></div><div class='respDivR'><div class='vertical-center'>(I)</div></div></div>","I","$31","$78","0","31","78","RISKY"
"html-keyboard-response","69","121609","0.0-5.0-3.21","608d0831835bd8f85ac9237e","bdp_rd","Sat Mar 25 2023 19:14:57 GMT-0400 (Eastern Daylight Time)","205835","","null","","","","offerFB","","<div class='trialBorder'><div class='vertical-center'><img style='vertical-align:center; align:center' src=img/fixation3.jpg></div><div class='cl'><div class='vertical-center'>$31<br>for<br>sure</div></div><div class='cr'><div class='vertical-center'><font style='color:orange'>$78<br>with a<br>50% chance</font></div></div><div class='respDivL'><div class='vertical-center'>(E)</div></div><div class='respDivR'><div class='vertical-center'><font style='color:orange'>(I)</font></div></div></div>","null","$31","$78","0","31","78",""
"html-keyboard-response","70","122110","0.0-5.0-1.22","608d0831835bd8f85ac9237e","bdp_rd","Sat Mar 25 2023 19:14:57 GMT-0400 (Eastern Daylight Time)","205835","","null","","","","FIX","","<div class='trialBorder'><div class='vertical-center'><img style='vertical-align:center; align:center' src=img/fixation3.jpg></div></div>","null","","","","","",""
"html-keyboard-response","71","123172","0.0-5.0-2.22","608d0831835bd8f85ac9237e","bdp_rd","Sat Mar 25 2023 19:14:57 GMT-0400 (Eastern Daylight Time)","205835","","1060","","","","offer","","<div class='trialBorder'><div class='vertical-center'><img style='vertical-align:center; align:center' src=img/fixation3.jpg></div><div class='cl'><div class='vertical-center'>$20<br>for<br>sure</div></div><div class='cr'><div class='vertical-center'>$80<br>with a<br>50% chance</div></div><div class='respDivL'><div class='vertical-center'>(E)</div></div><div class='respDivR'><div class='vertical-center'>(I)</div></div></div>","I","$20","$80","0","20","80","RISKY"
"html-keyboard-response","72","123426","0.0-5.0-3.22","608d0831835bd8f85ac9237e","bdp_rd","Sat Mar 25 2023 19:14:57 GMT-0400 (Eastern Daylight Time)","205835","","null","","","","offerFB","","<div class='trialBorder'><div class='vertical-center'><img style='vertical-align:center; align:center' src=img/fixation3.jpg></div><div class='cl'><div class='vertical-center'>$20<br>for<br>sure</div></div><div class='cr'><div class='vertical-center'><font style='color:orange'>$80<br>with a<br>50% chance</font></div></div><div class='respDivL'><div class='vertical-center'>(E)</div></div><div class='respDivR'><div class='vertical-center'><font style='color:orange'>(I)</font></div></div></div>","null","$20","$80","0","20","80",""
"html-keyboard-response","73","123927","0.0-5.0-1.23","608d0831835bd8f85ac9237e","bdp_rd","Sat Mar 25 2023 19:14:57 GMT-0400 (Eastern Daylight Time)","205835","","null","","","","FIX","","<div class='trialBorder'><div class='vertical-center'><img style='vertical-align:center; align:center' src=img/fixation3.jpg></div></div>","null","","","","","",""
"html-keyboard-response","74","125213","0.0-5.0-2.23","608d0831835bd8f85ac9237e","bdp_rd","Sat Mar 25 2023 19:14:57 GMT-0400 (Eastern Daylight Time)","205835","","1284","","","","offer","","<div class='trialBorder'><div class='vertical-center'><img style='vertical-align:center; align:center' src=img/fixation3.jpg></div><div class='cl'><div class='vertical-center'>$95<br>with a<br>50% chance</div></div><div class='cr'><div class='vertical-center'>$40<br>for<br>sure</div></div><div class='respDivL'><div class='vertical-center'>(E)</div></div><div class='respDivR'><div class='vertical-center'>(I)</div></div></div>","E","$40","$95","1","40","95","RISKY"
"html-keyboard-response","75","125466","0.0-5.0-3.23","608d0831835bd8f85ac9237e","bdp_rd","Sat Mar 25 2023 19:14:57 GMT-0400 (Eastern Daylight Time)","205835","","null","","","","offerFB","","<div class='trialBorder'><div class='vertical-center'><img style='vertical-align:center; align:center' src=img/fixation3.jpg></div><div class='cl'><div class='vertical-center'><font style='color:orange'>$95<br>with a<br>50% chance</font></div></div><div class='cr'><div class='vertical-center'>$40<br>for<br>sure</div></div><div class='respDivL'><div class='vertical-center'><font style='color:orange'>(E)</font></div></div><div class='respDivR'><div class='vertical-center'>(I)</div></div></div>","null","$40","$95","1","40","95",""
"html-keyboard-response","76","125968","0.0-5.0-1.24","608d0831835bd8f85ac9237e","bdp_rd","Sat Mar 25 2023 19:14:57 GMT-0400 (Eastern Daylight Time)","205835","","null","","","","FIX","","<div class='trialBorder'><div class='vertical-center'><img style='vertical-align:center; align:center' src=img/fixation3.jpg></div></div>","null","","","","","",""
"html-keyboard-response","77","127373","0.0-5.0-2.24","608d0831835bd8f85ac9237e","bdp_rd","Sat Mar 25 2023 19:14:57 GMT-0400 (Eastern Daylight Time)","205835","","1403","","","","offer","","<div class='trialBorder'><div class='vertical-center'><img style='vertical-align:center; align:center' src=img/fixation3.jpg></div><div class='cl'><div class='vertical-center'>$62<br>with a<br>50% chance</div></div><div class='cr'><div class='vertical-center'>$11<br>for<br>sure</div></div><div class='respDivL'><div class='vertical-center'>(E)</div></div><div class='respDivR'><div class='vertical-center'>(I)</div></div></div>","E","$11","$62","1","11","62","RISKY"
"html-keyboard-response","78","127624","0.0-5.0-3.24","608d0831835bd8f85ac9237e","bdp_rd","Sat Mar 25 2023 19:14:57 GMT-0400 (Eastern Daylight Time)","205835","","null","","","","offerFB","","<div class='trialBorder'><div class='vertical-center'><img style='vertical-align:center; align:center' src=img/fixation3.jpg></div><div class='cl'><div class='vertical-center'><font style='color:orange'>$62<br>with a<br>50% chance</font></div></div><div class='cr'><div class='vertical-center'>$11<br>for<br>sure</div></div><div class='respDivL'><div class='vertical-center'><font style='color:orange'>(E)</font></div></div><div class='respDivR'><div class='vertical-center'>(I)</div></div></div>","null","$11","$62","1","11","62",""
"html-keyboard-response","79","128127","0.0-5.0-1.25","608d0831835bd8f85ac9237e","bdp_rd","Sat Mar 25 2023 19:14:57 GMT-0400 (Eastern Daylight Time)","205835","","null","","","","FIX","","<div class='trialBorder'><div class='vertical-center'><img style='vertical-align:center; align:center' src=img/fixation3.jpg></div></div>","null","","","","","",""
"html-keyboard-response","80","129749","0.0-5.0-2.25","608d0831835bd8f85ac9237e","bdp_rd","Sat Mar 25 2023 19:14:57 GMT-0400 (Eastern Daylight Time)","205835","","1621","","","","offer","","<div class='trialBorder'><div class='vertical-center'><img style='vertical-align:center; align:center' src=img/fixation3.jpg></div><div class='cl'><div class='vertical-center'>$68<br>with a<br>50% chance</div></div><div class='cr'><div class='vertical-center'>$30<br>for<br>sure</div></div><div class='respDivL'><div class='vertical-center'>(E)</div></div><div class='respDivR'><div class='vertical-center'>(I)</div></div></div>","E","$30","$68","1","30","68","RISKY"
"html-keyboard-response","81","130001","0.0-5.0-3.25","608d0831835bd8f85ac9237e","bdp_rd","Sat Mar 25 2023 19:14:57 GMT-0400 (Eastern Daylight Time)","205835","","null","","","","offerFB","","<div class='trialBorder'><div class='vertical-center'><img style='vertical-align:center; align:center' src=img/fixation3.jpg></div><div class='cl'><div class='vertical-center'><font style='color:orange'>$68<br>with a<br>50% chance</font></div></div><div class='cr'><div class='vertical-center'>$30<br>for<br>sure</div></div><div class='respDivL'><div class='vertical-center'><font style='color:orange'>(E)</font></div></div><div class='respDivR'><div class='vertical-center'>(I)</div></div></div>","null","$30","$68","1","30","68",""
"html-keyboard-response","82","130502","0.0-5.0-1.26","608d0831835bd8f85ac9237e","bdp_rd","Sat Mar 25 2023 19:14:57 GMT-0400 (Eastern Daylight Time)","205835","","null","","","","FIX","","<div class='trialBorder'><div class='vertical-center'><img style='vertical-align:center; align:center' src=img/fixation3.jpg></div></div>","null","","","","","",""
"html-keyboard-response","83","133196","0.0-5.0-2.26","608d0831835bd8f85ac9237e","bdp_rd","Sat Mar 25 2023 19:14:57 GMT-0400 (Eastern Daylight Time)","205835","","2693","","","","offer","","<div class='trialBorder'><div class='vertical-center'><img style='vertical-align:center; align:center' src=img/fixation3.jpg></div><div class='cl'><div class='vertical-center'>$10<br>for<br>sure</div></div><div class='cr'><div class='vertical-center'>$19<br>with a<br>50% chance</div></div><div class='respDivL'><div class='vertical-center'>(E)</div></div><div class='respDivR'><div class='vertical-center'>(I)</div></div></div>","E","$10","$19","0","10","19","SURE"
"html-keyboard-response","84","133449","0.0-5.0-3.26","608d0831835bd8f85ac9237e","bdp_rd","Sat Mar 25 2023 19:14:57 GMT-0400 (Eastern Daylight Time)","205835","","null","","","","offerFB","","<div class='trialBorder'><div class='vertical-center'><img style='vertical-align:center; align:center' src=img/fixation3.jpg></div><div class='cl'><div class='vertical-center'><font style='color:orange'>$10<br>for<br>sure</font></div></div><div class='cr'><div class='vertical-center'>$19<br>with a<br>50% chance</div></div><div class='respDivL'><div class='vertical-center'><font style='color:orange'>(E)</font></div></div><div class='respDivR'><div class='vertical-center'>(I)</div></div></div>","null","$10","$19","0","10","19",""
"html-keyboard-response","85","133951","0.0-5.0-1.27","608d0831835bd8f85ac9237e","bdp_rd","Sat Mar 25 2023 19:14:57 GMT-0400 (Eastern Daylight Time)","205835","","null","","","","FIX","","<div class='trialBorder'><div class='vertical-center'><img style='vertical-align:center; align:center' src=img/fixation3.jpg></div></div>","null","","","","","",""
"html-keyboard-response","86","135685","0.0-5.0-2.27","608d0831835bd8f85ac9237e","bdp_rd","Sat Mar 25 2023 19:14:57 GMT-0400 (Eastern Daylight Time)","205835","","1732","","","","offer","","<div class='trialBorder'><div class='vertical-center'><img style='vertical-align:center; align:center' src=img/fixation3.jpg></div><div class='cl'><div class='vertical-center'>$9<br>for<br>sure</div></div><div class='cr'><div class='vertical-center'>$18<br>with a<br>50% chance</div></div><div class='respDivL'><div class='vertical-center'>(E)</div></div><div class='respDivR'><div class='vertical-center'>(I)</div></div></div>","I","$9","$18","0","9","18","RISKY"
"html-keyboard-response","87","135937","0.0-5.0-3.27","608d0831835bd8f85ac9237e","bdp_rd","Sat Mar 25 2023 19:14:57 GMT-0400 (Eastern Daylight Time)","205835","","null","","","","offerFB","","<div class='trialBorder'><div class='vertical-center'><img style='vertical-align:center; align:center' src=img/fixation3.jpg></div><div class='cl'><div class='vertical-center'>$9<br>for<br>sure</div></div><div class='cr'><div class='vertical-center'><font style='color:orange'>$18<br>with a<br>50% chance</font></div></div><div class='respDivL'><div class='vertical-center'>(E)</div></div><div class='respDivR'><div class='vertical-center'><font style='color:orange'>(I)</font></div></div></div>","null","$9","$18","0","9","18",""
"html-keyboard-response","88","136439","0.0-5.0-1.28","608d0831835bd8f85ac9237e","bdp_rd","Sat Mar 25 2023 19:14:57 GMT-0400 (Eastern Daylight Time)","205835","","null","","","","FIX","","<div class='trialBorder'><div class='vertical-center'><img style='vertical-align:center; align:center' src=img/fixation3.jpg></div></div>","null","","","","","",""
"html-keyboard-response","89","137772","0.0-5.0-2.28","608d0831835bd8f85ac9237e","bdp_rd","Sat Mar 25 2023 19:14:57 GMT-0400 (Eastern Daylight Time)","205835","","1332","","","","offer","","<div class='trialBorder'><div class='vertical-center'><img style='vertical-align:center; align:center' src=img/fixation3.jpg></div><div class='cl'><div class='vertical-center'>$13<br>with a<br>50% chance</div></div><div class='cr'><div class='vertical-center'>$6<br>for<br>sure</div></div><div class='respDivL'><div class='vertical-center'>(E)</div></div><div class='respDivR'><div class='vertical-center'>(I)</div></div></div>","E","$6","$13","1","6","13","RISKY"
"html-keyboard-response","90","138025","0.0-5.0-3.28","608d0831835bd8f85ac9237e","bdp_rd","Sat Mar 25 2023 19:14:57 GMT-0400 (Eastern Daylight Time)","205835","","null","","","","offerFB","","<div class='trialBorder'><div class='vertical-center'><img style='vertical-align:center; align:center' src=img/fixation3.jpg></div><div class='cl'><div class='vertical-center'><font style='color:orange'>$13<br>with a<br>50% chance</font></div></div><div class='cr'><div class='vertical-center'>$6<br>for<br>sure</div></div><div class='respDivL'><div class='vertical-center'><font style='color:orange'>(E)</font></div></div><div class='respDivR'><div class='vertical-center'>(I)</div></div></div>","null","$6","$13","1","6","13",""
"html-keyboard-response","91","138528","0.0-5.0-1.29","608d0831835bd8f85ac9237e","bdp_rd","Sat Mar 25 2023 19:14:57 GMT-0400 (Eastern Daylight Time)","205835","","null","","","","FIX","","<div class='trialBorder'><div class='vertical-center'><img style='vertical-align:center; align:center' src=img/fixation3.jpg></div></div>","null","","","","","",""
"html-keyboard-response","92","139524","0.0-5.0-2.29","608d0831835bd8f85ac9237e","bdp_rd","Sat Mar 25 2023 19:14:57 GMT-0400 (Eastern Daylight Time)","205835","","993","","","","offer","","<div class='trialBorder'><div class='vertical-center'><img style='vertical-align:center; align:center' src=img/fixation3.jpg></div><div class='cl'><div class='vertical-center'>$22<br>for<br>sure</div></div><div class='cr'><div class='vertical-center'>$59<br>with a<br>50% chance</div></div><div class='respDivL'><div class='vertical-center'>(E)</div></div><div class='respDivR'><div class='vertical-center'>(I)</div></div></div>","I","$22","$59","0","22","59","RISKY"
"html-keyboard-response","93","139778","0.0-5.0-3.29","608d0831835bd8f85ac9237e","bdp_rd","Sat Mar 25 2023 19:14:57 GMT-0400 (Eastern Daylight Time)","205835","","null","","","","offerFB","","<div class='trialBorder'><div class='vertical-center'><img style='vertical-align:center; align:center' src=img/fixation3.jpg></div><div class='cl'><div class='vertical-center'>$22<br>for<br>sure</div></div><div class='cr'><div class='vertical-center'><font style='color:orange'>$59<br>with a<br>50% chance</font></div></div><div class='respDivL'><div class='vertical-center'>(E)</div></div><div class='respDivR'><div class='vertical-center'><font style='color:orange'>(I)</font></div></div></div>","null","$22","$59","0","22","59",""
"html-keyboard-response","94","140280","0.0-5.0-1.30","608d0831835bd8f85ac9237e","bdp_rd","Sat Mar 25 2023 19:14:57 GMT-0400 (Eastern Daylight Time)","205835","","null","","","","FIX","","<div class='trialBorder'><div class='vertical-center'><img style='vertical-align:center; align:center' src=img/fixation3.jpg></div></div>","null","","","","","",""
"html-keyboard-response","95","141340","0.0-5.0-2.30","608d0831835bd8f85ac9237e","bdp_rd","Sat Mar 25 2023 19:14:57 GMT-0400 (Eastern Daylight Time)","205835","","1058","","","","offer","","<div class='trialBorder'><div class='vertical-center'><img style='vertical-align:center; align:center' src=img/fixation3.jpg></div><div class='cl'><div class='vertical-center'>$32<br>with a<br>50% chance</div></div><div class='cr'><div class='vertical-center'>$9<br>for<br>sure</div></div><div class='respDivL'><div class='vertical-center'>(E)</div></div><div class='respDivR'><div class='vertical-center'>(I)</div></div></div>","E","$9","$32","1","9","32","RISKY"
"html-keyboard-response","96","141592","0.0-5.0-3.30","608d0831835bd8f85ac9237e","bdp_rd","Sat Mar 25 2023 19:14:57 GMT-0400 (Eastern Daylight Time)","205835","","null","","","","offerFB","","<div class='trialBorder'><div class='vertical-center'><img style='vertical-align:center; align:center' src=img/fixation3.jpg></div><div class='cl'><div class='vertical-center'><font style='color:orange'>$32<br>with a<br>50% chance</font></div></div><div class='cr'><div class='vertical-center'>$9<br>for<br>sure</div></div><div class='respDivL'><div class='vertical-center'><font style='color:orange'>(E)</font></div></div><div class='respDivR'><div class='vertical-center'>(I)</div></div></div>","null","$9","$32","1","9","32",""
"html-keyboard-response","97","142095","0.0-5.0-1.31","608d0831835bd8f85ac9237e","bdp_rd","Sat Mar 25 2023 19:14:57 GMT-0400 (Eastern Daylight Time)","205835","","null","","","","FIX","","<div class='trialBorder'><div class='vertical-center'><img style='vertical-align:center; align:center' src=img/fixation3.jpg></div></div>","null","","","","","",""
"html-keyboard-response","98","142692","0.0-5.0-2.31","608d0831835bd8f85ac9237e","bdp_rd","Sat Mar 25 2023 19:14:57 GMT-0400 (Eastern Daylight Time)","205835","","595","","","","offer","","<div class='trialBorder'><div class='vertical-center'><img style='vertical-align:center; align:center' src=img/fixation3.jpg></div><div class='cl'><div class='vertical-center'>$1<br>for<br>sure</div></div><div class='cr'><div class='vertical-center'>$30<br>with a<br>50% chance</div></div><div class='respDivL'><div class='vertical-center'>(E)</div></div><div class='respDivR'><div class='vertical-center'>(I)</div></div></div>","I","$1","$30","0","1","30","RISKY"
"html-keyboard-response","99","142944","0.0-5.0-3.31","608d0831835bd8f85ac9237e","bdp_rd","Sat Mar 25 2023 19:14:57 GMT-0400 (Eastern Daylight Time)","205835","","null","","","","offerFB","","<div class='trialBorder'><div class='vertical-center'><img style='vertical-align:center; align:center' src=img/fixation3.jpg></div><div class='cl'><div class='vertical-center'>$1<br>for<br>sure</div></div><div class='cr'><div class='vertical-center'><font style='color:orange'>$30<br>with a<br>50% chance</font></div></div><div class='respDivL'><div class='vertical-center'>(E)</div></div><div class='respDivR'><div class='vertical-center'><font style='color:orange'>(I)</font></div></div></div>","null","$1","$30","0","1","30",""
"html-keyboard-response","100","143446","0.0-5.0-1.32","608d0831835bd8f85ac9237e","bdp_rd","Sat Mar 25 2023 19:14:57 GMT-0400 (Eastern Daylight Time)","205835","","null","","","","FIX","","<div class='trialBorder'><div class='vertical-center'><img style='vertical-align:center; align:center' src=img/fixation3.jpg></div></div>","null","","","","","",""
"html-keyboard-response","101","144755","0.0-5.0-2.32","608d0831835bd8f85ac9237e","bdp_rd","Sat Mar 25 2023 19:14:57 GMT-0400 (Eastern Daylight Time)","205835","","1307","","","","offer","","<div class='trialBorder'><div class='vertical-center'><img style='vertical-align:center; align:center' src=img/fixation3.jpg></div><div class='cl'><div class='vertical-center'>$19<br>for<br>sure</div></div><div class='cr'><div class='vertical-center'>$51<br>with a<br>50% chance</div></div><div class='respDivL'><div class='vertical-center'>(E)</div></div><div class='respDivR'><div class='vertical-center'>(I)</div></div></div>","I","$19","$51","0","19","51","RISKY"
"html-keyboard-response","102","145007","0.0-5.0-3.32","608d0831835bd8f85ac9237e","bdp_rd","Sat Mar 25 2023 19:14:57 GMT-0400 (Eastern Daylight Time)","205835","","null","","","","offerFB","","<div class='trialBorder'><div class='vertical-center'><img style='vertical-align:center; align:center' src=img/fixation3.jpg></div><div class='cl'><div class='vertical-center'>$19<br>for<br>sure</div></div><div class='cr'><div class='vertical-center'><font style='color:orange'>$51<br>with a<br>50% chance</font></div></div><div class='respDivL'><div class='vertical-center'>(E)</div></div><div class='respDivR'><div class='vertical-center'><font style='color:orange'>(I)</font></div></div></div>","null","$19","$51","0","19","51",""
"html-keyboard-response","103","145509","0.0-5.0-1.33","608d0831835bd8f85ac9237e","bdp_rd","Sat Mar 25 2023 19:14:57 GMT-0400 (Eastern Daylight Time)","205835","","null","","","","FIX","","<div class='trialBorder'><div class='vertical-center'><img style='vertical-align:center; align:center' src=img/fixation3.jpg></div></div>","null","","","","","",""
"html-keyboard-response","104","146381","0.0-5.0-2.33","608d0831835bd8f85ac9237e","bdp_rd","Sat Mar 25 2023 19:14:57 GMT-0400 (Eastern Daylight Time)","205835","","871","","","","offer","","<div class='trialBorder'><div class='vertical-center'><img style='vertical-align:center; align:center' src=img/fixation3.jpg></div><div class='cl'><div class='vertical-center'>$6<br>for<br>sure</div></div><div class='cr'><div class='vertical-center'>$15<br>with a<br>50% chance</div></div><div class='respDivL'><div class='vertical-center'>(E)</div></div><div class='respDivR'><div class='vertical-center'>(I)</div></div></div>","I","$6","$15","0","6","15","RISKY"
"html-keyboard-response","105","146634","0.0-5.0-3.33","608d0831835bd8f85ac9237e","bdp_rd","Sat Mar 25 2023 19:14:57 GMT-0400 (Eastern Daylight Time)","205835","","null","","","","offerFB","","<div class='trialBorder'><div class='vertical-center'><img style='vertical-align:center; align:center' src=img/fixation3.jpg></div><div class='cl'><div class='vertical-center'>$6<br>for<br>sure</div></div><div class='cr'><div class='vertical-center'><font style='color:orange'>$15<br>with a<br>50% chance</font></div></div><div class='respDivL'><div class='vertical-center'>(E)</div></div><div class='respDivR'><div class='vertical-center'><font style='color:orange'>(I)</font></div></div></div>","null","$6","$15","0","6","15",""
"html-keyboard-response","106","147136","0.0-5.0-1.34","608d0831835bd8f85ac9237e","bdp_rd","Sat Mar 25 2023 19:14:57 GMT-0400 (Eastern Daylight Time)","205835","","null","","","","FIX","","<div class='trialBorder'><div class='vertical-center'><img style='vertical-align:center; align:center' src=img/fixation3.jpg></div></div>","null","","","","","",""
"html-keyboard-response","107","147980","0.0-5.0-2.34","608d0831835bd8f85ac9237e","bdp_rd","Sat Mar 25 2023 19:14:57 GMT-0400 (Eastern Daylight Time)","205835","","844","","","","offer","","<div class='trialBorder'><div class='vertical-center'><img style='vertical-align:center; align:center' src=img/fixation3.jpg></div><div class='cl'><div class='vertical-center'>$70<br>with a<br>50% chance</div></div><div class='cr'><div class='vertical-center'>$24<br>for<br>sure</div></div><div class='respDivL'><div class='vertical-center'>(E)</div></div><div class='respDivR'><div class='vertical-center'>(I)</div></div></div>","E","$24","$70","1","24","70","RISKY"
"html-keyboard-response","108","148234","0.0-5.0-3.34","608d0831835bd8f85ac9237e","bdp_rd","Sat Mar 25 2023 19:14:57 GMT-0400 (Eastern Daylight Time)","205835","","null","","","","offerFB","","<div class='trialBorder'><div class='vertical-center'><img style='vertical-align:center; align:center' src=img/fixation3.jpg></div><div class='cl'><div class='vertical-center'><font style='color:orange'>$70<br>with a<br>50% chance</font></div></div><div class='cr'><div class='vertical-center'>$24<br>for<br>sure</div></div><div class='respDivL'><div class='vertical-center'><font style='color:orange'>(E)</font></div></div><div class='respDivR'><div class='vertical-center'>(I)</div></div></div>","null","$24","$70","1","24","70",""
"html-keyboard-response","109","148736","0.0-5.0-1.35","608d0831835bd8f85ac9237e","bdp_rd","Sat Mar 25 2023 19:14:57 GMT-0400 (Eastern Daylight Time)","205835","","null","","","","FIX","","<div class='trialBorder'><div class='vertical-center'><img style='vertical-align:center; align:center' src=img/fixation3.jpg></div></div>","null","","","","","",""
"html-keyboard-response","110","149963","0.0-5.0-2.35","608d0831835bd8f85ac9237e","bdp_rd","Sat Mar 25 2023 19:14:57 GMT-0400 (Eastern Daylight Time)","205835","","1226","","","","offer","","<div class='trialBorder'><div class='vertical-center'><img style='vertical-align:center; align:center' src=img/fixation3.jpg></div><div class='cl'><div class='vertical-center'>$18<br>for<br>sure</div></div><div class='cr'><div class='vertical-center'>$39<br>with a<br>50% chance</div></div><div class='respDivL'><div class='vertical-center'>(E)</div></div><div class='respDivR'><div class='vertical-center'>(I)</div></div></div>","I","$18","$39","0","18","39","RISKY"
"html-keyboard-response","111","150216","0.0-5.0-3.35","608d0831835bd8f85ac9237e","bdp_rd","Sat Mar 25 2023 19:14:57 GMT-0400 (Eastern Daylight Time)","205835","","null","","","","offerFB","","<div class='trialBorder'><div class='vertical-center'><img style='vertical-align:center; align:center' src=img/fixation3.jpg></div><div class='cl'><div class='vertical-center'>$18<br>for<br>sure</div></div><div class='cr'><div class='vertical-center'><font style='color:orange'>$39<br>with a<br>50% chance</font></div></div><div class='respDivL'><div class='vertical-center'>(E)</div></div><div class='respDivR'><div class='vertical-center'><font style='color:orange'>(I)</font></div></div></div>","null","$18","$39","0","18","39",""
"html-keyboard-response","112","150717","0.0-5.0-1.36","608d0831835bd8f85ac9237e","bdp_rd","Sat Mar 25 2023 19:14:57 GMT-0400 (Eastern Daylight Time)","205835","","null","","","","FIX","","<div class='trialBorder'><div class='vertical-center'><img style='vertical-align:center; align:center' src=img/fixation3.jpg></div></div>","null","","","","","",""
"html-keyboard-response","113","152252","0.0-5.0-2.36","608d0831835bd8f85ac9237e","bdp_rd","Sat Mar 25 2023 19:14:57 GMT-0400 (Eastern Daylight Time)","205835","","1534","","","","offer","","<div class='trialBorder'><div class='vertical-center'><img style='vertical-align:center; align:center' src=img/fixation3.jpg></div><div class='cl'><div class='vertical-center'>$15<br>for<br>sure</div></div><div class='cr'><div class='vertical-center'>$34<br>with a<br>50% chance</div></div><div class='respDivL'><div class='vertical-center'>(E)</div></div><div class='respDivR'><div class='vertical-center'>(I)</div></div></div>","I","$15","$34","0","15","34","RISKY"
"html-keyboard-response","114","152505","0.0-5.0-3.36","608d0831835bd8f85ac9237e","bdp_rd","Sat Mar 25 2023 19:14:57 GMT-0400 (Eastern Daylight Time)","205835","","null","","","","offerFB","","<div class='trialBorder'><div class='vertical-center'><img style='vertical-align:center; align:center' src=img/fixation3.jpg></div><div class='cl'><div class='vertical-center'>$15<br>for<br>sure</div></div><div class='cr'><div class='vertical-center'><font style='color:orange'>$34<br>with a<br>50% chance</font></div></div><div class='respDivL'><div class='vertical-center'>(E)</div></div><div class='respDivR'><div class='vertical-center'><font style='color:orange'>(I)</font></div></div></div>","null","$15","$34","0","15","34",""
"html-keyboard-response","115","153008","0.0-5.0-1.37","608d0831835bd8f85ac9237e","bdp_rd","Sat Mar 25 2023 19:14:57 GMT-0400 (Eastern Daylight Time)","205835","","null","","","","FIX","","<div class='trialBorder'><div class='vertical-center'><img style='vertical-align:center; align:center' src=img/fixation3.jpg></div></div>","null","","","","","",""
"html-keyboard-response","116","156084","0.0-5.0-2.37","608d0831835bd8f85ac9237e","bdp_rd","Sat Mar 25 2023 19:14:57 GMT-0400 (Eastern Daylight Time)","205835","","3075","","","","offer","","<div class='trialBorder'><div class='vertical-center'><img style='vertical-align:center; align:center' src=img/fixation3.jpg></div><div class='cl'><div class='vertical-center'>$36<br>with a<br>50% chance</div></div><div class='cr'><div class='vertical-center'>$18<br>for<br>sure</div></div><div class='respDivL'><div class='vertical-center'>(E)</div></div><div class='respDivR'><div class='vertical-center'>(I)</div></div></div>","E","$18","$36","1","18","36","RISKY"
"html-keyboard-response","117","156336","0.0-5.0-3.37","608d0831835bd8f85ac9237e","bdp_rd","Sat Mar 25 2023 19:14:57 GMT-0400 (Eastern Daylight Time)","205835","","null","","","","offerFB","","<div class='trialBorder'><div class='vertical-center'><img style='vertical-align:center; align:center' src=img/fixation3.jpg></div><div class='cl'><div class='vertical-center'><font style='color:orange'>$36<br>with a<br>50% chance</font></div></div><div class='cr'><div class='vertical-center'>$18<br>for<br>sure</div></div><div class='respDivL'><div class='vertical-center'><font style='color:orange'>(E)</font></div></div><div class='respDivR'><div class='vertical-center'>(I)</div></div></div>","null","$18","$36","1","18","36",""
"html-keyboard-response","118","156838","0.0-5.0-1.38","608d0831835bd8f85ac9237e","bdp_rd","Sat Mar 25 2023 19:14:57 GMT-0400 (Eastern Daylight Time)","205835","","null","","","","FIX","","<div class='trialBorder'><div class='vertical-center'><img style='vertical-align:center; align:center' src=img/fixation3.jpg></div></div>","null","","","","","",""
"html-keyboard-response","119","158005","0.0-5.0-2.38","608d0831835bd8f85ac9237e","bdp_rd","Sat Mar 25 2023 19:14:57 GMT-0400 (Eastern Daylight Time)","205835","","1166","","","","offer","","<div class='trialBorder'><div class='vertical-center'><img style='vertical-align:center; align:center' src=img/fixation3.jpg></div><div class='cl'><div class='vertical-center'>$39<br>for<br>sure</div></div><div class='cr'><div class='vertical-center'>$81<br>with a<br>50% chance</div></div><div class='respDivL'><div class='vertical-center'>(E)</div></div><div class='respDivR'><div class='vertical-center'>(I)</div></div></div>","I","$39","$81","0","39","81","RISKY"
"html-keyboard-response","120","158257","0.0-5.0-3.38","608d0831835bd8f85ac9237e","bdp_rd","Sat Mar 25 2023 19:14:57 GMT-0400 (Eastern Daylight Time)","205835","","null","","","","offerFB","","<div class='trialBorder'><div class='vertical-center'><img style='vertical-align:center; align:center' src=img/fixation3.jpg></div><div class='cl'><div class='vertical-center'>$39<br>for<br>sure</div></div><div class='cr'><div class='vertical-center'><font style='color:orange'>$81<br>with a<br>50% chance</font></div></div><div class='respDivL'><div class='vertical-center'>(E)</div></div><div class='respDivR'><div class='vertical-center'><font style='color:orange'>(I)</font></div></div></div>","null","$39","$81","0","39","81",""
"html-keyboard-response","121","158759","0.0-5.0-1.39","608d0831835bd8f85ac9237e","bdp_rd","Sat Mar 25 2023 19:14:57 GMT-0400 (Eastern Daylight Time)","205835","","null","","","","FIX","","<div class='trialBorder'><div class='vertical-center'><img style='vertical-align:center; align:center' src=img/fixation3.jpg></div></div>","null","","","","","",""
"html-keyboard-response","122","159780","0.0-5.0-2.39","608d0831835bd8f85ac9237e","bdp_rd","Sat Mar 25 2023 19:14:57 GMT-0400 (Eastern Daylight Time)","205835","","1020","","","","offer","","<div class='trialBorder'><div class='vertical-center'><img style='vertical-align:center; align:center' src=img/fixation3.jpg></div><div class='cl'><div class='vertical-center'>$89<br>with a<br>50% chance</div></div><div class='cr'><div class='vertical-center'>$28<br>for<br>sure</div></div><div class='respDivL'><div class='vertical-center'>(E)</div></div><div class='respDivR'><div class='vertical-center'>(I)</div></div></div>","E","$28","$89","1","28","89","RISKY"
"html-keyboard-response","123","160033","0.0-5.0-3.39","608d0831835bd8f85ac9237e","bdp_rd","Sat Mar 25 2023 19:14:57 GMT-0400 (Eastern Daylight Time)","205835","","null","","","","offerFB","","<div class='trialBorder'><div class='vertical-center'><img style='vertical-align:center; align:center' src=img/fixation3.jpg></div><div class='cl'><div class='vertical-center'><font style='color:orange'>$89<br>with a<br>50% chance</font></div></div><div class='cr'><div class='vertical-center'>$28<br>for<br>sure</div></div><div class='respDivL'><div class='vertical-center'><font style='color:orange'>(E)</font></div></div><div class='respDivR'><div class='vertical-center'>(I)</div></div></div>","null","$28","$89","1","28","89",""
"html-keyboard-response","124","160536","0.0-5.0-1.40","608d0831835bd8f85ac9237e","bdp_rd","Sat Mar 25 2023 19:14:57 GMT-0400 (Eastern Daylight Time)","205835","","null","","","","FIX","","<div class='trialBorder'><div class='vertical-center'><img style='vertical-align:center; align:center' src=img/fixation3.jpg></div></div>","null","","","","","",""
"html-keyboard-response","125","161124","0.0-5.0-2.40","608d0831835bd8f85ac9237e","bdp_rd","Sat Mar 25 2023 19:14:57 GMT-0400 (Eastern Daylight Time)","205835","","587","","","","offer","","<div class='trialBorder'><div class='vertical-center'><img style='vertical-align:center; align:center' src=img/fixation3.jpg></div><div class='cl'><div class='vertical-center'>$8<br>for<br>sure</div></div><div class='cr'><div class='vertical-center'>$23<br>with a<br>50% chance</div></div><div class='respDivL'><div class='vertical-center'>(E)</div></div><div class='respDivR'><div class='vertical-center'>(I)</div></div></div>","I","$8","$23","0","8","23","RISKY"
"html-keyboard-response","126","161376","0.0-5.0-3.40","608d0831835bd8f85ac9237e","bdp_rd","Sat Mar 25 2023 19:14:57 GMT-0400 (Eastern Daylight Time)","205835","","null","","","","offerFB","","<div class='trialBorder'><div class='vertical-center'><img style='vertical-align:center; align:center' src=img/fixation3.jpg></div><div class='cl'><div class='vertical-center'>$8<br>for<br>sure</div></div><div class='cr'><div class='vertical-center'><font style='color:orange'>$23<br>with a<br>50% chance</font></div></div><div class='respDivL'><div class='vertical-center'>(E)</div></div><div class='respDivR'><div class='vertical-center'><font style='color:orange'>(I)</font></div></div></div>","null","$8","$23","0","8","23",""
"html-keyboard-response","127","161879","0.0-5.0-1.41","608d0831835bd8f85ac9237e","bdp_rd","Sat Mar 25 2023 19:14:57 GMT-0400 (Eastern Daylight Time)","205835","","null","","","","FIX","","<div class='trialBorder'><div class='vertical-center'><img style='vertical-align:center; align:center' src=img/fixation3.jpg></div></div>","null","","","","","",""
"html-keyboard-response","128","164253","0.0-5.0-2.41","608d0831835bd8f85ac9237e","bdp_rd","Sat Mar 25 2023 19:14:57 GMT-0400 (Eastern Daylight Time)","205835","","2372","","","","offer","","<div class='trialBorder'><div class='vertical-center'><img style='vertical-align:center; align:center' src=img/fixation3.jpg></div><div class='cl'><div class='vertical-center'>$31<br>with a<br>50% chance</div></div><div class='cr'><div class='vertical-center'>$15<br>for<br>sure</div></div><div class='respDivL'><div class='vertical-center'>(E)</div></div><div class='respDivR'><div class='vertical-center'>(I)</div></div></div>","E","$15","$31","1","15","31","RISKY"
"html-keyboard-response","129","164504","0.0-5.0-3.41","608d0831835bd8f85ac9237e","bdp_rd","Sat Mar 25 2023 19:14:57 GMT-0400 (Eastern Daylight Time)","205835","","null","","","","offerFB","","<div class='trialBorder'><div class='vertical-center'><img style='vertical-align:center; align:center' src=img/fixation3.jpg></div><div class='cl'><div class='vertical-center'><font style='color:orange'>$31<br>with a<br>50% chance</font></div></div><div class='cr'><div class='vertical-center'>$15<br>for<br>sure</div></div><div class='respDivL'><div class='vertical-center'><font style='color:orange'>(E)</font></div></div><div class='respDivR'><div class='vertical-center'>(I)</div></div></div>","null","$15","$31","1","15","31",""
"html-keyboard-response","130","165006","0.0-5.0-1.42","608d0831835bd8f85ac9237e","bdp_rd","Sat Mar 25 2023 19:14:57 GMT-0400 (Eastern Daylight Time)","205835","","null","","","","FIX","","<div class='trialBorder'><div class='vertical-center'><img style='vertical-align:center; align:center' src=img/fixation3.jpg></div></div>","null","","","","","",""
"html-keyboard-response","131","166372","0.0-5.0-2.42","608d0831835bd8f85ac9237e","bdp_rd","Sat Mar 25 2023 19:14:57 GMT-0400 (Eastern Daylight Time)","205835","","1364","","","","offer","","<div class='trialBorder'><div class='vertical-center'><img style='vertical-align:center; align:center' src=img/fixation3.jpg></div><div class='cl'><div class='vertical-center'>$25<br>for<br>sure</div></div><div class='cr'><div class='vertical-center'>$54<br>with a<br>50% chance</div></div><div class='respDivL'><div class='vertical-center'>(E)</div></div><div class='respDivR'><div class='vertical-center'>(I)</div></div></div>","I","$25","$54","0","25","54","RISKY"
"html-keyboard-response","132","166624","0.0-5.0-3.42","608d0831835bd8f85ac9237e","bdp_rd","Sat Mar 25 2023 19:14:57 GMT-0400 (Eastern Daylight Time)","205835","","null","","","","offerFB","","<div class='trialBorder'><div class='vertical-center'><img style='vertical-align:center; align:center' src=img/fixation3.jpg></div><div class='cl'><div class='vertical-center'>$25<br>for<br>sure</div></div><div class='cr'><div class='vertical-center'><font style='color:orange'>$54<br>with a<br>50% chance</font></div></div><div class='respDivL'><div class='vertical-center'>(E)</div></div><div class='respDivR'><div class='vertical-center'><font style='color:orange'>(I)</font></div></div></div>","null","$25","$54","0","25","54",""
"html-keyboard-response","133","167126","0.0-5.0-1.43","608d0831835bd8f85ac9237e","bdp_rd","Sat Mar 25 2023 19:14:57 GMT-0400 (Eastern Daylight Time)","205835","","null","","","","FIX","","<div class='trialBorder'><div class='vertical-center'><img style='vertical-align:center; align:center' src=img/fixation3.jpg></div></div>","null","","","","","",""
"html-keyboard-response","134","167844","0.0-5.0-2.43","608d0831835bd8f85ac9237e","bdp_rd","Sat Mar 25 2023 19:14:57 GMT-0400 (Eastern Daylight Time)","205835","","718","","","","offer","","<div class='trialBorder'><div class='vertical-center'><img style='vertical-align:center; align:center' src=img/fixation3.jpg></div><div class='cl'><div class='vertical-center'>$7<br>for<br>sure</div></div><div class='cr'><div class='vertical-center'>$71<br>with a<br>50% chance</div></div><div class='respDivL'><div class='vertical-center'>(E)</div></div><div class='respDivR'><div class='vertical-center'>(I)</div></div></div>","I","$7","$71","0","7","71","RISKY"
"html-keyboard-response","135","168098","0.0-5.0-3.43","608d0831835bd8f85ac9237e","bdp_rd","Sat Mar 25 2023 19:14:57 GMT-0400 (Eastern Daylight Time)","205835","","null","","","","offerFB","","<div class='trialBorder'><div class='vertical-center'><img style='vertical-align:center; align:center' src=img/fixation3.jpg></div><div class='cl'><div class='vertical-center'>$7<br>for<br>sure</div></div><div class='cr'><div class='vertical-center'><font style='color:orange'>$71<br>with a<br>50% chance</font></div></div><div class='respDivL'><div class='vertical-center'>(E)</div></div><div class='respDivR'><div class='vertical-center'><font style='color:orange'>(I)</font></div></div></div>","null","$7","$71","0","7","71",""
"html-keyboard-response","136","168600","0.0-5.0-1.44","608d0831835bd8f85ac9237e","bdp_rd","Sat Mar 25 2023 19:14:57 GMT-0400 (Eastern Daylight Time)","205835","","null","","","","FIX","","<div class='trialBorder'><div class='vertical-center'><img style='vertical-align:center; align:center' src=img/fixation3.jpg></div></div>","null","","","","","",""
"html-keyboard-response","137","169454","0.0-5.0-2.44","608d0831835bd8f85ac9237e","bdp_rd","Sat Mar 25 2023 19:14:57 GMT-0400 (Eastern Daylight Time)","205835","","852","","","","offer","","<div class='trialBorder'><div class='vertical-center'><img style='vertical-align:center; align:center' src=img/fixation3.jpg></div><div class='cl'><div class='vertical-center'>$8<br>for<br>sure</div></div><div class='cr'><div class='vertical-center'>$45<br>with a<br>50% chance</div></div><div class='respDivL'><div class='vertical-center'>(E)</div></div><div class='respDivR'><div class='vertical-center'>(I)</div></div></div>","I","$8","$45","0","8","45","RISKY"
"html-keyboard-response","138","169707","0.0-5.0-3.44","608d0831835bd8f85ac9237e","bdp_rd","Sat Mar 25 2023 19:14:57 GMT-0400 (Eastern Daylight Time)","205835","","null","","","","offerFB","","<div class='trialBorder'><div class='vertical-center'><img style='vertical-align:center; align:center' src=img/fixation3.jpg></div><div class='cl'><div class='vertical-center'>$8<br>for<br>sure</div></div><div class='cr'><div class='vertical-center'><font style='color:orange'>$45<br>with a<br>50% chance</font></div></div><div class='respDivL'><div class='vertical-center'>(E)</div></div><div class='respDivR'><div class='vertical-center'><font style='color:orange'>(I)</font></div></div></div>","null","$8","$45","0","8","45",""
"html-keyboard-response","139","170209","0.0-5.0-1.45","608d0831835bd8f85ac9237e","bdp_rd","Sat Mar 25 2023 19:14:57 GMT-0400 (Eastern Daylight Time)","205835","","null","","","","FIX","","<div class='trialBorder'><div class='vertical-center'><img style='vertical-align:center; align:center' src=img/fixation3.jpg></div></div>","null","","","","","",""
"html-keyboard-response","140","172796","0.0-5.0-2.45","608d0831835bd8f85ac9237e","bdp_rd","Sat Mar 25 2023 19:14:57 GMT-0400 (Eastern Daylight Time)","205835","","2586","","","","offer","","<div class='trialBorder'><div class='vertical-center'><img style='vertical-align:center; align:center' src=img/fixation3.jpg></div><div class='cl'><div class='vertical-center'>$48<br>with a<br>50% chance</div></div><div class='cr'><div class='vertical-center'>$34<br>for<br>sure</div></div><div class='respDivL'><div class='vertical-center'>(E)</div></div><div class='respDivR'><div class='vertical-center'>(I)</div></div></div>","I","$34","$48","1","34","48","SURE"
"html-keyboard-response","141","173049","0.0-5.0-3.45","608d0831835bd8f85ac9237e","bdp_rd","Sat Mar 25 2023 19:14:57 GMT-0400 (Eastern Daylight Time)","205835","","null","","","","offerFB","","<div class='trialBorder'><div class='vertical-center'><img style='vertical-align:center; align:center' src=img/fixation3.jpg></div><div class='cl'><div class='vertical-center'>$48<br>with a<br>50% chance</div></div><div class='cr'><div class='vertical-center'><font style='color:orange'>$34<br>for<br>sure</font></div></div><div class='respDivL'><div class='vertical-center'>(E)</div></div><div class='respDivR'><div class='vertical-center'><font style='color:orange'>(I)</font></div></div></div>","null","$34","$48","1","34","48",""
"html-keyboard-response","142","173552","0.0-5.0-1.46","608d0831835bd8f85ac9237e","bdp_rd","Sat Mar 25 2023 19:14:57 GMT-0400 (Eastern Daylight Time)","205835","","null","","","","FIX","","<div class='trialBorder'><div class='vertical-center'><img style='vertical-align:center; align:center' src=img/fixation3.jpg></div></div>","null","","","","","",""
"html-keyboard-response","143","174581","0.0-5.0-2.46","608d0831835bd8f85ac9237e","bdp_rd","Sat Mar 25 2023 19:14:57 GMT-0400 (Eastern Daylight Time)","205835","","1027","","","","offer","","<div class='trialBorder'><div class='vertical-center'><img style='vertical-align:center; align:center' src=img/fixation3.jpg></div><div class='cl'><div class='vertical-center'>$50<br>with a<br>50% chance</div></div><div class='cr'><div class='vertical-center'>$5<br>for<br>sure</div></div><div class='respDivL'><div class='vertical-center'>(E)</div></div><div class='respDivR'><div class='vertical-center'>(I)</div></div></div>","E","$5","$50","1","5","50","RISKY"
"html-keyboard-response","144","174834","0.0-5.0-3.46","608d0831835bd8f85ac9237e","bdp_rd","Sat Mar 25 2023 19:14:57 GMT-0400 (Eastern Daylight Time)","205835","","null","","","","offerFB","","<div class='trialBorder'><div class='vertical-center'><img style='vertical-align:center; align:center' src=img/fixation3.jpg></div><div class='cl'><div class='vertical-center'><font style='color:orange'>$50<br>with a<br>50% chance</font></div></div><div class='cr'><div class='vertical-center'>$5<br>for<br>sure</div></div><div class='respDivL'><div class='vertical-center'><font style='color:orange'>(E)</font></div></div><div class='respDivR'><div class='vertical-center'>(I)</div></div></div>","null","$5","$50","1","5","50",""
"html-keyboard-response","145","175336","0.0-5.0-1.47","608d0831835bd8f85ac9237e","bdp_rd","Sat Mar 25 2023 19:14:57 GMT-0400 (Eastern Daylight Time)","205835","","null","","","","FIX","","<div class='trialBorder'><div class='vertical-center'><img style='vertical-align:center; align:center' src=img/fixation3.jpg></div></div>","null","","","","","",""
"html-keyboard-response","146","177085","0.0-5.0-2.47","608d0831835bd8f85ac9237e","bdp_rd","Sat Mar 25 2023 19:14:57 GMT-0400 (Eastern Daylight Time)","205835","","1748","","","","offer","","<div class='trialBorder'><div class='vertical-center'><img style='vertical-align:center; align:center' src=img/fixation3.jpg></div><div class='cl'><div class='vertical-center'>$45<br>for<br>sure</div></div><div class='cr'><div class='vertical-center'>$86<br>with a<br>50% chance</div></div><div class='respDivL'><div class='vertical-center'>(E)</div></div><div class='respDivR'><div class='vertical-center'>(I)</div></div></div>","E","$45","$86","0","45","86","SURE"
"html-keyboard-response","147","177337","0.0-5.0-3.47","608d0831835bd8f85ac9237e","bdp_rd","Sat Mar 25 2023 19:14:57 GMT-0400 (Eastern Daylight Time)","205835","","null","","","","offerFB","","<div class='trialBorder'><div class='vertical-center'><img style='vertical-align:center; align:center' src=img/fixation3.jpg></div><div class='cl'><div class='vertical-center'><font style='color:orange'>$45<br>for<br>sure</font></div></div><div class='cr'><div class='vertical-center'>$86<br>with a<br>50% chance</div></div><div class='respDivL'><div class='vertical-center'><font style='color:orange'>(E)</font></div></div><div class='respDivR'><div class='vertical-center'>(I)</div></div></div>","null","$45","$86","0","45","86",""
"html-keyboard-response","148","177839","0.0-5.0-1.48","608d0831835bd8f85ac9237e","bdp_rd","Sat Mar 25 2023 19:14:57 GMT-0400 (Eastern Daylight Time)","205835","","null","","","","FIX","","<div class='trialBorder'><div class='vertical-center'><img style='vertical-align:center; align:center' src=img/fixation3.jpg></div></div>","null","","","","","",""
"html-keyboard-response","149","179477","0.0-5.0-2.48","608d0831835bd8f85ac9237e","bdp_rd","Sat Mar 25 2023 19:14:57 GMT-0400 (Eastern Daylight Time)","205835","","1636","","","","offer","","<div class='trialBorder'><div class='vertical-center'><img style='vertical-align:center; align:center' src=img/fixation3.jpg></div><div class='cl'><div class='vertical-center'>$35<br>with a<br>50% chance</div></div><div class='cr'><div class='vertical-center'>$12<br>for<br>sure</div></div><div class='respDivL'><div class='vertical-center'>(E)</div></div><div class='respDivR'><div class='vertical-center'>(I)</div></div></div>","E","$12","$35","1","12","35","RISKY"
"html-keyboard-response","150","179729","0.0-5.0-3.48","608d0831835bd8f85ac9237e","bdp_rd","Sat Mar 25 2023 19:14:57 GMT-0400 (Eastern Daylight Time)","205835","","null","","","","offerFB","","<div class='trialBorder'><div class='vertical-center'><img style='vertical-align:center; align:center' src=img/fixation3.jpg></div><div class='cl'><div class='vertical-center'><font style='color:orange'>$35<br>with a<br>50% chance</font></div></div><div class='cr'><div class='vertical-center'>$12<br>for<br>sure</div></div><div class='respDivL'><div class='vertical-center'><font style='color:orange'>(E)</font></div></div><div class='respDivR'><div class='vertical-center'>(I)</div></div></div>","null","$12","$35","1","12","35",""
"html-keyboard-response","151","180231","0.0-5.0-1.49","608d0831835bd8f85ac9237e","bdp_rd","Sat Mar 25 2023 19:14:57 GMT-0400 (Eastern Daylight Time)","205835","","null","","","","FIX","","<div class='trialBorder'><div class='vertical-center'><img style='vertical-align:center; align:center' src=img/fixation3.jpg></div></div>","null","","","","","",""
"html-keyboard-response","152","181053","0.0-5.0-2.49","608d0831835bd8f85ac9237e","bdp_rd","Sat Mar 25 2023 19:14:57 GMT-0400 (Eastern Daylight Time)","205835","","820","","","","offer","","<div class='trialBorder'><div class='vertical-center'><img style='vertical-align:center; align:center' src=img/fixation3.jpg></div><div class='cl'><div class='vertical-center'>$22<br>with a<br>50% chance</div></div><div class='cr'><div class='vertical-center'>$14<br>for<br>sure</div></div><div class='respDivL'><div class='vertical-center'>(E)</div></div><div class='respDivR'><div class='vertical-center'>(I)</div></div></div>","E","$14","$22","1","14","22","RISKY"
"html-keyboard-response","153","181305","0.0-5.0-3.49","608d0831835bd8f85ac9237e","bdp_rd","Sat Mar 25 2023 19:14:57 GMT-0400 (Eastern Daylight Time)","205835","","null","","","","offerFB","","<div class='trialBorder'><div class='vertical-center'><img style='vertical-align:center; align:center' src=img/fixation3.jpg></div><div class='cl'><div class='vertical-center'><font style='color:orange'>$22<br>with a<br>50% chance</font></div></div><div class='cr'><div class='vertical-center'>$14<br>for<br>sure</div></div><div class='respDivL'><div class='vertical-center'><font style='color:orange'>(E)</font></div></div><div class='respDivR'><div class='vertical-center'>(I)</div></div></div>","null","$14","$22","1","14","22",""
"html-keyboard-response","154","181807","0.0-5.0-1.50","608d0831835bd8f85ac9237e","bdp_rd","Sat Mar 25 2023 19:14:57 GMT-0400 (Eastern Daylight Time)","205835","","null","","","","FIX","","<div class='trialBorder'><div class='vertical-center'><img style='vertical-align:center; align:center' src=img/fixation3.jpg></div></div>","null","","","","","",""
"html-keyboard-response","155","182604","0.0-5.0-2.50","608d0831835bd8f85ac9237e","bdp_rd","Sat Mar 25 2023 19:14:57 GMT-0400 (Eastern Daylight Time)","205835","","795","","","","offer","","<div class='trialBorder'><div class='vertical-center'><img style='vertical-align:center; align:center' src=img/fixation3.jpg></div><div class='cl'><div class='vertical-center'>$2<br>for<br>sure</div></div><div class='cr'><div class='vertical-center'>$64<br>with a<br>50% chance</div></div><div class='respDivL'><div class='vertical-center'>(E)</div></div><div class='respDivR'><div class='vertical-center'>(I)</div></div></div>","I","$2","$64","0","2","64","RISKY"
"html-keyboard-response","156","182856","0.0-5.0-3.50","608d0831835bd8f85ac9237e","bdp_rd","Sat Mar 25 2023 19:14:57 GMT-0400 (Eastern Daylight Time)","205835","","null","","","","offerFB","","<div class='trialBorder'><div class='vertical-center'><img style='vertical-align:center; align:center' src=img/fixation3.jpg></div><div class='cl'><div class='vertical-center'>$2<br>for<br>sure</div></div><div class='cr'><div class='vertical-center'><font style='color:orange'>$64<br>with a<br>50% chance</font></div></div><div class='respDivL'><div class='vertical-center'>(E)</div></div><div class='respDivR'><div class='vertical-center'><font style='color:orange'>(I)</font></div></div></div>","null","$2","$64","0","2","64",""
"html-keyboard-response","157","183358","0.0-5.0-1.51","608d0831835bd8f85ac9237e","bdp_rd","Sat Mar 25 2023 19:14:57 GMT-0400 (Eastern Daylight Time)","205835","","null","","","","FIX","","<div class='trialBorder'><div class='vertical-center'><img style='vertical-align:center; align:center' src=img/fixation3.jpg></div></div>","null","","","","","",""
"html-keyboard-response","158","185131","0.0-5.0-2.51","608d0831835bd8f85ac9237e","bdp_rd","Sat Mar 25 2023 19:14:57 GMT-0400 (Eastern Daylight Time)","205835","","1772","","","","offer","","<div class='trialBorder'><div class='vertical-center'><img style='vertical-align:center; align:center' src=img/fixation3.jpg></div><div class='cl'><div class='vertical-center'>$21<br>for<br>sure</div></div><div class='cr'><div class='vertical-center'>$25<br>with a<br>50% chance</div></div><div class='respDivL'><div class='vertical-center'>(E)</div></div><div class='respDivR'><div class='vertical-center'>(I)</div></div></div>","E","$21","$25","0","21","25","SURE"
"html-keyboard-response","159","185383","0.0-5.0-3.51","608d0831835bd8f85ac9237e","bdp_rd","Sat Mar 25 2023 19:14:57 GMT-0400 (Eastern Daylight Time)","205835","","null","","","","offerFB","","<div class='trialBorder'><div class='vertical-center'><img style='vertical-align:center; align:center' src=img/fixation3.jpg></div><div class='cl'><div class='vertical-center'><font style='color:orange'>$21<br>for<br>sure</font></div></div><div class='cr'><div class='vertical-center'>$25<br>with a<br>50% chance</div></div><div class='respDivL'><div class='vertical-center'><font style='color:orange'>(E)</font></div></div><div class='respDivR'><div class='vertical-center'>(I)</div></div></div>","null","$21","$25","0","21","25",""
"html-keyboard-response","160","185885","0.0-5.0-1.52","608d0831835bd8f85ac9237e","bdp_rd","Sat Mar 25 2023 19:14:57 GMT-0400 (Eastern Daylight Time)","205835","","null","","","","FIX","","<div class='trialBorder'><div class='vertical-center'><img style='vertical-align:center; align:center' src=img/fixation3.jpg></div></div>","null","","","","","",""
"html-keyboard-response","161","187163","0.0-5.0-2.52","608d0831835bd8f85ac9237e","bdp_rd","Sat Mar 25 2023 19:14:57 GMT-0400 (Eastern Daylight Time)","205835","","1277","","","","offer","","<div class='trialBorder'><div class='vertical-center'><img style='vertical-align:center; align:center' src=img/fixation3.jpg></div><div class='cl'><div class='vertical-center'>$58<br>for<br>sure</div></div><div class='cr'><div class='vertical-center'>$69<br>with a<br>50% chance</div></div><div class='respDivL'><div class='vertical-center'>(E)</div></div><div class='respDivR'><div class='vertical-center'>(I)</div></div></div>","E","$58","$69","0","58","69","SURE"
"html-keyboard-response","162","187415","0.0-5.0-3.52","608d0831835bd8f85ac9237e","bdp_rd","Sat Mar 25 2023 19:14:57 GMT-0400 (Eastern Daylight Time)","205835","","null","","","","offerFB","","<div class='trialBorder'><div class='vertical-center'><img style='vertical-align:center; align:center' src=img/fixation3.jpg></div><div class='cl'><div class='vertical-center'><font style='color:orange'>$58<br>for<br>sure</font></div></div><div class='cr'><div class='vertical-center'>$69<br>with a<br>50% chance</div></div><div class='respDivL'><div class='vertical-center'><font style='color:orange'>(E)</font></div></div><div class='respDivR'><div class='vertical-center'>(I)</div></div></div>","null","$58","$69","0","58","69",""
"html-keyboard-response","163","187916","0.0-5.0-1.53","608d0831835bd8f85ac9237e","bdp_rd","Sat Mar 25 2023 19:14:57 GMT-0400 (Eastern Daylight Time)","205835","","null","","","","FIX","","<div class='trialBorder'><div class='vertical-center'><img style='vertical-align:center; align:center' src=img/fixation3.jpg></div></div>","null","","","","","",""
"html-keyboard-response","164","189557","0.0-5.0-2.53","608d0831835bd8f85ac9237e","bdp_rd","Sat Mar 25 2023 19:14:57 GMT-0400 (Eastern Daylight Time)","205835","","1640","","","","offer","","<div class='trialBorder'><div class='vertical-center'><img style='vertical-align:center; align:center' src=img/fixation3.jpg></div><div class='cl'><div class='vertical-center'>$10<br>for<br>sure</div></div><div class='cr'><div class='vertical-center'>$40<br>with a<br>50% chance</div></div><div class='respDivL'><div class='vertical-center'>(E)</div></div><div class='respDivR'><div class='vertical-center'>(I)</div></div></div>","I","$10","$40","0","10","40","RISKY"
"html-keyboard-response","165","189809","0.0-5.0-3.53","608d0831835bd8f85ac9237e","bdp_rd","Sat Mar 25 2023 19:14:57 GMT-0400 (Eastern Daylight Time)","205835","","null","","","","offerFB","","<div class='trialBorder'><div class='vertical-center'><img style='vertical-align:center; align:center' src=img/fixation3.jpg></div><div class='cl'><div class='vertical-center'>$10<br>for<br>sure</div></div><div class='cr'><div class='vertical-center'><font style='color:orange'>$40<br>with a<br>50% chance</font></div></div><div class='respDivL'><div class='vertical-center'>(E)</div></div><div class='respDivR'><div class='vertical-center'><font style='color:orange'>(I)</font></div></div></div>","null","$10","$40","0","10","40",""
"html-keyboard-response","166","190311","0.0-5.0-1.54","608d0831835bd8f85ac9237e","bdp_rd","Sat Mar 25 2023 19:14:57 GMT-0400 (Eastern Daylight Time)","205835","","null","","","","FIX","","<div class='trialBorder'><div class='vertical-center'><img style='vertical-align:center; align:center' src=img/fixation3.jpg></div></div>","null","","","","","",""
"html-keyboard-response","167","191004","0.0-5.0-2.54","608d0831835bd8f85ac9237e","bdp_rd","Sat Mar 25 2023 19:14:57 GMT-0400 (Eastern Daylight Time)","205835","","692","","","","offer","","<div class='trialBorder'><div class='vertical-center'><img style='vertical-align:center; align:center' src=img/fixation3.jpg></div><div class='cl'><div class='vertical-center'>$33<br>with a<br>50% chance</div></div><div class='cr'><div class='vertical-center'>$1<br>for<br>sure</div></div><div class='respDivL'><div class='vertical-center'>(E)</div></div><div class='respDivR'><div class='vertical-center'>(I)</div></div></div>","E","$1","$33","1","1","33","RISKY"
"html-keyboard-response","168","191257","0.0-5.0-3.54","608d0831835bd8f85ac9237e","bdp_rd","Sat Mar 25 2023 19:14:57 GMT-0400 (Eastern Daylight Time)","205835","","null","","","","offerFB","","<div class='trialBorder'><div class='vertical-center'><img style='vertical-align:center; align:center' src=img/fixation3.jpg></div><div class='cl'><div class='vertical-center'><font style='color:orange'>$33<br>with a<br>50% chance</font></div></div><div class='cr'><div class='vertical-center'>$1<br>for<br>sure</div></div><div class='respDivL'><div class='vertical-center'><font style='color:orange'>(E)</font></div></div><div class='respDivR'><div class='vertical-center'>(I)</div></div></div>","null","$1","$33","1","1","33",""
"html-keyboard-response","169","191758","0.0-5.0-1.55","608d0831835bd8f85ac9237e","bdp_rd","Sat Mar 25 2023 19:14:57 GMT-0400 (Eastern Daylight Time)","205835","","null","","","","FIX","","<div class='trialBorder'><div class='vertical-center'><img style='vertical-align:center; align:center' src=img/fixation3.jpg></div></div>","null","","","","","",""
"html-keyboard-response","170","192701","0.0-5.0-2.55","608d0831835bd8f85ac9237e","bdp_rd","Sat Mar 25 2023 19:14:57 GMT-0400 (Eastern Daylight Time)","205835","","941","","","","offer","","<div class='trialBorder'><div class='vertical-center'><img style='vertical-align:center; align:center' src=img/fixation3.jpg></div><div class='cl'><div class='vertical-center'>$12<br>for<br>sure</div></div><div class='cr'><div class='vertical-center'>$27<br>with a<br>50% chance</div></div><div class='respDivL'><div class='vertical-center'>(E)</div></div><div class='respDivR'><div class='vertical-center'>(I)</div></div></div>","I","$12","$27","0","12","27","RISKY"
"html-keyboard-response","171","192954","0.0-5.0-3.55","608d0831835bd8f85ac9237e","bdp_rd","Sat Mar 25 2023 19:14:57 GMT-0400 (Eastern Daylight Time)","205835","","null","","","","offerFB","","<div class='trialBorder'><div class='vertical-center'><img style='vertical-align:center; align:center' src=img/fixation3.jpg></div><div class='cl'><div class='vertical-center'>$12<br>for<br>sure</div></div><div class='cr'><div class='vertical-center'><font style='color:orange'>$27<br>with a<br>50% chance</font></div></div><div class='respDivL'><div class='vertical-center'>(E)</div></div><div class='respDivR'><div class='vertical-center'><font style='color:orange'>(I)</font></div></div></div>","null","$12","$27","0","12","27",""
"html-keyboard-response","172","193457","0.0-5.0-1.56","608d0831835bd8f85ac9237e","bdp_rd","Sat Mar 25 2023 19:14:57 GMT-0400 (Eastern Daylight Time)","205835","","null","","","","FIX","","<div class='trialBorder'><div class='vertical-center'><img style='vertical-align:center; align:center' src=img/fixation3.jpg></div></div>","null","","","","","",""
"html-keyboard-response","173","194828","0.0-5.0-2.56","608d0831835bd8f85ac9237e","bdp_rd","Sat Mar 25 2023 19:14:57 GMT-0400 (Eastern Daylight Time)","205835","","1370","","","","offer","","<div class='trialBorder'><div class='vertical-center'><img style='vertical-align:center; align:center' src=img/fixation3.jpg></div><div class='cl'><div class='vertical-center'>$37<br>for<br>sure</div></div><div class='cr'><div class='vertical-center'>$44<br>with a<br>50% chance</div></div><div class='respDivL'><div class='vertical-center'>(E)</div></div><div class='respDivR'><div class='vertical-center'>(I)</div></div></div>","E","$37","$44","0","37","44","SURE"
