"trial_type","trial_index","time_elapsed","internal_node_id","subject_id","task","startTime","totalTime","view_history","rt","event","trial","time","trialtype","success","stimulus","key_press","sureOffer","riskyOffer","riskyLeft","sureAmt","riskyAmt","chosen"
"pavlovia","0","14","0.0-0.0","64141beda1cef49212be9b6c","bdp_rd","Mon Apr 10 2023 06:56:41 GMT+0800 (China Standard Time)","123510","","","","","","","","","","","","","","",""
"instructions","1","3395","0.0-1.0","64141beda1cef49212be9b6c","bdp_rd","Mon Apr 10 2023 06:56:41 GMT+0800 (China Standard Time)","123510","[{""page_index"":0,""viewing_time"":3379}]","3379","","","","","","","","","","","","",""
"","","","","64141beda1cef49212be9b6c","bdp_rd","Mon Apr 10 2023 06:56:41 GMT+0800 (China Standard Time)","123510","","","fullscreenenter","2","4840","fullscreenenter","","","","","","","","",""
"fullscreen","2","5703","0.0-2.0","64141beda1cef49212be9b6c","bdp_rd","Mon Apr 10 2023 06:56:41 GMT+0800 (China Standard Time)","123510","","","","","","","true","","","","","","","",""
"instructions","3","20167","0.0-4.0","64141beda1cef49212be9b6c","bdp_rd","Mon Apr 10 2023 06:56:41 GMT+0800 (China Standard Time)","123510","[{""page_index"":0,""viewing_time"":9008},{""page_index"":1,""viewing_time"":3812},{""page_index"":2,""viewing_time"":1640}]","14460","","","","","","","","","","","","",""
"html-keyboard-response","4","20673","0.0-5.0-1.0","64141beda1cef49212be9b6c","bdp_rd","Mon Apr 10 2023 06:56:41 GMT+0800 (China Standard Time)","123510","","null","","","","FIX","","<div class='trialBorder'><div class='vertical-center'><img style='vertical-align:center; align:center' src=img/fixation3.jpg></div></div>","null","","","","","",""
"html-keyboard-response","5","23277","0.0-5.0-2.0","64141beda1cef49212be9b6c","bdp_rd","Mon Apr 10 2023 06:56:41 GMT+0800 (China Standard Time)","123510","","2598","","","","offer","","<div class='trialBorder'><div class='vertical-center'><img style='vertical-align:center; align:center' src=img/fixation3.jpg></div><div class='cl'><div class='vertical-center'>$20<br>for<br>sure</div></div><div class='cr'><div class='vertical-center'>$37<br>with a<br>50% chance</div></div><div class='respDivL'><div class='vertical-center'>(E)</div></div><div class='respDivR'><div class='vertical-center'>(I)</div></div></div>","I","$20","$37","0","20","37","RISKY"
"html-keyboard-response","6","23532","0.0-5.0-3.0","64141beda1cef49212be9b6c","bdp_rd","Mon Apr 10 2023 06:56:41 GMT+0800 (China Standard Time)","123510","","null","","","","offerFB","","<div class='trialBorder'><div class='vertical-center'><img style='vertical-align:center; align:center' src=img/fixation3.jpg></div><div class='cl'><div class='vertical-center'>$20<br>for<br>sure</div></div><div class='cr'><div class='vertical-center'><font style='color:orange'>$37<br>with a<br>50% chance</font></div></div><div class='respDivL'><div class='vertical-center'>(E)</div></div><div class='respDivR'><div class='vertical-center'><font style='color:orange'>(I)</font></div></div></div>","null","$20","$37","0","20","37",""
"html-keyboard-response","7","24037","0.0-5.0-1.1","64141beda1cef49212be9b6c","bdp_rd","Mon Apr 10 2023 06:56:41 GMT+0800 (China Standard Time)","123510","","null","","","","FIX","","<div class='trialBorder'><div class='vertical-center'><img style='vertical-align:center; align:center' src=img/fixation3.jpg></div></div>","null","","","","","",""
"html-keyboard-response","8","25441","0.0-5.0-2.1","64141beda1cef49212be9b6c","bdp_rd","Mon Apr 10 2023 06:56:41 GMT+0800 (China Standard Time)","123510","","1398","","","","offer","","<div class='trialBorder'><div class='vertical-center'><img style='vertical-align:center; align:center' src=img/fixation3.jpg></div><div class='cl'><div class='vertical-center'>$10<br>for<br>sure</div></div><div class='cr'><div class='vertical-center'>$19<br>with a<br>50% chance</div></div><div class='respDivL'><div class='vertical-center'>(E)</div></div><div class='respDivR'><div class='vertical-center'>(I)</div></div></div>","I","$10","$19","0","10","19","RISKY"
"html-keyboard-response","9","25696","0.0-5.0-3.1","64141beda1cef49212be9b6c","bdp_rd","Mon Apr 10 2023 06:56:41 GMT+0800 (China Standard Time)","123510","","null","","","","offerFB","","<div class='trialBorder'><div class='vertical-center'><img style='vertical-align:center; align:center' src=img/fixation3.jpg></div><div class='cl'><div class='vertical-center'>$10<br>for<br>sure</div></div><div class='cr'><div class='vertical-center'><font style='color:orange'>$19<br>with a<br>50% chance</font></div></div><div class='respDivL'><div class='vertical-center'>(E)</div></div><div class='respDivR'><div class='vertical-center'><font style='color:orange'>(I)</font></div></div></div>","null","$10","$19","0","10","19",""
"html-keyboard-response","10","26199","0.0-5.0-1.2","64141beda1cef49212be9b6c","bdp_rd","Mon Apr 10 2023 06:56:41 GMT+0800 (China Standard Time)","123510","","null","","","","FIX","","<div class='trialBorder'><div class='vertical-center'><img style='vertical-align:center; align:center' src=img/fixation3.jpg></div></div>","null","","","","","",""
"html-keyboard-response","11","26967","0.0-5.0-2.2","64141beda1cef49212be9b6c","bdp_rd","Mon Apr 10 2023 06:56:41 GMT+0800 (China Standard Time)","123510","","763","","","","offer","","<div class='trialBorder'><div class='vertical-center'><img style='vertical-align:center; align:center' src=img/fixation3.jpg></div><div class='cl'><div class='vertical-center'>$13<br>for<br>sure</div></div><div class='cr'><div class='vertical-center'>$41<br>with a<br>50% chance</div></div><div class='respDivL'><div class='vertical-center'>(E)</div></div><div class='respDivR'><div class='vertical-center'>(I)</div></div></div>","I","$13","$41","0","13","41","RISKY"
"html-keyboard-response","12","27222","0.0-5.0-3.2","64141beda1cef49212be9b6c","bdp_rd","Mon Apr 10 2023 06:56:41 GMT+0800 (China Standard Time)","123510","","null","","","","offerFB","","<div class='trialBorder'><div class='vertical-center'><img style='vertical-align:center; align:center' src=img/fixation3.jpg></div><div class='cl'><div class='vertical-center'>$13<br>for<br>sure</div></div><div class='cr'><div class='vertical-center'><font style='color:orange'>$41<br>with a<br>50% chance</font></div></div><div class='respDivL'><div class='vertical-center'>(E)</div></div><div class='respDivR'><div class='vertical-center'><font style='color:orange'>(I)</font></div></div></div>","null","$13","$41","0","13","41",""
"html-keyboard-response","13","27728","0.0-5.0-1.3","64141beda1cef49212be9b6c","bdp_rd","Mon Apr 10 2023 06:56:41 GMT+0800 (China Standard Time)","123510","","null","","","","FIX","","<div class='trialBorder'><div class='vertical-center'><img style='vertical-align:center; align:center' src=img/fixation3.jpg></div></div>","null","","","","","",""
"html-keyboard-response","14","29899","0.0-5.0-2.3","64141beda1cef49212be9b6c","bdp_rd","Mon Apr 10 2023 06:56:41 GMT+0800 (China Standard Time)","123510","","2168","","","","offer","","<div class='trialBorder'><div class='vertical-center'><img style='vertical-align:center; align:center' src=img/fixation3.jpg></div><div class='cl'><div class='vertical-center'>$69<br>with a<br>50% chance</div></div><div class='cr'><div class='vertical-center'>$58<br>for<br>sure</div></div><div class='respDivL'><div class='vertical-center'>(E)</div></div><div class='respDivR'><div class='vertical-center'>(I)</div></div></div>","E","$58","$69","1","58","69","RISKY"
"html-keyboard-response","15","30158","0.0-5.0-3.3","64141beda1cef49212be9b6c","bdp_rd","Mon Apr 10 2023 06:56:41 GMT+0800 (China Standard Time)","123510","","null","","","","offerFB","","<div class='trialBorder'><div class='vertical-center'><img style='vertical-align:center; align:center' src=img/fixation3.jpg></div><div class='cl'><div class='vertical-center'><font style='color:orange'>$69<br>with a<br>50% chance</font></div></div><div class='cr'><div class='vertical-center'>$58<br>for<br>sure</div></div><div class='respDivL'><div class='vertical-center'><font style='color:orange'>(E)</font></div></div><div class='respDivR'><div class='vertical-center'>(I)</div></div></div>","null","$58","$69","1","58","69",""
"html-keyboard-response","16","30668","0.0-5.0-1.4","64141beda1cef49212be9b6c","bdp_rd","Mon Apr 10 2023 06:56:41 GMT+0800 (China Standard Time)","123510","","null","","","","FIX","","<div class='trialBorder'><div class='vertical-center'><img style='vertical-align:center; align:center' src=img/fixation3.jpg></div></div>","null","","","","","",""
"html-keyboard-response","17","31518","0.0-5.0-2.4","64141beda1cef49212be9b6c","bdp_rd","Mon Apr 10 2023 06:56:41 GMT+0800 (China Standard Time)","123510","","844","","","","offer","","<div class='trialBorder'><div class='vertical-center'><img style='vertical-align:center; align:center' src=img/fixation3.jpg></div><div class='cl'><div class='vertical-center'>$89<br>with a<br>50% chance</div></div><div class='cr'><div class='vertical-center'>$28<br>for<br>sure</div></div><div class='respDivL'><div class='vertical-center'>(E)</div></div><div class='respDivR'><div class='vertical-center'>(I)</div></div></div>","E","$28","$89","1","28","89","RISKY"
"html-keyboard-response","18","31779","0.0-5.0-3.4","64141beda1cef49212be9b6c","bdp_rd","Mon Apr 10 2023 06:56:41 GMT+0800 (China Standard Time)","123510","","null","","","","offerFB","","<div class='trialBorder'><div class='vertical-center'><img style='vertical-align:center; align:center' src=img/fixation3.jpg></div><div class='cl'><div class='vertical-center'><font style='color:orange'>$89<br>with a<br>50% chance</font></div></div><div class='cr'><div class='vertical-center'>$28<br>for<br>sure</div></div><div class='respDivL'><div class='vertical-center'><font style='color:orange'>(E)</font></div></div><div class='respDivR'><div class='vertical-center'>(I)</div></div></div>","null","$28","$89","1","28","89",""
"html-keyboard-response","19","32284","0.0-5.0-1.5","64141beda1cef49212be9b6c","bdp_rd","Mon Apr 10 2023 06:56:41 GMT+0800 (China Standard Time)","123510","","null","","","","FIX","","<div class='trialBorder'><div class='vertical-center'><img style='vertical-align:center; align:center' src=img/fixation3.jpg></div></div>","null","","","","","",""
"html-keyboard-response","20","33051","0.0-5.0-2.5","64141beda1cef49212be9b6c","bdp_rd","Mon Apr 10 2023 06:56:41 GMT+0800 (China Standard Time)","123510","","760","","","","offer","","<div class='trialBorder'><div class='vertical-center'><img style='vertical-align:center; align:center' src=img/fixation3.jpg></div><div class='cl'><div class='vertical-center'>$80<br>with a<br>50% chance</div></div><div class='cr'><div class='vertical-center'>$20<br>for<br>sure</div></div><div class='respDivL'><div class='vertical-center'>(E)</div></div><div class='respDivR'><div class='vertical-center'>(I)</div></div></div>","E","$20","$80","1","20","80","RISKY"
"html-keyboard-response","21","33310","0.0-5.0-3.5","64141beda1cef49212be9b6c","bdp_rd","Mon Apr 10 2023 06:56:41 GMT+0800 (China Standard Time)","123510","","null","","","","offerFB","","<div class='trialBorder'><div class='vertical-center'><img style='vertical-align:center; align:center' src=img/fixation3.jpg></div><div class='cl'><div class='vertical-center'><font style='color:orange'>$80<br>with a<br>50% chance</font></div></div><div class='cr'><div class='vertical-center'>$20<br>for<br>sure</div></div><div class='respDivL'><div class='vertical-center'><font style='color:orange'>(E)</font></div></div><div class='respDivR'><div class='vertical-center'>(I)</div></div></div>","null","$20","$80","1","20","80",""
"html-keyboard-response","22","33816","0.0-5.0-1.6","64141beda1cef49212be9b6c","bdp_rd","Mon Apr 10 2023 06:56:41 GMT+0800 (China Standard Time)","123510","","null","","","","FIX","","<div class='trialBorder'><div class='vertical-center'><img style='vertical-align:center; align:center' src=img/fixation3.jpg></div></div>","null","","","","","",""
"html-keyboard-response","23","34679","0.0-5.0-2.6","64141beda1cef49212be9b6c","bdp_rd","Mon Apr 10 2023 06:56:41 GMT+0800 (China Standard Time)","123510","","856","","","","offer","","<div class='trialBorder'><div class='vertical-center'><img style='vertical-align:center; align:center' src=img/fixation3.jpg></div><div class='cl'><div class='vertical-center'>$35<br>with a<br>50% chance</div></div><div class='cr'><div class='vertical-center'>$12<br>for<br>sure</div></div><div class='respDivL'><div class='vertical-center'>(E)</div></div><div class='respDivR'><div class='vertical-center'>(I)</div></div></div>","E","$12","$35","1","12","35","RISKY"
"html-keyboard-response","24","34940","0.0-5.0-3.6","64141beda1cef49212be9b6c","bdp_rd","Mon Apr 10 2023 06:56:41 GMT+0800 (China Standard Time)","123510","","null","","","","offerFB","","<div class='trialBorder'><div class='vertical-center'><img style='vertical-align:center; align:center' src=img/fixation3.jpg></div><div class='cl'><div class='vertical-center'><font style='color:orange'>$35<br>with a<br>50% chance</font></div></div><div class='cr'><div class='vertical-center'>$12<br>for<br>sure</div></div><div class='respDivL'><div class='vertical-center'><font style='color:orange'>(E)</font></div></div><div class='respDivR'><div class='vertical-center'>(I)</div></div></div>","null","$12","$35","1","12","35",""
"html-keyboard-response","25","35446","0.0-5.0-1.7","64141beda1cef49212be9b6c","bdp_rd","Mon Apr 10 2023 06:56:41 GMT+0800 (China Standard Time)","123510","","null","","","","FIX","","<div class='trialBorder'><div class='vertical-center'><img style='vertical-align:center; align:center' src=img/fixation3.jpg></div></div>","null","","","","","",""
"html-keyboard-response","26","36145","0.0-5.0-2.7","64141beda1cef49212be9b6c","bdp_rd","Mon Apr 10 2023 06:56:41 GMT+0800 (China Standard Time)","123510","","697","","","","offer","","<div class='trialBorder'><div class='vertical-center'><img style='vertical-align:center; align:center' src=img/fixation3.jpg></div><div class='cl'><div class='vertical-center'>$28<br>with a<br>50% chance</div></div><div class='cr'><div class='vertical-center'>$16<br>for<br>sure</div></div><div class='respDivL'><div class='vertical-center'>(E)</div></div><div class='respDivR'><div class='vertical-center'>(I)</div></div></div>","E","$16","$28","1","16","28","RISKY"
"html-keyboard-response","27","36401","0.0-5.0-3.7","64141beda1cef49212be9b6c","bdp_rd","Mon Apr 10 2023 06:56:41 GMT+0800 (China Standard Time)","123510","","null","","","","offerFB","","<div class='trialBorder'><div class='vertical-center'><img style='vertical-align:center; align:center' src=img/fixation3.jpg></div><div class='cl'><div class='vertical-center'><font style='color:orange'>$28<br>with a<br>50% chance</font></div></div><div class='cr'><div class='vertical-center'>$16<br>for<br>sure</div></div><div class='respDivL'><div class='vertical-center'><font style='color:orange'>(E)</font></div></div><div class='respDivR'><div class='vertical-center'>(I)</div></div></div>","null","$16","$28","1","16","28",""
"html-keyboard-response","28","36907","0.0-5.0-1.8","64141beda1cef49212be9b6c","bdp_rd","Mon Apr 10 2023 06:56:41 GMT+0800 (China Standard Time)","123510","","null","","","","FIX","","<div class='trialBorder'><div class='vertical-center'><img style='vertical-align:center; align:center' src=img/fixation3.jpg></div></div>","null","","","","","",""
"html-keyboard-response","29","37596","0.0-5.0-2.8","64141beda1cef49212be9b6c","bdp_rd","Mon Apr 10 2023 06:56:41 GMT+0800 (China Standard Time)","123510","","681","","","","offer","","<div class='trialBorder'><div class='vertical-center'><img style='vertical-align:center; align:center' src=img/fixation3.jpg></div><div class='cl'><div class='vertical-center'>$2<br>for<br>sure</div></div><div class='cr'><div class='vertical-center'>$21<br>with a<br>50% chance</div></div><div class='respDivL'><div class='vertical-center'>(E)</div></div><div class='respDivR'><div class='vertical-center'>(I)</div></div></div>","I","$2","$21","0","2","21","RISKY"
"html-keyboard-response","30","37851","0.0-5.0-3.8","64141beda1cef49212be9b6c","bdp_rd","Mon Apr 10 2023 06:56:41 GMT+0800 (China Standard Time)","123510","","null","","","","offerFB","","<div class='trialBorder'><div class='vertical-center'><img style='vertical-align:center; align:center' src=img/fixation3.jpg></div><div class='cl'><div class='vertical-center'>$2<br>for<br>sure</div></div><div class='cr'><div class='vertical-center'><font style='color:orange'>$21<br>with a<br>50% chance</font></div></div><div class='respDivL'><div class='vertical-center'>(E)</div></div><div class='respDivR'><div class='vertical-center'><font style='color:orange'>(I)</font></div></div></div>","null","$2","$21","0","2","21",""
"html-keyboard-response","31","38355","0.0-5.0-1.9","64141beda1cef49212be9b6c","bdp_rd","Mon Apr 10 2023 06:56:41 GMT+0800 (China Standard Time)","123510","","null","","","","FIX","","<div class='trialBorder'><div class='vertical-center'><img style='vertical-align:center; align:center' src=img/fixation3.jpg></div></div>","null","","","","","",""
"html-keyboard-response","32","38937","0.0-5.0-2.9","64141beda1cef49212be9b6c","bdp_rd","Mon Apr 10 2023 06:56:41 GMT+0800 (China Standard Time)","123510","","571","","","","offer","","<div class='trialBorder'><div class='vertical-center'><img style='vertical-align:center; align:center' src=img/fixation3.jpg></div><div class='cl'><div class='vertical-center'>$34<br>for<br>sure</div></div><div class='cr'><div class='vertical-center'>$48<br>with a<br>50% chance</div></div><div class='respDivL'><div class='vertical-center'>(E)</div></div><div class='respDivR'><div class='vertical-center'>(I)</div></div></div>","I","$34","$48","0","34","48","RISKY"
"html-keyboard-response","33","39198","0.0-5.0-3.9","64141beda1cef49212be9b6c","bdp_rd","Mon Apr 10 2023 06:56:41 GMT+0800 (China Standard Time)","123510","","null","","","","offerFB","","<div class='trialBorder'><div class='vertical-center'><img style='vertical-align:center; align:center' src=img/fixation3.jpg></div><div class='cl'><div class='vertical-center'>$34<br>for<br>sure</div></div><div class='cr'><div class='vertical-center'><font style='color:orange'>$48<br>with a<br>50% chance</font></div></div><div class='respDivL'><div class='vertical-center'>(E)</div></div><div class='respDivR'><div class='vertical-center'><font style='color:orange'>(I)</font></div></div></div>","null","$34","$48","0","34","48",""
"html-keyboard-response","34","39704","0.0-5.0-1.10","64141beda1cef49212be9b6c","bdp_rd","Mon Apr 10 2023 06:56:41 GMT+0800 (China Standard Time)","123510","","null","","","","FIX","","<div class='trialBorder'><div class='vertical-center'><img style='vertical-align:center; align:center' src=img/fixation3.jpg></div></div>","null","","","","","",""
"html-keyboard-response","35","40329","0.0-5.0-2.10","64141beda1cef49212be9b6c","bdp_rd","Mon Apr 10 2023 06:56:41 GMT+0800 (China Standard Time)","123510","","619","","","","offer","","<div class='trialBorder'><div class='vertical-center'><img style='vertical-align:center; align:center' src=img/fixation3.jpg></div><div class='cl'><div class='vertical-center'>$39<br>with a<br>50% chance</div></div><div class='cr'><div class='vertical-center'>$18<br>for<br>sure</div></div><div class='respDivL'><div class='vertical-center'>(E)</div></div><div class='respDivR'><div class='vertical-center'>(I)</div></div></div>","E","$18","$39","1","18","39","RISKY"
"html-keyboard-response","36","40585","0.0-5.0-3.10","64141beda1cef49212be9b6c","bdp_rd","Mon Apr 10 2023 06:56:41 GMT+0800 (China Standard Time)","123510","","null","","","","offerFB","","<div class='trialBorder'><div class='vertical-center'><img style='vertical-align:center; align:center' src=img/fixation3.jpg></div><div class='cl'><div class='vertical-center'><font style='color:orange'>$39<br>with a<br>50% chance</font></div></div><div class='cr'><div class='vertical-center'>$18<br>for<br>sure</div></div><div class='respDivL'><div class='vertical-center'><font style='color:orange'>(E)</font></div></div><div class='respDivR'><div class='vertical-center'>(I)</div></div></div>","null","$18","$39","1","18","39",""
"html-keyboard-response","37","41088","0.0-5.0-1.11","64141beda1cef49212be9b6c","bdp_rd","Mon Apr 10 2023 06:56:41 GMT+0800 (China Standard Time)","123510","","null","","","","FIX","","<div class='trialBorder'><div class='vertical-center'><img style='vertical-align:center; align:center' src=img/fixation3.jpg></div></div>","null","","","","","",""
"html-keyboard-response","38","41693","0.0-5.0-2.11","64141beda1cef49212be9b6c","bdp_rd","Mon Apr 10 2023 06:56:41 GMT+0800 (China Standard Time)","123510","","601","","","","offer","","<div class='trialBorder'><div class='vertical-center'><img style='vertical-align:center; align:center' src=img/fixation3.jpg></div><div class='cl'><div class='vertical-center'>$4<br>for<br>sure</div></div><div class='cr'><div class='vertical-center'>$11<br>with a<br>50% chance</div></div><div class='respDivL'><div class='vertical-center'>(E)</div></div><div class='respDivR'><div class='vertical-center'>(I)</div></div></div>","I","$4","$11","0","4","11","RISKY"
"html-keyboard-response","39","41947","0.0-5.0-3.11","64141beda1cef49212be9b6c","bdp_rd","Mon Apr 10 2023 06:56:41 GMT+0800 (China Standard Time)","123510","","null","","","","offerFB","","<div class='trialBorder'><div class='vertical-center'><img style='vertical-align:center; align:center' src=img/fixation3.jpg></div><div class='cl'><div class='vertical-center'>$4<br>for<br>sure</div></div><div class='cr'><div class='vertical-center'><font style='color:orange'>$11<br>with a<br>50% chance</font></div></div><div class='respDivL'><div class='vertical-center'>(E)</div></div><div class='respDivR'><div class='vertical-center'><font style='color:orange'>(I)</font></div></div></div>","null","$4","$11","0","4","11",""
"html-keyboard-response","40","42451","0.0-5.0-1.12","64141beda1cef49212be9b6c","bdp_rd","Mon Apr 10 2023 06:56:41 GMT+0800 (China Standard Time)","123510","","null","","","","FIX","","<div class='trialBorder'><div class='vertical-center'><img style='vertical-align:center; align:center' src=img/fixation3.jpg></div></div>","null","","","","","",""
"html-keyboard-response","41","43230","0.0-5.0-2.12","64141beda1cef49212be9b6c","bdp_rd","Mon Apr 10 2023 06:56:41 GMT+0800 (China Standard Time)","123510","","776","","","","offer","","<div class='trialBorder'><div class='vertical-center'><img style='vertical-align:center; align:center' src=img/fixation3.jpg></div><div class='cl'><div class='vertical-center'>$39<br>for<br>sure</div></div><div class='cr'><div class='vertical-center'>$81<br>with a<br>50% chance</div></div><div class='respDivL'><div class='vertical-center'>(E)</div></div><div class='respDivR'><div class='vertical-center'>(I)</div></div></div>","I","$39","$81","0","39","81","RISKY"
"html-keyboard-response","42","43485","0.0-5.0-3.12","64141beda1cef49212be9b6c","bdp_rd","Mon Apr 10 2023 06:56:41 GMT+0800 (China Standard Time)","123510","","null","","","","offerFB","","<div class='trialBorder'><div class='vertical-center'><img style='vertical-align:center; align:center' src=img/fixation3.jpg></div><div class='cl'><div class='vertical-center'>$39<br>for<br>sure</div></div><div class='cr'><div class='vertical-center'><font style='color:orange'>$81<br>with a<br>50% chance</font></div></div><div class='respDivL'><div class='vertical-center'>(E)</div></div><div class='respDivR'><div class='vertical-center'><font style='color:orange'>(I)</font></div></div></div>","null","$39","$81","0","39","81",""
"html-keyboard-response","43","43988","0.0-5.0-1.13","64141beda1cef49212be9b6c","bdp_rd","Mon Apr 10 2023 06:56:41 GMT+0800 (China Standard Time)","123510","","null","","","","FIX","","<div class='trialBorder'><div class='vertical-center'><img style='vertical-align:center; align:center' src=img/fixation3.jpg></div></div>","null","","","","","",""
"html-keyboard-response","44","44709","0.0-5.0-2.13","64141beda1cef49212be9b6c","bdp_rd","Mon Apr 10 2023 06:56:41 GMT+0800 (China Standard Time)","123510","","718","","","","offer","","<div class='trialBorder'><div class='vertical-center'><img style='vertical-align:center; align:center' src=img/fixation3.jpg></div><div class='cl'><div class='vertical-center'>$14<br>for<br>sure</div></div><div class='cr'><div class='vertical-center'>$29<br>with a<br>50% chance</div></div><div class='respDivL'><div class='vertical-center'>(E)</div></div><div class='respDivR'><div class='vertical-center'>(I)</div></div></div>","I","$14","$29","0","14","29","RISKY"
"html-keyboard-response","45","44964","0.0-5.0-3.13","64141beda1cef49212be9b6c","bdp_rd","Mon Apr 10 2023 06:56:41 GMT+0800 (China Standard Time)","123510","","null","","","","offerFB","","<div class='trialBorder'><div class='vertical-center'><img style='vertical-align:center; align:center' src=img/fixation3.jpg></div><div class='cl'><div class='vertical-center'>$14<br>for<br>sure</div></div><div class='cr'><div class='vertical-center'><font style='color:orange'>$29<br>with a<br>50% chance</font></div></div><div class='respDivL'><div class='vertical-center'>(E)</div></div><div class='respDivR'><div class='vertical-center'><font style='color:orange'>(I)</font></div></div></div>","null","$14","$29","0","14","29",""
"html-keyboard-response","46","45467","0.0-5.0-1.14","64141beda1cef49212be9b6c","bdp_rd","Mon Apr 10 2023 06:56:41 GMT+0800 (China Standard Time)","123510","","null","","","","FIX","","<div class='trialBorder'><div class='vertical-center'><img style='vertical-align:center; align:center' src=img/fixation3.jpg></div></div>","null","","","","","",""
"html-keyboard-response","47","46605","0.0-5.0-2.14","64141beda1cef49212be9b6c","bdp_rd","Mon Apr 10 2023 06:56:41 GMT+0800 (China Standard Time)","123510","","1135","","","","offer","","<div class='trialBorder'><div class='vertical-center'><img style='vertical-align:center; align:center' src=img/fixation3.jpg></div><div class='cl'><div class='vertical-center'>$21<br>for<br>sure</div></div><div class='cr'><div class='vertical-center'>$25<br>with a<br>50% chance</div></div><div class='respDivL'><div class='vertical-center'>(E)</div></div><div class='respDivR'><div class='vertical-center'>(I)</div></div></div>","I","$21","$25","0","21","25","RISKY"
"html-keyboard-response","48","46862","0.0-5.0-3.14","64141beda1cef49212be9b6c","bdp_rd","Mon Apr 10 2023 06:56:41 GMT+0800 (China Standard Time)","123510","","null","","","","offerFB","","<div class='trialBorder'><div class='vertical-center'><img style='vertical-align:center; align:center' src=img/fixation3.jpg></div><div class='cl'><div class='vertical-center'>$21<br>for<br>sure</div></div><div class='cr'><div class='vertical-center'><font style='color:orange'>$25<br>with a<br>50% chance</font></div></div><div class='respDivL'><div class='vertical-center'>(E)</div></div><div class='respDivR'><div class='vertical-center'><font style='color:orange'>(I)</font></div></div></div>","null","$21","$25","0","21","25",""
"html-keyboard-response","49","47368","0.0-5.0-1.15","64141beda1cef49212be9b6c","bdp_rd","Mon Apr 10 2023 06:56:41 GMT+0800 (China Standard Time)","123510","","null","","","","FIX","","<div class='trialBorder'><div class='vertical-center'><img style='vertical-align:center; align:center' src=img/fixation3.jpg></div></div>","null","","","","","",""
"html-keyboard-response","50","47969","0.0-5.0-2.15","64141beda1cef49212be9b6c","bdp_rd","Mon Apr 10 2023 06:56:41 GMT+0800 (China Standard Time)","123510","","594","","","","offer","","<div class='trialBorder'><div class='vertical-center'><img style='vertical-align:center; align:center' src=img/fixation3.jpg></div><div class='cl'><div class='vertical-center'>$42<br>for<br>sure</div></div><div class='cr'><div class='vertical-center'>$73<br>with a<br>50% chance</div></div><div class='respDivL'><div class='vertical-center'>(E)</div></div><div class='respDivR'><div class='vertical-center'>(I)</div></div></div>","I","$42","$73","0","42","73","RISKY"
"html-keyboard-response","51","48228","0.0-5.0-3.15","64141beda1cef49212be9b6c","bdp_rd","Mon Apr 10 2023 06:56:41 GMT+0800 (China Standard Time)","123510","","null","","","","offerFB","","<div class='trialBorder'><div class='vertical-center'><img style='vertical-align:center; align:center' src=img/fixation3.jpg></div><div class='cl'><div class='vertical-center'>$42<br>for<br>sure</div></div><div class='cr'><div class='vertical-center'><font style='color:orange'>$73<br>with a<br>50% chance</font></div></div><div class='respDivL'><div class='vertical-center'>(E)</div></div><div class='respDivR'><div class='vertical-center'><font style='color:orange'>(I)</font></div></div></div>","null","$42","$73","0","42","73",""
"html-keyboard-response","52","48732","0.0-5.0-1.16","64141beda1cef49212be9b6c","bdp_rd","Mon Apr 10 2023 06:56:41 GMT+0800 (China Standard Time)","123510","","null","","","","FIX","","<div class='trialBorder'><div class='vertical-center'><img style='vertical-align:center; align:center' src=img/fixation3.jpg></div></div>","null","","","","","",""
"html-keyboard-response","53","49483","0.0-5.0-2.16","64141beda1cef49212be9b6c","bdp_rd","Mon Apr 10 2023 06:56:41 GMT+0800 (China Standard Time)","123510","","748","","","","offer","","<div class='trialBorder'><div class='vertical-center'><img style='vertical-align:center; align:center' src=img/fixation3.jpg></div><div class='cl'><div class='vertical-center'>$14<br>with a<br>50% chance</div></div><div class='cr'><div class='vertical-center'>$4<br>for<br>sure</div></div><div class='respDivL'><div class='vertical-center'>(E)</div></div><div class='respDivR'><div class='vertical-center'>(I)</div></div></div>","E","$4","$14","1","4","14","RISKY"
"html-keyboard-response","54","49738","0.0-5.0-3.16","64141beda1cef49212be9b6c","bdp_rd","Mon Apr 10 2023 06:56:41 GMT+0800 (China Standard Time)","123510","","null","","","","offerFB","","<div class='trialBorder'><div class='vertical-center'><img style='vertical-align:center; align:center' src=img/fixation3.jpg></div><div class='cl'><div class='vertical-center'><font style='color:orange'>$14<br>with a<br>50% chance</font></div></div><div class='cr'><div class='vertical-center'>$4<br>for<br>sure</div></div><div class='respDivL'><div class='vertical-center'><font style='color:orange'>(E)</font></div></div><div class='respDivR'><div class='vertical-center'>(I)</div></div></div>","null","$4","$14","1","4","14",""
"html-keyboard-response","55","50245","0.0-5.0-1.17","64141beda1cef49212be9b6c","bdp_rd","Mon Apr 10 2023 06:56:41 GMT+0800 (China Standard Time)","123510","","null","","","","FIX","","<div class='trialBorder'><div class='vertical-center'><img style='vertical-align:center; align:center' src=img/fixation3.jpg></div></div>","null","","","","","",""
"html-keyboard-response","56","50934","0.0-5.0-2.17","64141beda1cef49212be9b6c","bdp_rd","Mon Apr 10 2023 06:56:41 GMT+0800 (China Standard Time)","123510","","680","","","","offer","","<div class='trialBorder'><div class='vertical-center'><img style='vertical-align:center; align:center' src=img/fixation3.jpg></div><div class='cl'><div class='vertical-center'>$10<br>with a<br>50% chance</div></div><div class='cr'><div class='vertical-center'>$7<br>for<br>sure</div></div><div class='respDivL'><div class='vertical-center'>(E)</div></div><div class='respDivR'><div class='vertical-center'>(I)</div></div></div>","E","$7","$10","1","7","10","RISKY"
"html-keyboard-response","57","51195","0.0-5.0-3.17","64141beda1cef49212be9b6c","bdp_rd","Mon Apr 10 2023 06:56:41 GMT+0800 (China Standard Time)","123510","","null","","","","offerFB","","<div class='trialBorder'><div class='vertical-center'><img style='vertical-align:center; align:center' src=img/fixation3.jpg></div><div class='cl'><div class='vertical-center'><font style='color:orange'>$10<br>with a<br>50% chance</font></div></div><div class='cr'><div class='vertical-center'>$7<br>for<br>sure</div></div><div class='respDivL'><div class='vertical-center'><font style='color:orange'>(E)</font></div></div><div class='respDivR'><div class='vertical-center'>(I)</div></div></div>","null","$7","$10","1","7","10",""
"html-keyboard-response","58","51699","0.0-5.0-1.18","64141beda1cef49212be9b6c","bdp_rd","Mon Apr 10 2023 06:56:41 GMT+0800 (China Standard Time)","123510","","null","","","","FIX","","<div class='trialBorder'><div class='vertical-center'><img style='vertical-align:center; align:center' src=img/fixation3.jpg></div></div>","null","","","","","",""
"html-keyboard-response","59","52444","0.0-5.0-2.18","64141beda1cef49212be9b6c","bdp_rd","Mon Apr 10 2023 06:56:41 GMT+0800 (China Standard Time)","123510","","739","","","","offer","","<div class='trialBorder'><div class='vertical-center'><img style='vertical-align:center; align:center' src=img/fixation3.jpg></div><div class='cl'><div class='vertical-center'>$26<br>with a<br>50% chance</div></div><div class='cr'><div class='vertical-center'>$11<br>for<br>sure</div></div><div class='respDivL'><div class='vertical-center'>(E)</div></div><div class='respDivR'><div class='vertical-center'>(I)</div></div></div>","E","$11","$26","1","11","26","RISKY"
"html-keyboard-response","60","52702","0.0-5.0-3.18","64141beda1cef49212be9b6c","bdp_rd","Mon Apr 10 2023 06:56:41 GMT+0800 (China Standard Time)","123510","","null","","","","offerFB","","<div class='trialBorder'><div class='vertical-center'><img style='vertical-align:center; align:center' src=img/fixation3.jpg></div><div class='cl'><div class='vertical-center'><font style='color:orange'>$26<br>with a<br>50% chance</font></div></div><div class='cr'><div class='vertical-center'>$11<br>for<br>sure</div></div><div class='respDivL'><div class='vertical-center'><font style='color:orange'>(E)</font></div></div><div class='respDivR'><div class='vertical-center'>(I)</div></div></div>","null","$11","$26","1","11","26",""
"html-keyboard-response","61","53207","0.0-5.0-1.19","64141beda1cef49212be9b6c","bdp_rd","Mon Apr 10 2023 06:56:41 GMT+0800 (China Standard Time)","123510","","null","","","","FIX","","<div class='trialBorder'><div class='vertical-center'><img style='vertical-align:center; align:center' src=img/fixation3.jpg></div></div>","null","","","","","",""
"html-keyboard-response","62","53782","0.0-5.0-2.19","64141beda1cef49212be9b6c","bdp_rd","Mon Apr 10 2023 06:56:41 GMT+0800 (China Standard Time)","123510","","573","","","","offer","","<div class='trialBorder'><div class='vertical-center'><img style='vertical-align:center; align:center' src=img/fixation3.jpg></div><div class='cl'><div class='vertical-center'>$64<br>with a<br>50% chance</div></div><div class='cr'><div class='vertical-center'>$2<br>for<br>sure</div></div><div class='respDivL'><div class='vertical-center'>(E)</div></div><div class='respDivR'><div class='vertical-center'>(I)</div></div></div>","E","$2","$64","1","2","64","RISKY"
"html-keyboard-response","63","54041","0.0-5.0-3.19","64141beda1cef49212be9b6c","bdp_rd","Mon Apr 10 2023 06:56:41 GMT+0800 (China Standard Time)","123510","","null","","","","offerFB","","<div class='trialBorder'><div class='vertical-center'><img style='vertical-align:center; align:center' src=img/fixation3.jpg></div><div class='cl'><div class='vertical-center'><font style='color:orange'>$64<br>with a<br>50% chance</font></div></div><div class='cr'><div class='vertical-center'>$2<br>for<br>sure</div></div><div class='respDivL'><div class='vertical-center'><font style='color:orange'>(E)</font></div></div><div class='respDivR'><div class='vertical-center'>(I)</div></div></div>","null","$2","$64","1","2","64",""
"html-keyboard-response","64","54551","0.0-5.0-1.20","64141beda1cef49212be9b6c","bdp_rd","Mon Apr 10 2023 06:56:41 GMT+0800 (China Standard Time)","123510","","null","","","","FIX","","<div class='trialBorder'><div class='vertical-center'><img style='vertical-align:center; align:center' src=img/fixation3.jpg></div></div>","null","","","","","",""
"html-keyboard-response","65","55439","0.0-5.0-2.20","64141beda1cef49212be9b6c","bdp_rd","Mon Apr 10 2023 06:56:41 GMT+0800 (China Standard Time)","123510","","882","","","","offer","","<div class='trialBorder'><div class='vertical-center'><img style='vertical-align:center; align:center' src=img/fixation3.jpg></div><div class='cl'><div class='vertical-center'>$86<br>with a<br>50% chance</div></div><div class='cr'><div class='vertical-center'>$45<br>for<br>sure</div></div><div class='respDivL'><div class='vertical-center'>(E)</div></div><div class='respDivR'><div class='vertical-center'>(I)</div></div></div>","E","$45","$86","1","45","86","RISKY"
"html-keyboard-response","66","55695","0.0-5.0-3.20","64141beda1cef49212be9b6c","bdp_rd","Mon Apr 10 2023 06:56:41 GMT+0800 (China Standard Time)","123510","","null","","","","offerFB","","<div class='trialBorder'><div class='vertical-center'><img style='vertical-align:center; align:center' src=img/fixation3.jpg></div><div class='cl'><div class='vertical-center'><font style='color:orange'>$86<br>with a<br>50% chance</font></div></div><div class='cr'><div class='vertical-center'>$45<br>for<br>sure</div></div><div class='respDivL'><div class='vertical-center'><font style='color:orange'>(E)</font></div></div><div class='respDivR'><div class='vertical-center'>(I)</div></div></div>","null","$45","$86","1","45","86",""
"html-keyboard-response","67","56200","0.0-5.0-1.21","64141beda1cef49212be9b6c","bdp_rd","Mon Apr 10 2023 06:56:41 GMT+0800 (China Standard Time)","123510","","null","","","","FIX","","<div class='trialBorder'><div class='vertical-center'><img style='vertical-align:center; align:center' src=img/fixation3.jpg></div></div>","null","","","","","",""
"html-keyboard-response","68","56986","0.0-5.0-2.21","64141beda1cef49212be9b6c","bdp_rd","Mon Apr 10 2023 06:56:41 GMT+0800 (China Standard Time)","123510","","780","","","","offer","","<div class='trialBorder'><div class='vertical-center'><img style='vertical-align:center; align:center' src=img/fixation3.jpg></div><div class='cl'><div class='vertical-center'>$11<br>for<br>sure</div></div><div class='cr'><div class='vertical-center'>$62<br>with a<br>50% chance</div></div><div class='respDivL'><div class='vertical-center'>(E)</div></div><div class='respDivR'><div class='vertical-center'>(I)</div></div></div>","I","$11","$62","0","11","62","RISKY"
"html-keyboard-response","69","57244","0.0-5.0-3.21","64141beda1cef49212be9b6c","bdp_rd","Mon Apr 10 2023 06:56:41 GMT+0800 (China Standard Time)","123510","","null","","","","offerFB","","<div class='trialBorder'><div class='vertical-center'><img style='vertical-align:center; align:center' src=img/fixation3.jpg></div><div class='cl'><div class='vertical-center'>$11<br>for<br>sure</div></div><div class='cr'><div class='vertical-center'><font style='color:orange'>$62<br>with a<br>50% chance</font></div></div><div class='respDivL'><div class='vertical-center'>(E)</div></div><div class='respDivR'><div class='vertical-center'><font style='color:orange'>(I)</font></div></div></div>","null","$11","$62","0","11","62",""
"html-keyboard-response","70","57757","0.0-5.0-1.22","64141beda1cef49212be9b6c","bdp_rd","Mon Apr 10 2023 06:56:41 GMT+0800 (China Standard Time)","123510","","null","","","","FIX","","<div class='trialBorder'><div class='vertical-center'><img style='vertical-align:center; align:center' src=img/fixation3.jpg></div></div>","null","","","","","",""
"html-keyboard-response","71","58281","0.0-5.0-2.22","64141beda1cef49212be9b6c","bdp_rd","Mon Apr 10 2023 06:56:41 GMT+0800 (China Standard Time)","123510","","522","","","","offer","","<div class='trialBorder'><div class='vertical-center'><img style='vertical-align:center; align:center' src=img/fixation3.jpg></div><div class='cl'><div class='vertical-center'>$15<br>with a<br>50% chance</div></div><div class='cr'><div class='vertical-center'>$6<br>for<br>sure</div></div><div class='respDivL'><div class='vertical-center'>(E)</div></div><div class='respDivR'><div class='vertical-center'>(I)</div></div></div>","E","$6","$15","1","6","15","RISKY"
"html-keyboard-response","72","58536","0.0-5.0-3.22","64141beda1cef49212be9b6c","bdp_rd","Mon Apr 10 2023 06:56:41 GMT+0800 (China Standard Time)","123510","","null","","","","offerFB","","<div class='trialBorder'><div class='vertical-center'><img style='vertical-align:center; align:center' src=img/fixation3.jpg></div><div class='cl'><div class='vertical-center'><font style='color:orange'>$15<br>with a<br>50% chance</font></div></div><div class='cr'><div class='vertical-center'>$6<br>for<br>sure</div></div><div class='respDivL'><div class='vertical-center'><font style='color:orange'>(E)</font></div></div><div class='respDivR'><div class='vertical-center'>(I)</div></div></div>","null","$6","$15","1","6","15",""
"html-keyboard-response","73","59041","0.0-5.0-1.23","64141beda1cef49212be9b6c","bdp_rd","Mon Apr 10 2023 06:56:41 GMT+0800 (China Standard Time)","123510","","null","","","","FIX","","<div class='trialBorder'><div class='vertical-center'><img style='vertical-align:center; align:center' src=img/fixation3.jpg></div></div>","null","","","","","",""
"html-keyboard-response","74","59948","0.0-5.0-2.23","64141beda1cef49212be9b6c","bdp_rd","Mon Apr 10 2023 06:56:41 GMT+0800 (China Standard Time)","123510","","901","","","","offer","","<div class='trialBorder'><div class='vertical-center'><img style='vertical-align:center; align:center' src=img/fixation3.jpg></div><div class='cl'><div class='vertical-center'>$66<br>with a<br>50% chance</div></div><div class='cr'><div class='vertical-center'>$33<br>for<br>sure</div></div><div class='respDivL'><div class='vertical-center'>(E)</div></div><div class='respDivR'><div class='vertical-center'>(I)</div></div></div>","E","$33","$66","1","33","66","RISKY"
"html-keyboard-response","75","60204","0.0-5.0-3.23","64141beda1cef49212be9b6c","bdp_rd","Mon Apr 10 2023 06:56:41 GMT+0800 (China Standard Time)","123510","","null","","","","offerFB","","<div class='trialBorder'><div class='vertical-center'><img style='vertical-align:center; align:center' src=img/fixation3.jpg></div><div class='cl'><div class='vertical-center'><font style='color:orange'>$66<br>with a<br>50% chance</font></div></div><div class='cr'><div class='vertical-center'>$33<br>for<br>sure</div></div><div class='respDivL'><div class='vertical-center'><font style='color:orange'>(E)</font></div></div><div class='respDivR'><div class='vertical-center'>(I)</div></div></div>","null","$33","$66","1","33","66",""
"html-keyboard-response","76","60709","0.0-5.0-1.24","64141beda1cef49212be9b6c","bdp_rd","Mon Apr 10 2023 06:56:41 GMT+0800 (China Standard Time)","123510","","null","","","","FIX","","<div class='trialBorder'><div class='vertical-center'><img style='vertical-align:center; align:center' src=img/fixation3.jpg></div></div>","null","","","","","",""
"html-keyboard-response","77","61558","0.0-5.0-2.24","64141beda1cef49212be9b6c","bdp_rd","Mon Apr 10 2023 06:56:41 GMT+0800 (China Standard Time)","123510","","841","","","","offer","","<div class='trialBorder'><div class='vertical-center'><img style='vertical-align:center; align:center' src=img/fixation3.jpg></div><div class='cl'><div class='vertical-center'>$42<br>with a<br>50% chance</div></div><div class='cr'><div class='vertical-center'>$22<br>for<br>sure</div></div><div class='respDivL'><div class='vertical-center'>(E)</div></div><div class='respDivR'><div class='vertical-center'>(I)</div></div></div>","E","$22","$42","1","22","42","RISKY"
"html-keyboard-response","78","61819","0.0-5.0-3.24","64141beda1cef49212be9b6c","bdp_rd","Mon Apr 10 2023 06:56:41 GMT+0800 (China Standard Time)","123510","","null","","","","offerFB","","<div class='trialBorder'><div class='vertical-center'><img style='vertical-align:center; align:center' src=img/fixation3.jpg></div><div class='cl'><div class='vertical-center'><font style='color:orange'>$42<br>with a<br>50% chance</font></div></div><div class='cr'><div class='vertical-center'>$22<br>for<br>sure</div></div><div class='respDivL'><div class='vertical-center'><font style='color:orange'>(E)</font></div></div><div class='respDivR'><div class='vertical-center'>(I)</div></div></div>","null","$22","$42","1","22","42",""
"html-keyboard-response","79","62323","0.0-5.0-1.25","64141beda1cef49212be9b6c","bdp_rd","Mon Apr 10 2023 06:56:41 GMT+0800 (China Standard Time)","123510","","null","","","","FIX","","<div class='trialBorder'><div class='vertical-center'><img style='vertical-align:center; align:center' src=img/fixation3.jpg></div></div>","null","","","","","",""
"html-keyboard-response","80","63256","0.0-5.0-2.25","64141beda1cef49212be9b6c","bdp_rd","Mon Apr 10 2023 06:56:41 GMT+0800 (China Standard Time)","123510","","930","","","","offer","","<div class='trialBorder'><div class='vertical-center'><img style='vertical-align:center; align:center' src=img/fixation3.jpg></div><div class='cl'><div class='vertical-center'>$16<br>for<br>sure</div></div><div class='cr'><div class='vertical-center'>$38<br>with a<br>50% chance</div></div><div class='respDivL'><div class='vertical-center'>(E)</div></div><div class='respDivR'><div class='vertical-center'>(I)</div></div></div>","I","$16","$38","0","16","38","RISKY"
"html-keyboard-response","81","63520","0.0-5.0-3.25","64141beda1cef49212be9b6c","bdp_rd","Mon Apr 10 2023 06:56:41 GMT+0800 (China Standard Time)","123510","","null","","","","offerFB","","<div class='trialBorder'><div class='vertical-center'><img style='vertical-align:center; align:center' src=img/fixation3.jpg></div><div class='cl'><div class='vertical-center'>$16<br>for<br>sure</div></div><div class='cr'><div class='vertical-center'><font style='color:orange'>$38<br>with a<br>50% chance</font></div></div><div class='respDivL'><div class='vertical-center'>(E)</div></div><div class='respDivR'><div class='vertical-center'><font style='color:orange'>(I)</font></div></div></div>","null","$16","$38","0","16","38",""
"html-keyboard-response","82","64025","0.0-5.0-1.26","64141beda1cef49212be9b6c","bdp_rd","Mon Apr 10 2023 06:56:41 GMT+0800 (China Standard Time)","123510","","null","","","","FIX","","<div class='trialBorder'><div class='vertical-center'><img style='vertical-align:center; align:center' src=img/fixation3.jpg></div></div>","null","","","","","",""
"html-keyboard-response","83","65105","0.0-5.0-2.26","64141beda1cef49212be9b6c","bdp_rd","Mon Apr 10 2023 06:56:41 GMT+0800 (China Standard Time)","123510","","1070","","","","offer","","<div class='trialBorder'><div class='vertical-center'><img style='vertical-align:center; align:center' src=img/fixation3.jpg></div><div class='cl'><div class='vertical-center'>$30<br>with a<br>50% chance</div></div><div class='cr'><div class='vertical-center'>$1<br>for<br>sure</div></div><div class='respDivL'><div class='vertical-center'>(E)</div></div><div class='respDivR'><div class='vertical-center'>(I)</div></div></div>","E","$1","$30","1","1","30","RISKY"
"html-keyboard-response","84","65366","0.0-5.0-3.26","64141beda1cef49212be9b6c","bdp_rd","Mon Apr 10 2023 06:56:41 GMT+0800 (China Standard Time)","123510","","null","","","","offerFB","","<div class='trialBorder'><div class='vertical-center'><img style='vertical-align:center; align:center' src=img/fixation3.jpg></div><div class='cl'><div class='vertical-center'><font style='color:orange'>$30<br>with a<br>50% chance</font></div></div><div class='cr'><div class='vertical-center'>$1<br>for<br>sure</div></div><div class='respDivL'><div class='vertical-center'><font style='color:orange'>(E)</font></div></div><div class='respDivR'><div class='vertical-center'>(I)</div></div></div>","null","$1","$30","1","1","30",""
"html-keyboard-response","85","65872","0.0-5.0-1.27","64141beda1cef49212be9b6c","bdp_rd","Mon Apr 10 2023 06:56:41 GMT+0800 (China Standard Time)","123510","","null","","","","FIX","","<div class='trialBorder'><div class='vertical-center'><img style='vertical-align:center; align:center' src=img/fixation3.jpg></div></div>","null","","","","","",""
"html-keyboard-response","86","66766","0.0-5.0-2.27","64141beda1cef49212be9b6c","bdp_rd","Mon Apr 10 2023 06:56:41 GMT+0800 (China Standard Time)","123510","","886","","","","offer","","<div class='trialBorder'><div class='vertical-center'><img style='vertical-align:center; align:center' src=img/fixation3.jpg></div><div class='cl'><div class='vertical-center'>$14<br>for<br>sure</div></div><div class='cr'><div class='vertical-center'>$22<br>with a<br>50% chance</div></div><div class='respDivL'><div class='vertical-center'>(E)</div></div><div class='respDivR'><div class='vertical-center'>(I)</div></div></div>","I","$14","$22","0","14","22","RISKY"
"html-keyboard-response","87","67024","0.0-5.0-3.27","64141beda1cef49212be9b6c","bdp_rd","Mon Apr 10 2023 06:56:41 GMT+0800 (China Standard Time)","123510","","null","","","","offerFB","","<div class='trialBorder'><div class='vertical-center'><img style='vertical-align:center; align:center' src=img/fixation3.jpg></div><div class='cl'><div class='vertical-center'>$14<br>for<br>sure</div></div><div class='cr'><div class='vertical-center'><font style='color:orange'>$22<br>with a<br>50% chance</font></div></div><div class='respDivL'><div class='vertical-center'>(E)</div></div><div class='respDivR'><div class='vertical-center'><font style='color:orange'>(I)</font></div></div></div>","null","$14","$22","0","14","22",""
"html-keyboard-response","88","67533","0.0-5.0-1.28","64141beda1cef49212be9b6c","bdp_rd","Mon Apr 10 2023 06:56:41 GMT+0800 (China Standard Time)","123510","","null","","","","FIX","","<div class='trialBorder'><div class='vertical-center'><img style='vertical-align:center; align:center' src=img/fixation3.jpg></div></div>","null","","","","","",""
"html-keyboard-response","89","68779","0.0-5.0-2.28","64141beda1cef49212be9b6c","bdp_rd","Mon Apr 10 2023 06:56:41 GMT+0800 (China Standard Time)","123510","","1237","","","","offer","","<div class='trialBorder'><div class='vertical-center'><img style='vertical-align:center; align:center' src=img/fixation3.jpg></div><div class='cl'><div class='vertical-center'>$15<br>for<br>sure</div></div><div class='cr'><div class='vertical-center'>$34<br>with a<br>50% chance</div></div><div class='respDivL'><div class='vertical-center'>(E)</div></div><div class='respDivR'><div class='vertical-center'>(I)</div></div></div>","I","$15","$34","0","15","34","RISKY"
"html-keyboard-response","90","69038","0.0-5.0-3.28","64141beda1cef49212be9b6c","bdp_rd","Mon Apr 10 2023 06:56:41 GMT+0800 (China Standard Time)","123510","","null","","","","offerFB","","<div class='trialBorder'><div class='vertical-center'><img style='vertical-align:center; align:center' src=img/fixation3.jpg></div><div class='cl'><div class='vertical-center'>$15<br>for<br>sure</div></div><div class='cr'><div class='vertical-center'><font style='color:orange'>$34<br>with a<br>50% chance</font></div></div><div class='respDivL'><div class='vertical-center'>(E)</div></div><div class='respDivR'><div class='vertical-center'><font style='color:orange'>(I)</font></div></div></div>","null","$15","$34","0","15","34",""
"html-keyboard-response","91","69547","0.0-5.0-1.29","64141beda1cef49212be9b6c","bdp_rd","Mon Apr 10 2023 06:56:41 GMT+0800 (China Standard Time)","123510","","null","","","","FIX","","<div class='trialBorder'><div class='vertical-center'><img style='vertical-align:center; align:center' src=img/fixation3.jpg></div></div>","null","","","","","",""
"html-keyboard-response","92","70289","0.0-5.0-2.29","64141beda1cef49212be9b6c","bdp_rd","Mon Apr 10 2023 06:56:41 GMT+0800 (China Standard Time)","123510","","736","","","","offer","","<div class='trialBorder'><div class='vertical-center'><img style='vertical-align:center; align:center' src=img/fixation3.jpg></div><div class='cl'><div class='vertical-center'>$13<br>with a<br>50% chance</div></div><div class='cr'><div class='vertical-center'>$6<br>for<br>sure</div></div><div class='respDivL'><div class='vertical-center'>(E)</div></div><div class='respDivR'><div class='vertical-center'>(I)</div></div></div>","E","$6","$13","1","6","13","RISKY"
"html-keyboard-response","93","70550","0.0-5.0-3.29","64141beda1cef49212be9b6c","bdp_rd","Mon Apr 10 2023 06:56:41 GMT+0800 (China Standard Time)","123510","","null","","","","offerFB","","<div class='trialBorder'><div class='vertical-center'><img style='vertical-align:center; align:center' src=img/fixation3.jpg></div><div class='cl'><div class='vertical-center'><font style='color:orange'>$13<br>with a<br>50% chance</font></div></div><div class='cr'><div class='vertical-center'>$6<br>for<br>sure</div></div><div class='respDivL'><div class='vertical-center'><font style='color:orange'>(E)</font></div></div><div class='respDivR'><div class='vertical-center'>(I)</div></div></div>","null","$6","$13","1","6","13",""
"html-keyboard-response","94","71057","0.0-5.0-1.30","64141beda1cef49212be9b6c","bdp_rd","Mon Apr 10 2023 06:56:41 GMT+0800 (China Standard Time)","123510","","null","","","","FIX","","<div class='trialBorder'><div class='vertical-center'><img style='vertical-align:center; align:center' src=img/fixation3.jpg></div></div>","null","","","","","",""
"html-keyboard-response","95","71796","0.0-5.0-2.30","64141beda1cef49212be9b6c","bdp_rd","Mon Apr 10 2023 06:56:41 GMT+0800 (China Standard Time)","123510","","733","","","","offer","","<div class='trialBorder'><div class='vertical-center'><img style='vertical-align:center; align:center' src=img/fixation3.jpg></div><div class='cl'><div class='vertical-center'>$23<br>with a<br>50% chance</div></div><div class='cr'><div class='vertical-center'>$8<br>for<br>sure</div></div><div class='respDivL'><div class='vertical-center'>(E)</div></div><div class='respDivR'><div class='vertical-center'>(I)</div></div></div>","E","$8","$23","1","8","23","RISKY"
"html-keyboard-response","96","72055","0.0-5.0-3.30","64141beda1cef49212be9b6c","bdp_rd","Mon Apr 10 2023 06:56:41 GMT+0800 (China Standard Time)","123510","","null","","","","offerFB","","<div class='trialBorder'><div class='vertical-center'><img style='vertical-align:center; align:center' src=img/fixation3.jpg></div><div class='cl'><div class='vertical-center'><font style='color:orange'>$23<br>with a<br>50% chance</font></div></div><div class='cr'><div class='vertical-center'>$8<br>for<br>sure</div></div><div class='respDivL'><div class='vertical-center'><font style='color:orange'>(E)</font></div></div><div class='respDivR'><div class='vertical-center'>(I)</div></div></div>","null","$8","$23","1","8","23",""
"html-keyboard-response","97","72562","0.0-5.0-1.31","64141beda1cef49212be9b6c","bdp_rd","Mon Apr 10 2023 06:56:41 GMT+0800 (China Standard Time)","123510","","null","","","","FIX","","<div class='trialBorder'><div class='vertical-center'><img style='vertical-align:center; align:center' src=img/fixation3.jpg></div></div>","null","","","","","",""
"html-keyboard-response","98","73603","0.0-5.0-2.31","64141beda1cef49212be9b6c","bdp_rd","Mon Apr 10 2023 06:56:41 GMT+0800 (China Standard Time)","123510","","1034","","","","offer","","<div class='trialBorder'><div class='vertical-center'><img style='vertical-align:center; align:center' src=img/fixation3.jpg></div><div class='cl'><div class='vertical-center'>$40<br>for<br>sure</div></div><div class='cr'><div class='vertical-center'>$95<br>with a<br>50% chance</div></div><div class='respDivL'><div class='vertical-center'>(E)</div></div><div class='respDivR'><div class='vertical-center'>(I)</div></div></div>","I","$40","$95","0","40","95","RISKY"
"html-keyboard-response","99","73858","0.0-5.0-3.31","64141beda1cef49212be9b6c","bdp_rd","Mon Apr 10 2023 06:56:41 GMT+0800 (China Standard Time)","123510","","null","","","","offerFB","","<div class='trialBorder'><div class='vertical-center'><img style='vertical-align:center; align:center' src=img/fixation3.jpg></div><div class='cl'><div class='vertical-center'>$40<br>for<br>sure</div></div><div class='cr'><div class='vertical-center'><font style='color:orange'>$95<br>with a<br>50% chance</font></div></div><div class='respDivL'><div class='vertical-center'>(E)</div></div><div class='respDivR'><div class='vertical-center'><font style='color:orange'>(I)</font></div></div></div>","null","$40","$95","0","40","95",""
"html-keyboard-response","100","74364","0.0-5.0-1.32","64141beda1cef49212be9b6c","bdp_rd","Mon Apr 10 2023 06:56:41 GMT+0800 (China Standard Time)","123510","","null","","","","FIX","","<div class='trialBorder'><div class='vertical-center'><img style='vertical-align:center; align:center' src=img/fixation3.jpg></div></div>","null","","","","","",""
"html-keyboard-response","101","75916","0.0-5.0-2.32","64141beda1cef49212be9b6c","bdp_rd","Mon Apr 10 2023 06:56:41 GMT+0800 (China Standard Time)","123510","","1546","","","","offer","","<div class='trialBorder'><div class='vertical-center'><img style='vertical-align:center; align:center' src=img/fixation3.jpg></div><div class='cl'><div class='vertical-center'>$43<br>with a<br>50% chance</div></div><div class='cr'><div class='vertical-center'>$17<br>for<br>sure</div></div><div class='respDivL'><div class='vertical-center'>(E)</div></div><div class='respDivR'><div class='vertical-center'>(I)</div></div></div>","E","$17","$43","1","17","43","RISKY"
"html-keyboard-response","102","76171","0.0-5.0-3.32","64141beda1cef49212be9b6c","bdp_rd","Mon Apr 10 2023 06:56:41 GMT+0800 (China Standard Time)","123510","","null","","","","offerFB","","<div class='trialBorder'><div class='vertical-center'><img style='vertical-align:center; align:center' src=img/fixation3.jpg></div><div class='cl'><div class='vertical-center'><font style='color:orange'>$43<br>with a<br>50% chance</font></div></div><div class='cr'><div class='vertical-center'>$17<br>for<br>sure</div></div><div class='respDivL'><div class='vertical-center'><font style='color:orange'>(E)</font></div></div><div class='respDivR'><div class='vertical-center'>(I)</div></div></div>","null","$17","$43","1","17","43",""
"html-keyboard-response","103","76675","0.0-5.0-1.33","64141beda1cef49212be9b6c","bdp_rd","Mon Apr 10 2023 06:56:41 GMT+0800 (China Standard Time)","123510","","null","","","","FIX","","<div class='trialBorder'><div class='vertical-center'><img style='vertical-align:center; align:center' src=img/fixation3.jpg></div></div>","null","","","","","",""
"html-keyboard-response","104","78115","0.0-5.0-2.33","64141beda1cef49212be9b6c","bdp_rd","Mon Apr 10 2023 06:56:41 GMT+0800 (China Standard Time)","123510","","1435","","","","offer","","<div class='trialBorder'><div class='vertical-center'><img style='vertical-align:center; align:center' src=img/fixation3.jpg></div><div class='cl'><div class='vertical-center'>$27<br>with a<br>50% chance</div></div><div class='cr'><div class='vertical-center'>$12<br>for<br>sure</div></div><div class='respDivL'><div class='vertical-center'>(E)</div></div><div class='respDivR'><div class='vertical-center'>(I)</div></div></div>","E","$12","$27","1","12","27","RISKY"
"html-keyboard-response","105","78372","0.0-5.0-3.33","64141beda1cef49212be9b6c","bdp_rd","Mon Apr 10 2023 06:56:41 GMT+0800 (China Standard Time)","123510","","null","","","","offerFB","","<div class='trialBorder'><div class='vertical-center'><img style='vertical-align:center; align:center' src=img/fixation3.jpg></div><div class='cl'><div class='vertical-center'><font style='color:orange'>$27<br>with a<br>50% chance</font></div></div><div class='cr'><div class='vertical-center'>$12<br>for<br>sure</div></div><div class='respDivL'><div class='vertical-center'><font style='color:orange'>(E)</font></div></div><div class='respDivR'><div class='vertical-center'>(I)</div></div></div>","null","$12","$27","1","12","27",""
"html-keyboard-response","106","78875","0.0-5.0-1.34","64141beda1cef49212be9b6c","bdp_rd","Mon Apr 10 2023 06:56:41 GMT+0800 (China Standard Time)","123510","","null","","","","FIX","","<div class='trialBorder'><div class='vertical-center'><img style='vertical-align:center; align:center' src=img/fixation3.jpg></div></div>","null","","","","","",""
"html-keyboard-response","107","79714","0.0-5.0-2.34","64141beda1cef49212be9b6c","bdp_rd","Mon Apr 10 2023 06:56:41 GMT+0800 (China Standard Time)","123510","","835","","","","offer","","<div class='trialBorder'><div class='vertical-center'><img style='vertical-align:center; align:center' src=img/fixation3.jpg></div><div class='cl'><div class='vertical-center'>$33<br>with a<br>50% chance</div></div><div class='cr'><div class='vertical-center'>$1<br>for<br>sure</div></div><div class='respDivL'><div class='vertical-center'>(E)</div></div><div class='respDivR'><div class='vertical-center'>(I)</div></div></div>","E","$1","$33","1","1","33","RISKY"
"html-keyboard-response","108","79968","0.0-5.0-3.34","64141beda1cef49212be9b6c","bdp_rd","Mon Apr 10 2023 06:56:41 GMT+0800 (China Standard Time)","123510","","null","","","","offerFB","","<div class='trialBorder'><div class='vertical-center'><img style='vertical-align:center; align:center' src=img/fixation3.jpg></div><div class='cl'><div class='vertical-center'><font style='color:orange'>$33<br>with a<br>50% chance</font></div></div><div class='cr'><div class='vertical-center'>$1<br>for<br>sure</div></div><div class='respDivL'><div class='vertical-center'><font style='color:orange'>(E)</font></div></div><div class='respDivR'><div class='vertical-center'>(I)</div></div></div>","null","$1","$33","1","1","33",""
"html-keyboard-response","109","80473","0.0-5.0-1.35","64141beda1cef49212be9b6c","bdp_rd","Mon Apr 10 2023 06:56:41 GMT+0800 (China Standard Time)","123510","","null","","","","FIX","","<div class='trialBorder'><div class='vertical-center'><img style='vertical-align:center; align:center' src=img/fixation3.jpg></div></div>","null","","","","","",""
"html-keyboard-response","110","81436","0.0-5.0-2.35","64141beda1cef49212be9b6c","bdp_rd","Mon Apr 10 2023 06:56:41 GMT+0800 (China Standard Time)","123510","","953","","","","offer","","<div class='trialBorder'><div class='vertical-center'><img style='vertical-align:center; align:center' src=img/fixation3.jpg></div><div class='cl'><div class='vertical-center'>$9<br>for<br>sure</div></div><div class='cr'><div class='vertical-center'>$18<br>with a<br>50% chance</div></div><div class='respDivL'><div class='vertical-center'>(E)</div></div><div class='respDivR'><div class='vertical-center'>(I)</div></div></div>","I","$9","$18","0","9","18","RISKY"
"html-keyboard-response","111","81693","0.0-5.0-3.35","64141beda1cef49212be9b6c","bdp_rd","Mon Apr 10 2023 06:56:41 GMT+0800 (China Standard Time)","123510","","null","","","","offerFB","","<div class='trialBorder'><div class='vertical-center'><img style='vertical-align:center; align:center' src=img/fixation3.jpg></div><div class='cl'><div class='vertical-center'>$9<br>for<br>sure</div></div><div class='cr'><div class='vertical-center'><font style='color:orange'>$18<br>with a<br>50% chance</font></div></div><div class='respDivL'><div class='vertical-center'>(E)</div></div><div class='respDivR'><div class='vertical-center'><font style='color:orange'>(I)</font></div></div></div>","null","$9","$18","0","9","18",""
"html-keyboard-response","112","82200","0.0-5.0-1.36","64141beda1cef49212be9b6c","bdp_rd","Mon Apr 10 2023 06:56:41 GMT+0800 (China Standard Time)","123510","","null","","","","FIX","","<div class='trialBorder'><div class='vertical-center'><img style='vertical-align:center; align:center' src=img/fixation3.jpg></div></div>","null","","","","","",""
"html-keyboard-response","113","83214","0.0-5.0-2.36","64141beda1cef49212be9b6c","bdp_rd","Mon Apr 10 2023 06:56:41 GMT+0800 (China Standard Time)","123510","","1008","","","","offer","","<div class='trialBorder'><div class='vertical-center'><img style='vertical-align:center; align:center' src=img/fixation3.jpg></div><div class='cl'><div class='vertical-center'>$71<br>with a<br>50% chance</div></div><div class='cr'><div class='vertical-center'>$7<br>for<br>sure</div></div><div class='respDivL'><div class='vertical-center'>(E)</div></div><div class='respDivR'><div class='vertical-center'>(I)</div></div></div>","E","$7","$71","1","7","71","RISKY"
"html-keyboard-response","114","83473","0.0-5.0-3.36","64141beda1cef49212be9b6c","bdp_rd","Mon Apr 10 2023 06:56:41 GMT+0800 (China Standard Time)","123510","","null","","","","offerFB","","<div class='trialBorder'><div class='vertical-center'><img style='vertical-align:center; align:center' src=img/fixation3.jpg></div><div class='cl'><div class='vertical-center'><font style='color:orange'>$71<br>with a<br>50% chance</font></div></div><div class='cr'><div class='vertical-center'>$7<br>for<br>sure</div></div><div class='respDivL'><div class='vertical-center'><font style='color:orange'>(E)</font></div></div><div class='respDivR'><div class='vertical-center'>(I)</div></div></div>","null","$7","$71","1","7","71",""
"html-keyboard-response","115","83981","0.0-5.0-1.37","64141beda1cef49212be9b6c","bdp_rd","Mon Apr 10 2023 06:56:41 GMT+0800 (China Standard Time)","123510","","null","","","","FIX","","<div class='trialBorder'><div class='vertical-center'><img style='vertical-align:center; align:center' src=img/fixation3.jpg></div></div>","null","","","","","",""
"html-keyboard-response","116","84914","0.0-5.0-2.37","64141beda1cef49212be9b6c","bdp_rd","Mon Apr 10 2023 06:56:41 GMT+0800 (China Standard Time)","123510","","927","","","","offer","","<div class='trialBorder'><div class='vertical-center'><img style='vertical-align:center; align:center' src=img/fixation3.jpg></div><div class='cl'><div class='vertical-center'>$68<br>with a<br>50% chance</div></div><div class='cr'><div class='vertical-center'>$30<br>for<br>sure</div></div><div class='respDivL'><div class='vertical-center'>(E)</div></div><div class='respDivR'><div class='vertical-center'>(I)</div></div></div>","E","$30","$68","1","30","68","RISKY"
"html-keyboard-response","117","85173","0.0-5.0-3.37","64141beda1cef49212be9b6c","bdp_rd","Mon Apr 10 2023 06:56:41 GMT+0800 (China Standard Time)","123510","","null","","","","offerFB","","<div class='trialBorder'><div class='vertical-center'><img style='vertical-align:center; align:center' src=img/fixation3.jpg></div><div class='cl'><div class='vertical-center'><font style='color:orange'>$68<br>with a<br>50% chance</font></div></div><div class='cr'><div class='vertical-center'>$30<br>for<br>sure</div></div><div class='respDivL'><div class='vertical-center'><font style='color:orange'>(E)</font></div></div><div class='respDivR'><div class='vertical-center'>(I)</div></div></div>","null","$30","$68","1","30","68",""
"html-keyboard-response","118","85679","0.0-5.0-1.38","64141beda1cef49212be9b6c","bdp_rd","Mon Apr 10 2023 06:56:41 GMT+0800 (China Standard Time)","123510","","null","","","","FIX","","<div class='trialBorder'><div class='vertical-center'><img style='vertical-align:center; align:center' src=img/fixation3.jpg></div></div>","null","","","","","",""
"html-keyboard-response","119","87037","0.0-5.0-2.38","64141beda1cef49212be9b6c","bdp_rd","Mon Apr 10 2023 06:56:41 GMT+0800 (China Standard Time)","123510","","1352","","","","offer","","<div class='trialBorder'><div class='vertical-center'><img style='vertical-align:center; align:center' src=img/fixation3.jpg></div><div class='cl'><div class='vertical-center'>$19<br>for<br>sure</div></div><div class='cr'><div class='vertical-center'>$51<br>with a<br>50% chance</div></div><div class='respDivL'><div class='vertical-center'>(E)</div></div><div class='respDivR'><div class='vertical-center'>(I)</div></div></div>","I","$19","$51","0","19","51","RISKY"
"html-keyboard-response","120","87296","0.0-5.0-3.38","64141beda1cef49212be9b6c","bdp_rd","Mon Apr 10 2023 06:56:41 GMT+0800 (China Standard Time)","123510","","null","","","","offerFB","","<div class='trialBorder'><div class='vertical-center'><img style='vertical-align:center; align:center' src=img/fixation3.jpg></div><div class='cl'><div class='vertical-center'>$19<br>for<br>sure</div></div><div class='cr'><div class='vertical-center'><font style='color:orange'>$51<br>with a<br>50% chance</font></div></div><div class='respDivL'><div class='vertical-center'>(E)</div></div><div class='respDivR'><div class='vertical-center'><font style='color:orange'>(I)</font></div></div></div>","null","$19","$51","0","19","51",""
"html-keyboard-response","121","87800","0.0-5.0-1.39","64141beda1cef49212be9b6c","bdp_rd","Mon Apr 10 2023 06:56:41 GMT+0800 (China Standard Time)","123510","","null","","","","FIX","","<div class='trialBorder'><div class='vertical-center'><img style='vertical-align:center; align:center' src=img/fixation3.jpg></div></div>","null","","","","","",""
"html-keyboard-response","122","88786","0.0-5.0-2.39","64141beda1cef49212be9b6c","bdp_rd","Mon Apr 10 2023 06:56:41 GMT+0800 (China Standard Time)","123510","","983","","","","offer","","<div class='trialBorder'><div class='vertical-center'><img style='vertical-align:center; align:center' src=img/fixation3.jpg></div><div class='cl'><div class='vertical-center'>$3<br>for<br>sure</div></div><div class='cr'><div class='vertical-center'>$12<br>with a<br>50% chance</div></div><div class='respDivL'><div class='vertical-center'>(E)</div></div><div class='respDivR'><div class='vertical-center'>(I)</div></div></div>","I","$3","$12","0","3","12","RISKY"
"html-keyboard-response","123","89041","0.0-5.0-3.39","64141beda1cef49212be9b6c","bdp_rd","Mon Apr 10 2023 06:56:41 GMT+0800 (China Standard Time)","123510","","null","","","","offerFB","","<div class='trialBorder'><div class='vertical-center'><img style='vertical-align:center; align:center' src=img/fixation3.jpg></div><div class='cl'><div class='vertical-center'>$3<br>for<br>sure</div></div><div class='cr'><div class='vertical-center'><font style='color:orange'>$12<br>with a<br>50% chance</font></div></div><div class='respDivL'><div class='vertical-center'>(E)</div></div><div class='respDivR'><div class='vertical-center'><font style='color:orange'>(I)</font></div></div></div>","null","$3","$12","0","3","12",""
"html-keyboard-response","124","89551","0.0-5.0-1.40","64141beda1cef49212be9b6c","bdp_rd","Mon Apr 10 2023 06:56:41 GMT+0800 (China Standard Time)","123510","","null","","","","FIX","","<div class='trialBorder'><div class='vertical-center'><img style='vertical-align:center; align:center' src=img/fixation3.jpg></div></div>","null","","","","","",""
"html-keyboard-response","125","90284","0.0-5.0-2.40","64141beda1cef49212be9b6c","bdp_rd","Mon Apr 10 2023 06:56:41 GMT+0800 (China Standard Time)","123510","","725","","","","offer","","<div class='trialBorder'><div class='vertical-center'><img style='vertical-align:center; align:center' src=img/fixation3.jpg></div><div class='cl'><div class='vertical-center'>$53<br>for<br>sure</div></div><div class='cr'><div class='vertical-center'>$98<br>with a<br>50% chance</div></div><div class='respDivL'><div class='vertical-center'>(E)</div></div><div class='respDivR'><div class='vertical-center'>(I)</div></div></div>","I","$53","$98","0","53","98","RISKY"
"html-keyboard-response","126","90540","0.0-5.0-3.40","64141beda1cef49212be9b6c","bdp_rd","Mon Apr 10 2023 06:56:41 GMT+0800 (China Standard Time)","123510","","null","","","","offerFB","","<div class='trialBorder'><div class='vertical-center'><img style='vertical-align:center; align:center' src=img/fixation3.jpg></div><div class='cl'><div class='vertical-center'>$53<br>for<br>sure</div></div><div class='cr'><div class='vertical-center'><font style='color:orange'>$98<br>with a<br>50% chance</font></div></div><div class='respDivL'><div class='vertical-center'>(E)</div></div><div class='respDivR'><div class='vertical-center'><font style='color:orange'>(I)</font></div></div></div>","null","$53","$98","0","53","98",""
"html-keyboard-response","127","91049","0.0-5.0-1.41","64141beda1cef49212be9b6c","bdp_rd","Mon Apr 10 2023 06:56:41 GMT+0800 (China Standard Time)","123510","","null","","","","FIX","","<div class='trialBorder'><div class='vertical-center'><img style='vertical-align:center; align:center' src=img/fixation3.jpg></div></div>","null","","","","","",""
"html-keyboard-response","128","91822","0.0-5.0-2.41","64141beda1cef49212be9b6c","bdp_rd","Mon Apr 10 2023 06:56:41 GMT+0800 (China Standard Time)","123510","","768","","","","offer","","<div class='trialBorder'><div class='vertical-center'><img style='vertical-align:center; align:center' src=img/fixation3.jpg></div><div class='cl'><div class='vertical-center'>$31<br>with a<br>50% chance</div></div><div class='cr'><div class='vertical-center'>$15<br>for<br>sure</div></div><div class='respDivL'><div class='vertical-center'>(E)</div></div><div class='respDivR'><div class='vertical-center'>(I)</div></div></div>","E","$15","$31","1","15","31","RISKY"
"html-keyboard-response","129","92079","0.0-5.0-3.41","64141beda1cef49212be9b6c","bdp_rd","Mon Apr 10 2023 06:56:41 GMT+0800 (China Standard Time)","123510","","null","","","","offerFB","","<div class='trialBorder'><div class='vertical-center'><img style='vertical-align:center; align:center' src=img/fixation3.jpg></div><div class='cl'><div class='vertical-center'><font style='color:orange'>$31<br>with a<br>50% chance</font></div></div><div class='cr'><div class='vertical-center'>$15<br>for<br>sure</div></div><div class='respDivL'><div class='vertical-center'><font style='color:orange'>(E)</font></div></div><div class='respDivR'><div class='vertical-center'>(I)</div></div></div>","null","$15","$31","1","15","31",""
"html-keyboard-response","130","92584","0.0-5.0-1.42","64141beda1cef49212be9b6c","bdp_rd","Mon Apr 10 2023 06:56:41 GMT+0800 (China Standard Time)","123510","","null","","","","FIX","","<div class='trialBorder'><div class='vertical-center'><img style='vertical-align:center; align:center' src=img/fixation3.jpg></div></div>","null","","","","","",""
"html-keyboard-response","131","93836","0.0-5.0-2.42","64141beda1cef49212be9b6c","bdp_rd","Mon Apr 10 2023 06:56:41 GMT+0800 (China Standard Time)","123510","","1244","","","","offer","","<div class='trialBorder'><div class='vertical-center'><img style='vertical-align:center; align:center' src=img/fixation3.jpg></div><div class='cl'><div class='vertical-center'>$27<br>for<br>sure</div></div><div class='cr'><div class='vertical-center'>$47<br>with a<br>50% chance</div></div><div class='respDivL'><div class='vertical-center'>(E)</div></div><div class='respDivR'><div class='vertical-center'>(I)</div></div></div>","I","$27","$47","0","27","47","RISKY"
"html-keyboard-response","132","94095","0.0-5.0-3.42","64141beda1cef49212be9b6c","bdp_rd","Mon Apr 10 2023 06:56:41 GMT+0800 (China Standard Time)","123510","","null","","","","offerFB","","<div class='trialBorder'><div class='vertical-center'><img style='vertical-align:center; align:center' src=img/fixation3.jpg></div><div class='cl'><div class='vertical-center'>$27<br>for<br>sure</div></div><div class='cr'><div class='vertical-center'><font style='color:orange'>$47<br>with a<br>50% chance</font></div></div><div class='respDivL'><div class='vertical-center'>(E)</div></div><div class='respDivR'><div class='vertical-center'><font style='color:orange'>(I)</font></div></div></div>","null","$27","$47","0","27","47",""
"html-keyboard-response","133","94597","0.0-5.0-1.43","64141beda1cef49212be9b6c","bdp_rd","Mon Apr 10 2023 06:56:41 GMT+0800 (China Standard Time)","123510","","null","","","","FIX","","<div class='trialBorder'><div class='vertical-center'><img style='vertical-align:center; align:center' src=img/fixation3.jpg></div></div>","null","","","","","",""
"html-keyboard-response","134","95611","0.0-5.0-2.43","64141beda1cef49212be9b6c","bdp_rd","Mon Apr 10 2023 06:56:41 GMT+0800 (China Standard Time)","123510","","1011","","","","offer","","<div class='trialBorder'><div class='vertical-center'><img style='vertical-align:center; align:center' src=img/fixation3.jpg></div><div class='cl'><div class='vertical-center'>$17<br>with a<br>50% chance</div></div><div class='cr'><div class='vertical-center'>$3<br>for<br>sure</div></div><div class='respDivL'><div class='vertical-center'>(E)</div></div><div class='respDivR'><div class='vertical-center'>(I)</div></div></div>","E","$3","$17","1","3","17","RISKY"
"html-keyboard-response","135","95865","0.0-5.0-3.43","64141beda1cef49212be9b6c","bdp_rd","Mon Apr 10 2023 06:56:41 GMT+0800 (China Standard Time)","123510","","null","","","","offerFB","","<div class='trialBorder'><div class='vertical-center'><img style='vertical-align:center; align:center' src=img/fixation3.jpg></div><div class='cl'><div class='vertical-center'><font style='color:orange'>$17<br>with a<br>50% chance</font></div></div><div class='cr'><div class='vertical-center'>$3<br>for<br>sure</div></div><div class='respDivL'><div class='vertical-center'><font style='color:orange'>(E)</font></div></div><div class='respDivR'><div class='vertical-center'>(I)</div></div></div>","null","$3","$17","1","3","17",""
"html-keyboard-response","136","96371","0.0-5.0-1.44","64141beda1cef49212be9b6c","bdp_rd","Mon Apr 10 2023 06:56:41 GMT+0800 (China Standard Time)","123510","","null","","","","FIX","","<div class='trialBorder'><div class='vertical-center'><img style='vertical-align:center; align:center' src=img/fixation3.jpg></div></div>","null","","","","","",""
"html-keyboard-response","137","97191","0.0-5.0-2.44","64141beda1cef49212be9b6c","bdp_rd","Mon Apr 10 2023 06:56:41 GMT+0800 (China Standard Time)","123510","","813","","","","offer","","<div class='trialBorder'><div class='vertical-center'><img style='vertical-align:center; align:center' src=img/fixation3.jpg></div><div class='cl'><div class='vertical-center'>$40<br>with a<br>50% chance</div></div><div class='cr'><div class='vertical-center'>$10<br>for<br>sure</div></div><div class='respDivL'><div class='vertical-center'>(E)</div></div><div class='respDivR'><div class='vertical-center'>(I)</div></div></div>","E","$10","$40","1","10","40","RISKY"
"html-keyboard-response","138","97445","0.0-5.0-3.44","64141beda1cef49212be9b6c","bdp_rd","Mon Apr 10 2023 06:56:41 GMT+0800 (China Standard Time)","123510","","null","","","","offerFB","","<div class='trialBorder'><div class='vertical-center'><img style='vertical-align:center; align:center' src=img/fixation3.jpg></div><div class='cl'><div class='vertical-center'><font style='color:orange'>$40<br>with a<br>50% chance</font></div></div><div class='cr'><div class='vertical-center'>$10<br>for<br>sure</div></div><div class='respDivL'><div class='vertical-center'><font style='color:orange'>(E)</font></div></div><div class='respDivR'><div class='vertical-center'>(I)</div></div></div>","null","$10","$40","1","10","40",""
"html-keyboard-response","139","97949","0.0-5.0-1.45","64141beda1cef49212be9b6c","bdp_rd","Mon Apr 10 2023 06:56:41 GMT+0800 (China Standard Time)","123510","","null","","","","FIX","","<div class='trialBorder'><div class='vertical-center'><img style='vertical-align:center; align:center' src=img/fixation3.jpg></div></div>","null","","","","","",""
"html-keyboard-response","140","99001","0.0-5.0-2.45","64141beda1cef49212be9b6c","bdp_rd","Mon Apr 10 2023 06:56:41 GMT+0800 (China Standard Time)","123510","","1050","","","","offer","","<div class='trialBorder'><div class='vertical-center'><img style='vertical-align:center; align:center' src=img/fixation3.jpg></div><div class='cl'><div class='vertical-center'>$29<br>for<br>sure</div></div><div class='cr'><div class='vertical-center'>$46<br>with a<br>50% chance</div></div><div class='respDivL'><div class='vertical-center'>(E)</div></div><div class='respDivR'><div class='vertical-center'>(I)</div></div></div>","I","$29","$46","0","29","46","RISKY"
"html-keyboard-response","141","99256","0.0-5.0-3.45","64141beda1cef49212be9b6c","bdp_rd","Mon Apr 10 2023 06:56:41 GMT+0800 (China Standard Time)","123510","","null","","","","offerFB","","<div class='trialBorder'><div class='vertical-center'><img style='vertical-align:center; align:center' src=img/fixation3.jpg></div><div class='cl'><div class='vertical-center'>$29<br>for<br>sure</div></div><div class='cr'><div class='vertical-center'><font style='color:orange'>$46<br>with a<br>50% chance</font></div></div><div class='respDivL'><div class='vertical-center'>(E)</div></div><div class='respDivR'><div class='vertical-center'><font style='color:orange'>(I)</font></div></div></div>","null","$29","$46","0","29","46",""
"html-keyboard-response","142","99763","0.0-5.0-1.46","64141beda1cef49212be9b6c","bdp_rd","Mon Apr 10 2023 06:56:41 GMT+0800 (China Standard Time)","123510","","null","","","","FIX","","<div class='trialBorder'><div class='vertical-center'><img style='vertical-align:center; align:center' src=img/fixation3.jpg></div></div>","null","","","","","",""
"html-keyboard-response","143","100412","0.0-5.0-2.46","64141beda1cef49212be9b6c","bdp_rd","Mon Apr 10 2023 06:56:41 GMT+0800 (China Standard Time)","123510","","644","","","","offer","","<div class='trialBorder'><div class='vertical-center'><img style='vertical-align:center; align:center' src=img/fixation3.jpg></div><div class='cl'><div class='vertical-center'>$16<br>with a<br>50% chance</div></div><div class='cr'><div class='vertical-center'>$5<br>for<br>sure</div></div><div class='respDivL'><div class='vertical-center'>(E)</div></div><div class='respDivR'><div class='vertical-center'>(I)</div></div></div>","E","$5","$16","1","5","16","RISKY"
"html-keyboard-response","144","100673","0.0-5.0-3.46","64141beda1cef49212be9b6c","bdp_rd","Mon Apr 10 2023 06:56:41 GMT+0800 (China Standard Time)","123510","","null","","","","offerFB","","<div class='trialBorder'><div class='vertical-center'><img style='vertical-align:center; align:center' src=img/fixation3.jpg></div><div class='cl'><div class='vertical-center'><font style='color:orange'>$16<br>with a<br>50% chance</font></div></div><div class='cr'><div class='vertical-center'>$5<br>for<br>sure</div></div><div class='respDivL'><div class='vertical-center'><font style='color:orange'>(E)</font></div></div><div class='respDivR'><div class='vertical-center'>(I)</div></div></div>","null","$5","$16","1","5","16",""
"html-keyboard-response","145","101179","0.0-5.0-1.47","64141beda1cef49212be9b6c","bdp_rd","Mon Apr 10 2023 06:56:41 GMT+0800 (China Standard Time)","123510","","null","","","","FIX","","<div class='trialBorder'><div class='vertical-center'><img style='vertical-align:center; align:center' src=img/fixation3.jpg></div></div>","null","","","","","",""
"html-keyboard-response","146","102059","0.0-5.0-2.47","64141beda1cef49212be9b6c","bdp_rd","Mon Apr 10 2023 06:56:41 GMT+0800 (China Standard Time)","123510","","874","","","","offer","","<div class='trialBorder'><div class='vertical-center'><img style='vertical-align:center; align:center' src=img/fixation3.jpg></div><div class='cl'><div class='vertical-center'>$9<br>for<br>sure</div></div><div class='cr'><div class='vertical-center'>$32<br>with a<br>50% chance</div></div><div class='respDivL'><div class='vertical-center'>(E)</div></div><div class='respDivR'><div class='vertical-center'>(I)</div></div></div>","I","$9","$32","0","9","32","RISKY"
"html-keyboard-response","147","102319","0.0-5.0-3.47","64141beda1cef49212be9b6c","bdp_rd","Mon Apr 10 2023 06:56:41 GMT+0800 (China Standard Time)","123510","","null","","","","offerFB","","<div class='trialBorder'><div class='vertical-center'><img style='vertical-align:center; align:center' src=img/fixation3.jpg></div><div class='cl'><div class='vertical-center'>$9<br>for<br>sure</div></div><div class='cr'><div class='vertical-center'><font style='color:orange'>$32<br>with a<br>50% chance</font></div></div><div class='respDivL'><div class='vertical-center'>(E)</div></div><div class='respDivR'><div class='vertical-center'><font style='color:orange'>(I)</font></div></div></div>","null","$9","$32","0","9","32",""
"html-keyboard-response","148","102823","0.0-5.0-1.48","64141beda1cef49212be9b6c","bdp_rd","Mon Apr 10 2023 06:56:41 GMT+0800 (China Standard Time)","123510","","null","","","","FIX","","<div class='trialBorder'><div class='vertical-center'><img style='vertical-align:center; align:center' src=img/fixation3.jpg></div></div>","null","","","","","",""
"html-keyboard-response","149","104613","0.0-5.0-2.48","64141beda1cef49212be9b6c","bdp_rd","Mon Apr 10 2023 06:56:41 GMT+0800 (China Standard Time)","123510","","1783","","","","offer","","<div class='trialBorder'><div class='vertical-center'><img style='vertical-align:center; align:center' src=img/fixation3.jpg></div><div class='cl'><div class='vertical-center'>$54<br>with a<br>50% chance</div></div><div class='cr'><div class='vertical-center'>$25<br>for<br>sure</div></div><div class='respDivL'><div class='vertical-center'>(E)</div></div><div class='respDivR'><div class='vertical-center'>(I)</div></div></div>","E","$25","$54","1","25","54","RISKY"
"html-keyboard-response","150","104870","0.0-5.0-3.48","64141beda1cef49212be9b6c","bdp_rd","Mon Apr 10 2023 06:56:41 GMT+0800 (China Standard Time)","123510","","null","","","","offerFB","","<div class='trialBorder'><div class='vertical-center'><img style='vertical-align:center; align:center' src=img/fixation3.jpg></div><div class='cl'><div class='vertical-center'><font style='color:orange'>$54<br>with a<br>50% chance</font></div></div><div class='cr'><div class='vertical-center'>$25<br>for<br>sure</div></div><div class='respDivL'><div class='vertical-center'><font style='color:orange'>(E)</font></div></div><div class='respDivR'><div class='vertical-center'>(I)</div></div></div>","null","$25","$54","1","25","54",""
"html-keyboard-response","151","105376","0.0-5.0-1.49","64141beda1cef49212be9b6c","bdp_rd","Mon Apr 10 2023 06:56:41 GMT+0800 (China Standard Time)","123510","","null","","","","FIX","","<div class='trialBorder'><div class='vertical-center'><img style='vertical-align:center; align:center' src=img/fixation3.jpg></div></div>","null","","","","","",""
"html-keyboard-response","152","106987","0.0-5.0-2.49","64141beda1cef49212be9b6c","bdp_rd","Mon Apr 10 2023 06:56:41 GMT+0800 (China Standard Time)","123510","","1601","","","","offer","","<div class='trialBorder'><div class='vertical-center'><img style='vertical-align:center; align:center' src=img/fixation3.jpg></div><div class='cl'><div class='vertical-center'>$26<br>for<br>sure</div></div><div class='cr'><div class='vertical-center'>$92<br>with a<br>50% chance</div></div><div class='respDivL'><div class='vertical-center'>(E)</div></div><div class='respDivR'><div class='vertical-center'>(I)</div></div></div>","I","$26","$92","0","26","92","RISKY"
"html-keyboard-response","153","107246","0.0-5.0-3.49","64141beda1cef49212be9b6c","bdp_rd","Mon Apr 10 2023 06:56:41 GMT+0800 (China Standard Time)","123510","","null","","","","offerFB","","<div class='trialBorder'><div class='vertical-center'><img style='vertical-align:center; align:center' src=img/fixation3.jpg></div><div class='cl'><div class='vertical-center'>$26<br>for<br>sure</div></div><div class='cr'><div class='vertical-center'><font style='color:orange'>$92<br>with a<br>50% chance</font></div></div><div class='respDivL'><div class='vertical-center'>(E)</div></div><div class='respDivR'><div class='vertical-center'><font style='color:orange'>(I)</font></div></div></div>","null","$26","$92","0","26","92",""
"html-keyboard-response","154","107754","0.0-5.0-1.50","64141beda1cef49212be9b6c","bdp_rd","Mon Apr 10 2023 06:56:41 GMT+0800 (China Standard Time)","123510","","null","","","","FIX","","<div class='trialBorder'><div class='vertical-center'><img style='vertical-align:center; align:center' src=img/fixation3.jpg></div></div>","null","","","","","",""
"html-keyboard-response","155","108586","0.0-5.0-2.50","64141beda1cef49212be9b6c","bdp_rd","Mon Apr 10 2023 06:56:41 GMT+0800 (China Standard Time)","123510","","827","","","","offer","","<div class='trialBorder'><div class='vertical-center'><img style='vertical-align:center; align:center' src=img/fixation3.jpg></div><div class='cl'><div class='vertical-center'>$5<br>for<br>sure</div></div><div class='cr'><div class='vertical-center'>$50<br>with a<br>50% chance</div></div><div class='respDivL'><div class='vertical-center'>(E)</div></div><div class='respDivR'><div class='vertical-center'>(I)</div></div></div>","I","$5","$50","0","5","50","RISKY"
"html-keyboard-response","156","108855","0.0-5.0-3.50","64141beda1cef49212be9b6c","bdp_rd","Mon Apr 10 2023 06:56:41 GMT+0800 (China Standard Time)","123510","","null","","","","offerFB","","<div class='trialBorder'><div class='vertical-center'><img style='vertical-align:center; align:center' src=img/fixation3.jpg></div><div class='cl'><div class='vertical-center'>$5<br>for<br>sure</div></div><div class='cr'><div class='vertical-center'><font style='color:orange'>$50<br>with a<br>50% chance</font></div></div><div class='respDivL'><div class='vertical-center'>(E)</div></div><div class='respDivR'><div class='vertical-center'><font style='color:orange'>(I)</font></div></div></div>","null","$5","$50","0","5","50",""
"html-keyboard-response","157","109360","0.0-5.0-1.51","64141beda1cef49212be9b6c","bdp_rd","Mon Apr 10 2023 06:56:41 GMT+0800 (China Standard Time)","123510","","null","","","","FIX","","<div class='trialBorder'><div class='vertical-center'><img style='vertical-align:center; align:center' src=img/fixation3.jpg></div></div>","null","","","","","",""
"html-keyboard-response","158","110193","0.0-5.0-2.51","64141beda1cef49212be9b6c","bdp_rd","Mon Apr 10 2023 06:56:41 GMT+0800 (China Standard Time)","123510","","824","","","","offer","","<div class='trialBorder'><div class='vertical-center'><img style='vertical-align:center; align:center' src=img/fixation3.jpg></div><div class='cl'><div class='vertical-center'>$22<br>for<br>sure</div></div><div class='cr'><div class='vertical-center'>$59<br>with a<br>50% chance</div></div><div class='respDivL'><div class='vertical-center'>(E)</div></div><div class='respDivR'><div class='vertical-center'>(I)</div></div></div>","I","$22","$59","0","22","59","RISKY"
"html-keyboard-response","159","110449","0.0-5.0-3.51","64141beda1cef49212be9b6c","bdp_rd","Mon Apr 10 2023 06:56:41 GMT+0800 (China Standard Time)","123510","","null","","","","offerFB","","<div class='trialBorder'><div class='vertical-center'><img style='vertical-align:center; align:center' src=img/fixation3.jpg></div><div class='cl'><div class='vertical-center'>$22<br>for<br>sure</div></div><div class='cr'><div class='vertical-center'><font style='color:orange'>$59<br>with a<br>50% chance</font></div></div><div class='respDivL'><div class='vertical-center'>(E)</div></div><div class='respDivR'><div class='vertical-center'><font style='color:orange'>(I)</font></div></div></div>","null","$22","$59","0","22","59",""
"html-keyboard-response","160","110954","0.0-5.0-1.52","64141beda1cef49212be9b6c","bdp_rd","Mon Apr 10 2023 06:56:41 GMT+0800 (China Standard Time)","123510","","null","","","","FIX","","<div class='trialBorder'><div class='vertical-center'><img style='vertical-align:center; align:center' src=img/fixation3.jpg></div></div>","null","","","","","",""
"html-keyboard-response","161","111796","0.0-5.0-2.52","64141beda1cef49212be9b6c","bdp_rd","Mon Apr 10 2023 06:56:41 GMT+0800 (China Standard Time)","123510","","833","","","","offer","","<div class='trialBorder'><div class='vertical-center'><img style='vertical-align:center; align:center' src=img/fixation3.jpg></div><div class='cl'><div class='vertical-center'>$18<br>for<br>sure</div></div><div class='cr'><div class='vertical-center'>$36<br>with a<br>50% chance</div></div><div class='respDivL'><div class='vertical-center'>(E)</div></div><div class='respDivR'><div class='vertical-center'>(I)</div></div></div>","I","$18","$36","0","18","36","RISKY"
"html-keyboard-response","162","112054","0.0-5.0-3.52","64141beda1cef49212be9b6c","bdp_rd","Mon Apr 10 2023 06:56:41 GMT+0800 (China Standard Time)","123510","","null","","","","offerFB","","<div class='trialBorder'><div class='vertical-center'><img style='vertical-align:center; align:center' src=img/fixation3.jpg></div><div class='cl'><div class='vertical-center'>$18<br>for<br>sure</div></div><div class='cr'><div class='vertical-center'><font style='color:orange'>$36<br>with a<br>50% chance</font></div></div><div class='respDivL'><div class='vertical-center'>(E)</div></div><div class='respDivR'><div class='vertical-center'><font style='color:orange'>(I)</font></div></div></div>","null","$18","$36","0","18","36",""
"html-keyboard-response","163","112557","0.0-5.0-1.53","64141beda1cef49212be9b6c","bdp_rd","Mon Apr 10 2023 06:56:41 GMT+0800 (China Standard Time)","123510","","null","","","","FIX","","<div class='trialBorder'><div class='vertical-center'><img style='vertical-align:center; align:center' src=img/fixation3.jpg></div></div>","null","","","","","",""
"html-keyboard-response","164","113249","0.0-5.0-2.53","64141beda1cef49212be9b6c","bdp_rd","Mon Apr 10 2023 06:56:41 GMT+0800 (China Standard Time)","123510","","689","","","","offer","","<div class='trialBorder'><div class='vertical-center'><img style='vertical-align:center; align:center' src=img/fixation3.jpg></div><div class='cl'><div class='vertical-center'>$100<br>with a<br>50% chance</div></div><div class='cr'><div class='vertical-center'>$63<br>for<br>sure</div></div><div class='respDivL'><div class='vertical-center'>(E)</div></div><div class='respDivR'><div class='vertical-center'>(I)</div></div></div>","I","$63","$100","1","63","10","SURE"
"html-keyboard-response","165","113506","0.0-5.0-3.53","64141beda1cef49212be9b6c","bdp_rd","Mon Apr 10 2023 06:56:41 GMT+0800 (China Standard Time)","123510","","null","","","","offerFB","","<div class='trialBorder'><div class='vertical-center'><img style='vertical-align:center; align:center' src=img/fixation3.jpg></div><div class='cl'><div class='vertical-center'>$100<br>with a<br>50% chance</div></div><div class='cr'><div class='vertical-center'><font style='color:orange'>$63<br>for<br>sure</font></div></div><div class='respDivL'><div class='vertical-center'>(E)</div></div><div class='respDivR'><div class='vertical-center'><font style='color:orange'>(I)</font></div></div></div>","null","$63","$100","1","63","10",""
"html-keyboard-response","166","114011","0.0-5.0-1.54","64141beda1cef49212be9b6c","bdp_rd","Mon Apr 10 2023 06:56:41 GMT+0800 (China Standard Time)","123510","","null","","","","FIX","","<div class='trialBorder'><div class='vertical-center'><img style='vertical-align:center; align:center' src=img/fixation3.jpg></div></div>","null","","","","","",""
"html-keyboard-response","167","114921","0.0-5.0-2.54","64141beda1cef49212be9b6c","bdp_rd","Mon Apr 10 2023 06:56:41 GMT+0800 (China Standard Time)","123510","","904","","","","offer","","<div class='trialBorder'><div class='vertical-center'><img style='vertical-align:center; align:center' src=img/fixation3.jpg></div><div class='cl'><div class='vertical-center'>$46<br>for<br>sure</div></div><div class='cr'><div class='vertical-center'>$65<br>with a<br>50% chance</div></div><div class='respDivL'><div class='vertical-center'>(E)</div></div><div class='respDivR'><div class='vertical-center'>(I)</div></div></div>","I","$46","$65","0","46","65","RISKY"
"html-keyboard-response","168","115178","0.0-5.0-3.54","64141beda1cef49212be9b6c","bdp_rd","Mon Apr 10 2023 06:56:41 GMT+0800 (China Standard Time)","123510","","null","","","","offerFB","","<div class='trialBorder'><div class='vertical-center'><img style='vertical-align:center; align:center' src=img/fixation3.jpg></div><div class='cl'><div class='vertical-center'>$46<br>for<br>sure</div></div><div class='cr'><div class='vertical-center'><font style='color:orange'>$65<br>with a<br>50% chance</font></div></div><div class='respDivL'><div class='vertical-center'>(E)</div></div><div class='respDivR'><div class='vertical-center'><font style='color:orange'>(I)</font></div></div></div>","null","$46","$65","0","46","65",""
"html-keyboard-response","169","115681","0.0-5.0-1.55","64141beda1cef49212be9b6c","bdp_rd","Mon Apr 10 2023 06:56:41 GMT+0800 (China Standard Time)","123510","","null","","","","FIX","","<div class='trialBorder'><div class='vertical-center'><img style='vertical-align:center; align:center' src=img/fixation3.jpg></div></div>","null","","","","","",""
"html-keyboard-response","170","116574","0.0-5.0-2.55","64141beda1cef49212be9b6c","bdp_rd","Mon Apr 10 2023 06:56:41 GMT+0800 (China Standard Time)","123510","","888","","","","offer","","<div class='trialBorder'><div class='vertical-center'><img style='vertical-align:center; align:center' src=img/fixation3.jpg></div><div class='cl'><div class='vertical-center'>$78<br>with a<br>50% chance</div></div><div class='cr'><div class='vertical-center'>$31<br>for<br>sure</div></div><div class='respDivL'><div class='vertical-center'>(E)</div></div><div class='respDivR'><div class='vertical-center'>(I)</div></div></div>","E","$31","$78","1","31","78","RISKY"
"html-keyboard-response","171","116837","0.0-5.0-3.55","64141beda1cef49212be9b6c","bdp_rd","Mon Apr 10 2023 06:56:41 GMT+0800 (China Standard Time)","123510","","null","","","","offerFB","","<div class='trialBorder'><div class='vertical-center'><img style='vertical-align:center; align:center' src=img/fixation3.jpg></div><div class='cl'><div class='vertical-center'><font style='color:orange'>$78<br>with a<br>50% chance</font></div></div><div class='cr'><div class='vertical-center'>$31<br>for<br>sure</div></div><div class='respDivL'><div class='vertical-center'><font style='color:orange'>(E)</font></div></div><div class='respDivR'><div class='vertical-center'>(I)</div></div></div>","null","$31","$78","1","31","78",""
"html-keyboard-response","172","117342","0.0-5.0-1.56","64141beda1cef49212be9b6c","bdp_rd","Mon Apr 10 2023 06:56:41 GMT+0800 (China Standard Time)","123510","","null","","","","FIX","","<div class='trialBorder'><div class='vertical-center'><img style='vertical-align:center; align:center' src=img/fixation3.jpg></div></div>","null","","","","","",""
"html-keyboard-response","173","118056","0.0-5.0-2.56","64141beda1cef49212be9b6c","bdp_rd","Mon Apr 10 2023 06:56:41 GMT+0800 (China Standard Time)","123510","","711","","","","offer","","<div class='trialBorder'><div class='vertical-center'><img style='vertical-align:center; align:center' src=img/fixation3.jpg></div><div class='cl'><div class='vertical-center'>$13<br>for<br>sure</div></div><div class='cr'><div class='vertical-center'>$24<br>with a<br>50% chance</div></div><div class='respDivL'><div class='vertical-center'>(E)</div></div><div class='respDivR'><div class='vertical-center'>(I)</div></div></div>","I","$13","$24","0","13","24","RISKY"
"html-keyboard-response","174","118310","0.0-5.0-3.56","64141beda1cef49212be9b6c","bdp_rd","Mon Apr 10 2023 06:56:41 GMT+0800 (China Standard Time)","123510","","null","","","","offerFB","","<div class='trialBorder'><div class='vertical-center'><img style='vertical-align:center; align:center' src=img/fixation3.jpg></div><div class='cl'><div class='vertical-center'>$13<br>for<br>sure</div></div><div class='cr'><div class='vertical-center'><font style='color:orange'>$24<br>with a<br>50% chance</font></div></div><div class='respDivL'><div class='vertical-center'>(E)</div></div><div class='respDivR'><div class='vertical-center'><font style='color:orange'>(I)</font></div></div></div>","null","$13","$24","0","13","24",""
