"trial_type","trial_index","time_elapsed","internal_node_id","subject_id","task","startTime","totalTime","view_history","rt","event","trial","time","trialtype","success","stimulus","key_press","sureOffer","riskyOffer","riskyLeft","sureAmt","riskyAmt","chosen"
"pavlovia","0","9","0.0-0.0","63d40528f7676637efbd18eb","bdp_rd","Sat Mar 25 2023 16:56:54 GMT-0700 (Pacific Daylight Time)","167358","","","","","","","","","","","","","","",""
"instructions","1","1247","0.0-1.0","63d40528f7676637efbd18eb","bdp_rd","Sat Mar 25 2023 16:56:54 GMT-0700 (Pacific Daylight Time)","167358","[{""page_index"":0,""viewing_time"":1237}]","1237","","","","","","","","","","","","",""
"","","","","63d40528f7676637efbd18eb","bdp_rd","Sat Mar 25 2023 16:56:54 GMT-0700 (Pacific Daylight Time)","167358","","","fullscreenenter","2","2366","fullscreenenter","","","","","","","","",""
"fullscreen","2","3352","0.0-2.0","63d40528f7676637efbd18eb","bdp_rd","Sat Mar 25 2023 16:56:54 GMT-0700 (Pacific Daylight Time)","167358","","","","","","","true","","","","","","","",""
"instructions","3","24134","0.0-4.0","63d40528f7676637efbd18eb","bdp_rd","Sat Mar 25 2023 16:56:54 GMT-0700 (Pacific Daylight Time)","167358","[{""page_index"":0,""viewing_time"":12012},{""page_index"":1,""viewing_time"":5864},{""page_index"":2,""viewing_time"":2904}]","20780","","","","","","","","","","","","",""
"html-keyboard-response","4","24639","0.0-5.0-1.0","63d40528f7676637efbd18eb","bdp_rd","Sat Mar 25 2023 16:56:54 GMT-0700 (Pacific Daylight Time)","167358","","null","","","","FIX","","<div class='trialBorder'><div class='vertical-center'><img style='vertical-align:center; align:center' src=img/fixation3.jpg></div></div>","null","","","","","",""
"html-keyboard-response","5","26241","0.0-5.0-2.0","63d40528f7676637efbd18eb","bdp_rd","Sat Mar 25 2023 16:56:54 GMT-0700 (Pacific Daylight Time)","167358","","1599","","","","offer","","<div class='trialBorder'><div class='vertical-center'><img style='vertical-align:center; align:center' src=img/fixation3.jpg></div><div class='cl'><div class='vertical-center'>$9<br>for<br>sure</div></div><div class='cr'><div class='vertical-center'>$32<br>with a<br>50% chance</div></div><div class='respDivL'><div class='vertical-center'>(E)</div></div><div class='respDivR'><div class='vertical-center'>(I)</div></div></div>","I","$9","$32","0","9","32","RISKY"
"html-keyboard-response","6","26495","0.0-5.0-3.0","63d40528f7676637efbd18eb","bdp_rd","Sat Mar 25 2023 16:56:54 GMT-0700 (Pacific Daylight Time)","167358","","null","","","","offerFB","","<div class='trialBorder'><div class='vertical-center'><img style='vertical-align:center; align:center' src=img/fixation3.jpg></div><div class='cl'><div class='vertical-center'>$9<br>for<br>sure</div></div><div class='cr'><div class='vertical-center'><font style='color:orange'>$32<br>with a<br>50% chance</font></div></div><div class='respDivL'><div class='vertical-center'>(E)</div></div><div class='respDivR'><div class='vertical-center'><font style='color:orange'>(I)</font></div></div></div>","null","$9","$32","0","9","32",""
"html-keyboard-response","7","26998","0.0-5.0-1.1","63d40528f7676637efbd18eb","bdp_rd","Sat Mar 25 2023 16:56:54 GMT-0700 (Pacific Daylight Time)","167358","","null","","","","FIX","","<div class='trialBorder'><div class='vertical-center'><img style='vertical-align:center; align:center' src=img/fixation3.jpg></div></div>","null","","","","","",""
"html-keyboard-response","8","28935","0.0-5.0-2.1","63d40528f7676637efbd18eb","bdp_rd","Sat Mar 25 2023 16:56:54 GMT-0700 (Pacific Daylight Time)","167358","","1934","","","","offer","","<div class='trialBorder'><div class='vertical-center'><img style='vertical-align:center; align:center' src=img/fixation3.jpg></div><div class='cl'><div class='vertical-center'>$13<br>with a<br>50% chance</div></div><div class='cr'><div class='vertical-center'>$6<br>for<br>sure</div></div><div class='respDivL'><div class='vertical-center'>(E)</div></div><div class='respDivR'><div class='vertical-center'>(I)</div></div></div>","I","$6","$13","1","6","13","SURE"
"html-keyboard-response","9","29188","0.0-5.0-3.1","63d40528f7676637efbd18eb","bdp_rd","Sat Mar 25 2023 16:56:54 GMT-0700 (Pacific Daylight Time)","167358","","null","","","","offerFB","","<div class='trialBorder'><div class='vertical-center'><img style='vertical-align:center; align:center' src=img/fixation3.jpg></div><div class='cl'><div class='vertical-center'>$13<br>with a<br>50% chance</div></div><div class='cr'><div class='vertical-center'><font style='color:orange'>$6<br>for<br>sure</font></div></div><div class='respDivL'><div class='vertical-center'>(E)</div></div><div class='respDivR'><div class='vertical-center'><font style='color:orange'>(I)</font></div></div></div>","null","$6","$13","1","6","13",""
"html-keyboard-response","10","29693","0.0-5.0-1.2","63d40528f7676637efbd18eb","bdp_rd","Sat Mar 25 2023 16:56:54 GMT-0700 (Pacific Daylight Time)","167358","","null","","","","FIX","","<div class='trialBorder'><div class='vertical-center'><img style='vertical-align:center; align:center' src=img/fixation3.jpg></div></div>","null","","","","","",""
"html-keyboard-response","11","31534","0.0-5.0-2.2","63d40528f7676637efbd18eb","bdp_rd","Sat Mar 25 2023 16:56:54 GMT-0700 (Pacific Daylight Time)","167358","","1840","","","","offer","","<div class='trialBorder'><div class='vertical-center'><img style='vertical-align:center; align:center' src=img/fixation3.jpg></div><div class='cl'><div class='vertical-center'>$64<br>with a<br>50% chance</div></div><div class='cr'><div class='vertical-center'>$2<br>for<br>sure</div></div><div class='respDivL'><div class='vertical-center'>(E)</div></div><div class='respDivR'><div class='vertical-center'>(I)</div></div></div>","E","$2","$64","1","2","64","RISKY"
"html-keyboard-response","12","31787","0.0-5.0-3.2","63d40528f7676637efbd18eb","bdp_rd","Sat Mar 25 2023 16:56:54 GMT-0700 (Pacific Daylight Time)","167358","","null","","","","offerFB","","<div class='trialBorder'><div class='vertical-center'><img style='vertical-align:center; align:center' src=img/fixation3.jpg></div><div class='cl'><div class='vertical-center'><font style='color:orange'>$64<br>with a<br>50% chance</font></div></div><div class='cr'><div class='vertical-center'>$2<br>for<br>sure</div></div><div class='respDivL'><div class='vertical-center'><font style='color:orange'>(E)</font></div></div><div class='respDivR'><div class='vertical-center'>(I)</div></div></div>","null","$2","$64","1","2","64",""
"html-keyboard-response","13","32290","0.0-5.0-1.3","63d40528f7676637efbd18eb","bdp_rd","Sat Mar 25 2023 16:56:54 GMT-0700 (Pacific Daylight Time)","167358","","null","","","","FIX","","<div class='trialBorder'><div class='vertical-center'><img style='vertical-align:center; align:center' src=img/fixation3.jpg></div></div>","null","","","","","",""
"html-keyboard-response","14","34519","0.0-5.0-2.3","63d40528f7676637efbd18eb","bdp_rd","Sat Mar 25 2023 16:56:54 GMT-0700 (Pacific Daylight Time)","167358","","2227","","","","offer","","<div class='trialBorder'><div class='vertical-center'><img style='vertical-align:center; align:center' src=img/fixation3.jpg></div><div class='cl'><div class='vertical-center'>$13<br>for<br>sure</div></div><div class='cr'><div class='vertical-center'>$41<br>with a<br>50% chance</div></div><div class='respDivL'><div class='vertical-center'>(E)</div></div><div class='respDivR'><div class='vertical-center'>(I)</div></div></div>","I","$13","$41","0","13","41","RISKY"
"html-keyboard-response","15","34772","0.0-5.0-3.3","63d40528f7676637efbd18eb","bdp_rd","Sat Mar 25 2023 16:56:54 GMT-0700 (Pacific Daylight Time)","167358","","null","","","","offerFB","","<div class='trialBorder'><div class='vertical-center'><img style='vertical-align:center; align:center' src=img/fixation3.jpg></div><div class='cl'><div class='vertical-center'>$13<br>for<br>sure</div></div><div class='cr'><div class='vertical-center'><font style='color:orange'>$41<br>with a<br>50% chance</font></div></div><div class='respDivL'><div class='vertical-center'>(E)</div></div><div class='respDivR'><div class='vertical-center'><font style='color:orange'>(I)</font></div></div></div>","null","$13","$41","0","13","41",""
"html-keyboard-response","16","35276","0.0-5.0-1.4","63d40528f7676637efbd18eb","bdp_rd","Sat Mar 25 2023 16:56:54 GMT-0700 (Pacific Daylight Time)","167358","","null","","","","FIX","","<div class='trialBorder'><div class='vertical-center'><img style='vertical-align:center; align:center' src=img/fixation3.jpg></div></div>","null","","","","","",""
"html-keyboard-response","17","36936","0.0-5.0-2.4","63d40528f7676637efbd18eb","bdp_rd","Sat Mar 25 2023 16:56:54 GMT-0700 (Pacific Daylight Time)","167358","","1658","","","","offer","","<div class='trialBorder'><div class='vertical-center'><img style='vertical-align:center; align:center' src=img/fixation3.jpg></div><div class='cl'><div class='vertical-center'>$1<br>for<br>sure</div></div><div class='cr'><div class='vertical-center'>$33<br>with a<br>50% chance</div></div><div class='respDivL'><div class='vertical-center'>(E)</div></div><div class='respDivR'><div class='vertical-center'>(I)</div></div></div>","I","$1","$33","0","1","33","RISKY"
"html-keyboard-response","18","37188","0.0-5.0-3.4","63d40528f7676637efbd18eb","bdp_rd","Sat Mar 25 2023 16:56:54 GMT-0700 (Pacific Daylight Time)","167358","","null","","","","offerFB","","<div class='trialBorder'><div class='vertical-center'><img style='vertical-align:center; align:center' src=img/fixation3.jpg></div><div class='cl'><div class='vertical-center'>$1<br>for<br>sure</div></div><div class='cr'><div class='vertical-center'><font style='color:orange'>$33<br>with a<br>50% chance</font></div></div><div class='respDivL'><div class='vertical-center'>(E)</div></div><div class='respDivR'><div class='vertical-center'><font style='color:orange'>(I)</font></div></div></div>","null","$1","$33","0","1","33",""
"html-keyboard-response","19","37691","0.0-5.0-1.5","63d40528f7676637efbd18eb","bdp_rd","Sat Mar 25 2023 16:56:54 GMT-0700 (Pacific Daylight Time)","167358","","null","","","","FIX","","<div class='trialBorder'><div class='vertical-center'><img style='vertical-align:center; align:center' src=img/fixation3.jpg></div></div>","null","","","","","",""
"html-keyboard-response","20","39142","0.0-5.0-2.5","63d40528f7676637efbd18eb","bdp_rd","Sat Mar 25 2023 16:56:54 GMT-0700 (Pacific Daylight Time)","167358","","1450","","","","offer","","<div class='trialBorder'><div class='vertical-center'><img style='vertical-align:center; align:center' src=img/fixation3.jpg></div><div class='cl'><div class='vertical-center'>$17<br>with a<br>50% chance</div></div><div class='cr'><div class='vertical-center'>$3<br>for<br>sure</div></div><div class='respDivL'><div class='vertical-center'>(E)</div></div><div class='respDivR'><div class='vertical-center'>(I)</div></div></div>","E","$3","$17","1","3","17","RISKY"
"html-keyboard-response","21","39395","0.0-5.0-3.5","63d40528f7676637efbd18eb","bdp_rd","Sat Mar 25 2023 16:56:54 GMT-0700 (Pacific Daylight Time)","167358","","null","","","","offerFB","","<div class='trialBorder'><div class='vertical-center'><img style='vertical-align:center; align:center' src=img/fixation3.jpg></div><div class='cl'><div class='vertical-center'><font style='color:orange'>$17<br>with a<br>50% chance</font></div></div><div class='cr'><div class='vertical-center'>$3<br>for<br>sure</div></div><div class='respDivL'><div class='vertical-center'><font style='color:orange'>(E)</font></div></div><div class='respDivR'><div class='vertical-center'>(I)</div></div></div>","null","$3","$17","1","3","17",""
"html-keyboard-response","22","39897","0.0-5.0-1.6","63d40528f7676637efbd18eb","bdp_rd","Sat Mar 25 2023 16:56:54 GMT-0700 (Pacific Daylight Time)","167358","","null","","","","FIX","","<div class='trialBorder'><div class='vertical-center'><img style='vertical-align:center; align:center' src=img/fixation3.jpg></div></div>","null","","","","","",""
"html-keyboard-response","23","41176","0.0-5.0-2.6","63d40528f7676637efbd18eb","bdp_rd","Sat Mar 25 2023 16:56:54 GMT-0700 (Pacific Daylight Time)","167358","","1276","","","","offer","","<div class='trialBorder'><div class='vertical-center'><img style='vertical-align:center; align:center' src=img/fixation3.jpg></div><div class='cl'><div class='vertical-center'>$50<br>with a<br>50% chance</div></div><div class='cr'><div class='vertical-center'>$5<br>for<br>sure</div></div><div class='respDivL'><div class='vertical-center'>(E)</div></div><div class='respDivR'><div class='vertical-center'>(I)</div></div></div>","E","$5","$50","1","5","50","RISKY"
"html-keyboard-response","24","41429","0.0-5.0-3.6","63d40528f7676637efbd18eb","bdp_rd","Sat Mar 25 2023 16:56:54 GMT-0700 (Pacific Daylight Time)","167358","","null","","","","offerFB","","<div class='trialBorder'><div class='vertical-center'><img style='vertical-align:center; align:center' src=img/fixation3.jpg></div><div class='cl'><div class='vertical-center'><font style='color:orange'>$50<br>with a<br>50% chance</font></div></div><div class='cr'><div class='vertical-center'>$5<br>for<br>sure</div></div><div class='respDivL'><div class='vertical-center'><font style='color:orange'>(E)</font></div></div><div class='respDivR'><div class='vertical-center'>(I)</div></div></div>","null","$5","$50","1","5","50",""
"html-keyboard-response","25","41931","0.0-5.0-1.7","63d40528f7676637efbd18eb","bdp_rd","Sat Mar 25 2023 16:56:54 GMT-0700 (Pacific Daylight Time)","167358","","null","","","","FIX","","<div class='trialBorder'><div class='vertical-center'><img style='vertical-align:center; align:center' src=img/fixation3.jpg></div></div>","null","","","","","",""
"html-keyboard-response","26","43736","0.0-5.0-2.7","63d40528f7676637efbd18eb","bdp_rd","Sat Mar 25 2023 16:56:54 GMT-0700 (Pacific Daylight Time)","167358","","1802","","","","offer","","<div class='trialBorder'><div class='vertical-center'><img style='vertical-align:center; align:center' src=img/fixation3.jpg></div><div class='cl'><div class='vertical-center'>$40<br>for<br>sure</div></div><div class='cr'><div class='vertical-center'>$95<br>with a<br>50% chance</div></div><div class='respDivL'><div class='vertical-center'>(E)</div></div><div class='respDivR'><div class='vertical-center'>(I)</div></div></div>","E","$40","$95","0","40","95","SURE"
"html-keyboard-response","27","43989","0.0-5.0-3.7","63d40528f7676637efbd18eb","bdp_rd","Sat Mar 25 2023 16:56:54 GMT-0700 (Pacific Daylight Time)","167358","","null","","","","offerFB","","<div class='trialBorder'><div class='vertical-center'><img style='vertical-align:center; align:center' src=img/fixation3.jpg></div><div class='cl'><div class='vertical-center'><font style='color:orange'>$40<br>for<br>sure</font></div></div><div class='cr'><div class='vertical-center'>$95<br>with a<br>50% chance</div></div><div class='respDivL'><div class='vertical-center'><font style='color:orange'>(E)</font></div></div><div class='respDivR'><div class='vertical-center'>(I)</div></div></div>","null","$40","$95","0","40","95",""
"html-keyboard-response","28","44492","0.0-5.0-1.8","63d40528f7676637efbd18eb","bdp_rd","Sat Mar 25 2023 16:56:54 GMT-0700 (Pacific Daylight Time)","167358","","null","","","","FIX","","<div class='trialBorder'><div class='vertical-center'><img style='vertical-align:center; align:center' src=img/fixation3.jpg></div></div>","null","","","","","",""
"html-keyboard-response","29","45559","0.0-5.0-2.8","63d40528f7676637efbd18eb","bdp_rd","Sat Mar 25 2023 16:56:54 GMT-0700 (Pacific Daylight Time)","167358","","1065","","","","offer","","<div class='trialBorder'><div class='vertical-center'><img style='vertical-align:center; align:center' src=img/fixation3.jpg></div><div class='cl'><div class='vertical-center'>$63<br>for<br>sure</div></div><div class='cr'><div class='vertical-center'>$100<br>with a<br>50% chance</div></div><div class='respDivL'><div class='vertical-center'>(E)</div></div><div class='respDivR'><div class='vertical-center'>(I)</div></div></div>","E","$63","$100","0","63","10","SURE"
"html-keyboard-response","30","45811","0.0-5.0-3.8","63d40528f7676637efbd18eb","bdp_rd","Sat Mar 25 2023 16:56:54 GMT-0700 (Pacific Daylight Time)","167358","","null","","","","offerFB","","<div class='trialBorder'><div class='vertical-center'><img style='vertical-align:center; align:center' src=img/fixation3.jpg></div><div class='cl'><div class='vertical-center'><font style='color:orange'>$63<br>for<br>sure</font></div></div><div class='cr'><div class='vertical-center'>$100<br>with a<br>50% chance</div></div><div class='respDivL'><div class='vertical-center'><font style='color:orange'>(E)</font></div></div><div class='respDivR'><div class='vertical-center'>(I)</div></div></div>","null","$63","$100","0","63","10",""
"html-keyboard-response","31","46314","0.0-5.0-1.9","63d40528f7676637efbd18eb","bdp_rd","Sat Mar 25 2023 16:56:54 GMT-0700 (Pacific Daylight Time)","167358","","null","","","","FIX","","<div class='trialBorder'><div class='vertical-center'><img style='vertical-align:center; align:center' src=img/fixation3.jpg></div></div>","null","","","","","",""
"html-keyboard-response","32","48337","0.0-5.0-2.9","63d40528f7676637efbd18eb","bdp_rd","Sat Mar 25 2023 16:56:54 GMT-0700 (Pacific Daylight Time)","167358","","2021","","","","offer","","<div class='trialBorder'><div class='vertical-center'><img style='vertical-align:center; align:center' src=img/fixation3.jpg></div><div class='cl'><div class='vertical-center'>$35<br>with a<br>50% chance</div></div><div class='cr'><div class='vertical-center'>$12<br>for<br>sure</div></div><div class='respDivL'><div class='vertical-center'>(E)</div></div><div class='respDivR'><div class='vertical-center'>(I)</div></div></div>","I","$12","$35","1","12","35","SURE"
"html-keyboard-response","33","48590","0.0-5.0-3.9","63d40528f7676637efbd18eb","bdp_rd","Sat Mar 25 2023 16:56:54 GMT-0700 (Pacific Daylight Time)","167358","","null","","","","offerFB","","<div class='trialBorder'><div class='vertical-center'><img style='vertical-align:center; align:center' src=img/fixation3.jpg></div><div class='cl'><div class='vertical-center'>$35<br>with a<br>50% chance</div></div><div class='cr'><div class='vertical-center'><font style='color:orange'>$12<br>for<br>sure</font></div></div><div class='respDivL'><div class='vertical-center'>(E)</div></div><div class='respDivR'><div class='vertical-center'><font style='color:orange'>(I)</font></div></div></div>","null","$12","$35","1","12","35",""
"html-keyboard-response","34","49093","0.0-5.0-1.10","63d40528f7676637efbd18eb","bdp_rd","Sat Mar 25 2023 16:56:54 GMT-0700 (Pacific Daylight Time)","167358","","null","","","","FIX","","<div class='trialBorder'><div class='vertical-center'><img style='vertical-align:center; align:center' src=img/fixation3.jpg></div></div>","null","","","","","",""
"html-keyboard-response","35","50240","0.0-5.0-2.10","63d40528f7676637efbd18eb","bdp_rd","Sat Mar 25 2023 16:56:54 GMT-0700 (Pacific Daylight Time)","167358","","1144","","","","offer","","<div class='trialBorder'><div class='vertical-center'><img style='vertical-align:center; align:center' src=img/fixation3.jpg></div><div class='cl'><div class='vertical-center'>$39<br>with a<br>50% chance</div></div><div class='cr'><div class='vertical-center'>$18<br>for<br>sure</div></div><div class='respDivL'><div class='vertical-center'>(E)</div></div><div class='respDivR'><div class='vertical-center'>(I)</div></div></div>","I","$18","$39","1","18","39","SURE"
"html-keyboard-response","36","50494","0.0-5.0-3.10","63d40528f7676637efbd18eb","bdp_rd","Sat Mar 25 2023 16:56:54 GMT-0700 (Pacific Daylight Time)","167358","","null","","","","offerFB","","<div class='trialBorder'><div class='vertical-center'><img style='vertical-align:center; align:center' src=img/fixation3.jpg></div><div class='cl'><div class='vertical-center'>$39<br>with a<br>50% chance</div></div><div class='cr'><div class='vertical-center'><font style='color:orange'>$18<br>for<br>sure</font></div></div><div class='respDivL'><div class='vertical-center'>(E)</div></div><div class='respDivR'><div class='vertical-center'><font style='color:orange'>(I)</font></div></div></div>","null","$18","$39","1","18","39",""
"html-keyboard-response","37","50997","0.0-5.0-1.11","63d40528f7676637efbd18eb","bdp_rd","Sat Mar 25 2023 16:56:54 GMT-0700 (Pacific Daylight Time)","167358","","null","","","","FIX","","<div class='trialBorder'><div class='vertical-center'><img style='vertical-align:center; align:center' src=img/fixation3.jpg></div></div>","null","","","","","",""
"html-keyboard-response","38","52304","0.0-5.0-2.11","63d40528f7676637efbd18eb","bdp_rd","Sat Mar 25 2023 16:56:54 GMT-0700 (Pacific Daylight Time)","167358","","1304","","","","offer","","<div class='trialBorder'><div class='vertical-center'><img style='vertical-align:center; align:center' src=img/fixation3.jpg></div><div class='cl'><div class='vertical-center'>$62<br>with a<br>50% chance</div></div><div class='cr'><div class='vertical-center'>$11<br>for<br>sure</div></div><div class='respDivL'><div class='vertical-center'>(E)</div></div><div class='respDivR'><div class='vertical-center'>(I)</div></div></div>","E","$11","$62","1","11","62","RISKY"
"html-keyboard-response","39","52557","0.0-5.0-3.11","63d40528f7676637efbd18eb","bdp_rd","Sat Mar 25 2023 16:56:54 GMT-0700 (Pacific Daylight Time)","167358","","null","","","","offerFB","","<div class='trialBorder'><div class='vertical-center'><img style='vertical-align:center; align:center' src=img/fixation3.jpg></div><div class='cl'><div class='vertical-center'><font style='color:orange'>$62<br>with a<br>50% chance</font></div></div><div class='cr'><div class='vertical-center'>$11<br>for<br>sure</div></div><div class='respDivL'><div class='vertical-center'><font style='color:orange'>(E)</font></div></div><div class='respDivR'><div class='vertical-center'>(I)</div></div></div>","null","$11","$62","1","11","62",""
"html-keyboard-response","40","53059","0.0-5.0-1.12","63d40528f7676637efbd18eb","bdp_rd","Sat Mar 25 2023 16:56:54 GMT-0700 (Pacific Daylight Time)","167358","","null","","","","FIX","","<div class='trialBorder'><div class='vertical-center'><img style='vertical-align:center; align:center' src=img/fixation3.jpg></div></div>","null","","","","","",""
"html-keyboard-response","41","54159","0.0-5.0-2.12","63d40528f7676637efbd18eb","bdp_rd","Sat Mar 25 2023 16:56:54 GMT-0700 (Pacific Daylight Time)","167358","","1098","","","","offer","","<div class='trialBorder'><div class='vertical-center'><img style='vertical-align:center; align:center' src=img/fixation3.jpg></div><div class='cl'><div class='vertical-center'>$45<br>for<br>sure</div></div><div class='cr'><div class='vertical-center'>$86<br>with a<br>50% chance</div></div><div class='respDivL'><div class='vertical-center'>(E)</div></div><div class='respDivR'><div class='vertical-center'>(I)</div></div></div>","E","$45","$86","0","45","86","SURE"
"html-keyboard-response","42","54411","0.0-5.0-3.12","63d40528f7676637efbd18eb","bdp_rd","Sat Mar 25 2023 16:56:54 GMT-0700 (Pacific Daylight Time)","167358","","null","","","","offerFB","","<div class='trialBorder'><div class='vertical-center'><img style='vertical-align:center; align:center' src=img/fixation3.jpg></div><div class='cl'><div class='vertical-center'><font style='color:orange'>$45<br>for<br>sure</font></div></div><div class='cr'><div class='vertical-center'>$86<br>with a<br>50% chance</div></div><div class='respDivL'><div class='vertical-center'><font style='color:orange'>(E)</font></div></div><div class='respDivR'><div class='vertical-center'>(I)</div></div></div>","null","$45","$86","0","45","86",""
"html-keyboard-response","43","54914","0.0-5.0-1.13","63d40528f7676637efbd18eb","bdp_rd","Sat Mar 25 2023 16:56:54 GMT-0700 (Pacific Daylight Time)","167358","","null","","","","FIX","","<div class='trialBorder'><div class='vertical-center'><img style='vertical-align:center; align:center' src=img/fixation3.jpg></div></div>","null","","","","","",""
"html-keyboard-response","44","55776","0.0-5.0-2.13","63d40528f7676637efbd18eb","bdp_rd","Sat Mar 25 2023 16:56:54 GMT-0700 (Pacific Daylight Time)","167358","","860","","","","offer","","<div class='trialBorder'><div class='vertical-center'><img style='vertical-align:center; align:center' src=img/fixation3.jpg></div><div class='cl'><div class='vertical-center'>$8<br>for<br>sure</div></div><div class='cr'><div class='vertical-center'>$45<br>with a<br>50% chance</div></div><div class='respDivL'><div class='vertical-center'>(E)</div></div><div class='respDivR'><div class='vertical-center'>(I)</div></div></div>","I","$8","$45","0","8","45","RISKY"
"html-keyboard-response","45","56029","0.0-5.0-3.13","63d40528f7676637efbd18eb","bdp_rd","Sat Mar 25 2023 16:56:54 GMT-0700 (Pacific Daylight Time)","167358","","null","","","","offerFB","","<div class='trialBorder'><div class='vertical-center'><img style='vertical-align:center; align:center' src=img/fixation3.jpg></div><div class='cl'><div class='vertical-center'>$8<br>for<br>sure</div></div><div class='cr'><div class='vertical-center'><font style='color:orange'>$45<br>with a<br>50% chance</font></div></div><div class='respDivL'><div class='vertical-center'>(E)</div></div><div class='respDivR'><div class='vertical-center'><font style='color:orange'>(I)</font></div></div></div>","null","$8","$45","0","8","45",""
"html-keyboard-response","46","56532","0.0-5.0-1.14","63d40528f7676637efbd18eb","bdp_rd","Sat Mar 25 2023 16:56:54 GMT-0700 (Pacific Daylight Time)","167358","","null","","","","FIX","","<div class='trialBorder'><div class='vertical-center'><img style='vertical-align:center; align:center' src=img/fixation3.jpg></div></div>","null","","","","","",""
"html-keyboard-response","47","58433","0.0-5.0-2.14","63d40528f7676637efbd18eb","bdp_rd","Sat Mar 25 2023 16:56:54 GMT-0700 (Pacific Daylight Time)","167358","","1899","","","","offer","","<div class='trialBorder'><div class='vertical-center'><img style='vertical-align:center; align:center' src=img/fixation3.jpg></div><div class='cl'><div class='vertical-center'>$15<br>with a<br>50% chance</div></div><div class='cr'><div class='vertical-center'>$6<br>for<br>sure</div></div><div class='respDivL'><div class='vertical-center'>(E)</div></div><div class='respDivR'><div class='vertical-center'>(I)</div></div></div>","I","$6","$15","1","6","15","SURE"
"html-keyboard-response","48","58687","0.0-5.0-3.14","63d40528f7676637efbd18eb","bdp_rd","Sat Mar 25 2023 16:56:54 GMT-0700 (Pacific Daylight Time)","167358","","null","","","","offerFB","","<div class='trialBorder'><div class='vertical-center'><img style='vertical-align:center; align:center' src=img/fixation3.jpg></div><div class='cl'><div class='vertical-center'>$15<br>with a<br>50% chance</div></div><div class='cr'><div class='vertical-center'><font style='color:orange'>$6<br>for<br>sure</font></div></div><div class='respDivL'><div class='vertical-center'>(E)</div></div><div class='respDivR'><div class='vertical-center'><font style='color:orange'>(I)</font></div></div></div>","null","$6","$15","1","6","15",""
"html-keyboard-response","49","59191","0.0-5.0-1.15","63d40528f7676637efbd18eb","bdp_rd","Sat Mar 25 2023 16:56:54 GMT-0700 (Pacific Daylight Time)","167358","","null","","","","FIX","","<div class='trialBorder'><div class='vertical-center'><img style='vertical-align:center; align:center' src=img/fixation3.jpg></div></div>","null","","","","","",""
"html-keyboard-response","50","60334","0.0-5.0-2.15","63d40528f7676637efbd18eb","bdp_rd","Sat Mar 25 2023 16:56:54 GMT-0700 (Pacific Daylight Time)","167358","","1142","","","","offer","","<div class='trialBorder'><div class='vertical-center'><img style='vertical-align:center; align:center' src=img/fixation3.jpg></div><div class='cl'><div class='vertical-center'>$47<br>with a<br>50% chance</div></div><div class='cr'><div class='vertical-center'>$27<br>for<br>sure</div></div><div class='respDivL'><div class='vertical-center'>(E)</div></div><div class='respDivR'><div class='vertical-center'>(I)</div></div></div>","I","$27","$47","1","27","47","SURE"
"html-keyboard-response","51","60587","0.0-5.0-3.15","63d40528f7676637efbd18eb","bdp_rd","Sat Mar 25 2023 16:56:54 GMT-0700 (Pacific Daylight Time)","167358","","null","","","","offerFB","","<div class='trialBorder'><div class='vertical-center'><img style='vertical-align:center; align:center' src=img/fixation3.jpg></div><div class='cl'><div class='vertical-center'>$47<br>with a<br>50% chance</div></div><div class='cr'><div class='vertical-center'><font style='color:orange'>$27<br>for<br>sure</font></div></div><div class='respDivL'><div class='vertical-center'>(E)</div></div><div class='respDivR'><div class='vertical-center'><font style='color:orange'>(I)</font></div></div></div>","null","$27","$47","1","27","47",""
"html-keyboard-response","52","61091","0.0-5.0-1.16","63d40528f7676637efbd18eb","bdp_rd","Sat Mar 25 2023 16:56:54 GMT-0700 (Pacific Daylight Time)","167358","","null","","","","FIX","","<div class='trialBorder'><div class='vertical-center'><img style='vertical-align:center; align:center' src=img/fixation3.jpg></div></div>","null","","","","","",""
"html-keyboard-response","53","62647","0.0-5.0-2.16","63d40528f7676637efbd18eb","bdp_rd","Sat Mar 25 2023 16:56:54 GMT-0700 (Pacific Daylight Time)","167358","","1554","","","","offer","","<div class='trialBorder'><div class='vertical-center'><img style='vertical-align:center; align:center' src=img/fixation3.jpg></div><div class='cl'><div class='vertical-center'>$15<br>for<br>sure</div></div><div class='cr'><div class='vertical-center'>$34<br>with a<br>50% chance</div></div><div class='respDivL'><div class='vertical-center'>(E)</div></div><div class='respDivR'><div class='vertical-center'>(I)</div></div></div>","E","$15","$34","0","15","34","SURE"
"html-keyboard-response","54","62899","0.0-5.0-3.16","63d40528f7676637efbd18eb","bdp_rd","Sat Mar 25 2023 16:56:54 GMT-0700 (Pacific Daylight Time)","167358","","null","","","","offerFB","","<div class='trialBorder'><div class='vertical-center'><img style='vertical-align:center; align:center' src=img/fixation3.jpg></div><div class='cl'><div class='vertical-center'><font style='color:orange'>$15<br>for<br>sure</font></div></div><div class='cr'><div class='vertical-center'>$34<br>with a<br>50% chance</div></div><div class='respDivL'><div class='vertical-center'><font style='color:orange'>(E)</font></div></div><div class='respDivR'><div class='vertical-center'>(I)</div></div></div>","null","$15","$34","0","15","34",""
"html-keyboard-response","55","63402","0.0-5.0-1.17","63d40528f7676637efbd18eb","bdp_rd","Sat Mar 25 2023 16:56:54 GMT-0700 (Pacific Daylight Time)","167358","","null","","","","FIX","","<div class='trialBorder'><div class='vertical-center'><img style='vertical-align:center; align:center' src=img/fixation3.jpg></div></div>","null","","","","","",""
"html-keyboard-response","56","65951","0.0-5.0-2.17","63d40528f7676637efbd18eb","bdp_rd","Sat Mar 25 2023 16:56:54 GMT-0700 (Pacific Daylight Time)","167358","","2524","","","","offer","","<div class='trialBorder'><div class='vertical-center'><img style='vertical-align:center; align:center' src=img/fixation3.jpg></div><div class='cl'><div class='vertical-center'>$12<br>for<br>sure</div></div><div class='cr'><div class='vertical-center'>$27<br>with a<br>50% chance</div></div><div class='respDivL'><div class='vertical-center'>(E)</div></div><div class='respDivR'><div class='vertical-center'>(I)</div></div></div>","E","$12","$27","0","12","27","SURE"
"html-keyboard-response","57","66203","0.0-5.0-3.17","63d40528f7676637efbd18eb","bdp_rd","Sat Mar 25 2023 16:56:54 GMT-0700 (Pacific Daylight Time)","167358","","null","","","","offerFB","","<div class='trialBorder'><div class='vertical-center'><img style='vertical-align:center; align:center' src=img/fixation3.jpg></div><div class='cl'><div class='vertical-center'><font style='color:orange'>$12<br>for<br>sure</font></div></div><div class='cr'><div class='vertical-center'>$27<br>with a<br>50% chance</div></div><div class='respDivL'><div class='vertical-center'><font style='color:orange'>(E)</font></div></div><div class='respDivR'><div class='vertical-center'>(I)</div></div></div>","null","$12","$27","0","12","27",""
"html-keyboard-response","58","66707","0.0-5.0-1.18","63d40528f7676637efbd18eb","bdp_rd","Sat Mar 25 2023 16:56:54 GMT-0700 (Pacific Daylight Time)","167358","","null","","","","FIX","","<div class='trialBorder'><div class='vertical-center'><img style='vertical-align:center; align:center' src=img/fixation3.jpg></div></div>","null","","","","","",""
"html-keyboard-response","59","67983","0.0-5.0-2.18","63d40528f7676637efbd18eb","bdp_rd","Sat Mar 25 2023 16:56:54 GMT-0700 (Pacific Daylight Time)","167358","","1275","","","","offer","","<div class='trialBorder'><div class='vertical-center'><img style='vertical-align:center; align:center' src=img/fixation3.jpg></div><div class='cl'><div class='vertical-center'>$28<br>for<br>sure</div></div><div class='cr'><div class='vertical-center'>$89<br>with a<br>50% chance</div></div><div class='respDivL'><div class='vertical-center'>(E)</div></div><div class='respDivR'><div class='vertical-center'>(I)</div></div></div>","I","$28","$89","0","28","89","RISKY"
"html-keyboard-response","60","68236","0.0-5.0-3.18","63d40528f7676637efbd18eb","bdp_rd","Sat Mar 25 2023 16:56:54 GMT-0700 (Pacific Daylight Time)","167358","","null","","","","offerFB","","<div class='trialBorder'><div class='vertical-center'><img style='vertical-align:center; align:center' src=img/fixation3.jpg></div><div class='cl'><div class='vertical-center'>$28<br>for<br>sure</div></div><div class='cr'><div class='vertical-center'><font style='color:orange'>$89<br>with a<br>50% chance</font></div></div><div class='respDivL'><div class='vertical-center'>(E)</div></div><div class='respDivR'><div class='vertical-center'><font style='color:orange'>(I)</font></div></div></div>","null","$28","$89","0","28","89",""
"html-keyboard-response","61","68740","0.0-5.0-1.19","63d40528f7676637efbd18eb","bdp_rd","Sat Mar 25 2023 16:56:54 GMT-0700 (Pacific Daylight Time)","167358","","null","","","","FIX","","<div class='trialBorder'><div class='vertical-center'><img style='vertical-align:center; align:center' src=img/fixation3.jpg></div></div>","null","","","","","",""
"html-keyboard-response","62","76073","0.0-5.0-2.19","63d40528f7676637efbd18eb","bdp_rd","Sat Mar 25 2023 16:56:54 GMT-0700 (Pacific Daylight Time)","167358","","7330","","","","offer","","<div class='trialBorder'><div class='vertical-center'><img style='vertical-align:center; align:center' src=img/fixation3.jpg></div><div class='cl'><div class='vertical-center'>$54<br>with a<br>50% chance</div></div><div class='cr'><div class='vertical-center'>$25<br>for<br>sure</div></div><div class='respDivL'><div class='vertical-center'>(E)</div></div><div class='respDivR'><div class='vertical-center'>(I)</div></div></div>","I","$25","$54","1","25","54","SURE"
"html-keyboard-response","63","76327","0.0-5.0-3.19","63d40528f7676637efbd18eb","bdp_rd","Sat Mar 25 2023 16:56:54 GMT-0700 (Pacific Daylight Time)","167358","","null","","","","offerFB","","<div class='trialBorder'><div class='vertical-center'><img style='vertical-align:center; align:center' src=img/fixation3.jpg></div><div class='cl'><div class='vertical-center'>$54<br>with a<br>50% chance</div></div><div class='cr'><div class='vertical-center'><font style='color:orange'>$25<br>for<br>sure</font></div></div><div class='respDivL'><div class='vertical-center'>(E)</div></div><div class='respDivR'><div class='vertical-center'><font style='color:orange'>(I)</font></div></div></div>","null","$25","$54","1","25","54",""
"html-keyboard-response","64","76830","0.0-5.0-1.20","63d40528f7676637efbd18eb","bdp_rd","Sat Mar 25 2023 16:56:54 GMT-0700 (Pacific Daylight Time)","167358","","null","","","","FIX","","<div class='trialBorder'><div class='vertical-center'><img style='vertical-align:center; align:center' src=img/fixation3.jpg></div></div>","null","","","","","",""
"html-keyboard-response","65","77672","0.0-5.0-2.20","63d40528f7676637efbd18eb","bdp_rd","Sat Mar 25 2023 16:56:54 GMT-0700 (Pacific Daylight Time)","167358","","840","","","","offer","","<div class='trialBorder'><div class='vertical-center'><img style='vertical-align:center; align:center' src=img/fixation3.jpg></div><div class='cl'><div class='vertical-center'>$7<br>for<br>sure</div></div><div class='cr'><div class='vertical-center'>$71<br>with a<br>50% chance</div></div><div class='respDivL'><div class='vertical-center'>(E)</div></div><div class='respDivR'><div class='vertical-center'>(I)</div></div></div>","I","$7","$71","0","7","71","RISKY"
"html-keyboard-response","66","77926","0.0-5.0-3.20","63d40528f7676637efbd18eb","bdp_rd","Sat Mar 25 2023 16:56:54 GMT-0700 (Pacific Daylight Time)","167358","","null","","","","offerFB","","<div class='trialBorder'><div class='vertical-center'><img style='vertical-align:center; align:center' src=img/fixation3.jpg></div><div class='cl'><div class='vertical-center'>$7<br>for<br>sure</div></div><div class='cr'><div class='vertical-center'><font style='color:orange'>$71<br>with a<br>50% chance</font></div></div><div class='respDivL'><div class='vertical-center'>(E)</div></div><div class='respDivR'><div class='vertical-center'><font style='color:orange'>(I)</font></div></div></div>","null","$7","$71","0","7","71",""
"html-keyboard-response","67","78428","0.0-5.0-1.21","63d40528f7676637efbd18eb","bdp_rd","Sat Mar 25 2023 16:56:54 GMT-0700 (Pacific Daylight Time)","167358","","null","","","","FIX","","<div class='trialBorder'><div class='vertical-center'><img style='vertical-align:center; align:center' src=img/fixation3.jpg></div></div>","null","","","","","",""
"html-keyboard-response","68","79487","0.0-5.0-2.21","63d40528f7676637efbd18eb","bdp_rd","Sat Mar 25 2023 16:56:54 GMT-0700 (Pacific Daylight Time)","167358","","1057","","","","offer","","<div class='trialBorder'><div class='vertical-center'><img style='vertical-align:center; align:center' src=img/fixation3.jpg></div><div class='cl'><div class='vertical-center'>$70<br>with a<br>50% chance</div></div><div class='cr'><div class='vertical-center'>$24<br>for<br>sure</div></div><div class='respDivL'><div class='vertical-center'>(E)</div></div><div class='respDivR'><div class='vertical-center'>(I)</div></div></div>","E","$24","$70","1","24","70","RISKY"
"html-keyboard-response","69","79741","0.0-5.0-3.21","63d40528f7676637efbd18eb","bdp_rd","Sat Mar 25 2023 16:56:54 GMT-0700 (Pacific Daylight Time)","167358","","null","","","","offerFB","","<div class='trialBorder'><div class='vertical-center'><img style='vertical-align:center; align:center' src=img/fixation3.jpg></div><div class='cl'><div class='vertical-center'><font style='color:orange'>$70<br>with a<br>50% chance</font></div></div><div class='cr'><div class='vertical-center'>$24<br>for<br>sure</div></div><div class='respDivL'><div class='vertical-center'><font style='color:orange'>(E)</font></div></div><div class='respDivR'><div class='vertical-center'>(I)</div></div></div>","null","$24","$70","1","24","70",""
"html-keyboard-response","70","80244","0.0-5.0-1.22","63d40528f7676637efbd18eb","bdp_rd","Sat Mar 25 2023 16:56:54 GMT-0700 (Pacific Daylight Time)","167358","","null","","","","FIX","","<div class='trialBorder'><div class='vertical-center'><img style='vertical-align:center; align:center' src=img/fixation3.jpg></div></div>","null","","","","","",""
"html-keyboard-response","71","81151","0.0-5.0-2.22","63d40528f7676637efbd18eb","bdp_rd","Sat Mar 25 2023 16:56:54 GMT-0700 (Pacific Daylight Time)","167358","","905","","","","offer","","<div class='trialBorder'><div class='vertical-center'><img style='vertical-align:center; align:center' src=img/fixation3.jpg></div><div class='cl'><div class='vertical-center'>$92<br>with a<br>50% chance</div></div><div class='cr'><div class='vertical-center'>$26<br>for<br>sure</div></div><div class='respDivL'><div class='vertical-center'>(E)</div></div><div class='respDivR'><div class='vertical-center'>(I)</div></div></div>","E","$26","$92","1","26","92","RISKY"
"html-keyboard-response","72","81404","0.0-5.0-3.22","63d40528f7676637efbd18eb","bdp_rd","Sat Mar 25 2023 16:56:54 GMT-0700 (Pacific Daylight Time)","167358","","null","","","","offerFB","","<div class='trialBorder'><div class='vertical-center'><img style='vertical-align:center; align:center' src=img/fixation3.jpg></div><div class='cl'><div class='vertical-center'><font style='color:orange'>$92<br>with a<br>50% chance</font></div></div><div class='cr'><div class='vertical-center'>$26<br>for<br>sure</div></div><div class='respDivL'><div class='vertical-center'><font style='color:orange'>(E)</font></div></div><div class='respDivR'><div class='vertical-center'>(I)</div></div></div>","null","$26","$92","1","26","92",""
"html-keyboard-response","73","81906","0.0-5.0-1.23","63d40528f7676637efbd18eb","bdp_rd","Sat Mar 25 2023 16:56:54 GMT-0700 (Pacific Daylight Time)","167358","","null","","","","FIX","","<div class='trialBorder'><div class='vertical-center'><img style='vertical-align:center; align:center' src=img/fixation3.jpg></div></div>","null","","","","","",""
"html-keyboard-response","74","83071","0.0-5.0-2.23","63d40528f7676637efbd18eb","bdp_rd","Sat Mar 25 2023 16:56:54 GMT-0700 (Pacific Daylight Time)","167358","","1164","","","","offer","","<div class='trialBorder'><div class='vertical-center'><img style='vertical-align:center; align:center' src=img/fixation3.jpg></div><div class='cl'><div class='vertical-center'>$21<br>for<br>sure</div></div><div class='cr'><div class='vertical-center'>$25<br>with a<br>50% chance</div></div><div class='respDivL'><div class='vertical-center'>(E)</div></div><div class='respDivR'><div class='vertical-center'>(I)</div></div></div>","E","$21","$25","0","21","25","SURE"
"html-keyboard-response","75","83324","0.0-5.0-3.23","63d40528f7676637efbd18eb","bdp_rd","Sat Mar 25 2023 16:56:54 GMT-0700 (Pacific Daylight Time)","167358","","null","","","","offerFB","","<div class='trialBorder'><div class='vertical-center'><img style='vertical-align:center; align:center' src=img/fixation3.jpg></div><div class='cl'><div class='vertical-center'><font style='color:orange'>$21<br>for<br>sure</font></div></div><div class='cr'><div class='vertical-center'>$25<br>with a<br>50% chance</div></div><div class='respDivL'><div class='vertical-center'><font style='color:orange'>(E)</font></div></div><div class='respDivR'><div class='vertical-center'>(I)</div></div></div>","null","$21","$25","0","21","25",""
"html-keyboard-response","76","83828","0.0-5.0-1.24","63d40528f7676637efbd18eb","bdp_rd","Sat Mar 25 2023 16:56:54 GMT-0700 (Pacific Daylight Time)","167358","","null","","","","FIX","","<div class='trialBorder'><div class='vertical-center'><img style='vertical-align:center; align:center' src=img/fixation3.jpg></div></div>","null","","","","","",""
"html-keyboard-response","77","84736","0.0-5.0-2.24","63d40528f7676637efbd18eb","bdp_rd","Sat Mar 25 2023 16:56:54 GMT-0700 (Pacific Daylight Time)","167358","","905","","","","offer","","<div class='trialBorder'><div class='vertical-center'><img style='vertical-align:center; align:center' src=img/fixation3.jpg></div><div class='cl'><div class='vertical-center'>$21<br>with a<br>50% chance</div></div><div class='cr'><div class='vertical-center'>$2<br>for<br>sure</div></div><div class='respDivL'><div class='vertical-center'>(E)</div></div><div class='respDivR'><div class='vertical-center'>(I)</div></div></div>","E","$2","$21","1","2","21","RISKY"
"html-keyboard-response","78","84989","0.0-5.0-3.24","63d40528f7676637efbd18eb","bdp_rd","Sat Mar 25 2023 16:56:54 GMT-0700 (Pacific Daylight Time)","167358","","null","","","","offerFB","","<div class='trialBorder'><div class='vertical-center'><img style='vertical-align:center; align:center' src=img/fixation3.jpg></div><div class='cl'><div class='vertical-center'><font style='color:orange'>$21<br>with a<br>50% chance</font></div></div><div class='cr'><div class='vertical-center'>$2<br>for<br>sure</div></div><div class='respDivL'><div class='vertical-center'><font style='color:orange'>(E)</font></div></div><div class='respDivR'><div class='vertical-center'>(I)</div></div></div>","null","$2","$21","1","2","21",""
"html-keyboard-response","79","85493","0.0-5.0-1.25","63d40528f7676637efbd18eb","bdp_rd","Sat Mar 25 2023 16:56:54 GMT-0700 (Pacific Daylight Time)","167358","","null","","","","FIX","","<div class='trialBorder'><div class='vertical-center'><img style='vertical-align:center; align:center' src=img/fixation3.jpg></div></div>","null","","","","","",""
"html-keyboard-response","80","86992","0.0-5.0-2.25","63d40528f7676637efbd18eb","bdp_rd","Sat Mar 25 2023 16:56:54 GMT-0700 (Pacific Daylight Time)","167358","","1498","","","","offer","","<div class='trialBorder'><div class='vertical-center'><img style='vertical-align:center; align:center' src=img/fixation3.jpg></div><div class='cl'><div class='vertical-center'>$69<br>with a<br>50% chance</div></div><div class='cr'><div class='vertical-center'>$58<br>for<br>sure</div></div><div class='respDivL'><div class='vertical-center'>(E)</div></div><div class='respDivR'><div class='vertical-center'>(I)</div></div></div>","I","$58","$69","1","58","69","SURE"
"html-keyboard-response","81","87246","0.0-5.0-3.25","63d40528f7676637efbd18eb","bdp_rd","Sat Mar 25 2023 16:56:54 GMT-0700 (Pacific Daylight Time)","167358","","null","","","","offerFB","","<div class='trialBorder'><div class='vertical-center'><img style='vertical-align:center; align:center' src=img/fixation3.jpg></div><div class='cl'><div class='vertical-center'>$69<br>with a<br>50% chance</div></div><div class='cr'><div class='vertical-center'><font style='color:orange'>$58<br>for<br>sure</font></div></div><div class='respDivL'><div class='vertical-center'>(E)</div></div><div class='respDivR'><div class='vertical-center'><font style='color:orange'>(I)</font></div></div></div>","null","$58","$69","1","58","69",""
"html-keyboard-response","82","87751","0.0-5.0-1.26","63d40528f7676637efbd18eb","bdp_rd","Sat Mar 25 2023 16:56:54 GMT-0700 (Pacific Daylight Time)","167358","","null","","","","FIX","","<div class='trialBorder'><div class='vertical-center'><img style='vertical-align:center; align:center' src=img/fixation3.jpg></div></div>","null","","","","","",""
"html-keyboard-response","83","89543","0.0-5.0-2.26","63d40528f7676637efbd18eb","bdp_rd","Sat Mar 25 2023 16:56:54 GMT-0700 (Pacific Daylight Time)","167358","","1789","","","","offer","","<div class='trialBorder'><div class='vertical-center'><img style='vertical-align:center; align:center' src=img/fixation3.jpg></div><div class='cl'><div class='vertical-center'>$68<br>with a<br>50% chance</div></div><div class='cr'><div class='vertical-center'>$30<br>for<br>sure</div></div><div class='respDivL'><div class='vertical-center'>(E)</div></div><div class='respDivR'><div class='vertical-center'>(I)</div></div></div>","I","$30","$68","1","30","68","SURE"
"html-keyboard-response","84","89797","0.0-5.0-3.26","63d40528f7676637efbd18eb","bdp_rd","Sat Mar 25 2023 16:56:54 GMT-0700 (Pacific Daylight Time)","167358","","null","","","","offerFB","","<div class='trialBorder'><div class='vertical-center'><img style='vertical-align:center; align:center' src=img/fixation3.jpg></div><div class='cl'><div class='vertical-center'>$68<br>with a<br>50% chance</div></div><div class='cr'><div class='vertical-center'><font style='color:orange'>$30<br>for<br>sure</font></div></div><div class='respDivL'><div class='vertical-center'>(E)</div></div><div class='respDivR'><div class='vertical-center'><font style='color:orange'>(I)</font></div></div></div>","null","$30","$68","1","30","68",""
"html-keyboard-response","85","90301","0.0-5.0-1.27","63d40528f7676637efbd18eb","bdp_rd","Sat Mar 25 2023 16:56:54 GMT-0700 (Pacific Daylight Time)","167358","","null","","","","FIX","","<div class='trialBorder'><div class='vertical-center'><img style='vertical-align:center; align:center' src=img/fixation3.jpg></div></div>","null","","","","","",""
"html-keyboard-response","86","93095","0.0-5.0-2.27","63d40528f7676637efbd18eb","bdp_rd","Sat Mar 25 2023 16:56:54 GMT-0700 (Pacific Daylight Time)","167358","","2791","","","","offer","","<div class='trialBorder'><div class='vertical-center'><img style='vertical-align:center; align:center' src=img/fixation3.jpg></div><div class='cl'><div class='vertical-center'>$19<br>with a<br>50% chance</div></div><div class='cr'><div class='vertical-center'>$10<br>for<br>sure</div></div><div class='respDivL'><div class='vertical-center'>(E)</div></div><div class='respDivR'><div class='vertical-center'>(I)</div></div></div>","I","$10","$19","1","10","19","SURE"
"html-keyboard-response","87","93348","0.0-5.0-3.27","63d40528f7676637efbd18eb","bdp_rd","Sat Mar 25 2023 16:56:54 GMT-0700 (Pacific Daylight Time)","167358","","null","","","","offerFB","","<div class='trialBorder'><div class='vertical-center'><img style='vertical-align:center; align:center' src=img/fixation3.jpg></div><div class='cl'><div class='vertical-center'>$19<br>with a<br>50% chance</div></div><div class='cr'><div class='vertical-center'><font style='color:orange'>$10<br>for<br>sure</font></div></div><div class='respDivL'><div class='vertical-center'>(E)</div></div><div class='respDivR'><div class='vertical-center'><font style='color:orange'>(I)</font></div></div></div>","null","$10","$19","1","10","19",""
"html-keyboard-response","88","93850","0.0-5.0-1.28","63d40528f7676637efbd18eb","bdp_rd","Sat Mar 25 2023 16:56:54 GMT-0700 (Pacific Daylight Time)","167358","","null","","","","FIX","","<div class='trialBorder'><div class='vertical-center'><img style='vertical-align:center; align:center' src=img/fixation3.jpg></div></div>","null","","","","","",""
"html-keyboard-response","89","94959","0.0-5.0-2.28","63d40528f7676637efbd18eb","bdp_rd","Sat Mar 25 2023 16:56:54 GMT-0700 (Pacific Daylight Time)","167358","","1107","","","","offer","","<div class='trialBorder'><div class='vertical-center'><img style='vertical-align:center; align:center' src=img/fixation3.jpg></div><div class='cl'><div class='vertical-center'>$11<br>with a<br>50% chance</div></div><div class='cr'><div class='vertical-center'>$4<br>for<br>sure</div></div><div class='respDivL'><div class='vertical-center'>(E)</div></div><div class='respDivR'><div class='vertical-center'>(I)</div></div></div>","E","$4","$11","1","4","11","RISKY"
"html-keyboard-response","90","95212","0.0-5.0-3.28","63d40528f7676637efbd18eb","bdp_rd","Sat Mar 25 2023 16:56:54 GMT-0700 (Pacific Daylight Time)","167358","","null","","","","offerFB","","<div class='trialBorder'><div class='vertical-center'><img style='vertical-align:center; align:center' src=img/fixation3.jpg></div><div class='cl'><div class='vertical-center'><font style='color:orange'>$11<br>with a<br>50% chance</font></div></div><div class='cr'><div class='vertical-center'>$4<br>for<br>sure</div></div><div class='respDivL'><div class='vertical-center'><font style='color:orange'>(E)</font></div></div><div class='respDivR'><div class='vertical-center'>(I)</div></div></div>","null","$4","$11","1","4","11",""
"html-keyboard-response","91","95715","0.0-5.0-1.29","63d40528f7676637efbd18eb","bdp_rd","Sat Mar 25 2023 16:56:54 GMT-0700 (Pacific Daylight Time)","167358","","null","","","","FIX","","<div class='trialBorder'><div class='vertical-center'><img style='vertical-align:center; align:center' src=img/fixation3.jpg></div></div>","null","","","","","",""
"html-keyboard-response","92","97016","0.0-5.0-2.29","63d40528f7676637efbd18eb","bdp_rd","Sat Mar 25 2023 16:56:54 GMT-0700 (Pacific Daylight Time)","167358","","1299","","","","offer","","<div class='trialBorder'><div class='vertical-center'><img style='vertical-align:center; align:center' src=img/fixation3.jpg></div><div class='cl'><div class='vertical-center'>$29<br>with a<br>50% chance</div></div><div class='cr'><div class='vertical-center'>$14<br>for<br>sure</div></div><div class='respDivL'><div class='vertical-center'>(E)</div></div><div class='respDivR'><div class='vertical-center'>(I)</div></div></div>","E","$14","$29","1","14","29","RISKY"
"html-keyboard-response","93","97269","0.0-5.0-3.29","63d40528f7676637efbd18eb","bdp_rd","Sat Mar 25 2023 16:56:54 GMT-0700 (Pacific Daylight Time)","167358","","null","","","","offerFB","","<div class='trialBorder'><div class='vertical-center'><img style='vertical-align:center; align:center' src=img/fixation3.jpg></div><div class='cl'><div class='vertical-center'><font style='color:orange'>$29<br>with a<br>50% chance</font></div></div><div class='cr'><div class='vertical-center'>$14<br>for<br>sure</div></div><div class='respDivL'><div class='vertical-center'><font style='color:orange'>(E)</font></div></div><div class='respDivR'><div class='vertical-center'>(I)</div></div></div>","null","$14","$29","1","14","29",""
"html-keyboard-response","94","97772","0.0-5.0-1.30","63d40528f7676637efbd18eb","bdp_rd","Sat Mar 25 2023 16:56:54 GMT-0700 (Pacific Daylight Time)","167358","","null","","","","FIX","","<div class='trialBorder'><div class='vertical-center'><img style='vertical-align:center; align:center' src=img/fixation3.jpg></div></div>","null","","","","","",""
"html-keyboard-response","95","99192","0.0-5.0-2.30","63d40528f7676637efbd18eb","bdp_rd","Sat Mar 25 2023 16:56:54 GMT-0700 (Pacific Daylight Time)","167358","","1419","","","","offer","","<div class='trialBorder'><div class='vertical-center'><img style='vertical-align:center; align:center' src=img/fixation3.jpg></div><div class='cl'><div class='vertical-center'>$10<br>for<br>sure</div></div><div class='cr'><div class='vertical-center'>$40<br>with a<br>50% chance</div></div><div class='respDivL'><div class='vertical-center'>(E)</div></div><div class='respDivR'><div class='vertical-center'>(I)</div></div></div>","I","$10","$40","0","10","40","RISKY"
"html-keyboard-response","96","99446","0.0-5.0-3.30","63d40528f7676637efbd18eb","bdp_rd","Sat Mar 25 2023 16:56:54 GMT-0700 (Pacific Daylight Time)","167358","","null","","","","offerFB","","<div class='trialBorder'><div class='vertical-center'><img style='vertical-align:center; align:center' src=img/fixation3.jpg></div><div class='cl'><div class='vertical-center'>$10<br>for<br>sure</div></div><div class='cr'><div class='vertical-center'><font style='color:orange'>$40<br>with a<br>50% chance</font></div></div><div class='respDivL'><div class='vertical-center'>(E)</div></div><div class='respDivR'><div class='vertical-center'><font style='color:orange'>(I)</font></div></div></div>","null","$10","$40","0","10","40",""
"html-keyboard-response","97","99948","0.0-5.0-1.31","63d40528f7676637efbd18eb","bdp_rd","Sat Mar 25 2023 16:56:54 GMT-0700 (Pacific Daylight Time)","167358","","null","","","","FIX","","<div class='trialBorder'><div class='vertical-center'><img style='vertical-align:center; align:center' src=img/fixation3.jpg></div></div>","null","","","","","",""
"html-keyboard-response","98","101087","0.0-5.0-2.31","63d40528f7676637efbd18eb","bdp_rd","Sat Mar 25 2023 16:56:54 GMT-0700 (Pacific Daylight Time)","167358","","1136","","","","offer","","<div class='trialBorder'><div class='vertical-center'><img style='vertical-align:center; align:center' src=img/fixation3.jpg></div><div class='cl'><div class='vertical-center'>$1<br>for<br>sure</div></div><div class='cr'><div class='vertical-center'>$30<br>with a<br>50% chance</div></div><div class='respDivL'><div class='vertical-center'>(E)</div></div><div class='respDivR'><div class='vertical-center'>(I)</div></div></div>","I","$1","$30","0","1","30","RISKY"
"html-keyboard-response","99","101340","0.0-5.0-3.31","63d40528f7676637efbd18eb","bdp_rd","Sat Mar 25 2023 16:56:54 GMT-0700 (Pacific Daylight Time)","167358","","null","","","","offerFB","","<div class='trialBorder'><div class='vertical-center'><img style='vertical-align:center; align:center' src=img/fixation3.jpg></div><div class='cl'><div class='vertical-center'>$1<br>for<br>sure</div></div><div class='cr'><div class='vertical-center'><font style='color:orange'>$30<br>with a<br>50% chance</font></div></div><div class='respDivL'><div class='vertical-center'>(E)</div></div><div class='respDivR'><div class='vertical-center'><font style='color:orange'>(I)</font></div></div></div>","null","$1","$30","0","1","30",""
"html-keyboard-response","100","101842","0.0-5.0-1.32","63d40528f7676637efbd18eb","bdp_rd","Sat Mar 25 2023 16:56:54 GMT-0700 (Pacific Daylight Time)","167358","","null","","","","FIX","","<div class='trialBorder'><div class='vertical-center'><img style='vertical-align:center; align:center' src=img/fixation3.jpg></div></div>","null","","","","","",""
"html-keyboard-response","101","102902","0.0-5.0-2.32","63d40528f7676637efbd18eb","bdp_rd","Sat Mar 25 2023 16:56:54 GMT-0700 (Pacific Daylight Time)","167358","","1059","","","","offer","","<div class='trialBorder'><div class='vertical-center'><img style='vertical-align:center; align:center' src=img/fixation3.jpg></div><div class='cl'><div class='vertical-center'>$4<br>for<br>sure</div></div><div class='cr'><div class='vertical-center'>$14<br>with a<br>50% chance</div></div><div class='respDivL'><div class='vertical-center'>(E)</div></div><div class='respDivR'><div class='vertical-center'>(I)</div></div></div>","I","$4","$14","0","4","14","RISKY"
"html-keyboard-response","102","103155","0.0-5.0-3.32","63d40528f7676637efbd18eb","bdp_rd","Sat Mar 25 2023 16:56:54 GMT-0700 (Pacific Daylight Time)","167358","","null","","","","offerFB","","<div class='trialBorder'><div class='vertical-center'><img style='vertical-align:center; align:center' src=img/fixation3.jpg></div><div class='cl'><div class='vertical-center'>$4<br>for<br>sure</div></div><div class='cr'><div class='vertical-center'><font style='color:orange'>$14<br>with a<br>50% chance</font></div></div><div class='respDivL'><div class='vertical-center'>(E)</div></div><div class='respDivR'><div class='vertical-center'><font style='color:orange'>(I)</font></div></div></div>","null","$4","$14","0","4","14",""
"html-keyboard-response","103","103657","0.0-5.0-1.33","63d40528f7676637efbd18eb","bdp_rd","Sat Mar 25 2023 16:56:54 GMT-0700 (Pacific Daylight Time)","167358","","null","","","","FIX","","<div class='trialBorder'><div class='vertical-center'><img style='vertical-align:center; align:center' src=img/fixation3.jpg></div></div>","null","","","","","",""
"html-keyboard-response","104","105008","0.0-5.0-2.33","63d40528f7676637efbd18eb","bdp_rd","Sat Mar 25 2023 16:56:54 GMT-0700 (Pacific Daylight Time)","167358","","1348","","","","offer","","<div class='trialBorder'><div class='vertical-center'><img style='vertical-align:center; align:center' src=img/fixation3.jpg></div><div class='cl'><div class='vertical-center'>$66<br>with a<br>50% chance</div></div><div class='cr'><div class='vertical-center'>$33<br>for<br>sure</div></div><div class='respDivL'><div class='vertical-center'>(E)</div></div><div class='respDivR'><div class='vertical-center'>(I)</div></div></div>","I","$33","$66","1","33","66","SURE"
"html-keyboard-response","105","105260","0.0-5.0-3.33","63d40528f7676637efbd18eb","bdp_rd","Sat Mar 25 2023 16:56:54 GMT-0700 (Pacific Daylight Time)","167358","","null","","","","offerFB","","<div class='trialBorder'><div class='vertical-center'><img style='vertical-align:center; align:center' src=img/fixation3.jpg></div><div class='cl'><div class='vertical-center'>$66<br>with a<br>50% chance</div></div><div class='cr'><div class='vertical-center'><font style='color:orange'>$33<br>for<br>sure</font></div></div><div class='respDivL'><div class='vertical-center'>(E)</div></div><div class='respDivR'><div class='vertical-center'><font style='color:orange'>(I)</font></div></div></div>","null","$33","$66","1","33","66",""
"html-keyboard-response","106","105765","0.0-5.0-1.34","63d40528f7676637efbd18eb","bdp_rd","Sat Mar 25 2023 16:56:54 GMT-0700 (Pacific Daylight Time)","167358","","null","","","","FIX","","<div class='trialBorder'><div class='vertical-center'><img style='vertical-align:center; align:center' src=img/fixation3.jpg></div></div>","null","","","","","",""
"html-keyboard-response","107","107032","0.0-5.0-2.34","63d40528f7676637efbd18eb","bdp_rd","Sat Mar 25 2023 16:56:54 GMT-0700 (Pacific Daylight Time)","167358","","1266","","","","offer","","<div class='trialBorder'><div class='vertical-center'><img style='vertical-align:center; align:center' src=img/fixation3.jpg></div><div class='cl'><div class='vertical-center'>$65<br>with a<br>50% chance</div></div><div class='cr'><div class='vertical-center'>$46<br>for<br>sure</div></div><div class='respDivL'><div class='vertical-center'>(E)</div></div><div class='respDivR'><div class='vertical-center'>(I)</div></div></div>","I","$46","$65","1","46","65","SURE"
"html-keyboard-response","108","107285","0.0-5.0-3.34","63d40528f7676637efbd18eb","bdp_rd","Sat Mar 25 2023 16:56:54 GMT-0700 (Pacific Daylight Time)","167358","","null","","","","offerFB","","<div class='trialBorder'><div class='vertical-center'><img style='vertical-align:center; align:center' src=img/fixation3.jpg></div><div class='cl'><div class='vertical-center'>$65<br>with a<br>50% chance</div></div><div class='cr'><div class='vertical-center'><font style='color:orange'>$46<br>for<br>sure</font></div></div><div class='respDivL'><div class='vertical-center'>(E)</div></div><div class='respDivR'><div class='vertical-center'><font style='color:orange'>(I)</font></div></div></div>","null","$46","$65","1","46","65",""
"html-keyboard-response","109","107788","0.0-5.0-1.35","63d40528f7676637efbd18eb","bdp_rd","Sat Mar 25 2023 16:56:54 GMT-0700 (Pacific Daylight Time)","167358","","null","","","","FIX","","<div class='trialBorder'><div class='vertical-center'><img style='vertical-align:center; align:center' src=img/fixation3.jpg></div></div>","null","","","","","",""
"html-keyboard-response","110","109367","0.0-5.0-2.35","63d40528f7676637efbd18eb","bdp_rd","Sat Mar 25 2023 16:56:54 GMT-0700 (Pacific Daylight Time)","167358","","1577","","","","offer","","<div class='trialBorder'><div class='vertical-center'><img style='vertical-align:center; align:center' src=img/fixation3.jpg></div><div class='cl'><div class='vertical-center'>$15<br>for<br>sure</div></div><div class='cr'><div class='vertical-center'>$31<br>with a<br>50% chance</div></div><div class='respDivL'><div class='vertical-center'>(E)</div></div><div class='respDivR'><div class='vertical-center'>(I)</div></div></div>","E","$15","$31","0","15","31","SURE"
"html-keyboard-response","111","109620","0.0-5.0-3.35","63d40528f7676637efbd18eb","bdp_rd","Sat Mar 25 2023 16:56:54 GMT-0700 (Pacific Daylight Time)","167358","","null","","","","offerFB","","<div class='trialBorder'><div class='vertical-center'><img style='vertical-align:center; align:center' src=img/fixation3.jpg></div><div class='cl'><div class='vertical-center'><font style='color:orange'>$15<br>for<br>sure</font></div></div><div class='cr'><div class='vertical-center'>$31<br>with a<br>50% chance</div></div><div class='respDivL'><div class='vertical-center'><font style='color:orange'>(E)</font></div></div><div class='respDivR'><div class='vertical-center'>(I)</div></div></div>","null","$15","$31","0","15","31",""
"html-keyboard-response","112","110123","0.0-5.0-1.36","63d40528f7676637efbd18eb","bdp_rd","Sat Mar 25 2023 16:56:54 GMT-0700 (Pacific Daylight Time)","167358","","null","","","","FIX","","<div class='trialBorder'><div class='vertical-center'><img style='vertical-align:center; align:center' src=img/fixation3.jpg></div></div>","null","","","","","",""
"html-keyboard-response","113","112119","0.0-5.0-2.36","63d40528f7676637efbd18eb","bdp_rd","Sat Mar 25 2023 16:56:54 GMT-0700 (Pacific Daylight Time)","167358","","1994","","","","offer","","<div class='trialBorder'><div class='vertical-center'><img style='vertical-align:center; align:center' src=img/fixation3.jpg></div><div class='cl'><div class='vertical-center'>$29<br>for<br>sure</div></div><div class='cr'><div class='vertical-center'>$46<br>with a<br>50% chance</div></div><div class='respDivL'><div class='vertical-center'>(E)</div></div><div class='respDivR'><div class='vertical-center'>(I)</div></div></div>","E","$29","$46","0","29","46","SURE"
"html-keyboard-response","114","112372","0.0-5.0-3.36","63d40528f7676637efbd18eb","bdp_rd","Sat Mar 25 2023 16:56:54 GMT-0700 (Pacific Daylight Time)","167358","","null","","","","offerFB","","<div class='trialBorder'><div class='vertical-center'><img style='vertical-align:center; align:center' src=img/fixation3.jpg></div><div class='cl'><div class='vertical-center'><font style='color:orange'>$29<br>for<br>sure</font></div></div><div class='cr'><div class='vertical-center'>$46<br>with a<br>50% chance</div></div><div class='respDivL'><div class='vertical-center'><font style='color:orange'>(E)</font></div></div><div class='respDivR'><div class='vertical-center'>(I)</div></div></div>","null","$29","$46","0","29","46",""
"html-keyboard-response","115","112876","0.0-5.0-1.37","63d40528f7676637efbd18eb","bdp_rd","Sat Mar 25 2023 16:56:54 GMT-0700 (Pacific Daylight Time)","167358","","null","","","","FIX","","<div class='trialBorder'><div class='vertical-center'><img style='vertical-align:center; align:center' src=img/fixation3.jpg></div></div>","null","","","","","",""
"html-keyboard-response","116","113752","0.0-5.0-2.37","63d40528f7676637efbd18eb","bdp_rd","Sat Mar 25 2023 16:56:54 GMT-0700 (Pacific Daylight Time)","167358","","874","","","","offer","","<div class='trialBorder'><div class='vertical-center'><img style='vertical-align:center; align:center' src=img/fixation3.jpg></div><div class='cl'><div class='vertical-center'>$28<br>with a<br>50% chance</div></div><div class='cr'><div class='vertical-center'>$16<br>for<br>sure</div></div><div class='respDivL'><div class='vertical-center'>(E)</div></div><div class='respDivR'><div class='vertical-center'>(I)</div></div></div>","I","$16","$28","1","16","28","SURE"
"html-keyboard-response","117","114005","0.0-5.0-3.37","63d40528f7676637efbd18eb","bdp_rd","Sat Mar 25 2023 16:56:54 GMT-0700 (Pacific Daylight Time)","167358","","null","","","","offerFB","","<div class='trialBorder'><div class='vertical-center'><img style='vertical-align:center; align:center' src=img/fixation3.jpg></div><div class='cl'><div class='vertical-center'>$28<br>with a<br>50% chance</div></div><div class='cr'><div class='vertical-center'><font style='color:orange'>$16<br>for<br>sure</font></div></div><div class='respDivL'><div class='vertical-center'>(E)</div></div><div class='respDivR'><div class='vertical-center'><font style='color:orange'>(I)</font></div></div></div>","null","$16","$28","1","16","28",""
"html-keyboard-response","118","114507","0.0-5.0-1.38","63d40528f7676637efbd18eb","bdp_rd","Sat Mar 25 2023 16:56:54 GMT-0700 (Pacific Daylight Time)","167358","","null","","","","FIX","","<div class='trialBorder'><div class='vertical-center'><img style='vertical-align:center; align:center' src=img/fixation3.jpg></div></div>","null","","","","","",""
"html-keyboard-response","119","116528","0.0-5.0-2.38","63d40528f7676637efbd18eb","bdp_rd","Sat Mar 25 2023 16:56:54 GMT-0700 (Pacific Daylight Time)","167358","","2019","","","","offer","","<div class='trialBorder'><div class='vertical-center'><img style='vertical-align:center; align:center' src=img/fixation3.jpg></div><div class='cl'><div class='vertical-center'>$18<br>for<br>sure</div></div><div class='cr'><div class='vertical-center'>$36<br>with a<br>50% chance</div></div><div class='respDivL'><div class='vertical-center'>(E)</div></div><div class='respDivR'><div class='vertical-center'>(I)</div></div></div>","E","$18","$36","0","18","36","SURE"
"html-keyboard-response","120","116782","0.0-5.0-3.38","63d40528f7676637efbd18eb","bdp_rd","Sat Mar 25 2023 16:56:54 GMT-0700 (Pacific Daylight Time)","167358","","null","","","","offerFB","","<div class='trialBorder'><div class='vertical-center'><img style='vertical-align:center; align:center' src=img/fixation3.jpg></div><div class='cl'><div class='vertical-center'><font style='color:orange'>$18<br>for<br>sure</font></div></div><div class='cr'><div class='vertical-center'>$36<br>with a<br>50% chance</div></div><div class='respDivL'><div class='vertical-center'><font style='color:orange'>(E)</font></div></div><div class='respDivR'><div class='vertical-center'>(I)</div></div></div>","null","$18","$36","0","18","36",""
"html-keyboard-response","121","117285","0.0-5.0-1.39","63d40528f7676637efbd18eb","bdp_rd","Sat Mar 25 2023 16:56:54 GMT-0700 (Pacific Daylight Time)","167358","","null","","","","FIX","","<div class='trialBorder'><div class='vertical-center'><img style='vertical-align:center; align:center' src=img/fixation3.jpg></div></div>","null","","","","","",""
"html-keyboard-response","122","119112","0.0-5.0-2.39","63d40528f7676637efbd18eb","bdp_rd","Sat Mar 25 2023 16:56:54 GMT-0700 (Pacific Daylight Time)","167358","","1825","","","","offer","","<div class='trialBorder'><div class='vertical-center'><img style='vertical-align:center; align:center' src=img/fixation3.jpg></div><div class='cl'><div class='vertical-center'>$19<br>for<br>sure</div></div><div class='cr'><div class='vertical-center'>$51<br>with a<br>50% chance</div></div><div class='respDivL'><div class='vertical-center'>(E)</div></div><div class='respDivR'><div class='vertical-center'>(I)</div></div></div>","I","$19","$51","0","19","51","RISKY"
"html-keyboard-response","123","119365","0.0-5.0-3.39","63d40528f7676637efbd18eb","bdp_rd","Sat Mar 25 2023 16:56:54 GMT-0700 (Pacific Daylight Time)","167358","","null","","","","offerFB","","<div class='trialBorder'><div class='vertical-center'><img style='vertical-align:center; align:center' src=img/fixation3.jpg></div><div class='cl'><div class='vertical-center'>$19<br>for<br>sure</div></div><div class='cr'><div class='vertical-center'><font style='color:orange'>$51<br>with a<br>50% chance</font></div></div><div class='respDivL'><div class='vertical-center'>(E)</div></div><div class='respDivR'><div class='vertical-center'><font style='color:orange'>(I)</font></div></div></div>","null","$19","$51","0","19","51",""
"html-keyboard-response","124","119868","0.0-5.0-1.40","63d40528f7676637efbd18eb","bdp_rd","Sat Mar 25 2023 16:56:54 GMT-0700 (Pacific Daylight Time)","167358","","null","","","","FIX","","<div class='trialBorder'><div class='vertical-center'><img style='vertical-align:center; align:center' src=img/fixation3.jpg></div></div>","null","","","","","",""
"html-keyboard-response","125","122000","0.0-5.0-2.40","63d40528f7676637efbd18eb","bdp_rd","Sat Mar 25 2023 16:56:54 GMT-0700 (Pacific Daylight Time)","167358","","2126","","","","offer","","<div class='trialBorder'><div class='vertical-center'><img style='vertical-align:center; align:center' src=img/fixation3.jpg></div><div class='cl'><div class='vertical-center'>$26<br>with a<br>50% chance</div></div><div class='cr'><div class='vertical-center'>$11<br>for<br>sure</div></div><div class='respDivL'><div class='vertical-center'>(E)</div></div><div class='respDivR'><div class='vertical-center'>(I)</div></div></div>","I","$11","$26","1","11","26","SURE"
"html-keyboard-response","126","122253","0.0-5.0-3.40","63d40528f7676637efbd18eb","bdp_rd","Sat Mar 25 2023 16:56:54 GMT-0700 (Pacific Daylight Time)","167358","","null","","","","offerFB","","<div class='trialBorder'><div class='vertical-center'><img style='vertical-align:center; align:center' src=img/fixation3.jpg></div><div class='cl'><div class='vertical-center'>$26<br>with a<br>50% chance</div></div><div class='cr'><div class='vertical-center'><font style='color:orange'>$11<br>for<br>sure</font></div></div><div class='respDivL'><div class='vertical-center'>(E)</div></div><div class='respDivR'><div class='vertical-center'><font style='color:orange'>(I)</font></div></div></div>","null","$11","$26","1","11","26",""
"html-keyboard-response","127","122756","0.0-5.0-1.41","63d40528f7676637efbd18eb","bdp_rd","Sat Mar 25 2023 16:56:54 GMT-0700 (Pacific Daylight Time)","167358","","null","","","","FIX","","<div class='trialBorder'><div class='vertical-center'><img style='vertical-align:center; align:center' src=img/fixation3.jpg></div></div>","null","","","","","",""
"html-keyboard-response","128","123815","0.0-5.0-2.41","63d40528f7676637efbd18eb","bdp_rd","Sat Mar 25 2023 16:56:54 GMT-0700 (Pacific Daylight Time)","167358","","1057","","","","offer","","<div class='trialBorder'><div class='vertical-center'><img style='vertical-align:center; align:center' src=img/fixation3.jpg></div><div class='cl'><div class='vertical-center'>$20<br>for<br>sure</div></div><div class='cr'><div class='vertical-center'>$37<br>with a<br>50% chance</div></div><div class='respDivL'><div class='vertical-center'>(E)</div></div><div class='respDivR'><div class='vertical-center'>(I)</div></div></div>","E","$20","$37","0","20","37","SURE"
"html-keyboard-response","129","124067","0.0-5.0-3.41","63d40528f7676637efbd18eb","bdp_rd","Sat Mar 25 2023 16:56:54 GMT-0700 (Pacific Daylight Time)","167358","","null","","","","offerFB","","<div class='trialBorder'><div class='vertical-center'><img style='vertical-align:center; align:center' src=img/fixation3.jpg></div><div class='cl'><div class='vertical-center'><font style='color:orange'>$20<br>for<br>sure</font></div></div><div class='cr'><div class='vertical-center'>$37<br>with a<br>50% chance</div></div><div class='respDivL'><div class='vertical-center'><font style='color:orange'>(E)</font></div></div><div class='respDivR'><div class='vertical-center'>(I)</div></div></div>","null","$20","$37","0","20","37",""
"html-keyboard-response","130","124570","0.0-5.0-1.42","63d40528f7676637efbd18eb","bdp_rd","Sat Mar 25 2023 16:56:54 GMT-0700 (Pacific Daylight Time)","167358","","null","","","","FIX","","<div class='trialBorder'><div class='vertical-center'><img style='vertical-align:center; align:center' src=img/fixation3.jpg></div></div>","null","","","","","",""
"html-keyboard-response","131","125896","0.0-5.0-2.42","63d40528f7676637efbd18eb","bdp_rd","Sat Mar 25 2023 16:56:54 GMT-0700 (Pacific Daylight Time)","167358","","1324","","","","offer","","<div class='trialBorder'><div class='vertical-center'><img style='vertical-align:center; align:center' src=img/fixation3.jpg></div><div class='cl'><div class='vertical-center'>$22<br>with a<br>50% chance</div></div><div class='cr'><div class='vertical-center'>$14<br>for<br>sure</div></div><div class='respDivL'><div class='vertical-center'>(E)</div></div><div class='respDivR'><div class='vertical-center'>(I)</div></div></div>","I","$14","$22","1","14","22","SURE"
"html-keyboard-response","132","126149","0.0-5.0-3.42","63d40528f7676637efbd18eb","bdp_rd","Sat Mar 25 2023 16:56:54 GMT-0700 (Pacific Daylight Time)","167358","","null","","","","offerFB","","<div class='trialBorder'><div class='vertical-center'><img style='vertical-align:center; align:center' src=img/fixation3.jpg></div><div class='cl'><div class='vertical-center'>$22<br>with a<br>50% chance</div></div><div class='cr'><div class='vertical-center'><font style='color:orange'>$14<br>for<br>sure</font></div></div><div class='respDivL'><div class='vertical-center'>(E)</div></div><div class='respDivR'><div class='vertical-center'><font style='color:orange'>(I)</font></div></div></div>","null","$14","$22","1","14","22",""
"html-keyboard-response","133","126652","0.0-5.0-1.43","63d40528f7676637efbd18eb","bdp_rd","Sat Mar 25 2023 16:56:54 GMT-0700 (Pacific Daylight Time)","167358","","null","","","","FIX","","<div class='trialBorder'><div class='vertical-center'><img style='vertical-align:center; align:center' src=img/fixation3.jpg></div></div>","null","","","","","",""
"html-keyboard-response","134","128232","0.0-5.0-2.43","63d40528f7676637efbd18eb","bdp_rd","Sat Mar 25 2023 16:56:54 GMT-0700 (Pacific Daylight Time)","167358","","1579","","","","offer","","<div class='trialBorder'><div class='vertical-center'><img style='vertical-align:center; align:center' src=img/fixation3.jpg></div><div class='cl'><div class='vertical-center'>$39<br>for<br>sure</div></div><div class='cr'><div class='vertical-center'>$81<br>with a<br>50% chance</div></div><div class='respDivL'><div class='vertical-center'>(E)</div></div><div class='respDivR'><div class='vertical-center'>(I)</div></div></div>","E","$39","$81","0","39","81","SURE"
"html-keyboard-response","135","128485","0.0-5.0-3.43","63d40528f7676637efbd18eb","bdp_rd","Sat Mar 25 2023 16:56:54 GMT-0700 (Pacific Daylight Time)","167358","","null","","","","offerFB","","<div class='trialBorder'><div class='vertical-center'><img style='vertical-align:center; align:center' src=img/fixation3.jpg></div><div class='cl'><div class='vertical-center'><font style='color:orange'>$39<br>for<br>sure</font></div></div><div class='cr'><div class='vertical-center'>$81<br>with a<br>50% chance</div></div><div class='respDivL'><div class='vertical-center'><font style='color:orange'>(E)</font></div></div><div class='respDivR'><div class='vertical-center'>(I)</div></div></div>","null","$39","$81","0","39","81",""
"html-keyboard-response","136","128988","0.0-5.0-1.44","63d40528f7676637efbd18eb","bdp_rd","Sat Mar 25 2023 16:56:54 GMT-0700 (Pacific Daylight Time)","167358","","null","","","","FIX","","<div class='trialBorder'><div class='vertical-center'><img style='vertical-align:center; align:center' src=img/fixation3.jpg></div></div>","null","","","","","",""
"html-keyboard-response","137","130153","0.0-5.0-2.44","63d40528f7676637efbd18eb","bdp_rd","Sat Mar 25 2023 16:56:54 GMT-0700 (Pacific Daylight Time)","167358","","1163","","","","offer","","<div class='trialBorder'><div class='vertical-center'><img style='vertical-align:center; align:center' src=img/fixation3.jpg></div><div class='cl'><div class='vertical-center'>$8<br>for<br>sure</div></div><div class='cr'><div class='vertical-center'>$23<br>with a<br>50% chance</div></div><div class='respDivL'><div class='vertical-center'>(E)</div></div><div class='respDivR'><div class='vertical-center'>(I)</div></div></div>","I","$8","$23","0","8","23","RISKY"
"html-keyboard-response","138","130406","0.0-5.0-3.44","63d40528f7676637efbd18eb","bdp_rd","Sat Mar 25 2023 16:56:54 GMT-0700 (Pacific Daylight Time)","167358","","null","","","","offerFB","","<div class='trialBorder'><div class='vertical-center'><img style='vertical-align:center; align:center' src=img/fixation3.jpg></div><div class='cl'><div class='vertical-center'>$8<br>for<br>sure</div></div><div class='cr'><div class='vertical-center'><font style='color:orange'>$23<br>with a<br>50% chance</font></div></div><div class='respDivL'><div class='vertical-center'>(E)</div></div><div class='respDivR'><div class='vertical-center'><font style='color:orange'>(I)</font></div></div></div>","null","$8","$23","0","8","23",""
"html-keyboard-response","139","130910","0.0-5.0-1.45","63d40528f7676637efbd18eb","bdp_rd","Sat Mar 25 2023 16:56:54 GMT-0700 (Pacific Daylight Time)","167358","","null","","","","FIX","","<div class='trialBorder'><div class='vertical-center'><img style='vertical-align:center; align:center' src=img/fixation3.jpg></div></div>","null","","","","","",""
"html-keyboard-response","140","132536","0.0-5.0-2.45","63d40528f7676637efbd18eb","bdp_rd","Sat Mar 25 2023 16:56:54 GMT-0700 (Pacific Daylight Time)","167358","","1623","","","","offer","","<div class='trialBorder'><div class='vertical-center'><img style='vertical-align:center; align:center' src=img/fixation3.jpg></div><div class='cl'><div class='vertical-center'>$59<br>with a<br>50% chance</div></div><div class='cr'><div class='vertical-center'>$22<br>for<br>sure</div></div><div class='respDivL'><div class='vertical-center'>(E)</div></div><div class='respDivR'><div class='vertical-center'>(I)</div></div></div>","I","$22","$59","1","22","59","SURE"
"html-keyboard-response","141","132789","0.0-5.0-3.45","63d40528f7676637efbd18eb","bdp_rd","Sat Mar 25 2023 16:56:54 GMT-0700 (Pacific Daylight Time)","167358","","null","","","","offerFB","","<div class='trialBorder'><div class='vertical-center'><img style='vertical-align:center; align:center' src=img/fixation3.jpg></div><div class='cl'><div class='vertical-center'>$59<br>with a<br>50% chance</div></div><div class='cr'><div class='vertical-center'><font style='color:orange'>$22<br>for<br>sure</font></div></div><div class='respDivL'><div class='vertical-center'>(E)</div></div><div class='respDivR'><div class='vertical-center'><font style='color:orange'>(I)</font></div></div></div>","null","$22","$59","1","22","59",""
"html-keyboard-response","142","133292","0.0-5.0-1.46","63d40528f7676637efbd18eb","bdp_rd","Sat Mar 25 2023 16:56:54 GMT-0700 (Pacific Daylight Time)","167358","","null","","","","FIX","","<div class='trialBorder'><div class='vertical-center'><img style='vertical-align:center; align:center' src=img/fixation3.jpg></div></div>","null","","","","","",""
"html-keyboard-response","143","135544","0.0-5.0-2.46","63d40528f7676637efbd18eb","bdp_rd","Sat Mar 25 2023 16:56:54 GMT-0700 (Pacific Daylight Time)","167358","","2249","","","","offer","","<div class='trialBorder'><div class='vertical-center'><img style='vertical-align:center; align:center' src=img/fixation3.jpg></div><div class='cl'><div class='vertical-center'>$13<br>for<br>sure</div></div><div class='cr'><div class='vertical-center'>$24<br>with a<br>50% chance</div></div><div class='respDivL'><div class='vertical-center'>(E)</div></div><div class='respDivR'><div class='vertical-center'>(I)</div></div></div>","E","$13","$24","0","13","24","SURE"
"html-keyboard-response","144","135796","0.0-5.0-3.46","63d40528f7676637efbd18eb","bdp_rd","Sat Mar 25 2023 16:56:54 GMT-0700 (Pacific Daylight Time)","167358","","null","","","","offerFB","","<div class='trialBorder'><div class='vertical-center'><img style='vertical-align:center; align:center' src=img/fixation3.jpg></div><div class='cl'><div class='vertical-center'><font style='color:orange'>$13<br>for<br>sure</font></div></div><div class='cr'><div class='vertical-center'>$24<br>with a<br>50% chance</div></div><div class='respDivL'><div class='vertical-center'><font style='color:orange'>(E)</font></div></div><div class='respDivR'><div class='vertical-center'>(I)</div></div></div>","null","$13","$24","0","13","24",""
"html-keyboard-response","145","136299","0.0-5.0-1.47","63d40528f7676637efbd18eb","bdp_rd","Sat Mar 25 2023 16:56:54 GMT-0700 (Pacific Daylight Time)","167358","","null","","","","FIX","","<div class='trialBorder'><div class='vertical-center'><img style='vertical-align:center; align:center' src=img/fixation3.jpg></div></div>","null","","","","","",""
"html-keyboard-response","146","138575","0.0-5.0-2.47","63d40528f7676637efbd18eb","bdp_rd","Sat Mar 25 2023 16:56:54 GMT-0700 (Pacific Daylight Time)","167358","","2275","","","","offer","","<div class='trialBorder'><div class='vertical-center'><img style='vertical-align:center; align:center' src=img/fixation3.jpg></div><div class='cl'><div class='vertical-center'>$22<br>for<br>sure</div></div><div class='cr'><div class='vertical-center'>$42<br>with a<br>50% chance</div></div><div class='respDivL'><div class='vertical-center'>(E)</div></div><div class='respDivR'><div class='vertical-center'>(I)</div></div></div>","E","$22","$42","0","22","42","SURE"
"html-keyboard-response","147","138828","0.0-5.0-3.47","63d40528f7676637efbd18eb","bdp_rd","Sat Mar 25 2023 16:56:54 GMT-0700 (Pacific Daylight Time)","167358","","null","","","","offerFB","","<div class='trialBorder'><div class='vertical-center'><img style='vertical-align:center; align:center' src=img/fixation3.jpg></div><div class='cl'><div class='vertical-center'><font style='color:orange'>$22<br>for<br>sure</font></div></div><div class='cr'><div class='vertical-center'>$42<br>with a<br>50% chance</div></div><div class='respDivL'><div class='vertical-center'><font style='color:orange'>(E)</font></div></div><div class='respDivR'><div class='vertical-center'>(I)</div></div></div>","null","$22","$42","0","22","42",""
"html-keyboard-response","148","139338","0.0-5.0-1.48","63d40528f7676637efbd18eb","bdp_rd","Sat Mar 25 2023 16:56:54 GMT-0700 (Pacific Daylight Time)","167358","","null","","","","FIX","","<div class='trialBorder'><div class='vertical-center'><img style='vertical-align:center; align:center' src=img/fixation3.jpg></div></div>","null","","","","","",""
"html-keyboard-response","149","141633","0.0-5.0-2.48","63d40528f7676637efbd18eb","bdp_rd","Sat Mar 25 2023 16:56:54 GMT-0700 (Pacific Daylight Time)","167358","","2293","","","","offer","","<div class='trialBorder'><div class='vertical-center'><img style='vertical-align:center; align:center' src=img/fixation3.jpg></div><div class='cl'><div class='vertical-center'>$16<br>with a<br>50% chance</div></div><div class='cr'><div class='vertical-center'>$5<br>for<br>sure</div></div><div class='respDivL'><div class='vertical-center'>(E)</div></div><div class='respDivR'><div class='vertical-center'>(I)</div></div></div>","E","$5","$16","1","5","16","RISKY"
"html-keyboard-response","150","141887","0.0-5.0-3.48","63d40528f7676637efbd18eb","bdp_rd","Sat Mar 25 2023 16:56:54 GMT-0700 (Pacific Daylight Time)","167358","","null","","","","offerFB","","<div class='trialBorder'><div class='vertical-center'><img style='vertical-align:center; align:center' src=img/fixation3.jpg></div><div class='cl'><div class='vertical-center'><font style='color:orange'>$16<br>with a<br>50% chance</font></div></div><div class='cr'><div class='vertical-center'>$5<br>for<br>sure</div></div><div class='respDivL'><div class='vertical-center'><font style='color:orange'>(E)</font></div></div><div class='respDivR'><div class='vertical-center'>(I)</div></div></div>","null","$5","$16","1","5","16",""
"html-keyboard-response","151","142402","0.0-5.0-1.49","63d40528f7676637efbd18eb","bdp_rd","Sat Mar 25 2023 16:56:54 GMT-0700 (Pacific Daylight Time)","167358","","null","","","","FIX","","<div class='trialBorder'><div class='vertical-center'><img style='vertical-align:center; align:center' src=img/fixation3.jpg></div></div>","null","","","","","",""
"html-keyboard-response","152","143287","0.0-5.0-2.49","63d40528f7676637efbd18eb","bdp_rd","Sat Mar 25 2023 16:56:54 GMT-0700 (Pacific Daylight Time)","167358","","883","","","","offer","","<div class='trialBorder'><div class='vertical-center'><img style='vertical-align:center; align:center' src=img/fixation3.jpg></div><div class='cl'><div class='vertical-center'>$43<br>with a<br>50% chance</div></div><div class='cr'><div class='vertical-center'>$17<br>for<br>sure</div></div><div class='respDivL'><div class='vertical-center'>(E)</div></div><div class='respDivR'><div class='vertical-center'>(I)</div></div></div>","E","$17","$43","1","17","43","RISKY"
"html-keyboard-response","153","143541","0.0-5.0-3.49","63d40528f7676637efbd18eb","bdp_rd","Sat Mar 25 2023 16:56:54 GMT-0700 (Pacific Daylight Time)","167358","","null","","","","offerFB","","<div class='trialBorder'><div class='vertical-center'><img style='vertical-align:center; align:center' src=img/fixation3.jpg></div><div class='cl'><div class='vertical-center'><font style='color:orange'>$43<br>with a<br>50% chance</font></div></div><div class='cr'><div class='vertical-center'>$17<br>for<br>sure</div></div><div class='respDivL'><div class='vertical-center'><font style='color:orange'>(E)</font></div></div><div class='respDivR'><div class='vertical-center'>(I)</div></div></div>","null","$17","$43","1","17","43",""
"html-keyboard-response","154","144044","0.0-5.0-1.50","63d40528f7676637efbd18eb","bdp_rd","Sat Mar 25 2023 16:56:54 GMT-0700 (Pacific Daylight Time)","167358","","null","","","","FIX","","<div class='trialBorder'><div class='vertical-center'><img style='vertical-align:center; align:center' src=img/fixation3.jpg></div></div>","null","","","","","",""
"html-keyboard-response","155","145471","0.0-5.0-2.50","63d40528f7676637efbd18eb","bdp_rd","Sat Mar 25 2023 16:56:54 GMT-0700 (Pacific Daylight Time)","167358","","1426","","","","offer","","<div class='trialBorder'><div class='vertical-center'><img style='vertical-align:center; align:center' src=img/fixation3.jpg></div><div class='cl'><div class='vertical-center'>$10<br>with a<br>50% chance</div></div><div class='cr'><div class='vertical-center'>$7<br>for<br>sure</div></div><div class='respDivL'><div class='vertical-center'>(E)</div></div><div class='respDivR'><div class='vertical-center'>(I)</div></div></div>","I","$7","$10","1","7","10","SURE"
"html-keyboard-response","156","145726","0.0-5.0-3.50","63d40528f7676637efbd18eb","bdp_rd","Sat Mar 25 2023 16:56:54 GMT-0700 (Pacific Daylight Time)","167358","","null","","","","offerFB","","<div class='trialBorder'><div class='vertical-center'><img style='vertical-align:center; align:center' src=img/fixation3.jpg></div><div class='cl'><div class='vertical-center'>$10<br>with a<br>50% chance</div></div><div class='cr'><div class='vertical-center'><font style='color:orange'>$7<br>for<br>sure</font></div></div><div class='respDivL'><div class='vertical-center'>(E)</div></div><div class='respDivR'><div class='vertical-center'><font style='color:orange'>(I)</font></div></div></div>","null","$7","$10","1","7","10",""
"html-keyboard-response","157","146228","0.0-5.0-1.51","63d40528f7676637efbd18eb","bdp_rd","Sat Mar 25 2023 16:56:54 GMT-0700 (Pacific Daylight Time)","167358","","null","","","","FIX","","<div class='trialBorder'><div class='vertical-center'><img style='vertical-align:center; align:center' src=img/fixation3.jpg></div></div>","null","","","","","",""
"html-keyboard-response","158","147343","0.0-5.0-2.51","63d40528f7676637efbd18eb","bdp_rd","Sat Mar 25 2023 16:56:54 GMT-0700 (Pacific Daylight Time)","167358","","1114","","","","offer","","<div class='trialBorder'><div class='vertical-center'><img style='vertical-align:center; align:center' src=img/fixation3.jpg></div><div class='cl'><div class='vertical-center'>$34<br>for<br>sure</div></div><div class='cr'><div class='vertical-center'>$48<br>with a<br>50% chance</div></div><div class='respDivL'><div class='vertical-center'>(E)</div></div><div class='respDivR'><div class='vertical-center'>(I)</div></div></div>","E","$34","$48","0","34","48","SURE"
"html-keyboard-response","159","147596","0.0-5.0-3.51","63d40528f7676637efbd18eb","bdp_rd","Sat Mar 25 2023 16:56:54 GMT-0700 (Pacific Daylight Time)","167358","","null","","","","offerFB","","<div class='trialBorder'><div class='vertical-center'><img style='vertical-align:center; align:center' src=img/fixation3.jpg></div><div class='cl'><div class='vertical-center'><font style='color:orange'>$34<br>for<br>sure</font></div></div><div class='cr'><div class='vertical-center'>$48<br>with a<br>50% chance</div></div><div class='respDivL'><div class='vertical-center'><font style='color:orange'>(E)</font></div></div><div class='respDivR'><div class='vertical-center'>(I)</div></div></div>","null","$34","$48","0","34","48",""
"html-keyboard-response","160","148098","0.0-5.0-1.52","63d40528f7676637efbd18eb","bdp_rd","Sat Mar 25 2023 16:56:54 GMT-0700 (Pacific Daylight Time)","167358","","null","","","","FIX","","<div class='trialBorder'><div class='vertical-center'><img style='vertical-align:center; align:center' src=img/fixation3.jpg></div></div>","null","","","","","",""
"html-keyboard-response","161","149113","0.0-5.0-2.52","63d40528f7676637efbd18eb","bdp_rd","Sat Mar 25 2023 16:56:54 GMT-0700 (Pacific Daylight Time)","167358","","1013","","","","offer","","<div class='trialBorder'><div class='vertical-center'><img style='vertical-align:center; align:center' src=img/fixation3.jpg></div><div class='cl'><div class='vertical-center'>$53<br>for<br>sure</div></div><div class='cr'><div class='vertical-center'>$98<br>with a<br>50% chance</div></div><div class='respDivL'><div class='vertical-center'>(E)</div></div><div class='respDivR'><div class='vertical-center'>(I)</div></div></div>","E","$53","$98","0","53","98","SURE"
"html-keyboard-response","162","149366","0.0-5.0-3.52","63d40528f7676637efbd18eb","bdp_rd","Sat Mar 25 2023 16:56:54 GMT-0700 (Pacific Daylight Time)","167358","","null","","","","offerFB","","<div class='trialBorder'><div class='vertical-center'><img style='vertical-align:center; align:center' src=img/fixation3.jpg></div><div class='cl'><div class='vertical-center'><font style='color:orange'>$53<br>for<br>sure</font></div></div><div class='cr'><div class='vertical-center'>$98<br>with a<br>50% chance</div></div><div class='respDivL'><div class='vertical-center'><font style='color:orange'>(E)</font></div></div><div class='respDivR'><div class='vertical-center'>(I)</div></div></div>","null","$53","$98","0","53","98",""
"html-keyboard-response","163","149868","0.0-5.0-1.53","63d40528f7676637efbd18eb","bdp_rd","Sat Mar 25 2023 16:56:54 GMT-0700 (Pacific Daylight Time)","167358","","null","","","","FIX","","<div class='trialBorder'><div class='vertical-center'><img style='vertical-align:center; align:center' src=img/fixation3.jpg></div></div>","null","","","","","",""
"html-keyboard-response","164","150698","0.0-5.0-2.53","63d40528f7676637efbd18eb","bdp_rd","Sat Mar 25 2023 16:56:54 GMT-0700 (Pacific Daylight Time)","167358","","828","","","","offer","","<div class='trialBorder'><div class='vertical-center'><img style='vertical-align:center; align:center' src=img/fixation3.jpg></div><div class='cl'><div class='vertical-center'>$3<br>for<br>sure</div></div><div class='cr'><div class='vertical-center'>$12<br>with a<br>50% chance</div></div><div class='respDivL'><div class='vertical-center'>(E)</div></div><div class='respDivR'><div class='vertical-center'>(I)</div></div></div>","I","$3","$12","0","3","12","RISKY"
"html-keyboard-response","165","150955","0.0-5.0-3.53","63d40528f7676637efbd18eb","bdp_rd","Sat Mar 25 2023 16:56:54 GMT-0700 (Pacific Daylight Time)","167358","","null","","","","offerFB","","<div class='trialBorder'><div class='vertical-center'><img style='vertical-align:center; align:center' src=img/fixation3.jpg></div><div class='cl'><div class='vertical-center'>$3<br>for<br>sure</div></div><div class='cr'><div class='vertical-center'><font style='color:orange'>$12<br>with a<br>50% chance</font></div></div><div class='respDivL'><div class='vertical-center'>(E)</div></div><div class='respDivR'><div class='vertical-center'><font style='color:orange'>(I)</font></div></div></div>","null","$3","$12","0","3","12",""
"html-keyboard-response","166","151458","0.0-5.0-1.54","63d40528f7676637efbd18eb","bdp_rd","Sat Mar 25 2023 16:56:54 GMT-0700 (Pacific Daylight Time)","167358","","null","","","","FIX","","<div class='trialBorder'><div class='vertical-center'><img style='vertical-align:center; align:center' src=img/fixation3.jpg></div></div>","null","","","","","",""
"html-keyboard-response","167","152505","0.0-5.0-2.54","63d40528f7676637efbd18eb","bdp_rd","Sat Mar 25 2023 16:56:54 GMT-0700 (Pacific Daylight Time)","167358","","1045","","","","offer","","<div class='trialBorder'><div class='vertical-center'><img style='vertical-align:center; align:center' src=img/fixation3.jpg></div><div class='cl'><div class='vertical-center'>$78<br>with a<br>50% chance</div></div><div class='cr'><div class='vertical-center'>$31<br>for<br>sure</div></div><div class='respDivL'><div class='vertical-center'>(E)</div></div><div class='respDivR'><div class='vertical-center'>(I)</div></div></div>","E","$31","$78","1","31","78","RISKY"
"html-keyboard-response","168","152758","0.0-5.0-3.54","63d40528f7676637efbd18eb","bdp_rd","Sat Mar 25 2023 16:56:54 GMT-0700 (Pacific Daylight Time)","167358","","null","","","","offerFB","","<div class='trialBorder'><div class='vertical-center'><img style='vertical-align:center; align:center' src=img/fixation3.jpg></div><div class='cl'><div class='vertical-center'><font style='color:orange'>$78<br>with a<br>50% chance</font></div></div><div class='cr'><div class='vertical-center'>$31<br>for<br>sure</div></div><div class='respDivL'><div class='vertical-center'><font style='color:orange'>(E)</font></div></div><div class='respDivR'><div class='vertical-center'>(I)</div></div></div>","null","$31","$78","1","31","78",""
"html-keyboard-response","169","153261","0.0-5.0-1.55","63d40528f7676637efbd18eb","bdp_rd","Sat Mar 25 2023 16:56:54 GMT-0700 (Pacific Daylight Time)","167358","","null","","","","FIX","","<div class='trialBorder'><div class='vertical-center'><img style='vertical-align:center; align:center' src=img/fixation3.jpg></div></div>","null","","","","","",""
"html-keyboard-response","170","155370","0.0-5.0-2.55","63d40528f7676637efbd18eb","bdp_rd","Sat Mar 25 2023 16:56:54 GMT-0700 (Pacific Daylight Time)","167358","","2106","","","","offer","","<div class='trialBorder'><div class='vertical-center'><img style='vertical-align:center; align:center' src=img/fixation3.jpg></div><div class='cl'><div class='vertical-center'>$20<br>for<br>sure</div></div><div class='cr'><div class='vertical-center'>$80<br>with a<br>50% chance</div></div><div class='respDivL'><div class='vertical-center'>(E)</div></div><div class='respDivR'><div class='vertical-center'>(I)</div></div></div>","I","$20","$80","0","20","80","RISKY"
"html-keyboard-response","171","155623","0.0-5.0-3.55","63d40528f7676637efbd18eb","bdp_rd","Sat Mar 25 2023 16:56:54 GMT-0700 (Pacific Daylight Time)","167358","","null","","","","offerFB","","<div class='trialBorder'><div class='vertical-center'><img style='vertical-align:center; align:center' src=img/fixation3.jpg></div><div class='cl'><div class='vertical-center'>$20<br>for<br>sure</div></div><div class='cr'><div class='vertical-center'><font style='color:orange'>$80<br>with a<br>50% chance</font></div></div><div class='respDivL'><div class='vertical-center'>(E)</div></div><div class='respDivR'><div class='vertical-center'><font style='color:orange'>(I)</font></div></div></div>","null","$20","$80","0","20","80",""
"html-keyboard-response","172","156126","0.0-5.0-1.56","63d40528f7676637efbd18eb","bdp_rd","Sat Mar 25 2023 16:56:54 GMT-0700 (Pacific Daylight Time)","167358","","null","","","","FIX","","<div class='trialBorder'><div class='vertical-center'><img style='vertical-align:center; align:center' src=img/fixation3.jpg></div></div>","null","","","","","",""
"html-keyboard-response","173","157207","0.0-5.0-2.56","63d40528f7676637efbd18eb","bdp_rd","Sat Mar 25 2023 16:56:54 GMT-0700 (Pacific Daylight Time)","167358","","1078","","","","offer","","<div class='trialBorder'><div class='vertical-center'><img style='vertical-align:center; align:center' src=img/fixation3.jpg></div><div class='cl'><div class='vertical-center'>$44<br>with a<br>50% chance</div></div><div class='cr'><div class='vertical-center'>$37<br>for<br>sure</div></div><div class='respDivL'><div class='vertical-center'>(E)</div></div><div class='respDivR'><div class='vertical-center'>(I)</div></div></div>","E","$37","$44","1","37","44","RISKY"
