"trial_type","trial_index","time_elapsed","internal_node_id","subject_id","task","startTime","totalTime","view_history","rt","event","trial","time","trialtype","success","stimulus","key_press","sureOffer","riskyOffer","riskyLeft","sureAmt","riskyAmt","chosen"
"pavlovia","0","10","0.0-0.0","602b3ed14ae791260d6d12c5","bdp_rd","Wed Mar 29 2023 21:18:57 GMT-0400 (Eastern Daylight Time)","155736","","","","","","","","","","","","","","",""
"instructions","1","5431","0.0-1.0","602b3ed14ae791260d6d12c5","bdp_rd","Wed Mar 29 2023 21:18:57 GMT-0400 (Eastern Daylight Time)","155736","[{""page_index"":0,""viewing_time"":5419}]","5419","","","","","","","","","","","","",""
"","","","","602b3ed14ae791260d6d12c5","bdp_rd","Wed Mar 29 2023 21:18:57 GMT-0400 (Eastern Daylight Time)","155736","","","fullscreenenter","2","9704","fullscreenenter","","","","","","","","",""
"fullscreen","2","10681","0.0-2.0","602b3ed14ae791260d6d12c5","bdp_rd","Wed Mar 29 2023 21:18:57 GMT-0400 (Eastern Daylight Time)","155736","","","","","","","true","","","","","","","",""
"instructions","3","22362","0.0-4.0","602b3ed14ae791260d6d12c5","bdp_rd","Wed Mar 29 2023 21:18:57 GMT-0400 (Eastern Daylight Time)","155736","[{""page_index"":0,""viewing_time"":4773},{""page_index"":1,""viewing_time"":5100},{""page_index"":2,""viewing_time"":1807}]","11680","","","","","","","","","","","","",""
"html-keyboard-response","4","22865","0.0-5.0-1.0","602b3ed14ae791260d6d12c5","bdp_rd","Wed Mar 29 2023 21:18:57 GMT-0400 (Eastern Daylight Time)","155736","","null","","","","FIX","","<div class='trialBorder'><div class='vertical-center'><img style='vertical-align:center; align:center' src=img/fixation3.jpg></div></div>","null","","","","","",""
"html-keyboard-response","5","27078","0.0-5.0-2.0","602b3ed14ae791260d6d12c5","bdp_rd","Wed Mar 29 2023 21:18:57 GMT-0400 (Eastern Daylight Time)","155736","","4211","","","","offer","","<div class='trialBorder'><div class='vertical-center'><img style='vertical-align:center; align:center' src=img/fixation3.jpg></div><div class='cl'><div class='vertical-center'>$34<br>for<br>sure</div></div><div class='cr'><div class='vertical-center'>$48<br>with a<br>50% chance</div></div><div class='respDivL'><div class='vertical-center'>(E)</div></div><div class='respDivR'><div class='vertical-center'>(I)</div></div></div>","E","$34","$48","0","34","48","SURE"
"html-keyboard-response","6","27331","0.0-5.0-3.0","602b3ed14ae791260d6d12c5","bdp_rd","Wed Mar 29 2023 21:18:57 GMT-0400 (Eastern Daylight Time)","155736","","null","","","","offerFB","","<div class='trialBorder'><div class='vertical-center'><img style='vertical-align:center; align:center' src=img/fixation3.jpg></div><div class='cl'><div class='vertical-center'><font style='color:orange'>$34<br>for<br>sure</font></div></div><div class='cr'><div class='vertical-center'>$48<br>with a<br>50% chance</div></div><div class='respDivL'><div class='vertical-center'><font style='color:orange'>(E)</font></div></div><div class='respDivR'><div class='vertical-center'>(I)</div></div></div>","null","$34","$48","0","34","48",""
"html-keyboard-response","7","27833","0.0-5.0-1.1","602b3ed14ae791260d6d12c5","bdp_rd","Wed Mar 29 2023 21:18:57 GMT-0400 (Eastern Daylight Time)","155736","","null","","","","FIX","","<div class='trialBorder'><div class='vertical-center'><img style='vertical-align:center; align:center' src=img/fixation3.jpg></div></div>","null","","","","","",""
"html-keyboard-response","8","30708","0.0-5.0-2.1","602b3ed14ae791260d6d12c5","bdp_rd","Wed Mar 29 2023 21:18:57 GMT-0400 (Eastern Daylight Time)","155736","","2873","","","","offer","","<div class='trialBorder'><div class='vertical-center'><img style='vertical-align:center; align:center' src=img/fixation3.jpg></div><div class='cl'><div class='vertical-center'>$26<br>for<br>sure</div></div><div class='cr'><div class='vertical-center'>$92<br>with a<br>50% chance</div></div><div class='respDivL'><div class='vertical-center'>(E)</div></div><div class='respDivR'><div class='vertical-center'>(I)</div></div></div>","I","$26","$92","0","26","92","RISKY"
"html-keyboard-response","9","30962","0.0-5.0-3.1","602b3ed14ae791260d6d12c5","bdp_rd","Wed Mar 29 2023 21:18:57 GMT-0400 (Eastern Daylight Time)","155736","","null","","","","offerFB","","<div class='trialBorder'><div class='vertical-center'><img style='vertical-align:center; align:center' src=img/fixation3.jpg></div><div class='cl'><div class='vertical-center'>$26<br>for<br>sure</div></div><div class='cr'><div class='vertical-center'><font style='color:orange'>$92<br>with a<br>50% chance</font></div></div><div class='respDivL'><div class='vertical-center'>(E)</div></div><div class='respDivR'><div class='vertical-center'><font style='color:orange'>(I)</font></div></div></div>","null","$26","$92","0","26","92",""
"html-keyboard-response","10","31465","0.0-5.0-1.2","602b3ed14ae791260d6d12c5","bdp_rd","Wed Mar 29 2023 21:18:57 GMT-0400 (Eastern Daylight Time)","155736","","null","","","","FIX","","<div class='trialBorder'><div class='vertical-center'><img style='vertical-align:center; align:center' src=img/fixation3.jpg></div></div>","null","","","","","",""
"html-keyboard-response","11","32698","0.0-5.0-2.2","602b3ed14ae791260d6d12c5","bdp_rd","Wed Mar 29 2023 21:18:57 GMT-0400 (Eastern Daylight Time)","155736","","1230","","","","offer","","<div class='trialBorder'><div class='vertical-center'><img style='vertical-align:center; align:center' src=img/fixation3.jpg></div><div class='cl'><div class='vertical-center'>$12<br>for<br>sure</div></div><div class='cr'><div class='vertical-center'>$27<br>with a<br>50% chance</div></div><div class='respDivL'><div class='vertical-center'>(E)</div></div><div class='respDivR'><div class='vertical-center'>(I)</div></div></div>","E","$12","$27","0","12","27","SURE"
"html-keyboard-response","12","32952","0.0-5.0-3.2","602b3ed14ae791260d6d12c5","bdp_rd","Wed Mar 29 2023 21:18:57 GMT-0400 (Eastern Daylight Time)","155736","","null","","","","offerFB","","<div class='trialBorder'><div class='vertical-center'><img style='vertical-align:center; align:center' src=img/fixation3.jpg></div><div class='cl'><div class='vertical-center'><font style='color:orange'>$12<br>for<br>sure</font></div></div><div class='cr'><div class='vertical-center'>$27<br>with a<br>50% chance</div></div><div class='respDivL'><div class='vertical-center'><font style='color:orange'>(E)</font></div></div><div class='respDivR'><div class='vertical-center'>(I)</div></div></div>","null","$12","$27","0","12","27",""
"html-keyboard-response","13","33454","0.0-5.0-1.3","602b3ed14ae791260d6d12c5","bdp_rd","Wed Mar 29 2023 21:18:57 GMT-0400 (Eastern Daylight Time)","155736","","null","","","","FIX","","<div class='trialBorder'><div class='vertical-center'><img style='vertical-align:center; align:center' src=img/fixation3.jpg></div></div>","null","","","","","",""
"html-keyboard-response","14","35013","0.0-5.0-2.3","602b3ed14ae791260d6d12c5","bdp_rd","Wed Mar 29 2023 21:18:57 GMT-0400 (Eastern Daylight Time)","155736","","1556","","","","offer","","<div class='trialBorder'><div class='vertical-center'><img style='vertical-align:center; align:center' src=img/fixation3.jpg></div><div class='cl'><div class='vertical-center'>$10<br>with a<br>50% chance</div></div><div class='cr'><div class='vertical-center'>$7<br>for<br>sure</div></div><div class='respDivL'><div class='vertical-center'>(E)</div></div><div class='respDivR'><div class='vertical-center'>(I)</div></div></div>","I","$7","$10","1","7","10","SURE"
"html-keyboard-response","15","35266","0.0-5.0-3.3","602b3ed14ae791260d6d12c5","bdp_rd","Wed Mar 29 2023 21:18:57 GMT-0400 (Eastern Daylight Time)","155736","","null","","","","offerFB","","<div class='trialBorder'><div class='vertical-center'><img style='vertical-align:center; align:center' src=img/fixation3.jpg></div><div class='cl'><div class='vertical-center'>$10<br>with a<br>50% chance</div></div><div class='cr'><div class='vertical-center'><font style='color:orange'>$7<br>for<br>sure</font></div></div><div class='respDivL'><div class='vertical-center'>(E)</div></div><div class='respDivR'><div class='vertical-center'><font style='color:orange'>(I)</font></div></div></div>","null","$7","$10","1","7","10",""
"html-keyboard-response","16","35769","0.0-5.0-1.4","602b3ed14ae791260d6d12c5","bdp_rd","Wed Mar 29 2023 21:18:57 GMT-0400 (Eastern Daylight Time)","155736","","null","","","","FIX","","<div class='trialBorder'><div class='vertical-center'><img style='vertical-align:center; align:center' src=img/fixation3.jpg></div></div>","null","","","","","",""
"html-keyboard-response","17","36829","0.0-5.0-2.4","602b3ed14ae791260d6d12c5","bdp_rd","Wed Mar 29 2023 21:18:57 GMT-0400 (Eastern Daylight Time)","155736","","1057","","","","offer","","<div class='trialBorder'><div class='vertical-center'><img style='vertical-align:center; align:center' src=img/fixation3.jpg></div><div class='cl'><div class='vertical-center'>$33<br>with a<br>50% chance</div></div><div class='cr'><div class='vertical-center'>$1<br>for<br>sure</div></div><div class='respDivL'><div class='vertical-center'>(E)</div></div><div class='respDivR'><div class='vertical-center'>(I)</div></div></div>","I","$1","$33","1","1","33","SURE"
"html-keyboard-response","18","37083","0.0-5.0-3.4","602b3ed14ae791260d6d12c5","bdp_rd","Wed Mar 29 2023 21:18:57 GMT-0400 (Eastern Daylight Time)","155736","","null","","","","offerFB","","<div class='trialBorder'><div class='vertical-center'><img style='vertical-align:center; align:center' src=img/fixation3.jpg></div><div class='cl'><div class='vertical-center'>$33<br>with a<br>50% chance</div></div><div class='cr'><div class='vertical-center'><font style='color:orange'>$1<br>for<br>sure</font></div></div><div class='respDivL'><div class='vertical-center'>(E)</div></div><div class='respDivR'><div class='vertical-center'><font style='color:orange'>(I)</font></div></div></div>","null","$1","$33","1","1","33",""
"html-keyboard-response","19","37585","0.0-5.0-1.5","602b3ed14ae791260d6d12c5","bdp_rd","Wed Mar 29 2023 21:18:57 GMT-0400 (Eastern Daylight Time)","155736","","null","","","","FIX","","<div class='trialBorder'><div class='vertical-center'><img style='vertical-align:center; align:center' src=img/fixation3.jpg></div></div>","null","","","","","",""
"html-keyboard-response","20","38787","0.0-5.0-2.5","602b3ed14ae791260d6d12c5","bdp_rd","Wed Mar 29 2023 21:18:57 GMT-0400 (Eastern Daylight Time)","155736","","1200","","","","offer","","<div class='trialBorder'><div class='vertical-center'><img style='vertical-align:center; align:center' src=img/fixation3.jpg></div><div class='cl'><div class='vertical-center'>$6<br>for<br>sure</div></div><div class='cr'><div class='vertical-center'>$15<br>with a<br>50% chance</div></div><div class='respDivL'><div class='vertical-center'>(E)</div></div><div class='respDivR'><div class='vertical-center'>(I)</div></div></div>","E","$6","$15","0","6","15","SURE"
"html-keyboard-response","21","39041","0.0-5.0-3.5","602b3ed14ae791260d6d12c5","bdp_rd","Wed Mar 29 2023 21:18:57 GMT-0400 (Eastern Daylight Time)","155736","","null","","","","offerFB","","<div class='trialBorder'><div class='vertical-center'><img style='vertical-align:center; align:center' src=img/fixation3.jpg></div><div class='cl'><div class='vertical-center'><font style='color:orange'>$6<br>for<br>sure</font></div></div><div class='cr'><div class='vertical-center'>$15<br>with a<br>50% chance</div></div><div class='respDivL'><div class='vertical-center'><font style='color:orange'>(E)</font></div></div><div class='respDivR'><div class='vertical-center'>(I)</div></div></div>","null","$6","$15","0","6","15",""
"html-keyboard-response","22","39544","0.0-5.0-1.6","602b3ed14ae791260d6d12c5","bdp_rd","Wed Mar 29 2023 21:18:57 GMT-0400 (Eastern Daylight Time)","155736","","null","","","","FIX","","<div class='trialBorder'><div class='vertical-center'><img style='vertical-align:center; align:center' src=img/fixation3.jpg></div></div>","null","","","","","",""
"html-keyboard-response","23","40419","0.0-5.0-2.6","602b3ed14ae791260d6d12c5","bdp_rd","Wed Mar 29 2023 21:18:57 GMT-0400 (Eastern Daylight Time)","155736","","873","","","","offer","","<div class='trialBorder'><div class='vertical-center'><img style='vertical-align:center; align:center' src=img/fixation3.jpg></div><div class='cl'><div class='vertical-center'>$54<br>with a<br>50% chance</div></div><div class='cr'><div class='vertical-center'>$25<br>for<br>sure</div></div><div class='respDivL'><div class='vertical-center'>(E)</div></div><div class='respDivR'><div class='vertical-center'>(I)</div></div></div>","I","$25","$54","1","25","54","SURE"
"html-keyboard-response","24","40671","0.0-5.0-3.6","602b3ed14ae791260d6d12c5","bdp_rd","Wed Mar 29 2023 21:18:57 GMT-0400 (Eastern Daylight Time)","155736","","null","","","","offerFB","","<div class='trialBorder'><div class='vertical-center'><img style='vertical-align:center; align:center' src=img/fixation3.jpg></div><div class='cl'><div class='vertical-center'>$54<br>with a<br>50% chance</div></div><div class='cr'><div class='vertical-center'><font style='color:orange'>$25<br>for<br>sure</font></div></div><div class='respDivL'><div class='vertical-center'>(E)</div></div><div class='respDivR'><div class='vertical-center'><font style='color:orange'>(I)</font></div></div></div>","null","$25","$54","1","25","54",""
"html-keyboard-response","25","41174","0.0-5.0-1.7","602b3ed14ae791260d6d12c5","bdp_rd","Wed Mar 29 2023 21:18:57 GMT-0400 (Eastern Daylight Time)","155736","","null","","","","FIX","","<div class='trialBorder'><div class='vertical-center'><img style='vertical-align:center; align:center' src=img/fixation3.jpg></div></div>","null","","","","","",""
"html-keyboard-response","26","42223","0.0-5.0-2.7","602b3ed14ae791260d6d12c5","bdp_rd","Wed Mar 29 2023 21:18:57 GMT-0400 (Eastern Daylight Time)","155736","","1047","","","","offer","","<div class='trialBorder'><div class='vertical-center'><img style='vertical-align:center; align:center' src=img/fixation3.jpg></div><div class='cl'><div class='vertical-center'>$80<br>with a<br>50% chance</div></div><div class='cr'><div class='vertical-center'>$20<br>for<br>sure</div></div><div class='respDivL'><div class='vertical-center'>(E)</div></div><div class='respDivR'><div class='vertical-center'>(I)</div></div></div>","I","$20","$80","1","20","80","SURE"
"html-keyboard-response","27","42477","0.0-5.0-3.7","602b3ed14ae791260d6d12c5","bdp_rd","Wed Mar 29 2023 21:18:57 GMT-0400 (Eastern Daylight Time)","155736","","null","","","","offerFB","","<div class='trialBorder'><div class='vertical-center'><img style='vertical-align:center; align:center' src=img/fixation3.jpg></div><div class='cl'><div class='vertical-center'>$80<br>with a<br>50% chance</div></div><div class='cr'><div class='vertical-center'><font style='color:orange'>$20<br>for<br>sure</font></div></div><div class='respDivL'><div class='vertical-center'>(E)</div></div><div class='respDivR'><div class='vertical-center'><font style='color:orange'>(I)</font></div></div></div>","null","$20","$80","1","20","80",""
"html-keyboard-response","28","42979","0.0-5.0-1.8","602b3ed14ae791260d6d12c5","bdp_rd","Wed Mar 29 2023 21:18:57 GMT-0400 (Eastern Daylight Time)","155736","","null","","","","FIX","","<div class='trialBorder'><div class='vertical-center'><img style='vertical-align:center; align:center' src=img/fixation3.jpg></div></div>","null","","","","","",""
"html-keyboard-response","29","45520","0.0-5.0-2.8","602b3ed14ae791260d6d12c5","bdp_rd","Wed Mar 29 2023 21:18:57 GMT-0400 (Eastern Daylight Time)","155736","","2539","","","","offer","","<div class='trialBorder'><div class='vertical-center'><img style='vertical-align:center; align:center' src=img/fixation3.jpg></div><div class='cl'><div class='vertical-center'>$63<br>for<br>sure</div></div><div class='cr'><div class='vertical-center'>$100<br>with a<br>50% chance</div></div><div class='respDivL'><div class='vertical-center'>(E)</div></div><div class='respDivR'><div class='vertical-center'>(I)</div></div></div>","E","$63","$100","0","63","10","SURE"
"html-keyboard-response","30","45775","0.0-5.0-3.8","602b3ed14ae791260d6d12c5","bdp_rd","Wed Mar 29 2023 21:18:57 GMT-0400 (Eastern Daylight Time)","155736","","null","","","","offerFB","","<div class='trialBorder'><div class='vertical-center'><img style='vertical-align:center; align:center' src=img/fixation3.jpg></div><div class='cl'><div class='vertical-center'><font style='color:orange'>$63<br>for<br>sure</font></div></div><div class='cr'><div class='vertical-center'>$100<br>with a<br>50% chance</div></div><div class='respDivL'><div class='vertical-center'><font style='color:orange'>(E)</font></div></div><div class='respDivR'><div class='vertical-center'>(I)</div></div></div>","null","$63","$100","0","63","10",""
"html-keyboard-response","31","46277","0.0-5.0-1.9","602b3ed14ae791260d6d12c5","bdp_rd","Wed Mar 29 2023 21:18:57 GMT-0400 (Eastern Daylight Time)","155736","","null","","","","FIX","","<div class='trialBorder'><div class='vertical-center'><img style='vertical-align:center; align:center' src=img/fixation3.jpg></div></div>","null","","","","","",""
"html-keyboard-response","32","48292","0.0-5.0-2.9","602b3ed14ae791260d6d12c5","bdp_rd","Wed Mar 29 2023 21:18:57 GMT-0400 (Eastern Daylight Time)","155736","","2013","","","","offer","","<div class='trialBorder'><div class='vertical-center'><img style='vertical-align:center; align:center' src=img/fixation3.jpg></div><div class='cl'><div class='vertical-center'>$95<br>with a<br>50% chance</div></div><div class='cr'><div class='vertical-center'>$40<br>for<br>sure</div></div><div class='respDivL'><div class='vertical-center'>(E)</div></div><div class='respDivR'><div class='vertical-center'>(I)</div></div></div>","E","$40","$95","1","40","95","RISKY"
"html-keyboard-response","33","48546","0.0-5.0-3.9","602b3ed14ae791260d6d12c5","bdp_rd","Wed Mar 29 2023 21:18:57 GMT-0400 (Eastern Daylight Time)","155736","","null","","","","offerFB","","<div class='trialBorder'><div class='vertical-center'><img style='vertical-align:center; align:center' src=img/fixation3.jpg></div><div class='cl'><div class='vertical-center'><font style='color:orange'>$95<br>with a<br>50% chance</font></div></div><div class='cr'><div class='vertical-center'>$40<br>for<br>sure</div></div><div class='respDivL'><div class='vertical-center'><font style='color:orange'>(E)</font></div></div><div class='respDivR'><div class='vertical-center'>(I)</div></div></div>","null","$40","$95","1","40","95",""
"html-keyboard-response","34","49049","0.0-5.0-1.10","602b3ed14ae791260d6d12c5","bdp_rd","Wed Mar 29 2023 21:18:57 GMT-0400 (Eastern Daylight Time)","155736","","null","","","","FIX","","<div class='trialBorder'><div class='vertical-center'><img style='vertical-align:center; align:center' src=img/fixation3.jpg></div></div>","null","","","","","",""
"html-keyboard-response","35","50086","0.0-5.0-2.10","602b3ed14ae791260d6d12c5","bdp_rd","Wed Mar 29 2023 21:18:57 GMT-0400 (Eastern Daylight Time)","155736","","1034","","","","offer","","<div class='trialBorder'><div class='vertical-center'><img style='vertical-align:center; align:center' src=img/fixation3.jpg></div><div class='cl'><div class='vertical-center'>$44<br>with a<br>50% chance</div></div><div class='cr'><div class='vertical-center'>$37<br>for<br>sure</div></div><div class='respDivL'><div class='vertical-center'>(E)</div></div><div class='respDivR'><div class='vertical-center'>(I)</div></div></div>","I","$37","$44","1","37","44","SURE"
"html-keyboard-response","36","50339","0.0-5.0-3.10","602b3ed14ae791260d6d12c5","bdp_rd","Wed Mar 29 2023 21:18:57 GMT-0400 (Eastern Daylight Time)","155736","","null","","","","offerFB","","<div class='trialBorder'><div class='vertical-center'><img style='vertical-align:center; align:center' src=img/fixation3.jpg></div><div class='cl'><div class='vertical-center'>$44<br>with a<br>50% chance</div></div><div class='cr'><div class='vertical-center'><font style='color:orange'>$37<br>for<br>sure</font></div></div><div class='respDivL'><div class='vertical-center'>(E)</div></div><div class='respDivR'><div class='vertical-center'><font style='color:orange'>(I)</font></div></div></div>","null","$37","$44","1","37","44",""
"html-keyboard-response","37","50842","0.0-5.0-1.11","602b3ed14ae791260d6d12c5","bdp_rd","Wed Mar 29 2023 21:18:57 GMT-0400 (Eastern Daylight Time)","155736","","null","","","","FIX","","<div class='trialBorder'><div class='vertical-center'><img style='vertical-align:center; align:center' src=img/fixation3.jpg></div></div>","null","","","","","",""
"html-keyboard-response","38","52063","0.0-5.0-2.11","602b3ed14ae791260d6d12c5","bdp_rd","Wed Mar 29 2023 21:18:57 GMT-0400 (Eastern Daylight Time)","155736","","1218","","","","offer","","<div class='trialBorder'><div class='vertical-center'><img style='vertical-align:center; align:center' src=img/fixation3.jpg></div><div class='cl'><div class='vertical-center'>$19<br>with a<br>50% chance</div></div><div class='cr'><div class='vertical-center'>$10<br>for<br>sure</div></div><div class='respDivL'><div class='vertical-center'>(E)</div></div><div class='respDivR'><div class='vertical-center'>(I)</div></div></div>","I","$10","$19","1","10","19","SURE"
"html-keyboard-response","39","52317","0.0-5.0-3.11","602b3ed14ae791260d6d12c5","bdp_rd","Wed Mar 29 2023 21:18:57 GMT-0400 (Eastern Daylight Time)","155736","","null","","","","offerFB","","<div class='trialBorder'><div class='vertical-center'><img style='vertical-align:center; align:center' src=img/fixation3.jpg></div><div class='cl'><div class='vertical-center'>$19<br>with a<br>50% chance</div></div><div class='cr'><div class='vertical-center'><font style='color:orange'>$10<br>for<br>sure</font></div></div><div class='respDivL'><div class='vertical-center'>(E)</div></div><div class='respDivR'><div class='vertical-center'><font style='color:orange'>(I)</font></div></div></div>","null","$10","$19","1","10","19",""
"html-keyboard-response","40","52819","0.0-5.0-1.12","602b3ed14ae791260d6d12c5","bdp_rd","Wed Mar 29 2023 21:18:57 GMT-0400 (Eastern Daylight Time)","155736","","null","","","","FIX","","<div class='trialBorder'><div class='vertical-center'><img style='vertical-align:center; align:center' src=img/fixation3.jpg></div></div>","null","","","","","",""
"html-keyboard-response","41","54603","0.0-5.0-2.12","602b3ed14ae791260d6d12c5","bdp_rd","Wed Mar 29 2023 21:18:57 GMT-0400 (Eastern Daylight Time)","155736","","1783","","","","offer","","<div class='trialBorder'><div class='vertical-center'><img style='vertical-align:center; align:center' src=img/fixation3.jpg></div><div class='cl'><div class='vertical-center'>$14<br>for<br>sure</div></div><div class='cr'><div class='vertical-center'>$22<br>with a<br>50% chance</div></div><div class='respDivL'><div class='vertical-center'>(E)</div></div><div class='respDivR'><div class='vertical-center'>(I)</div></div></div>","I","$14","$22","0","14","22","RISKY"
"html-keyboard-response","42","54856","0.0-5.0-3.12","602b3ed14ae791260d6d12c5","bdp_rd","Wed Mar 29 2023 21:18:57 GMT-0400 (Eastern Daylight Time)","155736","","null","","","","offerFB","","<div class='trialBorder'><div class='vertical-center'><img style='vertical-align:center; align:center' src=img/fixation3.jpg></div><div class='cl'><div class='vertical-center'>$14<br>for<br>sure</div></div><div class='cr'><div class='vertical-center'><font style='color:orange'>$22<br>with a<br>50% chance</font></div></div><div class='respDivL'><div class='vertical-center'>(E)</div></div><div class='respDivR'><div class='vertical-center'><font style='color:orange'>(I)</font></div></div></div>","null","$14","$22","0","14","22",""
"html-keyboard-response","43","55358","0.0-5.0-1.13","602b3ed14ae791260d6d12c5","bdp_rd","Wed Mar 29 2023 21:18:57 GMT-0400 (Eastern Daylight Time)","155736","","null","","","","FIX","","<div class='trialBorder'><div class='vertical-center'><img style='vertical-align:center; align:center' src=img/fixation3.jpg></div></div>","null","","","","","",""
"html-keyboard-response","44","58436","0.0-5.0-2.13","602b3ed14ae791260d6d12c5","bdp_rd","Wed Mar 29 2023 21:18:57 GMT-0400 (Eastern Daylight Time)","155736","","3075","","","","offer","","<div class='trialBorder'><div class='vertical-center'><img style='vertical-align:center; align:center' src=img/fixation3.jpg></div><div class='cl'><div class='vertical-center'>$39<br>with a<br>50% chance</div></div><div class='cr'><div class='vertical-center'>$18<br>for<br>sure</div></div><div class='respDivL'><div class='vertical-center'>(E)</div></div><div class='respDivR'><div class='vertical-center'>(I)</div></div></div>","I","$18","$39","1","18","39","SURE"
"html-keyboard-response","45","58689","0.0-5.0-3.13","602b3ed14ae791260d6d12c5","bdp_rd","Wed Mar 29 2023 21:18:57 GMT-0400 (Eastern Daylight Time)","155736","","null","","","","offerFB","","<div class='trialBorder'><div class='vertical-center'><img style='vertical-align:center; align:center' src=img/fixation3.jpg></div><div class='cl'><div class='vertical-center'>$39<br>with a<br>50% chance</div></div><div class='cr'><div class='vertical-center'><font style='color:orange'>$18<br>for<br>sure</font></div></div><div class='respDivL'><div class='vertical-center'>(E)</div></div><div class='respDivR'><div class='vertical-center'><font style='color:orange'>(I)</font></div></div></div>","null","$18","$39","1","18","39",""
"html-keyboard-response","46","59192","0.0-5.0-1.14","602b3ed14ae791260d6d12c5","bdp_rd","Wed Mar 29 2023 21:18:57 GMT-0400 (Eastern Daylight Time)","155736","","null","","","","FIX","","<div class='trialBorder'><div class='vertical-center'><img style='vertical-align:center; align:center' src=img/fixation3.jpg></div></div>","null","","","","","",""
"html-keyboard-response","47","60529","0.0-5.0-2.14","602b3ed14ae791260d6d12c5","bdp_rd","Wed Mar 29 2023 21:18:57 GMT-0400 (Eastern Daylight Time)","155736","","1334","","","","offer","","<div class='trialBorder'><div class='vertical-center'><img style='vertical-align:center; align:center' src=img/fixation3.jpg></div><div class='cl'><div class='vertical-center'>$19<br>for<br>sure</div></div><div class='cr'><div class='vertical-center'>$51<br>with a<br>50% chance</div></div><div class='respDivL'><div class='vertical-center'>(E)</div></div><div class='respDivR'><div class='vertical-center'>(I)</div></div></div>","E","$19","$51","0","19","51","SURE"
"html-keyboard-response","48","60782","0.0-5.0-3.14","602b3ed14ae791260d6d12c5","bdp_rd","Wed Mar 29 2023 21:18:57 GMT-0400 (Eastern Daylight Time)","155736","","null","","","","offerFB","","<div class='trialBorder'><div class='vertical-center'><img style='vertical-align:center; align:center' src=img/fixation3.jpg></div><div class='cl'><div class='vertical-center'><font style='color:orange'>$19<br>for<br>sure</font></div></div><div class='cr'><div class='vertical-center'>$51<br>with a<br>50% chance</div></div><div class='respDivL'><div class='vertical-center'><font style='color:orange'>(E)</font></div></div><div class='respDivR'><div class='vertical-center'>(I)</div></div></div>","null","$19","$51","0","19","51",""
"html-keyboard-response","49","61285","0.0-5.0-1.15","602b3ed14ae791260d6d12c5","bdp_rd","Wed Mar 29 2023 21:18:57 GMT-0400 (Eastern Daylight Time)","155736","","null","","","","FIX","","<div class='trialBorder'><div class='vertical-center'><img style='vertical-align:center; align:center' src=img/fixation3.jpg></div></div>","null","","","","","",""
"html-keyboard-response","50","62192","0.0-5.0-2.15","602b3ed14ae791260d6d12c5","bdp_rd","Wed Mar 29 2023 21:18:57 GMT-0400 (Eastern Daylight Time)","155736","","904","","","","offer","","<div class='trialBorder'><div class='vertical-center'><img style='vertical-align:center; align:center' src=img/fixation3.jpg></div><div class='cl'><div class='vertical-center'>$15<br>for<br>sure</div></div><div class='cr'><div class='vertical-center'>$34<br>with a<br>50% chance</div></div><div class='respDivL'><div class='vertical-center'>(E)</div></div><div class='respDivR'><div class='vertical-center'>(I)</div></div></div>","E","$15","$34","0","15","34","SURE"
"html-keyboard-response","51","62444","0.0-5.0-3.15","602b3ed14ae791260d6d12c5","bdp_rd","Wed Mar 29 2023 21:18:57 GMT-0400 (Eastern Daylight Time)","155736","","null","","","","offerFB","","<div class='trialBorder'><div class='vertical-center'><img style='vertical-align:center; align:center' src=img/fixation3.jpg></div><div class='cl'><div class='vertical-center'><font style='color:orange'>$15<br>for<br>sure</font></div></div><div class='cr'><div class='vertical-center'>$34<br>with a<br>50% chance</div></div><div class='respDivL'><div class='vertical-center'><font style='color:orange'>(E)</font></div></div><div class='respDivR'><div class='vertical-center'>(I)</div></div></div>","null","$15","$34","0","15","34",""
"html-keyboard-response","52","62947","0.0-5.0-1.16","602b3ed14ae791260d6d12c5","bdp_rd","Wed Mar 29 2023 21:18:57 GMT-0400 (Eastern Daylight Time)","155736","","null","","","","FIX","","<div class='trialBorder'><div class='vertical-center'><img style='vertical-align:center; align:center' src=img/fixation3.jpg></div></div>","null","","","","","",""
"html-keyboard-response","53","64525","0.0-5.0-2.16","602b3ed14ae791260d6d12c5","bdp_rd","Wed Mar 29 2023 21:18:57 GMT-0400 (Eastern Daylight Time)","155736","","1577","","","","offer","","<div class='trialBorder'><div class='vertical-center'><img style='vertical-align:center; align:center' src=img/fixation3.jpg></div><div class='cl'><div class='vertical-center'>$64<br>with a<br>50% chance</div></div><div class='cr'><div class='vertical-center'>$2<br>for<br>sure</div></div><div class='respDivL'><div class='vertical-center'>(E)</div></div><div class='respDivR'><div class='vertical-center'>(I)</div></div></div>","E","$2","$64","1","2","64","RISKY"
"html-keyboard-response","54","64779","0.0-5.0-3.16","602b3ed14ae791260d6d12c5","bdp_rd","Wed Mar 29 2023 21:18:57 GMT-0400 (Eastern Daylight Time)","155736","","null","","","","offerFB","","<div class='trialBorder'><div class='vertical-center'><img style='vertical-align:center; align:center' src=img/fixation3.jpg></div><div class='cl'><div class='vertical-center'><font style='color:orange'>$64<br>with a<br>50% chance</font></div></div><div class='cr'><div class='vertical-center'>$2<br>for<br>sure</div></div><div class='respDivL'><div class='vertical-center'><font style='color:orange'>(E)</font></div></div><div class='respDivR'><div class='vertical-center'>(I)</div></div></div>","null","$2","$64","1","2","64",""
"html-keyboard-response","55","65282","0.0-5.0-1.17","602b3ed14ae791260d6d12c5","bdp_rd","Wed Mar 29 2023 21:18:57 GMT-0400 (Eastern Daylight Time)","155736","","null","","","","FIX","","<div class='trialBorder'><div class='vertical-center'><img style='vertical-align:center; align:center' src=img/fixation3.jpg></div></div>","null","","","","","",""
"html-keyboard-response","56","66252","0.0-5.0-2.17","602b3ed14ae791260d6d12c5","bdp_rd","Wed Mar 29 2023 21:18:57 GMT-0400 (Eastern Daylight Time)","155736","","967","","","","offer","","<div class='trialBorder'><div class='vertical-center'><img style='vertical-align:center; align:center' src=img/fixation3.jpg></div><div class='cl'><div class='vertical-center'>$36<br>with a<br>50% chance</div></div><div class='cr'><div class='vertical-center'>$18<br>for<br>sure</div></div><div class='respDivL'><div class='vertical-center'>(E)</div></div><div class='respDivR'><div class='vertical-center'>(I)</div></div></div>","I","$18","$36","1","18","36","SURE"
"html-keyboard-response","57","66506","0.0-5.0-3.17","602b3ed14ae791260d6d12c5","bdp_rd","Wed Mar 29 2023 21:18:57 GMT-0400 (Eastern Daylight Time)","155736","","null","","","","offerFB","","<div class='trialBorder'><div class='vertical-center'><img style='vertical-align:center; align:center' src=img/fixation3.jpg></div><div class='cl'><div class='vertical-center'>$36<br>with a<br>50% chance</div></div><div class='cr'><div class='vertical-center'><font style='color:orange'>$18<br>for<br>sure</font></div></div><div class='respDivL'><div class='vertical-center'>(E)</div></div><div class='respDivR'><div class='vertical-center'><font style='color:orange'>(I)</font></div></div></div>","null","$18","$36","1","18","36",""
"html-keyboard-response","58","67009","0.0-5.0-1.18","602b3ed14ae791260d6d12c5","bdp_rd","Wed Mar 29 2023 21:18:57 GMT-0400 (Eastern Daylight Time)","155736","","null","","","","FIX","","<div class='trialBorder'><div class='vertical-center'><img style='vertical-align:center; align:center' src=img/fixation3.jpg></div></div>","null","","","","","",""
"html-keyboard-response","59","68075","0.0-5.0-2.18","602b3ed14ae791260d6d12c5","bdp_rd","Wed Mar 29 2023 21:18:57 GMT-0400 (Eastern Daylight Time)","155736","","1064","","","","offer","","<div class='trialBorder'><div class='vertical-center'><img style='vertical-align:center; align:center' src=img/fixation3.jpg></div><div class='cl'><div class='vertical-center'>$31<br>with a<br>50% chance</div></div><div class='cr'><div class='vertical-center'>$15<br>for<br>sure</div></div><div class='respDivL'><div class='vertical-center'>(E)</div></div><div class='respDivR'><div class='vertical-center'>(I)</div></div></div>","I","$15","$31","1","15","31","SURE"
"html-keyboard-response","60","68329","0.0-5.0-3.18","602b3ed14ae791260d6d12c5","bdp_rd","Wed Mar 29 2023 21:18:57 GMT-0400 (Eastern Daylight Time)","155736","","null","","","","offerFB","","<div class='trialBorder'><div class='vertical-center'><img style='vertical-align:center; align:center' src=img/fixation3.jpg></div><div class='cl'><div class='vertical-center'>$31<br>with a<br>50% chance</div></div><div class='cr'><div class='vertical-center'><font style='color:orange'>$15<br>for<br>sure</font></div></div><div class='respDivL'><div class='vertical-center'>(E)</div></div><div class='respDivR'><div class='vertical-center'><font style='color:orange'>(I)</font></div></div></div>","null","$15","$31","1","15","31",""
"html-keyboard-response","61","68831","0.0-5.0-1.19","602b3ed14ae791260d6d12c5","bdp_rd","Wed Mar 29 2023 21:18:57 GMT-0400 (Eastern Daylight Time)","155736","","null","","","","FIX","","<div class='trialBorder'><div class='vertical-center'><img style='vertical-align:center; align:center' src=img/fixation3.jpg></div></div>","null","","","","","",""
"html-keyboard-response","62","69475","0.0-5.0-2.19","602b3ed14ae791260d6d12c5","bdp_rd","Wed Mar 29 2023 21:18:57 GMT-0400 (Eastern Daylight Time)","155736","","642","","","","offer","","<div class='trialBorder'><div class='vertical-center'><img style='vertical-align:center; align:center' src=img/fixation3.jpg></div><div class='cl'><div class='vertical-center'>$27<br>for<br>sure</div></div><div class='cr'><div class='vertical-center'>$47<br>with a<br>50% chance</div></div><div class='respDivL'><div class='vertical-center'>(E)</div></div><div class='respDivR'><div class='vertical-center'>(I)</div></div></div>","E","$27","$47","0","27","47","SURE"
"html-keyboard-response","63","69728","0.0-5.0-3.19","602b3ed14ae791260d6d12c5","bdp_rd","Wed Mar 29 2023 21:18:57 GMT-0400 (Eastern Daylight Time)","155736","","null","","","","offerFB","","<div class='trialBorder'><div class='vertical-center'><img style='vertical-align:center; align:center' src=img/fixation3.jpg></div><div class='cl'><div class='vertical-center'><font style='color:orange'>$27<br>for<br>sure</font></div></div><div class='cr'><div class='vertical-center'>$47<br>with a<br>50% chance</div></div><div class='respDivL'><div class='vertical-center'><font style='color:orange'>(E)</font></div></div><div class='respDivR'><div class='vertical-center'>(I)</div></div></div>","null","$27","$47","0","27","47",""
"html-keyboard-response","64","70231","0.0-5.0-1.20","602b3ed14ae791260d6d12c5","bdp_rd","Wed Mar 29 2023 21:18:57 GMT-0400 (Eastern Daylight Time)","155736","","null","","","","FIX","","<div class='trialBorder'><div class='vertical-center'><img style='vertical-align:center; align:center' src=img/fixation3.jpg></div></div>","null","","","","","",""
"html-keyboard-response","65","71403","0.0-5.0-2.20","602b3ed14ae791260d6d12c5","bdp_rd","Wed Mar 29 2023 21:18:57 GMT-0400 (Eastern Daylight Time)","155736","","1169","","","","offer","","<div class='trialBorder'><div class='vertical-center'><img style='vertical-align:center; align:center' src=img/fixation3.jpg></div><div class='cl'><div class='vertical-center'>$4<br>for<br>sure</div></div><div class='cr'><div class='vertical-center'>$11<br>with a<br>50% chance</div></div><div class='respDivL'><div class='vertical-center'>(E)</div></div><div class='respDivR'><div class='vertical-center'>(I)</div></div></div>","E","$4","$11","0","4","11","SURE"
"html-keyboard-response","66","71656","0.0-5.0-3.20","602b3ed14ae791260d6d12c5","bdp_rd","Wed Mar 29 2023 21:18:57 GMT-0400 (Eastern Daylight Time)","155736","","null","","","","offerFB","","<div class='trialBorder'><div class='vertical-center'><img style='vertical-align:center; align:center' src=img/fixation3.jpg></div><div class='cl'><div class='vertical-center'><font style='color:orange'>$4<br>for<br>sure</font></div></div><div class='cr'><div class='vertical-center'>$11<br>with a<br>50% chance</div></div><div class='respDivL'><div class='vertical-center'><font style='color:orange'>(E)</font></div></div><div class='respDivR'><div class='vertical-center'>(I)</div></div></div>","null","$4","$11","0","4","11",""
"html-keyboard-response","67","72158","0.0-5.0-1.21","602b3ed14ae791260d6d12c5","bdp_rd","Wed Mar 29 2023 21:18:57 GMT-0400 (Eastern Daylight Time)","155736","","null","","","","FIX","","<div class='trialBorder'><div class='vertical-center'><img style='vertical-align:center; align:center' src=img/fixation3.jpg></div></div>","null","","","","","",""
"html-keyboard-response","68","72934","0.0-5.0-2.21","602b3ed14ae791260d6d12c5","bdp_rd","Wed Mar 29 2023 21:18:57 GMT-0400 (Eastern Daylight Time)","155736","","774","","","","offer","","<div class='trialBorder'><div class='vertical-center'><img style='vertical-align:center; align:center' src=img/fixation3.jpg></div><div class='cl'><div class='vertical-center'>$24<br>with a<br>50% chance</div></div><div class='cr'><div class='vertical-center'>$13<br>for<br>sure</div></div><div class='respDivL'><div class='vertical-center'>(E)</div></div><div class='respDivR'><div class='vertical-center'>(I)</div></div></div>","I","$13","$24","1","13","24","SURE"
"html-keyboard-response","69","73187","0.0-5.0-3.21","602b3ed14ae791260d6d12c5","bdp_rd","Wed Mar 29 2023 21:18:57 GMT-0400 (Eastern Daylight Time)","155736","","null","","","","offerFB","","<div class='trialBorder'><div class='vertical-center'><img style='vertical-align:center; align:center' src=img/fixation3.jpg></div><div class='cl'><div class='vertical-center'>$24<br>with a<br>50% chance</div></div><div class='cr'><div class='vertical-center'><font style='color:orange'>$13<br>for<br>sure</font></div></div><div class='respDivL'><div class='vertical-center'>(E)</div></div><div class='respDivR'><div class='vertical-center'><font style='color:orange'>(I)</font></div></div></div>","null","$13","$24","1","13","24",""
"html-keyboard-response","70","73690","0.0-5.0-1.22","602b3ed14ae791260d6d12c5","bdp_rd","Wed Mar 29 2023 21:18:57 GMT-0400 (Eastern Daylight Time)","155736","","null","","","","FIX","","<div class='trialBorder'><div class='vertical-center'><img style='vertical-align:center; align:center' src=img/fixation3.jpg></div></div>","null","","","","","",""
"html-keyboard-response","71","75049","0.0-5.0-2.22","602b3ed14ae791260d6d12c5","bdp_rd","Wed Mar 29 2023 21:18:57 GMT-0400 (Eastern Daylight Time)","155736","","1356","","","","offer","","<div class='trialBorder'><div class='vertical-center'><img style='vertical-align:center; align:center' src=img/fixation3.jpg></div><div class='cl'><div class='vertical-center'>$32<br>with a<br>50% chance</div></div><div class='cr'><div class='vertical-center'>$9<br>for<br>sure</div></div><div class='respDivL'><div class='vertical-center'>(E)</div></div><div class='respDivR'><div class='vertical-center'>(I)</div></div></div>","I","$9","$32","1","9","32","SURE"
"html-keyboard-response","72","75302","0.0-5.0-3.22","602b3ed14ae791260d6d12c5","bdp_rd","Wed Mar 29 2023 21:18:57 GMT-0400 (Eastern Daylight Time)","155736","","null","","","","offerFB","","<div class='trialBorder'><div class='vertical-center'><img style='vertical-align:center; align:center' src=img/fixation3.jpg></div><div class='cl'><div class='vertical-center'>$32<br>with a<br>50% chance</div></div><div class='cr'><div class='vertical-center'><font style='color:orange'>$9<br>for<br>sure</font></div></div><div class='respDivL'><div class='vertical-center'>(E)</div></div><div class='respDivR'><div class='vertical-center'><font style='color:orange'>(I)</font></div></div></div>","null","$9","$32","1","9","32",""
"html-keyboard-response","73","75805","0.0-5.0-1.23","602b3ed14ae791260d6d12c5","bdp_rd","Wed Mar 29 2023 21:18:57 GMT-0400 (Eastern Daylight Time)","155736","","null","","","","FIX","","<div class='trialBorder'><div class='vertical-center'><img style='vertical-align:center; align:center' src=img/fixation3.jpg></div></div>","null","","","","","",""
"html-keyboard-response","74","76727","0.0-5.0-2.23","602b3ed14ae791260d6d12c5","bdp_rd","Wed Mar 29 2023 21:18:57 GMT-0400 (Eastern Daylight Time)","155736","","920","","","","offer","","<div class='trialBorder'><div class='vertical-center'><img style='vertical-align:center; align:center' src=img/fixation3.jpg></div><div class='cl'><div class='vertical-center'>$43<br>with a<br>50% chance</div></div><div class='cr'><div class='vertical-center'>$17<br>for<br>sure</div></div><div class='respDivL'><div class='vertical-center'>(E)</div></div><div class='respDivR'><div class='vertical-center'>(I)</div></div></div>","I","$17","$43","1","17","43","SURE"
"html-keyboard-response","75","76980","0.0-5.0-3.23","602b3ed14ae791260d6d12c5","bdp_rd","Wed Mar 29 2023 21:18:57 GMT-0400 (Eastern Daylight Time)","155736","","null","","","","offerFB","","<div class='trialBorder'><div class='vertical-center'><img style='vertical-align:center; align:center' src=img/fixation3.jpg></div><div class='cl'><div class='vertical-center'>$43<br>with a<br>50% chance</div></div><div class='cr'><div class='vertical-center'><font style='color:orange'>$17<br>for<br>sure</font></div></div><div class='respDivL'><div class='vertical-center'>(E)</div></div><div class='respDivR'><div class='vertical-center'><font style='color:orange'>(I)</font></div></div></div>","null","$17","$43","1","17","43",""
"html-keyboard-response","76","77482","0.0-5.0-1.24","602b3ed14ae791260d6d12c5","bdp_rd","Wed Mar 29 2023 21:18:57 GMT-0400 (Eastern Daylight Time)","155736","","null","","","","FIX","","<div class='trialBorder'><div class='vertical-center'><img style='vertical-align:center; align:center' src=img/fixation3.jpg></div></div>","null","","","","","",""
"html-keyboard-response","77","79155","0.0-5.0-2.24","602b3ed14ae791260d6d12c5","bdp_rd","Wed Mar 29 2023 21:18:57 GMT-0400 (Eastern Daylight Time)","155736","","1671","","","","offer","","<div class='trialBorder'><div class='vertical-center'><img style='vertical-align:center; align:center' src=img/fixation3.jpg></div><div class='cl'><div class='vertical-center'>$50<br>with a<br>50% chance</div></div><div class='cr'><div class='vertical-center'>$5<br>for<br>sure</div></div><div class='respDivL'><div class='vertical-center'>(E)</div></div><div class='respDivR'><div class='vertical-center'>(I)</div></div></div>","I","$5","$50","1","5","50","SURE"
"html-keyboard-response","78","79408","0.0-5.0-3.24","602b3ed14ae791260d6d12c5","bdp_rd","Wed Mar 29 2023 21:18:57 GMT-0400 (Eastern Daylight Time)","155736","","null","","","","offerFB","","<div class='trialBorder'><div class='vertical-center'><img style='vertical-align:center; align:center' src=img/fixation3.jpg></div><div class='cl'><div class='vertical-center'>$50<br>with a<br>50% chance</div></div><div class='cr'><div class='vertical-center'><font style='color:orange'>$5<br>for<br>sure</font></div></div><div class='respDivL'><div class='vertical-center'>(E)</div></div><div class='respDivR'><div class='vertical-center'><font style='color:orange'>(I)</font></div></div></div>","null","$5","$50","1","5","50",""
"html-keyboard-response","79","79910","0.0-5.0-1.25","602b3ed14ae791260d6d12c5","bdp_rd","Wed Mar 29 2023 21:18:57 GMT-0400 (Eastern Daylight Time)","155736","","null","","","","FIX","","<div class='trialBorder'><div class='vertical-center'><img style='vertical-align:center; align:center' src=img/fixation3.jpg></div></div>","null","","","","","",""
"html-keyboard-response","80","80546","0.0-5.0-2.25","602b3ed14ae791260d6d12c5","bdp_rd","Wed Mar 29 2023 21:18:57 GMT-0400 (Eastern Daylight Time)","155736","","635","","","","offer","","<div class='trialBorder'><div class='vertical-center'><img style='vertical-align:center; align:center' src=img/fixation3.jpg></div><div class='cl'><div class='vertical-center'>$39<br>for<br>sure</div></div><div class='cr'><div class='vertical-center'>$81<br>with a<br>50% chance</div></div><div class='respDivL'><div class='vertical-center'>(E)</div></div><div class='respDivR'><div class='vertical-center'>(I)</div></div></div>","E","$39","$81","0","39","81","SURE"
"html-keyboard-response","81","80799","0.0-5.0-3.25","602b3ed14ae791260d6d12c5","bdp_rd","Wed Mar 29 2023 21:18:57 GMT-0400 (Eastern Daylight Time)","155736","","null","","","","offerFB","","<div class='trialBorder'><div class='vertical-center'><img style='vertical-align:center; align:center' src=img/fixation3.jpg></div><div class='cl'><div class='vertical-center'><font style='color:orange'>$39<br>for<br>sure</font></div></div><div class='cr'><div class='vertical-center'>$81<br>with a<br>50% chance</div></div><div class='respDivL'><div class='vertical-center'><font style='color:orange'>(E)</font></div></div><div class='respDivR'><div class='vertical-center'>(I)</div></div></div>","null","$39","$81","0","39","81",""
"html-keyboard-response","82","81300","0.0-5.0-1.26","602b3ed14ae791260d6d12c5","bdp_rd","Wed Mar 29 2023 21:18:57 GMT-0400 (Eastern Daylight Time)","155736","","null","","","","FIX","","<div class='trialBorder'><div class='vertical-center'><img style='vertical-align:center; align:center' src=img/fixation3.jpg></div></div>","null","","","","","",""
"html-keyboard-response","83","82797","0.0-5.0-2.26","602b3ed14ae791260d6d12c5","bdp_rd","Wed Mar 29 2023 21:18:57 GMT-0400 (Eastern Daylight Time)","155736","","1495","","","","offer","","<div class='trialBorder'><div class='vertical-center'><img style='vertical-align:center; align:center' src=img/fixation3.jpg></div><div class='cl'><div class='vertical-center'>$11<br>for<br>sure</div></div><div class='cr'><div class='vertical-center'>$62<br>with a<br>50% chance</div></div><div class='respDivL'><div class='vertical-center'>(E)</div></div><div class='respDivR'><div class='vertical-center'>(I)</div></div></div>","E","$11","$62","0","11","62","SURE"
"html-keyboard-response","84","83051","0.0-5.0-3.26","602b3ed14ae791260d6d12c5","bdp_rd","Wed Mar 29 2023 21:18:57 GMT-0400 (Eastern Daylight Time)","155736","","null","","","","offerFB","","<div class='trialBorder'><div class='vertical-center'><img style='vertical-align:center; align:center' src=img/fixation3.jpg></div><div class='cl'><div class='vertical-center'><font style='color:orange'>$11<br>for<br>sure</font></div></div><div class='cr'><div class='vertical-center'>$62<br>with a<br>50% chance</div></div><div class='respDivL'><div class='vertical-center'><font style='color:orange'>(E)</font></div></div><div class='respDivR'><div class='vertical-center'>(I)</div></div></div>","null","$11","$62","0","11","62",""
"html-keyboard-response","85","83553","0.0-5.0-1.27","602b3ed14ae791260d6d12c5","bdp_rd","Wed Mar 29 2023 21:18:57 GMT-0400 (Eastern Daylight Time)","155736","","null","","","","FIX","","<div class='trialBorder'><div class='vertical-center'><img style='vertical-align:center; align:center' src=img/fixation3.jpg></div></div>","null","","","","","",""
"html-keyboard-response","86","84448","0.0-5.0-2.27","602b3ed14ae791260d6d12c5","bdp_rd","Wed Mar 29 2023 21:18:57 GMT-0400 (Eastern Daylight Time)","155736","","893","","","","offer","","<div class='trialBorder'><div class='vertical-center'><img style='vertical-align:center; align:center' src=img/fixation3.jpg></div><div class='cl'><div class='vertical-center'>$5<br>for<br>sure</div></div><div class='cr'><div class='vertical-center'>$16<br>with a<br>50% chance</div></div><div class='respDivL'><div class='vertical-center'>(E)</div></div><div class='respDivR'><div class='vertical-center'>(I)</div></div></div>","E","$5","$16","0","5","16","SURE"
"html-keyboard-response","87","84700","0.0-5.0-3.27","602b3ed14ae791260d6d12c5","bdp_rd","Wed Mar 29 2023 21:18:57 GMT-0400 (Eastern Daylight Time)","155736","","null","","","","offerFB","","<div class='trialBorder'><div class='vertical-center'><img style='vertical-align:center; align:center' src=img/fixation3.jpg></div><div class='cl'><div class='vertical-center'><font style='color:orange'>$5<br>for<br>sure</font></div></div><div class='cr'><div class='vertical-center'>$16<br>with a<br>50% chance</div></div><div class='respDivL'><div class='vertical-center'><font style='color:orange'>(E)</font></div></div><div class='respDivR'><div class='vertical-center'>(I)</div></div></div>","null","$5","$16","0","5","16",""
"html-keyboard-response","88","85203","0.0-5.0-1.28","602b3ed14ae791260d6d12c5","bdp_rd","Wed Mar 29 2023 21:18:57 GMT-0400 (Eastern Daylight Time)","155736","","null","","","","FIX","","<div class='trialBorder'><div class='vertical-center'><img style='vertical-align:center; align:center' src=img/fixation3.jpg></div></div>","null","","","","","",""
"html-keyboard-response","89","86233","0.0-5.0-2.28","602b3ed14ae791260d6d12c5","bdp_rd","Wed Mar 29 2023 21:18:57 GMT-0400 (Eastern Daylight Time)","155736","","1027","","","","offer","","<div class='trialBorder'><div class='vertical-center'><img style='vertical-align:center; align:center' src=img/fixation3.jpg></div><div class='cl'><div class='vertical-center'>$40<br>with a<br>50% chance</div></div><div class='cr'><div class='vertical-center'>$10<br>for<br>sure</div></div><div class='respDivL'><div class='vertical-center'>(E)</div></div><div class='respDivR'><div class='vertical-center'>(I)</div></div></div>","I","$10","$40","1","10","40","SURE"
"html-keyboard-response","90","86486","0.0-5.0-3.28","602b3ed14ae791260d6d12c5","bdp_rd","Wed Mar 29 2023 21:18:57 GMT-0400 (Eastern Daylight Time)","155736","","null","","","","offerFB","","<div class='trialBorder'><div class='vertical-center'><img style='vertical-align:center; align:center' src=img/fixation3.jpg></div><div class='cl'><div class='vertical-center'>$40<br>with a<br>50% chance</div></div><div class='cr'><div class='vertical-center'><font style='color:orange'>$10<br>for<br>sure</font></div></div><div class='respDivL'><div class='vertical-center'>(E)</div></div><div class='respDivR'><div class='vertical-center'><font style='color:orange'>(I)</font></div></div></div>","null","$10","$40","1","10","40",""
"html-keyboard-response","91","86990","0.0-5.0-1.29","602b3ed14ae791260d6d12c5","bdp_rd","Wed Mar 29 2023 21:18:57 GMT-0400 (Eastern Daylight Time)","155736","","null","","","","FIX","","<div class='trialBorder'><div class='vertical-center'><img style='vertical-align:center; align:center' src=img/fixation3.jpg></div></div>","null","","","","","",""
"html-keyboard-response","92","87785","0.0-5.0-2.29","602b3ed14ae791260d6d12c5","bdp_rd","Wed Mar 29 2023 21:18:57 GMT-0400 (Eastern Daylight Time)","155736","","793","","","","offer","","<div class='trialBorder'><div class='vertical-center'><img style='vertical-align:center; align:center' src=img/fixation3.jpg></div><div class='cl'><div class='vertical-center'>$21<br>for<br>sure</div></div><div class='cr'><div class='vertical-center'>$25<br>with a<br>50% chance</div></div><div class='respDivL'><div class='vertical-center'>(E)</div></div><div class='respDivR'><div class='vertical-center'>(I)</div></div></div>","E","$21","$25","0","21","25","SURE"
"html-keyboard-response","93","88038","0.0-5.0-3.29","602b3ed14ae791260d6d12c5","bdp_rd","Wed Mar 29 2023 21:18:57 GMT-0400 (Eastern Daylight Time)","155736","","null","","","","offerFB","","<div class='trialBorder'><div class='vertical-center'><img style='vertical-align:center; align:center' src=img/fixation3.jpg></div><div class='cl'><div class='vertical-center'><font style='color:orange'>$21<br>for<br>sure</font></div></div><div class='cr'><div class='vertical-center'>$25<br>with a<br>50% chance</div></div><div class='respDivL'><div class='vertical-center'><font style='color:orange'>(E)</font></div></div><div class='respDivR'><div class='vertical-center'>(I)</div></div></div>","null","$21","$25","0","21","25",""
"html-keyboard-response","94","88542","0.0-5.0-1.30","602b3ed14ae791260d6d12c5","bdp_rd","Wed Mar 29 2023 21:18:57 GMT-0400 (Eastern Daylight Time)","155736","","null","","","","FIX","","<div class='trialBorder'><div class='vertical-center'><img style='vertical-align:center; align:center' src=img/fixation3.jpg></div></div>","null","","","","","",""
"html-keyboard-response","95","89215","0.0-5.0-2.30","602b3ed14ae791260d6d12c5","bdp_rd","Wed Mar 29 2023 21:18:57 GMT-0400 (Eastern Daylight Time)","155736","","670","","","","offer","","<div class='trialBorder'><div class='vertical-center'><img style='vertical-align:center; align:center' src=img/fixation3.jpg></div><div class='cl'><div class='vertical-center'>$78<br>with a<br>50% chance</div></div><div class='cr'><div class='vertical-center'>$31<br>for<br>sure</div></div><div class='respDivL'><div class='vertical-center'>(E)</div></div><div class='respDivR'><div class='vertical-center'>(I)</div></div></div>","I","$31","$78","1","31","78","SURE"
"html-keyboard-response","96","89468","0.0-5.0-3.30","602b3ed14ae791260d6d12c5","bdp_rd","Wed Mar 29 2023 21:18:57 GMT-0400 (Eastern Daylight Time)","155736","","null","","","","offerFB","","<div class='trialBorder'><div class='vertical-center'><img style='vertical-align:center; align:center' src=img/fixation3.jpg></div><div class='cl'><div class='vertical-center'>$78<br>with a<br>50% chance</div></div><div class='cr'><div class='vertical-center'><font style='color:orange'>$31<br>for<br>sure</font></div></div><div class='respDivL'><div class='vertical-center'>(E)</div></div><div class='respDivR'><div class='vertical-center'><font style='color:orange'>(I)</font></div></div></div>","null","$31","$78","1","31","78",""
"html-keyboard-response","97","89970","0.0-5.0-1.31","602b3ed14ae791260d6d12c5","bdp_rd","Wed Mar 29 2023 21:18:57 GMT-0400 (Eastern Daylight Time)","155736","","null","","","","FIX","","<div class='trialBorder'><div class='vertical-center'><img style='vertical-align:center; align:center' src=img/fixation3.jpg></div></div>","null","","","","","",""
"html-keyboard-response","98","91993","0.0-5.0-2.31","602b3ed14ae791260d6d12c5","bdp_rd","Wed Mar 29 2023 21:18:57 GMT-0400 (Eastern Daylight Time)","155736","","2021","","","","offer","","<div class='trialBorder'><div class='vertical-center'><img style='vertical-align:center; align:center' src=img/fixation3.jpg></div><div class='cl'><div class='vertical-center'>$28<br>for<br>sure</div></div><div class='cr'><div class='vertical-center'>$89<br>with a<br>50% chance</div></div><div class='respDivL'><div class='vertical-center'>(E)</div></div><div class='respDivR'><div class='vertical-center'>(I)</div></div></div>","I","$28","$89","0","28","89","RISKY"
"html-keyboard-response","99","92246","0.0-5.0-3.31","602b3ed14ae791260d6d12c5","bdp_rd","Wed Mar 29 2023 21:18:57 GMT-0400 (Eastern Daylight Time)","155736","","null","","","","offerFB","","<div class='trialBorder'><div class='vertical-center'><img style='vertical-align:center; align:center' src=img/fixation3.jpg></div><div class='cl'><div class='vertical-center'>$28<br>for<br>sure</div></div><div class='cr'><div class='vertical-center'><font style='color:orange'>$89<br>with a<br>50% chance</font></div></div><div class='respDivL'><div class='vertical-center'>(E)</div></div><div class='respDivR'><div class='vertical-center'><font style='color:orange'>(I)</font></div></div></div>","null","$28","$89","0","28","89",""
"html-keyboard-response","100","92748","0.0-5.0-1.32","602b3ed14ae791260d6d12c5","bdp_rd","Wed Mar 29 2023 21:18:57 GMT-0400 (Eastern Daylight Time)","155736","","null","","","","FIX","","<div class='trialBorder'><div class='vertical-center'><img style='vertical-align:center; align:center' src=img/fixation3.jpg></div></div>","null","","","","","",""
"html-keyboard-response","101","94197","0.0-5.0-2.32","602b3ed14ae791260d6d12c5","bdp_rd","Wed Mar 29 2023 21:18:57 GMT-0400 (Eastern Daylight Time)","155736","","1446","","","","offer","","<div class='trialBorder'><div class='vertical-center'><img style='vertical-align:center; align:center' src=img/fixation3.jpg></div><div class='cl'><div class='vertical-center'>$17<br>with a<br>50% chance</div></div><div class='cr'><div class='vertical-center'>$3<br>for<br>sure</div></div><div class='respDivL'><div class='vertical-center'>(E)</div></div><div class='respDivR'><div class='vertical-center'>(I)</div></div></div>","I","$3","$17","1","3","17","SURE"
"html-keyboard-response","102","94449","0.0-5.0-3.32","602b3ed14ae791260d6d12c5","bdp_rd","Wed Mar 29 2023 21:18:57 GMT-0400 (Eastern Daylight Time)","155736","","null","","","","offerFB","","<div class='trialBorder'><div class='vertical-center'><img style='vertical-align:center; align:center' src=img/fixation3.jpg></div><div class='cl'><div class='vertical-center'>$17<br>with a<br>50% chance</div></div><div class='cr'><div class='vertical-center'><font style='color:orange'>$3<br>for<br>sure</font></div></div><div class='respDivL'><div class='vertical-center'>(E)</div></div><div class='respDivR'><div class='vertical-center'><font style='color:orange'>(I)</font></div></div></div>","null","$3","$17","1","3","17",""
"html-keyboard-response","103","94952","0.0-5.0-1.33","602b3ed14ae791260d6d12c5","bdp_rd","Wed Mar 29 2023 21:18:57 GMT-0400 (Eastern Daylight Time)","155736","","null","","","","FIX","","<div class='trialBorder'><div class='vertical-center'><img style='vertical-align:center; align:center' src=img/fixation3.jpg></div></div>","null","","","","","",""
"html-keyboard-response","104","95674","0.0-5.0-2.33","602b3ed14ae791260d6d12c5","bdp_rd","Wed Mar 29 2023 21:18:57 GMT-0400 (Eastern Daylight Time)","155736","","720","","","","offer","","<div class='trialBorder'><div class='vertical-center'><img style='vertical-align:center; align:center' src=img/fixation3.jpg></div><div class='cl'><div class='vertical-center'>$38<br>with a<br>50% chance</div></div><div class='cr'><div class='vertical-center'>$16<br>for<br>sure</div></div><div class='respDivL'><div class='vertical-center'>(E)</div></div><div class='respDivR'><div class='vertical-center'>(I)</div></div></div>","I","$16","$38","1","16","38","SURE"
"html-keyboard-response","105","95929","0.0-5.0-3.33","602b3ed14ae791260d6d12c5","bdp_rd","Wed Mar 29 2023 21:18:57 GMT-0400 (Eastern Daylight Time)","155736","","null","","","","offerFB","","<div class='trialBorder'><div class='vertical-center'><img style='vertical-align:center; align:center' src=img/fixation3.jpg></div><div class='cl'><div class='vertical-center'>$38<br>with a<br>50% chance</div></div><div class='cr'><div class='vertical-center'><font style='color:orange'>$16<br>for<br>sure</font></div></div><div class='respDivL'><div class='vertical-center'>(E)</div></div><div class='respDivR'><div class='vertical-center'><font style='color:orange'>(I)</font></div></div></div>","null","$16","$38","1","16","38",""
"html-keyboard-response","106","96431","0.0-5.0-1.34","602b3ed14ae791260d6d12c5","bdp_rd","Wed Mar 29 2023 21:18:57 GMT-0400 (Eastern Daylight Time)","155736","","null","","","","FIX","","<div class='trialBorder'><div class='vertical-center'><img style='vertical-align:center; align:center' src=img/fixation3.jpg></div></div>","null","","","","","",""
"html-keyboard-response","107","97855","0.0-5.0-2.34","602b3ed14ae791260d6d12c5","bdp_rd","Wed Mar 29 2023 21:18:57 GMT-0400 (Eastern Daylight Time)","155736","","1422","","","","offer","","<div class='trialBorder'><div class='vertical-center'><img style='vertical-align:center; align:center' src=img/fixation3.jpg></div><div class='cl'><div class='vertical-center'>$24<br>for<br>sure</div></div><div class='cr'><div class='vertical-center'>$70<br>with a<br>50% chance</div></div><div class='respDivL'><div class='vertical-center'>(E)</div></div><div class='respDivR'><div class='vertical-center'>(I)</div></div></div>","E","$24","$70","0","24","70","SURE"
"html-keyboard-response","108","98110","0.0-5.0-3.34","602b3ed14ae791260d6d12c5","bdp_rd","Wed Mar 29 2023 21:18:57 GMT-0400 (Eastern Daylight Time)","155736","","null","","","","offerFB","","<div class='trialBorder'><div class='vertical-center'><img style='vertical-align:center; align:center' src=img/fixation3.jpg></div><div class='cl'><div class='vertical-center'><font style='color:orange'>$24<br>for<br>sure</font></div></div><div class='cr'><div class='vertical-center'>$70<br>with a<br>50% chance</div></div><div class='respDivL'><div class='vertical-center'><font style='color:orange'>(E)</font></div></div><div class='respDivR'><div class='vertical-center'>(I)</div></div></div>","null","$24","$70","0","24","70",""
"html-keyboard-response","109","98612","0.0-5.0-1.35","602b3ed14ae791260d6d12c5","bdp_rd","Wed Mar 29 2023 21:18:57 GMT-0400 (Eastern Daylight Time)","155736","","null","","","","FIX","","<div class='trialBorder'><div class='vertical-center'><img style='vertical-align:center; align:center' src=img/fixation3.jpg></div></div>","null","","","","","",""
"html-keyboard-response","110","99992","0.0-5.0-2.35","602b3ed14ae791260d6d12c5","bdp_rd","Wed Mar 29 2023 21:18:57 GMT-0400 (Eastern Daylight Time)","155736","","1378","","","","offer","","<div class='trialBorder'><div class='vertical-center'><img style='vertical-align:center; align:center' src=img/fixation3.jpg></div><div class='cl'><div class='vertical-center'>$18<br>with a<br>50% chance</div></div><div class='cr'><div class='vertical-center'>$9<br>for<br>sure</div></div><div class='respDivL'><div class='vertical-center'>(E)</div></div><div class='respDivR'><div class='vertical-center'>(I)</div></div></div>","I","$9","$18","1","9","18","SURE"
"html-keyboard-response","111","100247","0.0-5.0-3.35","602b3ed14ae791260d6d12c5","bdp_rd","Wed Mar 29 2023 21:18:57 GMT-0400 (Eastern Daylight Time)","155736","","null","","","","offerFB","","<div class='trialBorder'><div class='vertical-center'><img style='vertical-align:center; align:center' src=img/fixation3.jpg></div><div class='cl'><div class='vertical-center'>$18<br>with a<br>50% chance</div></div><div class='cr'><div class='vertical-center'><font style='color:orange'>$9<br>for<br>sure</font></div></div><div class='respDivL'><div class='vertical-center'>(E)</div></div><div class='respDivR'><div class='vertical-center'><font style='color:orange'>(I)</font></div></div></div>","null","$9","$18","1","9","18",""
"html-keyboard-response","112","100749","0.0-5.0-1.36","602b3ed14ae791260d6d12c5","bdp_rd","Wed Mar 29 2023 21:18:57 GMT-0400 (Eastern Daylight Time)","155736","","null","","","","FIX","","<div class='trialBorder'><div class='vertical-center'><img style='vertical-align:center; align:center' src=img/fixation3.jpg></div></div>","null","","","","","",""
"html-keyboard-response","113","102371","0.0-5.0-2.36","602b3ed14ae791260d6d12c5","bdp_rd","Wed Mar 29 2023 21:18:57 GMT-0400 (Eastern Daylight Time)","155736","","1620","","","","offer","","<div class='trialBorder'><div class='vertical-center'><img style='vertical-align:center; align:center' src=img/fixation3.jpg></div><div class='cl'><div class='vertical-center'>$53<br>for<br>sure</div></div><div class='cr'><div class='vertical-center'>$98<br>with a<br>50% chance</div></div><div class='respDivL'><div class='vertical-center'>(E)</div></div><div class='respDivR'><div class='vertical-center'>(I)</div></div></div>","I","$53","$98","0","53","98","RISKY"
"html-keyboard-response","114","102624","0.0-5.0-3.36","602b3ed14ae791260d6d12c5","bdp_rd","Wed Mar 29 2023 21:18:57 GMT-0400 (Eastern Daylight Time)","155736","","null","","","","offerFB","","<div class='trialBorder'><div class='vertical-center'><img style='vertical-align:center; align:center' src=img/fixation3.jpg></div><div class='cl'><div class='vertical-center'>$53<br>for<br>sure</div></div><div class='cr'><div class='vertical-center'><font style='color:orange'>$98<br>with a<br>50% chance</font></div></div><div class='respDivL'><div class='vertical-center'>(E)</div></div><div class='respDivR'><div class='vertical-center'><font style='color:orange'>(I)</font></div></div></div>","null","$53","$98","0","53","98",""
"html-keyboard-response","115","103126","0.0-5.0-1.37","602b3ed14ae791260d6d12c5","bdp_rd","Wed Mar 29 2023 21:18:57 GMT-0400 (Eastern Daylight Time)","155736","","null","","","","FIX","","<div class='trialBorder'><div class='vertical-center'><img style='vertical-align:center; align:center' src=img/fixation3.jpg></div></div>","null","","","","","",""
"html-keyboard-response","116","104372","0.0-5.0-2.37","602b3ed14ae791260d6d12c5","bdp_rd","Wed Mar 29 2023 21:18:57 GMT-0400 (Eastern Daylight Time)","155736","","1243","","","","offer","","<div class='trialBorder'><div class='vertical-center'><img style='vertical-align:center; align:center' src=img/fixation3.jpg></div><div class='cl'><div class='vertical-center'>$23<br>with a<br>50% chance</div></div><div class='cr'><div class='vertical-center'>$8<br>for<br>sure</div></div><div class='respDivL'><div class='vertical-center'>(E)</div></div><div class='respDivR'><div class='vertical-center'>(I)</div></div></div>","I","$8","$23","1","8","23","SURE"
"html-keyboard-response","117","104625","0.0-5.0-3.37","602b3ed14ae791260d6d12c5","bdp_rd","Wed Mar 29 2023 21:18:57 GMT-0400 (Eastern Daylight Time)","155736","","null","","","","offerFB","","<div class='trialBorder'><div class='vertical-center'><img style='vertical-align:center; align:center' src=img/fixation3.jpg></div><div class='cl'><div class='vertical-center'>$23<br>with a<br>50% chance</div></div><div class='cr'><div class='vertical-center'><font style='color:orange'>$8<br>for<br>sure</font></div></div><div class='respDivL'><div class='vertical-center'>(E)</div></div><div class='respDivR'><div class='vertical-center'><font style='color:orange'>(I)</font></div></div></div>","null","$8","$23","1","8","23",""
"html-keyboard-response","118","105128","0.0-5.0-1.38","602b3ed14ae791260d6d12c5","bdp_rd","Wed Mar 29 2023 21:18:57 GMT-0400 (Eastern Daylight Time)","155736","","null","","","","FIX","","<div class='trialBorder'><div class='vertical-center'><img style='vertical-align:center; align:center' src=img/fixation3.jpg></div></div>","null","","","","","",""
"html-keyboard-response","119","106156","0.0-5.0-2.38","602b3ed14ae791260d6d12c5","bdp_rd","Wed Mar 29 2023 21:18:57 GMT-0400 (Eastern Daylight Time)","155736","","1025","","","","offer","","<div class='trialBorder'><div class='vertical-center'><img style='vertical-align:center; align:center' src=img/fixation3.jpg></div><div class='cl'><div class='vertical-center'>$22<br>for<br>sure</div></div><div class='cr'><div class='vertical-center'>$59<br>with a<br>50% chance</div></div><div class='respDivL'><div class='vertical-center'>(E)</div></div><div class='respDivR'><div class='vertical-center'>(I)</div></div></div>","E","$22","$59","0","22","59","SURE"
"html-keyboard-response","120","106409","0.0-5.0-3.38","602b3ed14ae791260d6d12c5","bdp_rd","Wed Mar 29 2023 21:18:57 GMT-0400 (Eastern Daylight Time)","155736","","null","","","","offerFB","","<div class='trialBorder'><div class='vertical-center'><img style='vertical-align:center; align:center' src=img/fixation3.jpg></div><div class='cl'><div class='vertical-center'><font style='color:orange'>$22<br>for<br>sure</font></div></div><div class='cr'><div class='vertical-center'>$59<br>with a<br>50% chance</div></div><div class='respDivL'><div class='vertical-center'><font style='color:orange'>(E)</font></div></div><div class='respDivR'><div class='vertical-center'>(I)</div></div></div>","null","$22","$59","0","22","59",""
"html-keyboard-response","121","106912","0.0-5.0-1.39","602b3ed14ae791260d6d12c5","bdp_rd","Wed Mar 29 2023 21:18:57 GMT-0400 (Eastern Daylight Time)","155736","","null","","","","FIX","","<div class='trialBorder'><div class='vertical-center'><img style='vertical-align:center; align:center' src=img/fixation3.jpg></div></div>","null","","","","","",""
"html-keyboard-response","122","108112","0.0-5.0-2.39","602b3ed14ae791260d6d12c5","bdp_rd","Wed Mar 29 2023 21:18:57 GMT-0400 (Eastern Daylight Time)","155736","","1198","","","","offer","","<div class='trialBorder'><div class='vertical-center'><img style='vertical-align:center; align:center' src=img/fixation3.jpg></div><div class='cl'><div class='vertical-center'>$21<br>with a<br>50% chance</div></div><div class='cr'><div class='vertical-center'>$2<br>for<br>sure</div></div><div class='respDivL'><div class='vertical-center'>(E)</div></div><div class='respDivR'><div class='vertical-center'>(I)</div></div></div>","E","$2","$21","1","2","21","RISKY"
"html-keyboard-response","123","108367","0.0-5.0-3.39","602b3ed14ae791260d6d12c5","bdp_rd","Wed Mar 29 2023 21:18:57 GMT-0400 (Eastern Daylight Time)","155736","","null","","","","offerFB","","<div class='trialBorder'><div class='vertical-center'><img style='vertical-align:center; align:center' src=img/fixation3.jpg></div><div class='cl'><div class='vertical-center'><font style='color:orange'>$21<br>with a<br>50% chance</font></div></div><div class='cr'><div class='vertical-center'>$2<br>for<br>sure</div></div><div class='respDivL'><div class='vertical-center'><font style='color:orange'>(E)</font></div></div><div class='respDivR'><div class='vertical-center'>(I)</div></div></div>","null","$2","$21","1","2","21",""
"html-keyboard-response","124","108870","0.0-5.0-1.40","602b3ed14ae791260d6d12c5","bdp_rd","Wed Mar 29 2023 21:18:57 GMT-0400 (Eastern Daylight Time)","155736","","null","","","","FIX","","<div class='trialBorder'><div class='vertical-center'><img style='vertical-align:center; align:center' src=img/fixation3.jpg></div></div>","null","","","","","",""
"html-keyboard-response","125","110271","0.0-5.0-2.40","602b3ed14ae791260d6d12c5","bdp_rd","Wed Mar 29 2023 21:18:57 GMT-0400 (Eastern Daylight Time)","155736","","1397","","","","offer","","<div class='trialBorder'><div class='vertical-center'><img style='vertical-align:center; align:center' src=img/fixation3.jpg></div><div class='cl'><div class='vertical-center'>$8<br>for<br>sure</div></div><div class='cr'><div class='vertical-center'>$45<br>with a<br>50% chance</div></div><div class='respDivL'><div class='vertical-center'>(E)</div></div><div class='respDivR'><div class='vertical-center'>(I)</div></div></div>","E","$8","$45","0","8","45","SURE"
"html-keyboard-response","126","110523","0.0-5.0-3.40","602b3ed14ae791260d6d12c5","bdp_rd","Wed Mar 29 2023 21:18:57 GMT-0400 (Eastern Daylight Time)","155736","","null","","","","offerFB","","<div class='trialBorder'><div class='vertical-center'><img style='vertical-align:center; align:center' src=img/fixation3.jpg></div><div class='cl'><div class='vertical-center'><font style='color:orange'>$8<br>for<br>sure</font></div></div><div class='cr'><div class='vertical-center'>$45<br>with a<br>50% chance</div></div><div class='respDivL'><div class='vertical-center'><font style='color:orange'>(E)</font></div></div><div class='respDivR'><div class='vertical-center'>(I)</div></div></div>","null","$8","$45","0","8","45",""
"html-keyboard-response","127","111026","0.0-5.0-1.41","602b3ed14ae791260d6d12c5","bdp_rd","Wed Mar 29 2023 21:18:57 GMT-0400 (Eastern Daylight Time)","155736","","null","","","","FIX","","<div class='trialBorder'><div class='vertical-center'><img style='vertical-align:center; align:center' src=img/fixation3.jpg></div></div>","null","","","","","",""
"html-keyboard-response","128","111797","0.0-5.0-2.41","602b3ed14ae791260d6d12c5","bdp_rd","Wed Mar 29 2023 21:18:57 GMT-0400 (Eastern Daylight Time)","155736","","767","","","","offer","","<div class='trialBorder'><div class='vertical-center'><img style='vertical-align:center; align:center' src=img/fixation3.jpg></div><div class='cl'><div class='vertical-center'>$86<br>with a<br>50% chance</div></div><div class='cr'><div class='vertical-center'>$45<br>for<br>sure</div></div><div class='respDivL'><div class='vertical-center'>(E)</div></div><div class='respDivR'><div class='vertical-center'>(I)</div></div></div>","I","$45","$86","1","45","86","SURE"
"html-keyboard-response","129","112050","0.0-5.0-3.41","602b3ed14ae791260d6d12c5","bdp_rd","Wed Mar 29 2023 21:18:57 GMT-0400 (Eastern Daylight Time)","155736","","null","","","","offerFB","","<div class='trialBorder'><div class='vertical-center'><img style='vertical-align:center; align:center' src=img/fixation3.jpg></div><div class='cl'><div class='vertical-center'>$86<br>with a<br>50% chance</div></div><div class='cr'><div class='vertical-center'><font style='color:orange'>$45<br>for<br>sure</font></div></div><div class='respDivL'><div class='vertical-center'>(E)</div></div><div class='respDivR'><div class='vertical-center'><font style='color:orange'>(I)</font></div></div></div>","null","$45","$86","1","45","86",""
"html-keyboard-response","130","112553","0.0-5.0-1.42","602b3ed14ae791260d6d12c5","bdp_rd","Wed Mar 29 2023 21:18:57 GMT-0400 (Eastern Daylight Time)","155736","","null","","","","FIX","","<div class='trialBorder'><div class='vertical-center'><img style='vertical-align:center; align:center' src=img/fixation3.jpg></div></div>","null","","","","","",""
"html-keyboard-response","131","113507","0.0-5.0-2.42","602b3ed14ae791260d6d12c5","bdp_rd","Wed Mar 29 2023 21:18:57 GMT-0400 (Eastern Daylight Time)","155736","","951","","","","offer","","<div class='trialBorder'><div class='vertical-center'><img style='vertical-align:center; align:center' src=img/fixation3.jpg></div><div class='cl'><div class='vertical-center'>$14<br>with a<br>50% chance</div></div><div class='cr'><div class='vertical-center'>$4<br>for<br>sure</div></div><div class='respDivL'><div class='vertical-center'>(E)</div></div><div class='respDivR'><div class='vertical-center'>(I)</div></div></div>","I","$4","$14","1","4","14","SURE"
"html-keyboard-response","132","113760","0.0-5.0-3.42","602b3ed14ae791260d6d12c5","bdp_rd","Wed Mar 29 2023 21:18:57 GMT-0400 (Eastern Daylight Time)","155736","","null","","","","offerFB","","<div class='trialBorder'><div class='vertical-center'><img style='vertical-align:center; align:center' src=img/fixation3.jpg></div><div class='cl'><div class='vertical-center'>$14<br>with a<br>50% chance</div></div><div class='cr'><div class='vertical-center'><font style='color:orange'>$4<br>for<br>sure</font></div></div><div class='respDivL'><div class='vertical-center'>(E)</div></div><div class='respDivR'><div class='vertical-center'><font style='color:orange'>(I)</font></div></div></div>","null","$4","$14","1","4","14",""
"html-keyboard-response","133","114262","0.0-5.0-1.43","602b3ed14ae791260d6d12c5","bdp_rd","Wed Mar 29 2023 21:18:57 GMT-0400 (Eastern Daylight Time)","155736","","null","","","","FIX","","<div class='trialBorder'><div class='vertical-center'><img style='vertical-align:center; align:center' src=img/fixation3.jpg></div></div>","null","","","","","",""
"html-keyboard-response","134","115394","0.0-5.0-2.43","602b3ed14ae791260d6d12c5","bdp_rd","Wed Mar 29 2023 21:18:57 GMT-0400 (Eastern Daylight Time)","155736","","1130","","","","offer","","<div class='trialBorder'><div class='vertical-center'><img style='vertical-align:center; align:center' src=img/fixation3.jpg></div><div class='cl'><div class='vertical-center'>$65<br>with a<br>50% chance</div></div><div class='cr'><div class='vertical-center'>$46<br>for<br>sure</div></div><div class='respDivL'><div class='vertical-center'>(E)</div></div><div class='respDivR'><div class='vertical-center'>(I)</div></div></div>","I","$46","$65","1","46","65","SURE"
"html-keyboard-response","135","115647","0.0-5.0-3.43","602b3ed14ae791260d6d12c5","bdp_rd","Wed Mar 29 2023 21:18:57 GMT-0400 (Eastern Daylight Time)","155736","","null","","","","offerFB","","<div class='trialBorder'><div class='vertical-center'><img style='vertical-align:center; align:center' src=img/fixation3.jpg></div><div class='cl'><div class='vertical-center'>$65<br>with a<br>50% chance</div></div><div class='cr'><div class='vertical-center'><font style='color:orange'>$46<br>for<br>sure</font></div></div><div class='respDivL'><div class='vertical-center'>(E)</div></div><div class='respDivR'><div class='vertical-center'><font style='color:orange'>(I)</font></div></div></div>","null","$46","$65","1","46","65",""
"html-keyboard-response","136","116150","0.0-5.0-1.44","602b3ed14ae791260d6d12c5","bdp_rd","Wed Mar 29 2023 21:18:57 GMT-0400 (Eastern Daylight Time)","155736","","null","","","","FIX","","<div class='trialBorder'><div class='vertical-center'><img style='vertical-align:center; align:center' src=img/fixation3.jpg></div></div>","null","","","","","",""
"html-keyboard-response","137","117036","0.0-5.0-2.44","602b3ed14ae791260d6d12c5","bdp_rd","Wed Mar 29 2023 21:18:57 GMT-0400 (Eastern Daylight Time)","155736","","883","","","","offer","","<div class='trialBorder'><div class='vertical-center'><img style='vertical-align:center; align:center' src=img/fixation3.jpg></div><div class='cl'><div class='vertical-center'>$20<br>for<br>sure</div></div><div class='cr'><div class='vertical-center'>$37<br>with a<br>50% chance</div></div><div class='respDivL'><div class='vertical-center'>(E)</div></div><div class='respDivR'><div class='vertical-center'>(I)</div></div></div>","E","$20","$37","0","20","37","SURE"
"html-keyboard-response","138","117289","0.0-5.0-3.44","602b3ed14ae791260d6d12c5","bdp_rd","Wed Mar 29 2023 21:18:57 GMT-0400 (Eastern Daylight Time)","155736","","null","","","","offerFB","","<div class='trialBorder'><div class='vertical-center'><img style='vertical-align:center; align:center' src=img/fixation3.jpg></div><div class='cl'><div class='vertical-center'><font style='color:orange'>$20<br>for<br>sure</font></div></div><div class='cr'><div class='vertical-center'>$37<br>with a<br>50% chance</div></div><div class='respDivL'><div class='vertical-center'><font style='color:orange'>(E)</font></div></div><div class='respDivR'><div class='vertical-center'>(I)</div></div></div>","null","$20","$37","0","20","37",""
"html-keyboard-response","139","117792","0.0-5.0-1.45","602b3ed14ae791260d6d12c5","bdp_rd","Wed Mar 29 2023 21:18:57 GMT-0400 (Eastern Daylight Time)","155736","","null","","","","FIX","","<div class='trialBorder'><div class='vertical-center'><img style='vertical-align:center; align:center' src=img/fixation3.jpg></div></div>","null","","","","","",""
"html-keyboard-response","140","120910","0.0-5.0-2.45","602b3ed14ae791260d6d12c5","bdp_rd","Wed Mar 29 2023 21:18:57 GMT-0400 (Eastern Daylight Time)","155736","","3116","","","","offer","","<div class='trialBorder'><div class='vertical-center'><img style='vertical-align:center; align:center' src=img/fixation3.jpg></div><div class='cl'><div class='vertical-center'>$12<br>for<br>sure</div></div><div class='cr'><div class='vertical-center'>$35<br>with a<br>50% chance</div></div><div class='respDivL'><div class='vertical-center'>(E)</div></div><div class='respDivR'><div class='vertical-center'>(I)</div></div></div>","E","$12","$35","0","12","35","SURE"
"html-keyboard-response","141","121165","0.0-5.0-3.45","602b3ed14ae791260d6d12c5","bdp_rd","Wed Mar 29 2023 21:18:57 GMT-0400 (Eastern Daylight Time)","155736","","null","","","","offerFB","","<div class='trialBorder'><div class='vertical-center'><img style='vertical-align:center; align:center' src=img/fixation3.jpg></div><div class='cl'><div class='vertical-center'><font style='color:orange'>$12<br>for<br>sure</font></div></div><div class='cr'><div class='vertical-center'>$35<br>with a<br>50% chance</div></div><div class='respDivL'><div class='vertical-center'><font style='color:orange'>(E)</font></div></div><div class='respDivR'><div class='vertical-center'>(I)</div></div></div>","null","$12","$35","0","12","35",""
"html-keyboard-response","142","121668","0.0-5.0-1.46","602b3ed14ae791260d6d12c5","bdp_rd","Wed Mar 29 2023 21:18:57 GMT-0400 (Eastern Daylight Time)","155736","","null","","","","FIX","","<div class='trialBorder'><div class='vertical-center'><img style='vertical-align:center; align:center' src=img/fixation3.jpg></div></div>","null","","","","","",""
"html-keyboard-response","143","122823","0.0-5.0-2.46","602b3ed14ae791260d6d12c5","bdp_rd","Wed Mar 29 2023 21:18:57 GMT-0400 (Eastern Daylight Time)","155736","","1152","","","","offer","","<div class='trialBorder'><div class='vertical-center'><img style='vertical-align:center; align:center' src=img/fixation3.jpg></div><div class='cl'><div class='vertical-center'>$14<br>for<br>sure</div></div><div class='cr'><div class='vertical-center'>$29<br>with a<br>50% chance</div></div><div class='respDivL'><div class='vertical-center'>(E)</div></div><div class='respDivR'><div class='vertical-center'>(I)</div></div></div>","E","$14","$29","0","14","29","SURE"
"html-keyboard-response","144","123077","0.0-5.0-3.46","602b3ed14ae791260d6d12c5","bdp_rd","Wed Mar 29 2023 21:18:57 GMT-0400 (Eastern Daylight Time)","155736","","null","","","","offerFB","","<div class='trialBorder'><div class='vertical-center'><img style='vertical-align:center; align:center' src=img/fixation3.jpg></div><div class='cl'><div class='vertical-center'><font style='color:orange'>$14<br>for<br>sure</font></div></div><div class='cr'><div class='vertical-center'>$29<br>with a<br>50% chance</div></div><div class='respDivL'><div class='vertical-center'><font style='color:orange'>(E)</font></div></div><div class='respDivR'><div class='vertical-center'>(I)</div></div></div>","null","$14","$29","0","14","29",""
"html-keyboard-response","145","123580","0.0-5.0-1.47","602b3ed14ae791260d6d12c5","bdp_rd","Wed Mar 29 2023 21:18:57 GMT-0400 (Eastern Daylight Time)","155736","","null","","","","FIX","","<div class='trialBorder'><div class='vertical-center'><img style='vertical-align:center; align:center' src=img/fixation3.jpg></div></div>","null","","","","","",""
"html-keyboard-response","146","125872","0.0-5.0-2.47","602b3ed14ae791260d6d12c5","bdp_rd","Wed Mar 29 2023 21:18:57 GMT-0400 (Eastern Daylight Time)","155736","","2289","","","","offer","","<div class='trialBorder'><div class='vertical-center'><img style='vertical-align:center; align:center' src=img/fixation3.jpg></div><div class='cl'><div class='vertical-center'>$73<br>with a<br>50% chance</div></div><div class='cr'><div class='vertical-center'>$42<br>for<br>sure</div></div><div class='respDivL'><div class='vertical-center'>(E)</div></div><div class='respDivR'><div class='vertical-center'>(I)</div></div></div>","I","$42","$73","1","42","73","SURE"
"html-keyboard-response","147","126124","0.0-5.0-3.47","602b3ed14ae791260d6d12c5","bdp_rd","Wed Mar 29 2023 21:18:57 GMT-0400 (Eastern Daylight Time)","155736","","null","","","","offerFB","","<div class='trialBorder'><div class='vertical-center'><img style='vertical-align:center; align:center' src=img/fixation3.jpg></div><div class='cl'><div class='vertical-center'>$73<br>with a<br>50% chance</div></div><div class='cr'><div class='vertical-center'><font style='color:orange'>$42<br>for<br>sure</font></div></div><div class='respDivL'><div class='vertical-center'>(E)</div></div><div class='respDivR'><div class='vertical-center'><font style='color:orange'>(I)</font></div></div></div>","null","$42","$73","1","42","73",""
"html-keyboard-response","148","126626","0.0-5.0-1.48","602b3ed14ae791260d6d12c5","bdp_rd","Wed Mar 29 2023 21:18:57 GMT-0400 (Eastern Daylight Time)","155736","","null","","","","FIX","","<div class='trialBorder'><div class='vertical-center'><img style='vertical-align:center; align:center' src=img/fixation3.jpg></div></div>","null","","","","","",""
"html-keyboard-response","149","128917","0.0-5.0-2.48","602b3ed14ae791260d6d12c5","bdp_rd","Wed Mar 29 2023 21:18:57 GMT-0400 (Eastern Daylight Time)","155736","","2289","","","","offer","","<div class='trialBorder'><div class='vertical-center'><img style='vertical-align:center; align:center' src=img/fixation3.jpg></div><div class='cl'><div class='vertical-center'>$16<br>for<br>sure</div></div><div class='cr'><div class='vertical-center'>$28<br>with a<br>50% chance</div></div><div class='respDivL'><div class='vertical-center'>(E)</div></div><div class='respDivR'><div class='vertical-center'>(I)</div></div></div>","E","$16","$28","0","16","28","SURE"
"html-keyboard-response","150","129171","0.0-5.0-3.48","602b3ed14ae791260d6d12c5","bdp_rd","Wed Mar 29 2023 21:18:57 GMT-0400 (Eastern Daylight Time)","155736","","null","","","","offerFB","","<div class='trialBorder'><div class='vertical-center'><img style='vertical-align:center; align:center' src=img/fixation3.jpg></div><div class='cl'><div class='vertical-center'><font style='color:orange'>$16<br>for<br>sure</font></div></div><div class='cr'><div class='vertical-center'>$28<br>with a<br>50% chance</div></div><div class='respDivL'><div class='vertical-center'><font style='color:orange'>(E)</font></div></div><div class='respDivR'><div class='vertical-center'>(I)</div></div></div>","null","$16","$28","0","16","28",""
"html-keyboard-response","151","129674","0.0-5.0-1.49","602b3ed14ae791260d6d12c5","bdp_rd","Wed Mar 29 2023 21:18:57 GMT-0400 (Eastern Daylight Time)","155736","","null","","","","FIX","","<div class='trialBorder'><div class='vertical-center'><img style='vertical-align:center; align:center' src=img/fixation3.jpg></div></div>","null","","","","","",""
"html-keyboard-response","152","130599","0.0-5.0-2.49","602b3ed14ae791260d6d12c5","bdp_rd","Wed Mar 29 2023 21:18:57 GMT-0400 (Eastern Daylight Time)","155736","","923","","","","offer","","<div class='trialBorder'><div class='vertical-center'><img style='vertical-align:center; align:center' src=img/fixation3.jpg></div><div class='cl'><div class='vertical-center'>$30<br>for<br>sure</div></div><div class='cr'><div class='vertical-center'>$68<br>with a<br>50% chance</div></div><div class='respDivL'><div class='vertical-center'>(E)</div></div><div class='respDivR'><div class='vertical-center'>(I)</div></div></div>","E","$30","$68","0","30","68","SURE"
"html-keyboard-response","153","130853","0.0-5.0-3.49","602b3ed14ae791260d6d12c5","bdp_rd","Wed Mar 29 2023 21:18:57 GMT-0400 (Eastern Daylight Time)","155736","","null","","","","offerFB","","<div class='trialBorder'><div class='vertical-center'><img style='vertical-align:center; align:center' src=img/fixation3.jpg></div><div class='cl'><div class='vertical-center'><font style='color:orange'>$30<br>for<br>sure</font></div></div><div class='cr'><div class='vertical-center'>$68<br>with a<br>50% chance</div></div><div class='respDivL'><div class='vertical-center'><font style='color:orange'>(E)</font></div></div><div class='respDivR'><div class='vertical-center'>(I)</div></div></div>","null","$30","$68","0","30","68",""
"html-keyboard-response","154","131356","0.0-5.0-1.50","602b3ed14ae791260d6d12c5","bdp_rd","Wed Mar 29 2023 21:18:57 GMT-0400 (Eastern Daylight Time)","155736","","null","","","","FIX","","<div class='trialBorder'><div class='vertical-center'><img style='vertical-align:center; align:center' src=img/fixation3.jpg></div></div>","null","","","","","",""
"html-keyboard-response","155","132424","0.0-5.0-2.50","602b3ed14ae791260d6d12c5","bdp_rd","Wed Mar 29 2023 21:18:57 GMT-0400 (Eastern Daylight Time)","155736","","1066","","","","offer","","<div class='trialBorder'><div class='vertical-center'><img style='vertical-align:center; align:center' src=img/fixation3.jpg></div><div class='cl'><div class='vertical-center'>$7<br>for<br>sure</div></div><div class='cr'><div class='vertical-center'>$71<br>with a<br>50% chance</div></div><div class='respDivL'><div class='vertical-center'>(E)</div></div><div class='respDivR'><div class='vertical-center'>(I)</div></div></div>","E","$7","$71","0","7","71","SURE"
"html-keyboard-response","156","132679","0.0-5.0-3.50","602b3ed14ae791260d6d12c5","bdp_rd","Wed Mar 29 2023 21:18:57 GMT-0400 (Eastern Daylight Time)","155736","","null","","","","offerFB","","<div class='trialBorder'><div class='vertical-center'><img style='vertical-align:center; align:center' src=img/fixation3.jpg></div><div class='cl'><div class='vertical-center'><font style='color:orange'>$7<br>for<br>sure</font></div></div><div class='cr'><div class='vertical-center'>$71<br>with a<br>50% chance</div></div><div class='respDivL'><div class='vertical-center'><font style='color:orange'>(E)</font></div></div><div class='respDivR'><div class='vertical-center'>(I)</div></div></div>","null","$7","$71","0","7","71",""
"html-keyboard-response","157","133183","0.0-5.0-1.51","602b3ed14ae791260d6d12c5","bdp_rd","Wed Mar 29 2023 21:18:57 GMT-0400 (Eastern Daylight Time)","155736","","null","","","","FIX","","<div class='trialBorder'><div class='vertical-center'><img style='vertical-align:center; align:center' src=img/fixation3.jpg></div></div>","null","","","","","",""
"html-keyboard-response","158","140571","0.0-5.0-2.51","602b3ed14ae791260d6d12c5","bdp_rd","Wed Mar 29 2023 21:18:57 GMT-0400 (Eastern Daylight Time)","155736","","7386","","","","offer","","<div class='trialBorder'><div class='vertical-center'><img style='vertical-align:center; align:center' src=img/fixation3.jpg></div><div class='cl'><div class='vertical-center'>$22<br>for<br>sure</div></div><div class='cr'><div class='vertical-center'>$42<br>with a<br>50% chance</div></div><div class='respDivL'><div class='vertical-center'>(E)</div></div><div class='respDivR'><div class='vertical-center'>(I)</div></div></div>","E","$22","$42","0","22","42","SURE"
"html-keyboard-response","159","140825","0.0-5.0-3.51","602b3ed14ae791260d6d12c5","bdp_rd","Wed Mar 29 2023 21:18:57 GMT-0400 (Eastern Daylight Time)","155736","","null","","","","offerFB","","<div class='trialBorder'><div class='vertical-center'><img style='vertical-align:center; align:center' src=img/fixation3.jpg></div><div class='cl'><div class='vertical-center'><font style='color:orange'>$22<br>for<br>sure</font></div></div><div class='cr'><div class='vertical-center'>$42<br>with a<br>50% chance</div></div><div class='respDivL'><div class='vertical-center'><font style='color:orange'>(E)</font></div></div><div class='respDivR'><div class='vertical-center'>(I)</div></div></div>","null","$22","$42","0","22","42",""
"html-keyboard-response","160","141329","0.0-5.0-1.52","602b3ed14ae791260d6d12c5","bdp_rd","Wed Mar 29 2023 21:18:57 GMT-0400 (Eastern Daylight Time)","155736","","null","","","","FIX","","<div class='trialBorder'><div class='vertical-center'><img style='vertical-align:center; align:center' src=img/fixation3.jpg></div></div>","null","","","","","",""
"html-keyboard-response","161","143036","0.0-5.0-2.52","602b3ed14ae791260d6d12c5","bdp_rd","Wed Mar 29 2023 21:18:57 GMT-0400 (Eastern Daylight Time)","155736","","1705","","","","offer","","<div class='trialBorder'><div class='vertical-center'><img style='vertical-align:center; align:center' src=img/fixation3.jpg></div><div class='cl'><div class='vertical-center'>$3<br>for<br>sure</div></div><div class='cr'><div class='vertical-center'>$12<br>with a<br>50% chance</div></div><div class='respDivL'><div class='vertical-center'>(E)</div></div><div class='respDivR'><div class='vertical-center'>(I)</div></div></div>","E","$3","$12","0","3","12","SURE"
"html-keyboard-response","162","143290","0.0-5.0-3.52","602b3ed14ae791260d6d12c5","bdp_rd","Wed Mar 29 2023 21:18:57 GMT-0400 (Eastern Daylight Time)","155736","","null","","","","offerFB","","<div class='trialBorder'><div class='vertical-center'><img style='vertical-align:center; align:center' src=img/fixation3.jpg></div><div class='cl'><div class='vertical-center'><font style='color:orange'>$3<br>for<br>sure</font></div></div><div class='cr'><div class='vertical-center'>$12<br>with a<br>50% chance</div></div><div class='respDivL'><div class='vertical-center'><font style='color:orange'>(E)</font></div></div><div class='respDivR'><div class='vertical-center'>(I)</div></div></div>","null","$3","$12","0","3","12",""
"html-keyboard-response","163","143792","0.0-5.0-1.53","602b3ed14ae791260d6d12c5","bdp_rd","Wed Mar 29 2023 21:18:57 GMT-0400 (Eastern Daylight Time)","155736","","null","","","","FIX","","<div class='trialBorder'><div class='vertical-center'><img style='vertical-align:center; align:center' src=img/fixation3.jpg></div></div>","null","","","","","",""
"html-keyboard-response","164","144601","0.0-5.0-2.53","602b3ed14ae791260d6d12c5","bdp_rd","Wed Mar 29 2023 21:18:57 GMT-0400 (Eastern Daylight Time)","155736","","808","","","","offer","","<div class='trialBorder'><div class='vertical-center'><img style='vertical-align:center; align:center' src=img/fixation3.jpg></div><div class='cl'><div class='vertical-center'>$6<br>for<br>sure</div></div><div class='cr'><div class='vertical-center'>$13<br>with a<br>50% chance</div></div><div class='respDivL'><div class='vertical-center'>(E)</div></div><div class='respDivR'><div class='vertical-center'>(I)</div></div></div>","E","$6","$13","0","6","13","SURE"
"html-keyboard-response","165","144855","0.0-5.0-3.53","602b3ed14ae791260d6d12c5","bdp_rd","Wed Mar 29 2023 21:18:57 GMT-0400 (Eastern Daylight Time)","155736","","null","","","","offerFB","","<div class='trialBorder'><div class='vertical-center'><img style='vertical-align:center; align:center' src=img/fixation3.jpg></div><div class='cl'><div class='vertical-center'><font style='color:orange'>$6<br>for<br>sure</font></div></div><div class='cr'><div class='vertical-center'>$13<br>with a<br>50% chance</div></div><div class='respDivL'><div class='vertical-center'><font style='color:orange'>(E)</font></div></div><div class='respDivR'><div class='vertical-center'>(I)</div></div></div>","null","$6","$13","0","6","13",""
"html-keyboard-response","166","145357","0.0-5.0-1.54","602b3ed14ae791260d6d12c5","bdp_rd","Wed Mar 29 2023 21:18:57 GMT-0400 (Eastern Daylight Time)","155736","","null","","","","FIX","","<div class='trialBorder'><div class='vertical-center'><img style='vertical-align:center; align:center' src=img/fixation3.jpg></div></div>","null","","","","","",""
"html-keyboard-response","167","146271","0.0-5.0-2.54","602b3ed14ae791260d6d12c5","bdp_rd","Wed Mar 29 2023 21:18:57 GMT-0400 (Eastern Daylight Time)","155736","","912","","","","offer","","<div class='trialBorder'><div class='vertical-center'><img style='vertical-align:center; align:center' src=img/fixation3.jpg></div><div class='cl'><div class='vertical-center'>$69<br>with a<br>50% chance</div></div><div class='cr'><div class='vertical-center'>$58<br>for<br>sure</div></div><div class='respDivL'><div class='vertical-center'>(E)</div></div><div class='respDivR'><div class='vertical-center'>(I)</div></div></div>","I","$58","$69","1","58","69","SURE"
"html-keyboard-response","168","146523","0.0-5.0-3.54","602b3ed14ae791260d6d12c5","bdp_rd","Wed Mar 29 2023 21:18:57 GMT-0400 (Eastern Daylight Time)","155736","","null","","","","offerFB","","<div class='trialBorder'><div class='vertical-center'><img style='vertical-align:center; align:center' src=img/fixation3.jpg></div><div class='cl'><div class='vertical-center'>$69<br>with a<br>50% chance</div></div><div class='cr'><div class='vertical-center'><font style='color:orange'>$58<br>for<br>sure</font></div></div><div class='respDivL'><div class='vertical-center'>(E)</div></div><div class='respDivR'><div class='vertical-center'><font style='color:orange'>(I)</font></div></div></div>","null","$58","$69","1","58","69",""
"html-keyboard-response","169","147026","0.0-5.0-1.55","602b3ed14ae791260d6d12c5","bdp_rd","Wed Mar 29 2023 21:18:57 GMT-0400 (Eastern Daylight Time)","155736","","null","","","","FIX","","<div class='trialBorder'><div class='vertical-center'><img style='vertical-align:center; align:center' src=img/fixation3.jpg></div></div>","null","","","","","",""
"html-keyboard-response","170","148032","0.0-5.0-2.55","602b3ed14ae791260d6d12c5","bdp_rd","Wed Mar 29 2023 21:18:57 GMT-0400 (Eastern Daylight Time)","155736","","1003","","","","offer","","<div class='trialBorder'><div class='vertical-center'><img style='vertical-align:center; align:center' src=img/fixation3.jpg></div><div class='cl'><div class='vertical-center'>$41<br>with a<br>50% chance</div></div><div class='cr'><div class='vertical-center'>$13<br>for<br>sure</div></div><div class='respDivL'><div class='vertical-center'>(E)</div></div><div class='respDivR'><div class='vertical-center'>(I)</div></div></div>","I","$13","$41","1","13","41","SURE"
"html-keyboard-response","171","148285","0.0-5.0-3.55","602b3ed14ae791260d6d12c5","bdp_rd","Wed Mar 29 2023 21:18:57 GMT-0400 (Eastern Daylight Time)","155736","","null","","","","offerFB","","<div class='trialBorder'><div class='vertical-center'><img style='vertical-align:center; align:center' src=img/fixation3.jpg></div><div class='cl'><div class='vertical-center'>$41<br>with a<br>50% chance</div></div><div class='cr'><div class='vertical-center'><font style='color:orange'>$13<br>for<br>sure</font></div></div><div class='respDivL'><div class='vertical-center'>(E)</div></div><div class='respDivR'><div class='vertical-center'><font style='color:orange'>(I)</font></div></div></div>","null","$13","$41","1","13","41",""
"html-keyboard-response","172","148788","0.0-5.0-1.56","602b3ed14ae791260d6d12c5","bdp_rd","Wed Mar 29 2023 21:18:57 GMT-0400 (Eastern Daylight Time)","155736","","null","","","","FIX","","<div class='trialBorder'><div class='vertical-center'><img style='vertical-align:center; align:center' src=img/fixation3.jpg></div></div>","null","","","","","",""
"html-keyboard-response","173","149588","0.0-5.0-2.56","602b3ed14ae791260d6d12c5","bdp_rd","Wed Mar 29 2023 21:18:57 GMT-0400 (Eastern Daylight Time)","155736","","798","","","","offer","","<div class='trialBorder'><div class='vertical-center'><img style='vertical-align:center; align:center' src=img/fixation3.jpg></div><div class='cl'><div class='vertical-center'>$26<br>with a<br>50% chance</div></div><div class='cr'><div class='vertical-center'>$11<br>for<br>sure</div></div><div class='respDivL'><div class='vertical-center'>(E)</div></div><div class='respDivR'><div class='vertical-center'>(I)</div></div></div>","I","$11","$26","1","11","26","SURE"
