"trial_type","trial_index","time_elapsed","internal_node_id","subject_id","task","startTime","totalTime","view_history","rt","event","trial","time","trialtype","success","stimulus","key_press","sureOffer","riskyOffer","riskyLeft","sureAmt","riskyAmt","chosen"
"pavlovia","0","4","0.0-0.0","5adfcb03f6b58c0001fa9083","bdp_rd","Tue Mar 28 2023 09:17:53 GMT-0600 (Mountain Daylight Time)","138565","","","","","","","","","","","","","","",""
"instructions","1","980","0.0-1.0","5adfcb03f6b58c0001fa9083","bdp_rd","Tue Mar 28 2023 09:17:53 GMT-0600 (Mountain Daylight Time)","138565","[{""page_index"":0,""viewing_time"":976}]","976","","","","","","","","","","","","",""
"","","","","5adfcb03f6b58c0001fa9083","bdp_rd","Tue Mar 28 2023 09:17:53 GMT-0600 (Mountain Daylight Time)","138565","","","fullscreenenter","2","2229","fullscreenenter","","","","","","","","",""
"fullscreen","2","3194","0.0-2.0","5adfcb03f6b58c0001fa9083","bdp_rd","Tue Mar 28 2023 09:17:53 GMT-0600 (Mountain Daylight Time)","138565","","","","","","","true","","","","","","","",""
"instructions","3","20175","0.0-4.0","5adfcb03f6b58c0001fa9083","bdp_rd","Tue Mar 28 2023 09:17:53 GMT-0600 (Mountain Daylight Time)","138565","[{""page_index"":0,""viewing_time"":8965},{""page_index"":1,""viewing_time"":5350},{""page_index"":2,""viewing_time"":2665}]","16980","","","","","","","","","","","","",""
"html-keyboard-response","4","20678","0.0-5.0-1.0","5adfcb03f6b58c0001fa9083","bdp_rd","Tue Mar 28 2023 09:17:53 GMT-0600 (Mountain Daylight Time)","138565","","null","","","","FIX","","<div class='trialBorder'><div class='vertical-center'><img style='vertical-align:center; align:center' src=img/fixation3.jpg></div></div>","null","","","","","",""
"html-keyboard-response","5","22393","0.0-5.0-2.0","5adfcb03f6b58c0001fa9083","bdp_rd","Tue Mar 28 2023 09:17:53 GMT-0600 (Mountain Daylight Time)","138565","","1714","","","","offer","","<div class='trialBorder'><div class='vertical-center'><img style='vertical-align:center; align:center' src=img/fixation3.jpg></div><div class='cl'><div class='vertical-center'>$15<br>for<br>sure</div></div><div class='cr'><div class='vertical-center'>$31<br>with a<br>50% chance</div></div><div class='respDivL'><div class='vertical-center'>(E)</div></div><div class='respDivR'><div class='vertical-center'>(I)</div></div></div>","E","$15","$31","0","15","31","SURE"
"html-keyboard-response","6","22646","0.0-5.0-3.0","5adfcb03f6b58c0001fa9083","bdp_rd","Tue Mar 28 2023 09:17:53 GMT-0600 (Mountain Daylight Time)","138565","","null","","","","offerFB","","<div class='trialBorder'><div class='vertical-center'><img style='vertical-align:center; align:center' src=img/fixation3.jpg></div><div class='cl'><div class='vertical-center'><font style='color:orange'>$15<br>for<br>sure</font></div></div><div class='cr'><div class='vertical-center'>$31<br>with a<br>50% chance</div></div><div class='respDivL'><div class='vertical-center'><font style='color:orange'>(E)</font></div></div><div class='respDivR'><div class='vertical-center'>(I)</div></div></div>","null","$15","$31","0","15","31",""
"html-keyboard-response","7","23148","0.0-5.0-1.1","5adfcb03f6b58c0001fa9083","bdp_rd","Tue Mar 28 2023 09:17:53 GMT-0600 (Mountain Daylight Time)","138565","","null","","","","FIX","","<div class='trialBorder'><div class='vertical-center'><img style='vertical-align:center; align:center' src=img/fixation3.jpg></div></div>","null","","","","","",""
"html-keyboard-response","8","25096","0.0-5.0-2.1","5adfcb03f6b58c0001fa9083","bdp_rd","Tue Mar 28 2023 09:17:53 GMT-0600 (Mountain Daylight Time)","138565","","1946","","","","offer","","<div class='trialBorder'><div class='vertical-center'><img style='vertical-align:center; align:center' src=img/fixation3.jpg></div><div class='cl'><div class='vertical-center'>$9<br>for<br>sure</div></div><div class='cr'><div class='vertical-center'>$18<br>with a<br>50% chance</div></div><div class='respDivL'><div class='vertical-center'>(E)</div></div><div class='respDivR'><div class='vertical-center'>(I)</div></div></div>","E","$9","$18","0","9","18","SURE"
"html-keyboard-response","9","25348","0.0-5.0-3.1","5adfcb03f6b58c0001fa9083","bdp_rd","Tue Mar 28 2023 09:17:53 GMT-0600 (Mountain Daylight Time)","138565","","null","","","","offerFB","","<div class='trialBorder'><div class='vertical-center'><img style='vertical-align:center; align:center' src=img/fixation3.jpg></div><div class='cl'><div class='vertical-center'><font style='color:orange'>$9<br>for<br>sure</font></div></div><div class='cr'><div class='vertical-center'>$18<br>with a<br>50% chance</div></div><div class='respDivL'><div class='vertical-center'><font style='color:orange'>(E)</font></div></div><div class='respDivR'><div class='vertical-center'>(I)</div></div></div>","null","$9","$18","0","9","18",""
"html-keyboard-response","10","25850","0.0-5.0-1.2","5adfcb03f6b58c0001fa9083","bdp_rd","Tue Mar 28 2023 09:17:53 GMT-0600 (Mountain Daylight Time)","138565","","null","","","","FIX","","<div class='trialBorder'><div class='vertical-center'><img style='vertical-align:center; align:center' src=img/fixation3.jpg></div></div>","null","","","","","",""
"html-keyboard-response","11","27198","0.0-5.0-2.2","5adfcb03f6b58c0001fa9083","bdp_rd","Tue Mar 28 2023 09:17:53 GMT-0600 (Mountain Daylight Time)","138565","","1347","","","","offer","","<div class='trialBorder'><div class='vertical-center'><img style='vertical-align:center; align:center' src=img/fixation3.jpg></div><div class='cl'><div class='vertical-center'>$69<br>with a<br>50% chance</div></div><div class='cr'><div class='vertical-center'>$58<br>for<br>sure</div></div><div class='respDivL'><div class='vertical-center'>(E)</div></div><div class='respDivR'><div class='vertical-center'>(I)</div></div></div>","I","$58","$69","1","58","69","SURE"
"html-keyboard-response","12","27451","0.0-5.0-3.2","5adfcb03f6b58c0001fa9083","bdp_rd","Tue Mar 28 2023 09:17:53 GMT-0600 (Mountain Daylight Time)","138565","","null","","","","offerFB","","<div class='trialBorder'><div class='vertical-center'><img style='vertical-align:center; align:center' src=img/fixation3.jpg></div><div class='cl'><div class='vertical-center'>$69<br>with a<br>50% chance</div></div><div class='cr'><div class='vertical-center'><font style='color:orange'>$58<br>for<br>sure</font></div></div><div class='respDivL'><div class='vertical-center'>(E)</div></div><div class='respDivR'><div class='vertical-center'><font style='color:orange'>(I)</font></div></div></div>","null","$58","$69","1","58","69",""
"html-keyboard-response","13","27952","0.0-5.0-1.3","5adfcb03f6b58c0001fa9083","bdp_rd","Tue Mar 28 2023 09:17:53 GMT-0600 (Mountain Daylight Time)","138565","","null","","","","FIX","","<div class='trialBorder'><div class='vertical-center'><img style='vertical-align:center; align:center' src=img/fixation3.jpg></div></div>","null","","","","","",""
"html-keyboard-response","14","29012","0.0-5.0-2.3","5adfcb03f6b58c0001fa9083","bdp_rd","Tue Mar 28 2023 09:17:53 GMT-0600 (Mountain Daylight Time)","138565","","1059","","","","offer","","<div class='trialBorder'><div class='vertical-center'><img style='vertical-align:center; align:center' src=img/fixation3.jpg></div><div class='cl'><div class='vertical-center'>$29<br>for<br>sure</div></div><div class='cr'><div class='vertical-center'>$46<br>with a<br>50% chance</div></div><div class='respDivL'><div class='vertical-center'>(E)</div></div><div class='respDivR'><div class='vertical-center'>(I)</div></div></div>","E","$29","$46","0","29","46","SURE"
"html-keyboard-response","15","29265","0.0-5.0-3.3","5adfcb03f6b58c0001fa9083","bdp_rd","Tue Mar 28 2023 09:17:53 GMT-0600 (Mountain Daylight Time)","138565","","null","","","","offerFB","","<div class='trialBorder'><div class='vertical-center'><img style='vertical-align:center; align:center' src=img/fixation3.jpg></div><div class='cl'><div class='vertical-center'><font style='color:orange'>$29<br>for<br>sure</font></div></div><div class='cr'><div class='vertical-center'>$46<br>with a<br>50% chance</div></div><div class='respDivL'><div class='vertical-center'><font style='color:orange'>(E)</font></div></div><div class='respDivR'><div class='vertical-center'>(I)</div></div></div>","null","$29","$46","0","29","46",""
"html-keyboard-response","16","29767","0.0-5.0-1.4","5adfcb03f6b58c0001fa9083","bdp_rd","Tue Mar 28 2023 09:17:53 GMT-0600 (Mountain Daylight Time)","138565","","null","","","","FIX","","<div class='trialBorder'><div class='vertical-center'><img style='vertical-align:center; align:center' src=img/fixation3.jpg></div></div>","null","","","","","",""
"html-keyboard-response","17","31174","0.0-5.0-2.4","5adfcb03f6b58c0001fa9083","bdp_rd","Tue Mar 28 2023 09:17:53 GMT-0600 (Mountain Daylight Time)","138565","","1405","","","","offer","","<div class='trialBorder'><div class='vertical-center'><img style='vertical-align:center; align:center' src=img/fixation3.jpg></div><div class='cl'><div class='vertical-center'>$45<br>with a<br>50% chance</div></div><div class='cr'><div class='vertical-center'>$8<br>for<br>sure</div></div><div class='respDivL'><div class='vertical-center'>(E)</div></div><div class='respDivR'><div class='vertical-center'>(I)</div></div></div>","E","$8","$45","1","8","45","RISKY"
"html-keyboard-response","18","31426","0.0-5.0-3.4","5adfcb03f6b58c0001fa9083","bdp_rd","Tue Mar 28 2023 09:17:53 GMT-0600 (Mountain Daylight Time)","138565","","null","","","","offerFB","","<div class='trialBorder'><div class='vertical-center'><img style='vertical-align:center; align:center' src=img/fixation3.jpg></div><div class='cl'><div class='vertical-center'><font style='color:orange'>$45<br>with a<br>50% chance</font></div></div><div class='cr'><div class='vertical-center'>$8<br>for<br>sure</div></div><div class='respDivL'><div class='vertical-center'><font style='color:orange'>(E)</font></div></div><div class='respDivR'><div class='vertical-center'>(I)</div></div></div>","null","$8","$45","1","8","45",""
"html-keyboard-response","19","31928","0.0-5.0-1.5","5adfcb03f6b58c0001fa9083","bdp_rd","Tue Mar 28 2023 09:17:53 GMT-0600 (Mountain Daylight Time)","138565","","null","","","","FIX","","<div class='trialBorder'><div class='vertical-center'><img style='vertical-align:center; align:center' src=img/fixation3.jpg></div></div>","null","","","","","",""
"html-keyboard-response","20","33112","0.0-5.0-2.5","5adfcb03f6b58c0001fa9083","bdp_rd","Tue Mar 28 2023 09:17:53 GMT-0600 (Mountain Daylight Time)","138565","","1183","","","","offer","","<div class='trialBorder'><div class='vertical-center'><img style='vertical-align:center; align:center' src=img/fixation3.jpg></div><div class='cl'><div class='vertical-center'>$59<br>with a<br>50% chance</div></div><div class='cr'><div class='vertical-center'>$22<br>for<br>sure</div></div><div class='respDivL'><div class='vertical-center'>(E)</div></div><div class='respDivR'><div class='vertical-center'>(I)</div></div></div>","E","$22","$59","1","22","59","RISKY"
"html-keyboard-response","21","33365","0.0-5.0-3.5","5adfcb03f6b58c0001fa9083","bdp_rd","Tue Mar 28 2023 09:17:53 GMT-0600 (Mountain Daylight Time)","138565","","null","","","","offerFB","","<div class='trialBorder'><div class='vertical-center'><img style='vertical-align:center; align:center' src=img/fixation3.jpg></div><div class='cl'><div class='vertical-center'><font style='color:orange'>$59<br>with a<br>50% chance</font></div></div><div class='cr'><div class='vertical-center'>$22<br>for<br>sure</div></div><div class='respDivL'><div class='vertical-center'><font style='color:orange'>(E)</font></div></div><div class='respDivR'><div class='vertical-center'>(I)</div></div></div>","null","$22","$59","1","22","59",""
"html-keyboard-response","22","33866","0.0-5.0-1.6","5adfcb03f6b58c0001fa9083","bdp_rd","Tue Mar 28 2023 09:17:53 GMT-0600 (Mountain Daylight Time)","138565","","null","","","","FIX","","<div class='trialBorder'><div class='vertical-center'><img style='vertical-align:center; align:center' src=img/fixation3.jpg></div></div>","null","","","","","",""
"html-keyboard-response","23","35938","0.0-5.0-2.6","5adfcb03f6b58c0001fa9083","bdp_rd","Tue Mar 28 2023 09:17:53 GMT-0600 (Mountain Daylight Time)","138565","","2070","","","","offer","","<div class='trialBorder'><div class='vertical-center'><img style='vertical-align:center; align:center' src=img/fixation3.jpg></div><div class='cl'><div class='vertical-center'>$100<br>with a<br>50% chance</div></div><div class='cr'><div class='vertical-center'>$63<br>for<br>sure</div></div><div class='respDivL'><div class='vertical-center'>(E)</div></div><div class='respDivR'><div class='vertical-center'>(I)</div></div></div>","E","$63","$100","1","63","10","RISKY"
"html-keyboard-response","24","36190","0.0-5.0-3.6","5adfcb03f6b58c0001fa9083","bdp_rd","Tue Mar 28 2023 09:17:53 GMT-0600 (Mountain Daylight Time)","138565","","null","","","","offerFB","","<div class='trialBorder'><div class='vertical-center'><img style='vertical-align:center; align:center' src=img/fixation3.jpg></div><div class='cl'><div class='vertical-center'><font style='color:orange'>$100<br>with a<br>50% chance</font></div></div><div class='cr'><div class='vertical-center'>$63<br>for<br>sure</div></div><div class='respDivL'><div class='vertical-center'><font style='color:orange'>(E)</font></div></div><div class='respDivR'><div class='vertical-center'>(I)</div></div></div>","null","$63","$100","1","63","10",""
"html-keyboard-response","25","36691","0.0-5.0-1.7","5adfcb03f6b58c0001fa9083","bdp_rd","Tue Mar 28 2023 09:17:53 GMT-0600 (Mountain Daylight Time)","138565","","null","","","","FIX","","<div class='trialBorder'><div class='vertical-center'><img style='vertical-align:center; align:center' src=img/fixation3.jpg></div></div>","null","","","","","",""
"html-keyboard-response","26","37926","0.0-5.0-2.7","5adfcb03f6b58c0001fa9083","bdp_rd","Tue Mar 28 2023 09:17:53 GMT-0600 (Mountain Daylight Time)","138565","","1234","","","","offer","","<div class='trialBorder'><div class='vertical-center'><img style='vertical-align:center; align:center' src=img/fixation3.jpg></div><div class='cl'><div class='vertical-center'>$66<br>with a<br>50% chance</div></div><div class='cr'><div class='vertical-center'>$33<br>for<br>sure</div></div><div class='respDivL'><div class='vertical-center'>(E)</div></div><div class='respDivR'><div class='vertical-center'>(I)</div></div></div>","E","$33","$66","1","33","66","RISKY"
"html-keyboard-response","27","38177","0.0-5.0-3.7","5adfcb03f6b58c0001fa9083","bdp_rd","Tue Mar 28 2023 09:17:53 GMT-0600 (Mountain Daylight Time)","138565","","null","","","","offerFB","","<div class='trialBorder'><div class='vertical-center'><img style='vertical-align:center; align:center' src=img/fixation3.jpg></div><div class='cl'><div class='vertical-center'><font style='color:orange'>$66<br>with a<br>50% chance</font></div></div><div class='cr'><div class='vertical-center'>$33<br>for<br>sure</div></div><div class='respDivL'><div class='vertical-center'><font style='color:orange'>(E)</font></div></div><div class='respDivR'><div class='vertical-center'>(I)</div></div></div>","null","$33","$66","1","33","66",""
"html-keyboard-response","28","38680","0.0-5.0-1.8","5adfcb03f6b58c0001fa9083","bdp_rd","Tue Mar 28 2023 09:17:53 GMT-0600 (Mountain Daylight Time)","138565","","null","","","","FIX","","<div class='trialBorder'><div class='vertical-center'><img style='vertical-align:center; align:center' src=img/fixation3.jpg></div></div>","null","","","","","",""
"html-keyboard-response","29","40038","0.0-5.0-2.8","5adfcb03f6b58c0001fa9083","bdp_rd","Tue Mar 28 2023 09:17:53 GMT-0600 (Mountain Daylight Time)","138565","","1356","","","","offer","","<div class='trialBorder'><div class='vertical-center'><img style='vertical-align:center; align:center' src=img/fixation3.jpg></div><div class='cl'><div class='vertical-center'>$36<br>with a<br>50% chance</div></div><div class='cr'><div class='vertical-center'>$18<br>for<br>sure</div></div><div class='respDivL'><div class='vertical-center'>(E)</div></div><div class='respDivR'><div class='vertical-center'>(I)</div></div></div>","I","$18","$36","1","18","36","SURE"
"html-keyboard-response","30","40289","0.0-5.0-3.8","5adfcb03f6b58c0001fa9083","bdp_rd","Tue Mar 28 2023 09:17:53 GMT-0600 (Mountain Daylight Time)","138565","","null","","","","offerFB","","<div class='trialBorder'><div class='vertical-center'><img style='vertical-align:center; align:center' src=img/fixation3.jpg></div><div class='cl'><div class='vertical-center'>$36<br>with a<br>50% chance</div></div><div class='cr'><div class='vertical-center'><font style='color:orange'>$18<br>for<br>sure</font></div></div><div class='respDivL'><div class='vertical-center'>(E)</div></div><div class='respDivR'><div class='vertical-center'><font style='color:orange'>(I)</font></div></div></div>","null","$18","$36","1","18","36",""
"html-keyboard-response","31","40791","0.0-5.0-1.9","5adfcb03f6b58c0001fa9083","bdp_rd","Tue Mar 28 2023 09:17:53 GMT-0600 (Mountain Daylight Time)","138565","","null","","","","FIX","","<div class='trialBorder'><div class='vertical-center'><img style='vertical-align:center; align:center' src=img/fixation3.jpg></div></div>","null","","","","","",""
"html-keyboard-response","32","41946","0.0-5.0-2.9","5adfcb03f6b58c0001fa9083","bdp_rd","Tue Mar 28 2023 09:17:53 GMT-0600 (Mountain Daylight Time)","138565","","1154","","","","offer","","<div class='trialBorder'><div class='vertical-center'><img style='vertical-align:center; align:center' src=img/fixation3.jpg></div><div class='cl'><div class='vertical-center'>$18<br>for<br>sure</div></div><div class='cr'><div class='vertical-center'>$39<br>with a<br>50% chance</div></div><div class='respDivL'><div class='vertical-center'>(E)</div></div><div class='respDivR'><div class='vertical-center'>(I)</div></div></div>","E","$18","$39","0","18","39","SURE"
"html-keyboard-response","33","42199","0.0-5.0-3.9","5adfcb03f6b58c0001fa9083","bdp_rd","Tue Mar 28 2023 09:17:53 GMT-0600 (Mountain Daylight Time)","138565","","null","","","","offerFB","","<div class='trialBorder'><div class='vertical-center'><img style='vertical-align:center; align:center' src=img/fixation3.jpg></div><div class='cl'><div class='vertical-center'><font style='color:orange'>$18<br>for<br>sure</font></div></div><div class='cr'><div class='vertical-center'>$39<br>with a<br>50% chance</div></div><div class='respDivL'><div class='vertical-center'><font style='color:orange'>(E)</font></div></div><div class='respDivR'><div class='vertical-center'>(I)</div></div></div>","null","$18","$39","0","18","39",""
"html-keyboard-response","34","42700","0.0-5.0-1.10","5adfcb03f6b58c0001fa9083","bdp_rd","Tue Mar 28 2023 09:17:53 GMT-0600 (Mountain Daylight Time)","138565","","null","","","","FIX","","<div class='trialBorder'><div class='vertical-center'><img style='vertical-align:center; align:center' src=img/fixation3.jpg></div></div>","null","","","","","",""
"html-keyboard-response","35","43968","0.0-5.0-2.10","5adfcb03f6b58c0001fa9083","bdp_rd","Tue Mar 28 2023 09:17:53 GMT-0600 (Mountain Daylight Time)","138565","","1267","","","","offer","","<div class='trialBorder'><div class='vertical-center'><img style='vertical-align:center; align:center' src=img/fixation3.jpg></div><div class='cl'><div class='vertical-center'>$30<br>for<br>sure</div></div><div class='cr'><div class='vertical-center'>$68<br>with a<br>50% chance</div></div><div class='respDivL'><div class='vertical-center'>(E)</div></div><div class='respDivR'><div class='vertical-center'>(I)</div></div></div>","E","$30","$68","0","30","68","SURE"
"html-keyboard-response","36","44221","0.0-5.0-3.10","5adfcb03f6b58c0001fa9083","bdp_rd","Tue Mar 28 2023 09:17:53 GMT-0600 (Mountain Daylight Time)","138565","","null","","","","offerFB","","<div class='trialBorder'><div class='vertical-center'><img style='vertical-align:center; align:center' src=img/fixation3.jpg></div><div class='cl'><div class='vertical-center'><font style='color:orange'>$30<br>for<br>sure</font></div></div><div class='cr'><div class='vertical-center'>$68<br>with a<br>50% chance</div></div><div class='respDivL'><div class='vertical-center'><font style='color:orange'>(E)</font></div></div><div class='respDivR'><div class='vertical-center'>(I)</div></div></div>","null","$30","$68","0","30","68",""
"html-keyboard-response","37","44723","0.0-5.0-1.11","5adfcb03f6b58c0001fa9083","bdp_rd","Tue Mar 28 2023 09:17:53 GMT-0600 (Mountain Daylight Time)","138565","","null","","","","FIX","","<div class='trialBorder'><div class='vertical-center'><img style='vertical-align:center; align:center' src=img/fixation3.jpg></div></div>","null","","","","","",""
"html-keyboard-response","38","45824","0.0-5.0-2.11","5adfcb03f6b58c0001fa9083","bdp_rd","Tue Mar 28 2023 09:17:53 GMT-0600 (Mountain Daylight Time)","138565","","1100","","","","offer","","<div class='trialBorder'><div class='vertical-center'><img style='vertical-align:center; align:center' src=img/fixation3.jpg></div><div class='cl'><div class='vertical-center'>$34<br>for<br>sure</div></div><div class='cr'><div class='vertical-center'>$48<br>with a<br>50% chance</div></div><div class='respDivL'><div class='vertical-center'>(E)</div></div><div class='respDivR'><div class='vertical-center'>(I)</div></div></div>","E","$34","$48","0","34","48","SURE"
"html-keyboard-response","39","46076","0.0-5.0-3.11","5adfcb03f6b58c0001fa9083","bdp_rd","Tue Mar 28 2023 09:17:53 GMT-0600 (Mountain Daylight Time)","138565","","null","","","","offerFB","","<div class='trialBorder'><div class='vertical-center'><img style='vertical-align:center; align:center' src=img/fixation3.jpg></div><div class='cl'><div class='vertical-center'><font style='color:orange'>$34<br>for<br>sure</font></div></div><div class='cr'><div class='vertical-center'>$48<br>with a<br>50% chance</div></div><div class='respDivL'><div class='vertical-center'><font style='color:orange'>(E)</font></div></div><div class='respDivR'><div class='vertical-center'>(I)</div></div></div>","null","$34","$48","0","34","48",""
"html-keyboard-response","40","46578","0.0-5.0-1.12","5adfcb03f6b58c0001fa9083","bdp_rd","Tue Mar 28 2023 09:17:53 GMT-0600 (Mountain Daylight Time)","138565","","null","","","","FIX","","<div class='trialBorder'><div class='vertical-center'><img style='vertical-align:center; align:center' src=img/fixation3.jpg></div></div>","null","","","","","",""
"html-keyboard-response","41","47976","0.0-5.0-2.12","5adfcb03f6b58c0001fa9083","bdp_rd","Tue Mar 28 2023 09:17:53 GMT-0600 (Mountain Daylight Time)","138565","","1397","","","","offer","","<div class='trialBorder'><div class='vertical-center'><img style='vertical-align:center; align:center' src=img/fixation3.jpg></div><div class='cl'><div class='vertical-center'>$10<br>for<br>sure</div></div><div class='cr'><div class='vertical-center'>$40<br>with a<br>50% chance</div></div><div class='respDivL'><div class='vertical-center'>(E)</div></div><div class='respDivR'><div class='vertical-center'>(I)</div></div></div>","I","$10","$40","0","10","40","RISKY"
"html-keyboard-response","42","48229","0.0-5.0-3.12","5adfcb03f6b58c0001fa9083","bdp_rd","Tue Mar 28 2023 09:17:53 GMT-0600 (Mountain Daylight Time)","138565","","null","","","","offerFB","","<div class='trialBorder'><div class='vertical-center'><img style='vertical-align:center; align:center' src=img/fixation3.jpg></div><div class='cl'><div class='vertical-center'>$10<br>for<br>sure</div></div><div class='cr'><div class='vertical-center'><font style='color:orange'>$40<br>with a<br>50% chance</font></div></div><div class='respDivL'><div class='vertical-center'>(E)</div></div><div class='respDivR'><div class='vertical-center'><font style='color:orange'>(I)</font></div></div></div>","null","$10","$40","0","10","40",""
"html-keyboard-response","43","48731","0.0-5.0-1.13","5adfcb03f6b58c0001fa9083","bdp_rd","Tue Mar 28 2023 09:17:53 GMT-0600 (Mountain Daylight Time)","138565","","null","","","","FIX","","<div class='trialBorder'><div class='vertical-center'><img style='vertical-align:center; align:center' src=img/fixation3.jpg></div></div>","null","","","","","",""
"html-keyboard-response","44","50202","0.0-5.0-2.13","5adfcb03f6b58c0001fa9083","bdp_rd","Tue Mar 28 2023 09:17:53 GMT-0600 (Mountain Daylight Time)","138565","","1470","","","","offer","","<div class='trialBorder'><div class='vertical-center'><img style='vertical-align:center; align:center' src=img/fixation3.jpg></div><div class='cl'><div class='vertical-center'>$47<br>with a<br>50% chance</div></div><div class='cr'><div class='vertical-center'>$27<br>for<br>sure</div></div><div class='respDivL'><div class='vertical-center'>(E)</div></div><div class='respDivR'><div class='vertical-center'>(I)</div></div></div>","I","$27","$47","1","27","47","SURE"
"html-keyboard-response","45","50455","0.0-5.0-3.13","5adfcb03f6b58c0001fa9083","bdp_rd","Tue Mar 28 2023 09:17:53 GMT-0600 (Mountain Daylight Time)","138565","","null","","","","offerFB","","<div class='trialBorder'><div class='vertical-center'><img style='vertical-align:center; align:center' src=img/fixation3.jpg></div><div class='cl'><div class='vertical-center'>$47<br>with a<br>50% chance</div></div><div class='cr'><div class='vertical-center'><font style='color:orange'>$27<br>for<br>sure</font></div></div><div class='respDivL'><div class='vertical-center'>(E)</div></div><div class='respDivR'><div class='vertical-center'><font style='color:orange'>(I)</font></div></div></div>","null","$27","$47","1","27","47",""
"html-keyboard-response","46","50956","0.0-5.0-1.14","5adfcb03f6b58c0001fa9083","bdp_rd","Tue Mar 28 2023 09:17:53 GMT-0600 (Mountain Daylight Time)","138565","","null","","","","FIX","","<div class='trialBorder'><div class='vertical-center'><img style='vertical-align:center; align:center' src=img/fixation3.jpg></div></div>","null","","","","","",""
"html-keyboard-response","47","51963","0.0-5.0-2.14","5adfcb03f6b58c0001fa9083","bdp_rd","Tue Mar 28 2023 09:17:53 GMT-0600 (Mountain Daylight Time)","138565","","1006","","","","offer","","<div class='trialBorder'><div class='vertical-center'><img style='vertical-align:center; align:center' src=img/fixation3.jpg></div><div class='cl'><div class='vertical-center'>$70<br>with a<br>50% chance</div></div><div class='cr'><div class='vertical-center'>$24<br>for<br>sure</div></div><div class='respDivL'><div class='vertical-center'>(E)</div></div><div class='respDivR'><div class='vertical-center'>(I)</div></div></div>","E","$24","$70","1","24","70","RISKY"
"html-keyboard-response","48","52216","0.0-5.0-3.14","5adfcb03f6b58c0001fa9083","bdp_rd","Tue Mar 28 2023 09:17:53 GMT-0600 (Mountain Daylight Time)","138565","","null","","","","offerFB","","<div class='trialBorder'><div class='vertical-center'><img style='vertical-align:center; align:center' src=img/fixation3.jpg></div><div class='cl'><div class='vertical-center'><font style='color:orange'>$70<br>with a<br>50% chance</font></div></div><div class='cr'><div class='vertical-center'>$24<br>for<br>sure</div></div><div class='respDivL'><div class='vertical-center'><font style='color:orange'>(E)</font></div></div><div class='respDivR'><div class='vertical-center'>(I)</div></div></div>","null","$24","$70","1","24","70",""
"html-keyboard-response","49","52718","0.0-5.0-1.15","5adfcb03f6b58c0001fa9083","bdp_rd","Tue Mar 28 2023 09:17:53 GMT-0600 (Mountain Daylight Time)","138565","","null","","","","FIX","","<div class='trialBorder'><div class='vertical-center'><img style='vertical-align:center; align:center' src=img/fixation3.jpg></div></div>","null","","","","","",""
"html-keyboard-response","50","53736","0.0-5.0-2.15","5adfcb03f6b58c0001fa9083","bdp_rd","Tue Mar 28 2023 09:17:53 GMT-0600 (Mountain Daylight Time)","138565","","1018","","","","offer","","<div class='trialBorder'><div class='vertical-center'><img style='vertical-align:center; align:center' src=img/fixation3.jpg></div><div class='cl'><div class='vertical-center'>$40<br>for<br>sure</div></div><div class='cr'><div class='vertical-center'>$95<br>with a<br>50% chance</div></div><div class='respDivL'><div class='vertical-center'>(E)</div></div><div class='respDivR'><div class='vertical-center'>(I)</div></div></div>","I","$40","$95","0","40","95","RISKY"
"html-keyboard-response","51","53988","0.0-5.0-3.15","5adfcb03f6b58c0001fa9083","bdp_rd","Tue Mar 28 2023 09:17:53 GMT-0600 (Mountain Daylight Time)","138565","","null","","","","offerFB","","<div class='trialBorder'><div class='vertical-center'><img style='vertical-align:center; align:center' src=img/fixation3.jpg></div><div class='cl'><div class='vertical-center'>$40<br>for<br>sure</div></div><div class='cr'><div class='vertical-center'><font style='color:orange'>$95<br>with a<br>50% chance</font></div></div><div class='respDivL'><div class='vertical-center'>(E)</div></div><div class='respDivR'><div class='vertical-center'><font style='color:orange'>(I)</font></div></div></div>","null","$40","$95","0","40","95",""
"html-keyboard-response","52","54490","0.0-5.0-1.16","5adfcb03f6b58c0001fa9083","bdp_rd","Tue Mar 28 2023 09:17:53 GMT-0600 (Mountain Daylight Time)","138565","","null","","","","FIX","","<div class='trialBorder'><div class='vertical-center'><img style='vertical-align:center; align:center' src=img/fixation3.jpg></div></div>","null","","","","","",""
"html-keyboard-response","53","55663","0.0-5.0-2.16","5adfcb03f6b58c0001fa9083","bdp_rd","Tue Mar 28 2023 09:17:53 GMT-0600 (Mountain Daylight Time)","138565","","1172","","","","offer","","<div class='trialBorder'><div class='vertical-center'><img style='vertical-align:center; align:center' src=img/fixation3.jpg></div><div class='cl'><div class='vertical-center'>$15<br>for<br>sure</div></div><div class='cr'><div class='vertical-center'>$34<br>with a<br>50% chance</div></div><div class='respDivL'><div class='vertical-center'>(E)</div></div><div class='respDivR'><div class='vertical-center'>(I)</div></div></div>","E","$15","$34","0","15","34","SURE"
"html-keyboard-response","54","55915","0.0-5.0-3.16","5adfcb03f6b58c0001fa9083","bdp_rd","Tue Mar 28 2023 09:17:53 GMT-0600 (Mountain Daylight Time)","138565","","null","","","","offerFB","","<div class='trialBorder'><div class='vertical-center'><img style='vertical-align:center; align:center' src=img/fixation3.jpg></div><div class='cl'><div class='vertical-center'><font style='color:orange'>$15<br>for<br>sure</font></div></div><div class='cr'><div class='vertical-center'>$34<br>with a<br>50% chance</div></div><div class='respDivL'><div class='vertical-center'><font style='color:orange'>(E)</font></div></div><div class='respDivR'><div class='vertical-center'>(I)</div></div></div>","null","$15","$34","0","15","34",""
"html-keyboard-response","55","56417","0.0-5.0-1.17","5adfcb03f6b58c0001fa9083","bdp_rd","Tue Mar 28 2023 09:17:53 GMT-0600 (Mountain Daylight Time)","138565","","null","","","","FIX","","<div class='trialBorder'><div class='vertical-center'><img style='vertical-align:center; align:center' src=img/fixation3.jpg></div></div>","null","","","","","",""
"html-keyboard-response","56","57551","0.0-5.0-2.17","5adfcb03f6b58c0001fa9083","bdp_rd","Tue Mar 28 2023 09:17:53 GMT-0600 (Mountain Daylight Time)","138565","","1132","","","","offer","","<div class='trialBorder'><div class='vertical-center'><img style='vertical-align:center; align:center' src=img/fixation3.jpg></div><div class='cl'><div class='vertical-center'>$27<br>with a<br>50% chance</div></div><div class='cr'><div class='vertical-center'>$12<br>for<br>sure</div></div><div class='respDivL'><div class='vertical-center'>(E)</div></div><div class='respDivR'><div class='vertical-center'>(I)</div></div></div>","I","$12","$27","1","12","27","SURE"
"html-keyboard-response","57","57803","0.0-5.0-3.17","5adfcb03f6b58c0001fa9083","bdp_rd","Tue Mar 28 2023 09:17:53 GMT-0600 (Mountain Daylight Time)","138565","","null","","","","offerFB","","<div class='trialBorder'><div class='vertical-center'><img style='vertical-align:center; align:center' src=img/fixation3.jpg></div><div class='cl'><div class='vertical-center'>$27<br>with a<br>50% chance</div></div><div class='cr'><div class='vertical-center'><font style='color:orange'>$12<br>for<br>sure</font></div></div><div class='respDivL'><div class='vertical-center'>(E)</div></div><div class='respDivR'><div class='vertical-center'><font style='color:orange'>(I)</font></div></div></div>","null","$12","$27","1","12","27",""
"html-keyboard-response","58","58305","0.0-5.0-1.18","5adfcb03f6b58c0001fa9083","bdp_rd","Tue Mar 28 2023 09:17:53 GMT-0600 (Mountain Daylight Time)","138565","","null","","","","FIX","","<div class='trialBorder'><div class='vertical-center'><img style='vertical-align:center; align:center' src=img/fixation3.jpg></div></div>","null","","","","","",""
"html-keyboard-response","59","59905","0.0-5.0-2.18","5adfcb03f6b58c0001fa9083","bdp_rd","Tue Mar 28 2023 09:17:53 GMT-0600 (Mountain Daylight Time)","138565","","1600","","","","offer","","<div class='trialBorder'><div class='vertical-center'><img style='vertical-align:center; align:center' src=img/fixation3.jpg></div><div class='cl'><div class='vertical-center'>$4<br>for<br>sure</div></div><div class='cr'><div class='vertical-center'>$11<br>with a<br>50% chance</div></div><div class='respDivL'><div class='vertical-center'>(E)</div></div><div class='respDivR'><div class='vertical-center'>(I)</div></div></div>","E","$4","$11","0","4","11","SURE"
"html-keyboard-response","60","60157","0.0-5.0-3.18","5adfcb03f6b58c0001fa9083","bdp_rd","Tue Mar 28 2023 09:17:53 GMT-0600 (Mountain Daylight Time)","138565","","null","","","","offerFB","","<div class='trialBorder'><div class='vertical-center'><img style='vertical-align:center; align:center' src=img/fixation3.jpg></div><div class='cl'><div class='vertical-center'><font style='color:orange'>$4<br>for<br>sure</font></div></div><div class='cr'><div class='vertical-center'>$11<br>with a<br>50% chance</div></div><div class='respDivL'><div class='vertical-center'><font style='color:orange'>(E)</font></div></div><div class='respDivR'><div class='vertical-center'>(I)</div></div></div>","null","$4","$11","0","4","11",""
"html-keyboard-response","61","60659","0.0-5.0-1.19","5adfcb03f6b58c0001fa9083","bdp_rd","Tue Mar 28 2023 09:17:53 GMT-0600 (Mountain Daylight Time)","138565","","null","","","","FIX","","<div class='trialBorder'><div class='vertical-center'><img style='vertical-align:center; align:center' src=img/fixation3.jpg></div></div>","null","","","","","",""
"html-keyboard-response","62","61720","0.0-5.0-2.19","5adfcb03f6b58c0001fa9083","bdp_rd","Tue Mar 28 2023 09:17:53 GMT-0600 (Mountain Daylight Time)","138565","","1060","","","","offer","","<div class='trialBorder'><div class='vertical-center'><img style='vertical-align:center; align:center' src=img/fixation3.jpg></div><div class='cl'><div class='vertical-center'>$51<br>with a<br>50% chance</div></div><div class='cr'><div class='vertical-center'>$19<br>for<br>sure</div></div><div class='respDivL'><div class='vertical-center'>(E)</div></div><div class='respDivR'><div class='vertical-center'>(I)</div></div></div>","E","$19","$51","1","19","51","RISKY"
"html-keyboard-response","63","61972","0.0-5.0-3.19","5adfcb03f6b58c0001fa9083","bdp_rd","Tue Mar 28 2023 09:17:53 GMT-0600 (Mountain Daylight Time)","138565","","null","","","","offerFB","","<div class='trialBorder'><div class='vertical-center'><img style='vertical-align:center; align:center' src=img/fixation3.jpg></div><div class='cl'><div class='vertical-center'><font style='color:orange'>$51<br>with a<br>50% chance</font></div></div><div class='cr'><div class='vertical-center'>$19<br>for<br>sure</div></div><div class='respDivL'><div class='vertical-center'><font style='color:orange'>(E)</font></div></div><div class='respDivR'><div class='vertical-center'>(I)</div></div></div>","null","$19","$51","1","19","51",""
"html-keyboard-response","64","62473","0.0-5.0-1.20","5adfcb03f6b58c0001fa9083","bdp_rd","Tue Mar 28 2023 09:17:53 GMT-0600 (Mountain Daylight Time)","138565","","null","","","","FIX","","<div class='trialBorder'><div class='vertical-center'><img style='vertical-align:center; align:center' src=img/fixation3.jpg></div></div>","null","","","","","",""
"html-keyboard-response","65","63622","0.0-5.0-2.20","5adfcb03f6b58c0001fa9083","bdp_rd","Tue Mar 28 2023 09:17:53 GMT-0600 (Mountain Daylight Time)","138565","","1147","","","","offer","","<div class='trialBorder'><div class='vertical-center'><img style='vertical-align:center; align:center' src=img/fixation3.jpg></div><div class='cl'><div class='vertical-center'>$22<br>for<br>sure</div></div><div class='cr'><div class='vertical-center'>$42<br>with a<br>50% chance</div></div><div class='respDivL'><div class='vertical-center'>(E)</div></div><div class='respDivR'><div class='vertical-center'>(I)</div></div></div>","I","$22","$42","0","22","42","RISKY"
"html-keyboard-response","66","63874","0.0-5.0-3.20","5adfcb03f6b58c0001fa9083","bdp_rd","Tue Mar 28 2023 09:17:53 GMT-0600 (Mountain Daylight Time)","138565","","null","","","","offerFB","","<div class='trialBorder'><div class='vertical-center'><img style='vertical-align:center; align:center' src=img/fixation3.jpg></div><div class='cl'><div class='vertical-center'>$22<br>for<br>sure</div></div><div class='cr'><div class='vertical-center'><font style='color:orange'>$42<br>with a<br>50% chance</font></div></div><div class='respDivL'><div class='vertical-center'>(E)</div></div><div class='respDivR'><div class='vertical-center'><font style='color:orange'>(I)</font></div></div></div>","null","$22","$42","0","22","42",""
"html-keyboard-response","67","64376","0.0-5.0-1.21","5adfcb03f6b58c0001fa9083","bdp_rd","Tue Mar 28 2023 09:17:53 GMT-0600 (Mountain Daylight Time)","138565","","null","","","","FIX","","<div class='trialBorder'><div class='vertical-center'><img style='vertical-align:center; align:center' src=img/fixation3.jpg></div></div>","null","","","","","",""
"html-keyboard-response","68","65557","0.0-5.0-2.21","5adfcb03f6b58c0001fa9083","bdp_rd","Tue Mar 28 2023 09:17:53 GMT-0600 (Mountain Daylight Time)","138565","","1179","","","","offer","","<div class='trialBorder'><div class='vertical-center'><img style='vertical-align:center; align:center' src=img/fixation3.jpg></div><div class='cl'><div class='vertical-center'>$50<br>with a<br>50% chance</div></div><div class='cr'><div class='vertical-center'>$5<br>for<br>sure</div></div><div class='respDivL'><div class='vertical-center'>(E)</div></div><div class='respDivR'><div class='vertical-center'>(I)</div></div></div>","E","$5","$50","1","5","50","RISKY"
"html-keyboard-response","69","65809","0.0-5.0-3.21","5adfcb03f6b58c0001fa9083","bdp_rd","Tue Mar 28 2023 09:17:53 GMT-0600 (Mountain Daylight Time)","138565","","null","","","","offerFB","","<div class='trialBorder'><div class='vertical-center'><img style='vertical-align:center; align:center' src=img/fixation3.jpg></div><div class='cl'><div class='vertical-center'><font style='color:orange'>$50<br>with a<br>50% chance</font></div></div><div class='cr'><div class='vertical-center'>$5<br>for<br>sure</div></div><div class='respDivL'><div class='vertical-center'><font style='color:orange'>(E)</font></div></div><div class='respDivR'><div class='vertical-center'>(I)</div></div></div>","null","$5","$50","1","5","50",""
"html-keyboard-response","70","66311","0.0-5.0-1.22","5adfcb03f6b58c0001fa9083","bdp_rd","Tue Mar 28 2023 09:17:53 GMT-0600 (Mountain Daylight Time)","138565","","null","","","","FIX","","<div class='trialBorder'><div class='vertical-center'><img style='vertical-align:center; align:center' src=img/fixation3.jpg></div></div>","null","","","","","",""
"html-keyboard-response","71","67377","0.0-5.0-2.22","5adfcb03f6b58c0001fa9083","bdp_rd","Tue Mar 28 2023 09:17:53 GMT-0600 (Mountain Daylight Time)","138565","","1065","","","","offer","","<div class='trialBorder'><div class='vertical-center'><img style='vertical-align:center; align:center' src=img/fixation3.jpg></div><div class='cl'><div class='vertical-center'>$39<br>for<br>sure</div></div><div class='cr'><div class='vertical-center'>$81<br>with a<br>50% chance</div></div><div class='respDivL'><div class='vertical-center'>(E)</div></div><div class='respDivR'><div class='vertical-center'>(I)</div></div></div>","I","$39","$81","0","39","81","RISKY"
"html-keyboard-response","72","67629","0.0-5.0-3.22","5adfcb03f6b58c0001fa9083","bdp_rd","Tue Mar 28 2023 09:17:53 GMT-0600 (Mountain Daylight Time)","138565","","null","","","","offerFB","","<div class='trialBorder'><div class='vertical-center'><img style='vertical-align:center; align:center' src=img/fixation3.jpg></div><div class='cl'><div class='vertical-center'>$39<br>for<br>sure</div></div><div class='cr'><div class='vertical-center'><font style='color:orange'>$81<br>with a<br>50% chance</font></div></div><div class='respDivL'><div class='vertical-center'>(E)</div></div><div class='respDivR'><div class='vertical-center'><font style='color:orange'>(I)</font></div></div></div>","null","$39","$81","0","39","81",""
"html-keyboard-response","73","68130","0.0-5.0-1.23","5adfcb03f6b58c0001fa9083","bdp_rd","Tue Mar 28 2023 09:17:53 GMT-0600 (Mountain Daylight Time)","138565","","null","","","","FIX","","<div class='trialBorder'><div class='vertical-center'><img style='vertical-align:center; align:center' src=img/fixation3.jpg></div></div>","null","","","","","",""
"html-keyboard-response","74","69277","0.0-5.0-2.23","5adfcb03f6b58c0001fa9083","bdp_rd","Tue Mar 28 2023 09:17:53 GMT-0600 (Mountain Daylight Time)","138565","","1146","","","","offer","","<div class='trialBorder'><div class='vertical-center'><img style='vertical-align:center; align:center' src=img/fixation3.jpg></div><div class='cl'><div class='vertical-center'>$21<br>for<br>sure</div></div><div class='cr'><div class='vertical-center'>$25<br>with a<br>50% chance</div></div><div class='respDivL'><div class='vertical-center'>(E)</div></div><div class='respDivR'><div class='vertical-center'>(I)</div></div></div>","E","$21","$25","0","21","25","SURE"
"html-keyboard-response","75","69529","0.0-5.0-3.23","5adfcb03f6b58c0001fa9083","bdp_rd","Tue Mar 28 2023 09:17:53 GMT-0600 (Mountain Daylight Time)","138565","","null","","","","offerFB","","<div class='trialBorder'><div class='vertical-center'><img style='vertical-align:center; align:center' src=img/fixation3.jpg></div><div class='cl'><div class='vertical-center'><font style='color:orange'>$21<br>for<br>sure</font></div></div><div class='cr'><div class='vertical-center'>$25<br>with a<br>50% chance</div></div><div class='respDivL'><div class='vertical-center'><font style='color:orange'>(E)</font></div></div><div class='respDivR'><div class='vertical-center'>(I)</div></div></div>","null","$21","$25","0","21","25",""
"html-keyboard-response","76","70031","0.0-5.0-1.24","5adfcb03f6b58c0001fa9083","bdp_rd","Tue Mar 28 2023 09:17:53 GMT-0600 (Mountain Daylight Time)","138565","","null","","","","FIX","","<div class='trialBorder'><div class='vertical-center'><img style='vertical-align:center; align:center' src=img/fixation3.jpg></div></div>","null","","","","","",""
"html-keyboard-response","77","70915","0.0-5.0-2.24","5adfcb03f6b58c0001fa9083","bdp_rd","Tue Mar 28 2023 09:17:53 GMT-0600 (Mountain Daylight Time)","138565","","883","","","","offer","","<div class='trialBorder'><div class='vertical-center'><img style='vertical-align:center; align:center' src=img/fixation3.jpg></div><div class='cl'><div class='vertical-center'>$89<br>with a<br>50% chance</div></div><div class='cr'><div class='vertical-center'>$28<br>for<br>sure</div></div><div class='respDivL'><div class='vertical-center'>(E)</div></div><div class='respDivR'><div class='vertical-center'>(I)</div></div></div>","E","$28","$89","1","28","89","RISKY"
"html-keyboard-response","78","71168","0.0-5.0-3.24","5adfcb03f6b58c0001fa9083","bdp_rd","Tue Mar 28 2023 09:17:53 GMT-0600 (Mountain Daylight Time)","138565","","null","","","","offerFB","","<div class='trialBorder'><div class='vertical-center'><img style='vertical-align:center; align:center' src=img/fixation3.jpg></div><div class='cl'><div class='vertical-center'><font style='color:orange'>$89<br>with a<br>50% chance</font></div></div><div class='cr'><div class='vertical-center'>$28<br>for<br>sure</div></div><div class='respDivL'><div class='vertical-center'><font style='color:orange'>(E)</font></div></div><div class='respDivR'><div class='vertical-center'>(I)</div></div></div>","null","$28","$89","1","28","89",""
"html-keyboard-response","79","71670","0.0-5.0-1.25","5adfcb03f6b58c0001fa9083","bdp_rd","Tue Mar 28 2023 09:17:53 GMT-0600 (Mountain Daylight Time)","138565","","null","","","","FIX","","<div class='trialBorder'><div class='vertical-center'><img style='vertical-align:center; align:center' src=img/fixation3.jpg></div></div>","null","","","","","",""
"html-keyboard-response","80","73028","0.0-5.0-2.25","5adfcb03f6b58c0001fa9083","bdp_rd","Tue Mar 28 2023 09:17:53 GMT-0600 (Mountain Daylight Time)","138565","","1357","","","","offer","","<div class='trialBorder'><div class='vertical-center'><img style='vertical-align:center; align:center' src=img/fixation3.jpg></div><div class='cl'><div class='vertical-center'>$32<br>with a<br>50% chance</div></div><div class='cr'><div class='vertical-center'>$9<br>for<br>sure</div></div><div class='respDivL'><div class='vertical-center'>(E)</div></div><div class='respDivR'><div class='vertical-center'>(I)</div></div></div>","I","$9","$32","1","9","32","SURE"
"html-keyboard-response","81","73280","0.0-5.0-3.25","5adfcb03f6b58c0001fa9083","bdp_rd","Tue Mar 28 2023 09:17:53 GMT-0600 (Mountain Daylight Time)","138565","","null","","","","offerFB","","<div class='trialBorder'><div class='vertical-center'><img style='vertical-align:center; align:center' src=img/fixation3.jpg></div><div class='cl'><div class='vertical-center'>$32<br>with a<br>50% chance</div></div><div class='cr'><div class='vertical-center'><font style='color:orange'>$9<br>for<br>sure</font></div></div><div class='respDivL'><div class='vertical-center'>(E)</div></div><div class='respDivR'><div class='vertical-center'><font style='color:orange'>(I)</font></div></div></div>","null","$9","$32","1","9","32",""
"html-keyboard-response","82","73782","0.0-5.0-1.26","5adfcb03f6b58c0001fa9083","bdp_rd","Tue Mar 28 2023 09:17:53 GMT-0600 (Mountain Daylight Time)","138565","","null","","","","FIX","","<div class='trialBorder'><div class='vertical-center'><img style='vertical-align:center; align:center' src=img/fixation3.jpg></div></div>","null","","","","","",""
"html-keyboard-response","83","74627","0.0-5.0-2.26","5adfcb03f6b58c0001fa9083","bdp_rd","Tue Mar 28 2023 09:17:53 GMT-0600 (Mountain Daylight Time)","138565","","843","","","","offer","","<div class='trialBorder'><div class='vertical-center'><img style='vertical-align:center; align:center' src=img/fixation3.jpg></div><div class='cl'><div class='vertical-center'>$25<br>for<br>sure</div></div><div class='cr'><div class='vertical-center'>$54<br>with a<br>50% chance</div></div><div class='respDivL'><div class='vertical-center'>(E)</div></div><div class='respDivR'><div class='vertical-center'>(I)</div></div></div>","E","$25","$54","0","25","54","SURE"
"html-keyboard-response","84","74878","0.0-5.0-3.26","5adfcb03f6b58c0001fa9083","bdp_rd","Tue Mar 28 2023 09:17:53 GMT-0600 (Mountain Daylight Time)","138565","","null","","","","offerFB","","<div class='trialBorder'><div class='vertical-center'><img style='vertical-align:center; align:center' src=img/fixation3.jpg></div><div class='cl'><div class='vertical-center'><font style='color:orange'>$25<br>for<br>sure</font></div></div><div class='cr'><div class='vertical-center'>$54<br>with a<br>50% chance</div></div><div class='respDivL'><div class='vertical-center'><font style='color:orange'>(E)</font></div></div><div class='respDivR'><div class='vertical-center'>(I)</div></div></div>","null","$25","$54","0","25","54",""
"html-keyboard-response","85","75380","0.0-5.0-1.27","5adfcb03f6b58c0001fa9083","bdp_rd","Tue Mar 28 2023 09:17:53 GMT-0600 (Mountain Daylight Time)","138565","","null","","","","FIX","","<div class='trialBorder'><div class='vertical-center'><img style='vertical-align:center; align:center' src=img/fixation3.jpg></div></div>","null","","","","","",""
"html-keyboard-response","86","76530","0.0-5.0-2.27","5adfcb03f6b58c0001fa9083","bdp_rd","Tue Mar 28 2023 09:17:53 GMT-0600 (Mountain Daylight Time)","138565","","1149","","","","offer","","<div class='trialBorder'><div class='vertical-center'><img style='vertical-align:center; align:center' src=img/fixation3.jpg></div><div class='cl'><div class='vertical-center'>$23<br>with a<br>50% chance</div></div><div class='cr'><div class='vertical-center'>$8<br>for<br>sure</div></div><div class='respDivL'><div class='vertical-center'>(E)</div></div><div class='respDivR'><div class='vertical-center'>(I)</div></div></div>","I","$8","$23","1","8","23","SURE"
"html-keyboard-response","87","76783","0.0-5.0-3.27","5adfcb03f6b58c0001fa9083","bdp_rd","Tue Mar 28 2023 09:17:53 GMT-0600 (Mountain Daylight Time)","138565","","null","","","","offerFB","","<div class='trialBorder'><div class='vertical-center'><img style='vertical-align:center; align:center' src=img/fixation3.jpg></div><div class='cl'><div class='vertical-center'>$23<br>with a<br>50% chance</div></div><div class='cr'><div class='vertical-center'><font style='color:orange'>$8<br>for<br>sure</font></div></div><div class='respDivL'><div class='vertical-center'>(E)</div></div><div class='respDivR'><div class='vertical-center'><font style='color:orange'>(I)</font></div></div></div>","null","$8","$23","1","8","23",""
"html-keyboard-response","88","77284","0.0-5.0-1.28","5adfcb03f6b58c0001fa9083","bdp_rd","Tue Mar 28 2023 09:17:53 GMT-0600 (Mountain Daylight Time)","138565","","null","","","","FIX","","<div class='trialBorder'><div class='vertical-center'><img style='vertical-align:center; align:center' src=img/fixation3.jpg></div></div>","null","","","","","",""
"html-keyboard-response","89","78726","0.0-5.0-2.28","5adfcb03f6b58c0001fa9083","bdp_rd","Tue Mar 28 2023 09:17:53 GMT-0600 (Mountain Daylight Time)","138565","","1441","","","","offer","","<div class='trialBorder'><div class='vertical-center'><img style='vertical-align:center; align:center' src=img/fixation3.jpg></div><div class='cl'><div class='vertical-center'>$37<br>with a<br>50% chance</div></div><div class='cr'><div class='vertical-center'>$20<br>for<br>sure</div></div><div class='respDivL'><div class='vertical-center'>(E)</div></div><div class='respDivR'><div class='vertical-center'>(I)</div></div></div>","I","$20","$37","1","20","37","SURE"
"html-keyboard-response","90","78977","0.0-5.0-3.28","5adfcb03f6b58c0001fa9083","bdp_rd","Tue Mar 28 2023 09:17:53 GMT-0600 (Mountain Daylight Time)","138565","","null","","","","offerFB","","<div class='trialBorder'><div class='vertical-center'><img style='vertical-align:center; align:center' src=img/fixation3.jpg></div><div class='cl'><div class='vertical-center'>$37<br>with a<br>50% chance</div></div><div class='cr'><div class='vertical-center'><font style='color:orange'>$20<br>for<br>sure</font></div></div><div class='respDivL'><div class='vertical-center'>(E)</div></div><div class='respDivR'><div class='vertical-center'><font style='color:orange'>(I)</font></div></div></div>","null","$20","$37","1","20","37",""
"html-keyboard-response","91","79479","0.0-5.0-1.29","5adfcb03f6b58c0001fa9083","bdp_rd","Tue Mar 28 2023 09:17:53 GMT-0600 (Mountain Daylight Time)","138565","","null","","","","FIX","","<div class='trialBorder'><div class='vertical-center'><img style='vertical-align:center; align:center' src=img/fixation3.jpg></div></div>","null","","","","","",""
"html-keyboard-response","92","80396","0.0-5.0-2.29","5adfcb03f6b58c0001fa9083","bdp_rd","Tue Mar 28 2023 09:17:53 GMT-0600 (Mountain Daylight Time)","138565","","916","","","","offer","","<div class='trialBorder'><div class='vertical-center'><img style='vertical-align:center; align:center' src=img/fixation3.jpg></div><div class='cl'><div class='vertical-center'>$16<br>for<br>sure</div></div><div class='cr'><div class='vertical-center'>$38<br>with a<br>50% chance</div></div><div class='respDivL'><div class='vertical-center'>(E)</div></div><div class='respDivR'><div class='vertical-center'>(I)</div></div></div>","E","$16","$38","0","16","38","SURE"
"html-keyboard-response","93","80649","0.0-5.0-3.29","5adfcb03f6b58c0001fa9083","bdp_rd","Tue Mar 28 2023 09:17:53 GMT-0600 (Mountain Daylight Time)","138565","","null","","","","offerFB","","<div class='trialBorder'><div class='vertical-center'><img style='vertical-align:center; align:center' src=img/fixation3.jpg></div><div class='cl'><div class='vertical-center'><font style='color:orange'>$16<br>for<br>sure</font></div></div><div class='cr'><div class='vertical-center'>$38<br>with a<br>50% chance</div></div><div class='respDivL'><div class='vertical-center'><font style='color:orange'>(E)</font></div></div><div class='respDivR'><div class='vertical-center'>(I)</div></div></div>","null","$16","$38","0","16","38",""
"html-keyboard-response","94","81151","0.0-5.0-1.30","5adfcb03f6b58c0001fa9083","bdp_rd","Tue Mar 28 2023 09:17:53 GMT-0600 (Mountain Daylight Time)","138565","","null","","","","FIX","","<div class='trialBorder'><div class='vertical-center'><img style='vertical-align:center; align:center' src=img/fixation3.jpg></div></div>","null","","","","","",""
"html-keyboard-response","95","82360","0.0-5.0-2.30","5adfcb03f6b58c0001fa9083","bdp_rd","Tue Mar 28 2023 09:17:53 GMT-0600 (Mountain Daylight Time)","138565","","1208","","","","offer","","<div class='trialBorder'><div class='vertical-center'><img style='vertical-align:center; align:center' src=img/fixation3.jpg></div><div class='cl'><div class='vertical-center'>$65<br>with a<br>50% chance</div></div><div class='cr'><div class='vertical-center'>$46<br>for<br>sure</div></div><div class='respDivL'><div class='vertical-center'>(E)</div></div><div class='respDivR'><div class='vertical-center'>(I)</div></div></div>","I","$46","$65","1","46","65","SURE"
"html-keyboard-response","96","82612","0.0-5.0-3.30","5adfcb03f6b58c0001fa9083","bdp_rd","Tue Mar 28 2023 09:17:53 GMT-0600 (Mountain Daylight Time)","138565","","null","","","","offerFB","","<div class='trialBorder'><div class='vertical-center'><img style='vertical-align:center; align:center' src=img/fixation3.jpg></div><div class='cl'><div class='vertical-center'>$65<br>with a<br>50% chance</div></div><div class='cr'><div class='vertical-center'><font style='color:orange'>$46<br>for<br>sure</font></div></div><div class='respDivL'><div class='vertical-center'>(E)</div></div><div class='respDivR'><div class='vertical-center'><font style='color:orange'>(I)</font></div></div></div>","null","$46","$65","1","46","65",""
"html-keyboard-response","97","83114","0.0-5.0-1.31","5adfcb03f6b58c0001fa9083","bdp_rd","Tue Mar 28 2023 09:17:53 GMT-0600 (Mountain Daylight Time)","138565","","null","","","","FIX","","<div class='trialBorder'><div class='vertical-center'><img style='vertical-align:center; align:center' src=img/fixation3.jpg></div></div>","null","","","","","",""
"html-keyboard-response","98","83941","0.0-5.0-2.31","5adfcb03f6b58c0001fa9083","bdp_rd","Tue Mar 28 2023 09:17:53 GMT-0600 (Mountain Daylight Time)","138565","","825","","","","offer","","<div class='trialBorder'><div class='vertical-center'><img style='vertical-align:center; align:center' src=img/fixation3.jpg></div><div class='cl'><div class='vertical-center'>$31<br>for<br>sure</div></div><div class='cr'><div class='vertical-center'>$78<br>with a<br>50% chance</div></div><div class='respDivL'><div class='vertical-center'>(E)</div></div><div class='respDivR'><div class='vertical-center'>(I)</div></div></div>","E","$31","$78","0","31","78","SURE"
"html-keyboard-response","99","84192","0.0-5.0-3.31","5adfcb03f6b58c0001fa9083","bdp_rd","Tue Mar 28 2023 09:17:53 GMT-0600 (Mountain Daylight Time)","138565","","null","","","","offerFB","","<div class='trialBorder'><div class='vertical-center'><img style='vertical-align:center; align:center' src=img/fixation3.jpg></div><div class='cl'><div class='vertical-center'><font style='color:orange'>$31<br>for<br>sure</font></div></div><div class='cr'><div class='vertical-center'>$78<br>with a<br>50% chance</div></div><div class='respDivL'><div class='vertical-center'><font style='color:orange'>(E)</font></div></div><div class='respDivR'><div class='vertical-center'>(I)</div></div></div>","null","$31","$78","0","31","78",""
"html-keyboard-response","100","84694","0.0-5.0-1.32","5adfcb03f6b58c0001fa9083","bdp_rd","Tue Mar 28 2023 09:17:53 GMT-0600 (Mountain Daylight Time)","138565","","null","","","","FIX","","<div class='trialBorder'><div class='vertical-center'><img style='vertical-align:center; align:center' src=img/fixation3.jpg></div></div>","null","","","","","",""
"html-keyboard-response","101","85725","0.0-5.0-2.32","5adfcb03f6b58c0001fa9083","bdp_rd","Tue Mar 28 2023 09:17:53 GMT-0600 (Mountain Daylight Time)","138565","","1030","","","","offer","","<div class='trialBorder'><div class='vertical-center'><img style='vertical-align:center; align:center' src=img/fixation3.jpg></div><div class='cl'><div class='vertical-center'>$26<br>with a<br>50% chance</div></div><div class='cr'><div class='vertical-center'>$11<br>for<br>sure</div></div><div class='respDivL'><div class='vertical-center'>(E)</div></div><div class='respDivR'><div class='vertical-center'>(I)</div></div></div>","I","$11","$26","1","11","26","SURE"
"html-keyboard-response","102","85977","0.0-5.0-3.32","5adfcb03f6b58c0001fa9083","bdp_rd","Tue Mar 28 2023 09:17:53 GMT-0600 (Mountain Daylight Time)","138565","","null","","","","offerFB","","<div class='trialBorder'><div class='vertical-center'><img style='vertical-align:center; align:center' src=img/fixation3.jpg></div><div class='cl'><div class='vertical-center'>$26<br>with a<br>50% chance</div></div><div class='cr'><div class='vertical-center'><font style='color:orange'>$11<br>for<br>sure</font></div></div><div class='respDivL'><div class='vertical-center'>(E)</div></div><div class='respDivR'><div class='vertical-center'><font style='color:orange'>(I)</font></div></div></div>","null","$11","$26","1","11","26",""
"html-keyboard-response","103","86479","0.0-5.0-1.33","5adfcb03f6b58c0001fa9083","bdp_rd","Tue Mar 28 2023 09:17:53 GMT-0600 (Mountain Daylight Time)","138565","","null","","","","FIX","","<div class='trialBorder'><div class='vertical-center'><img style='vertical-align:center; align:center' src=img/fixation3.jpg></div></div>","null","","","","","",""
"html-keyboard-response","104","87728","0.0-5.0-2.33","5adfcb03f6b58c0001fa9083","bdp_rd","Tue Mar 28 2023 09:17:53 GMT-0600 (Mountain Daylight Time)","138565","","1247","","","","offer","","<div class='trialBorder'><div class='vertical-center'><img style='vertical-align:center; align:center' src=img/fixation3.jpg></div><div class='cl'><div class='vertical-center'>$37<br>for<br>sure</div></div><div class='cr'><div class='vertical-center'>$44<br>with a<br>50% chance</div></div><div class='respDivL'><div class='vertical-center'>(E)</div></div><div class='respDivR'><div class='vertical-center'>(I)</div></div></div>","E","$37","$44","0","37","44","SURE"
"html-keyboard-response","105","87980","0.0-5.0-3.33","5adfcb03f6b58c0001fa9083","bdp_rd","Tue Mar 28 2023 09:17:53 GMT-0600 (Mountain Daylight Time)","138565","","null","","","","offerFB","","<div class='trialBorder'><div class='vertical-center'><img style='vertical-align:center; align:center' src=img/fixation3.jpg></div><div class='cl'><div class='vertical-center'><font style='color:orange'>$37<br>for<br>sure</font></div></div><div class='cr'><div class='vertical-center'>$44<br>with a<br>50% chance</div></div><div class='respDivL'><div class='vertical-center'><font style='color:orange'>(E)</font></div></div><div class='respDivR'><div class='vertical-center'>(I)</div></div></div>","null","$37","$44","0","37","44",""
"html-keyboard-response","106","88483","0.0-5.0-1.34","5adfcb03f6b58c0001fa9083","bdp_rd","Tue Mar 28 2023 09:17:53 GMT-0600 (Mountain Daylight Time)","138565","","null","","","","FIX","","<div class='trialBorder'><div class='vertical-center'><img style='vertical-align:center; align:center' src=img/fixation3.jpg></div></div>","null","","","","","",""
"html-keyboard-response","107","89508","0.0-5.0-2.34","5adfcb03f6b58c0001fa9083","bdp_rd","Tue Mar 28 2023 09:17:53 GMT-0600 (Mountain Daylight Time)","138565","","1023","","","","offer","","<div class='trialBorder'><div class='vertical-center'><img style='vertical-align:center; align:center' src=img/fixation3.jpg></div><div class='cl'><div class='vertical-center'>$13<br>with a<br>50% chance</div></div><div class='cr'><div class='vertical-center'>$6<br>for<br>sure</div></div><div class='respDivL'><div class='vertical-center'>(E)</div></div><div class='respDivR'><div class='vertical-center'>(I)</div></div></div>","I","$6","$13","1","6","13","SURE"
"html-keyboard-response","108","89759","0.0-5.0-3.34","5adfcb03f6b58c0001fa9083","bdp_rd","Tue Mar 28 2023 09:17:53 GMT-0600 (Mountain Daylight Time)","138565","","null","","","","offerFB","","<div class='trialBorder'><div class='vertical-center'><img style='vertical-align:center; align:center' src=img/fixation3.jpg></div><div class='cl'><div class='vertical-center'>$13<br>with a<br>50% chance</div></div><div class='cr'><div class='vertical-center'><font style='color:orange'>$6<br>for<br>sure</font></div></div><div class='respDivL'><div class='vertical-center'>(E)</div></div><div class='respDivR'><div class='vertical-center'><font style='color:orange'>(I)</font></div></div></div>","null","$6","$13","1","6","13",""
"html-keyboard-response","109","90261","0.0-5.0-1.35","5adfcb03f6b58c0001fa9083","bdp_rd","Tue Mar 28 2023 09:17:53 GMT-0600 (Mountain Daylight Time)","138565","","null","","","","FIX","","<div class='trialBorder'><div class='vertical-center'><img style='vertical-align:center; align:center' src=img/fixation3.jpg></div></div>","null","","","","","",""
"html-keyboard-response","110","91525","0.0-5.0-2.35","5adfcb03f6b58c0001fa9083","bdp_rd","Tue Mar 28 2023 09:17:53 GMT-0600 (Mountain Daylight Time)","138565","","1263","","","","offer","","<div class='trialBorder'><div class='vertical-center'><img style='vertical-align:center; align:center' src=img/fixation3.jpg></div><div class='cl'><div class='vertical-center'>$26<br>for<br>sure</div></div><div class='cr'><div class='vertical-center'>$92<br>with a<br>50% chance</div></div><div class='respDivL'><div class='vertical-center'>(E)</div></div><div class='respDivR'><div class='vertical-center'>(I)</div></div></div>","I","$26","$92","0","26","92","RISKY"
"html-keyboard-response","111","91777","0.0-5.0-3.35","5adfcb03f6b58c0001fa9083","bdp_rd","Tue Mar 28 2023 09:17:53 GMT-0600 (Mountain Daylight Time)","138565","","null","","","","offerFB","","<div class='trialBorder'><div class='vertical-center'><img style='vertical-align:center; align:center' src=img/fixation3.jpg></div><div class='cl'><div class='vertical-center'>$26<br>for<br>sure</div></div><div class='cr'><div class='vertical-center'><font style='color:orange'>$92<br>with a<br>50% chance</font></div></div><div class='respDivL'><div class='vertical-center'>(E)</div></div><div class='respDivR'><div class='vertical-center'><font style='color:orange'>(I)</font></div></div></div>","null","$26","$92","0","26","92",""
"html-keyboard-response","112","92280","0.0-5.0-1.36","5adfcb03f6b58c0001fa9083","bdp_rd","Tue Mar 28 2023 09:17:53 GMT-0600 (Mountain Daylight Time)","138565","","null","","","","FIX","","<div class='trialBorder'><div class='vertical-center'><img style='vertical-align:center; align:center' src=img/fixation3.jpg></div></div>","null","","","","","",""
"html-keyboard-response","113","93737","0.0-5.0-2.36","5adfcb03f6b58c0001fa9083","bdp_rd","Tue Mar 28 2023 09:17:53 GMT-0600 (Mountain Daylight Time)","138565","","1456","","","","offer","","<div class='trialBorder'><div class='vertical-center'><img style='vertical-align:center; align:center' src=img/fixation3.jpg></div><div class='cl'><div class='vertical-center'>$4<br>for<br>sure</div></div><div class='cr'><div class='vertical-center'>$14<br>with a<br>50% chance</div></div><div class='respDivL'><div class='vertical-center'>(E)</div></div><div class='respDivR'><div class='vertical-center'>(I)</div></div></div>","E","$4","$14","0","4","14","SURE"
"html-keyboard-response","114","93989","0.0-5.0-3.36","5adfcb03f6b58c0001fa9083","bdp_rd","Tue Mar 28 2023 09:17:53 GMT-0600 (Mountain Daylight Time)","138565","","null","","","","offerFB","","<div class='trialBorder'><div class='vertical-center'><img style='vertical-align:center; align:center' src=img/fixation3.jpg></div><div class='cl'><div class='vertical-center'><font style='color:orange'>$4<br>for<br>sure</font></div></div><div class='cr'><div class='vertical-center'>$14<br>with a<br>50% chance</div></div><div class='respDivL'><div class='vertical-center'><font style='color:orange'>(E)</font></div></div><div class='respDivR'><div class='vertical-center'>(I)</div></div></div>","null","$4","$14","0","4","14",""
"html-keyboard-response","115","94491","0.0-5.0-1.37","5adfcb03f6b58c0001fa9083","bdp_rd","Tue Mar 28 2023 09:17:53 GMT-0600 (Mountain Daylight Time)","138565","","null","","","","FIX","","<div class='trialBorder'><div class='vertical-center'><img style='vertical-align:center; align:center' src=img/fixation3.jpg></div></div>","null","","","","","",""
"html-keyboard-response","116","95777","0.0-5.0-2.37","5adfcb03f6b58c0001fa9083","bdp_rd","Tue Mar 28 2023 09:17:53 GMT-0600 (Mountain Daylight Time)","138565","","1284","","","","offer","","<div class='trialBorder'><div class='vertical-center'><img style='vertical-align:center; align:center' src=img/fixation3.jpg></div><div class='cl'><div class='vertical-center'>$98<br>with a<br>50% chance</div></div><div class='cr'><div class='vertical-center'>$53<br>for<br>sure</div></div><div class='respDivL'><div class='vertical-center'>(E)</div></div><div class='respDivR'><div class='vertical-center'>(I)</div></div></div>","E","$53","$98","1","53","98","RISKY"
"html-keyboard-response","117","96029","0.0-5.0-3.37","5adfcb03f6b58c0001fa9083","bdp_rd","Tue Mar 28 2023 09:17:53 GMT-0600 (Mountain Daylight Time)","138565","","null","","","","offerFB","","<div class='trialBorder'><div class='vertical-center'><img style='vertical-align:center; align:center' src=img/fixation3.jpg></div><div class='cl'><div class='vertical-center'><font style='color:orange'>$98<br>with a<br>50% chance</font></div></div><div class='cr'><div class='vertical-center'>$53<br>for<br>sure</div></div><div class='respDivL'><div class='vertical-center'><font style='color:orange'>(E)</font></div></div><div class='respDivR'><div class='vertical-center'>(I)</div></div></div>","null","$53","$98","1","53","98",""
"html-keyboard-response","118","96530","0.0-5.0-1.38","5adfcb03f6b58c0001fa9083","bdp_rd","Tue Mar 28 2023 09:17:53 GMT-0600 (Mountain Daylight Time)","138565","","null","","","","FIX","","<div class='trialBorder'><div class='vertical-center'><img style='vertical-align:center; align:center' src=img/fixation3.jpg></div></div>","null","","","","","",""
"html-keyboard-response","119","97842","0.0-5.0-2.38","5adfcb03f6b58c0001fa9083","bdp_rd","Tue Mar 28 2023 09:17:53 GMT-0600 (Mountain Daylight Time)","138565","","1310","","","","offer","","<div class='trialBorder'><div class='vertical-center'><img style='vertical-align:center; align:center' src=img/fixation3.jpg></div><div class='cl'><div class='vertical-center'>$19<br>with a<br>50% chance</div></div><div class='cr'><div class='vertical-center'>$10<br>for<br>sure</div></div><div class='respDivL'><div class='vertical-center'>(E)</div></div><div class='respDivR'><div class='vertical-center'>(I)</div></div></div>","I","$10","$19","1","10","19","SURE"
"html-keyboard-response","120","98093","0.0-5.0-3.38","5adfcb03f6b58c0001fa9083","bdp_rd","Tue Mar 28 2023 09:17:53 GMT-0600 (Mountain Daylight Time)","138565","","null","","","","offerFB","","<div class='trialBorder'><div class='vertical-center'><img style='vertical-align:center; align:center' src=img/fixation3.jpg></div><div class='cl'><div class='vertical-center'>$19<br>with a<br>50% chance</div></div><div class='cr'><div class='vertical-center'><font style='color:orange'>$10<br>for<br>sure</font></div></div><div class='respDivL'><div class='vertical-center'>(E)</div></div><div class='respDivR'><div class='vertical-center'><font style='color:orange'>(I)</font></div></div></div>","null","$10","$19","1","10","19",""
"html-keyboard-response","121","98595","0.0-5.0-1.39","5adfcb03f6b58c0001fa9083","bdp_rd","Tue Mar 28 2023 09:17:53 GMT-0600 (Mountain Daylight Time)","138565","","null","","","","FIX","","<div class='trialBorder'><div class='vertical-center'><img style='vertical-align:center; align:center' src=img/fixation3.jpg></div></div>","null","","","","","",""
"html-keyboard-response","122","99612","0.0-5.0-2.39","5adfcb03f6b58c0001fa9083","bdp_rd","Tue Mar 28 2023 09:17:53 GMT-0600 (Mountain Daylight Time)","138565","","1016","","","","offer","","<div class='trialBorder'><div class='vertical-center'><img style='vertical-align:center; align:center' src=img/fixation3.jpg></div><div class='cl'><div class='vertical-center'>$86<br>with a<br>50% chance</div></div><div class='cr'><div class='vertical-center'>$45<br>for<br>sure</div></div><div class='respDivL'><div class='vertical-center'>(E)</div></div><div class='respDivR'><div class='vertical-center'>(I)</div></div></div>","E","$45","$86","1","45","86","RISKY"
"html-keyboard-response","123","99865","0.0-5.0-3.39","5adfcb03f6b58c0001fa9083","bdp_rd","Tue Mar 28 2023 09:17:53 GMT-0600 (Mountain Daylight Time)","138565","","null","","","","offerFB","","<div class='trialBorder'><div class='vertical-center'><img style='vertical-align:center; align:center' src=img/fixation3.jpg></div><div class='cl'><div class='vertical-center'><font style='color:orange'>$86<br>with a<br>50% chance</font></div></div><div class='cr'><div class='vertical-center'>$45<br>for<br>sure</div></div><div class='respDivL'><div class='vertical-center'><font style='color:orange'>(E)</font></div></div><div class='respDivR'><div class='vertical-center'>(I)</div></div></div>","null","$45","$86","1","45","86",""
"html-keyboard-response","124","100366","0.0-5.0-1.40","5adfcb03f6b58c0001fa9083","bdp_rd","Tue Mar 28 2023 09:17:53 GMT-0600 (Mountain Daylight Time)","138565","","null","","","","FIX","","<div class='trialBorder'><div class='vertical-center'><img style='vertical-align:center; align:center' src=img/fixation3.jpg></div></div>","null","","","","","",""
"html-keyboard-response","125","101587","0.0-5.0-2.40","5adfcb03f6b58c0001fa9083","bdp_rd","Tue Mar 28 2023 09:17:53 GMT-0600 (Mountain Daylight Time)","138565","","1219","","","","offer","","<div class='trialBorder'><div class='vertical-center'><img style='vertical-align:center; align:center' src=img/fixation3.jpg></div><div class='cl'><div class='vertical-center'>$12<br>for<br>sure</div></div><div class='cr'><div class='vertical-center'>$35<br>with a<br>50% chance</div></div><div class='respDivL'><div class='vertical-center'>(E)</div></div><div class='respDivR'><div class='vertical-center'>(I)</div></div></div>","I","$12","$35","0","12","35","RISKY"
"html-keyboard-response","126","101839","0.0-5.0-3.40","5adfcb03f6b58c0001fa9083","bdp_rd","Tue Mar 28 2023 09:17:53 GMT-0600 (Mountain Daylight Time)","138565","","null","","","","offerFB","","<div class='trialBorder'><div class='vertical-center'><img style='vertical-align:center; align:center' src=img/fixation3.jpg></div><div class='cl'><div class='vertical-center'>$12<br>for<br>sure</div></div><div class='cr'><div class='vertical-center'><font style='color:orange'>$35<br>with a<br>50% chance</font></div></div><div class='respDivL'><div class='vertical-center'>(E)</div></div><div class='respDivR'><div class='vertical-center'><font style='color:orange'>(I)</font></div></div></div>","null","$12","$35","0","12","35",""
"html-keyboard-response","127","102341","0.0-5.0-1.41","5adfcb03f6b58c0001fa9083","bdp_rd","Tue Mar 28 2023 09:17:53 GMT-0600 (Mountain Daylight Time)","138565","","null","","","","FIX","","<div class='trialBorder'><div class='vertical-center'><img style='vertical-align:center; align:center' src=img/fixation3.jpg></div></div>","null","","","","","",""
"html-keyboard-response","128","103372","0.0-5.0-2.41","5adfcb03f6b58c0001fa9083","bdp_rd","Tue Mar 28 2023 09:17:53 GMT-0600 (Mountain Daylight Time)","138565","","1030","","","","offer","","<div class='trialBorder'><div class='vertical-center'><img style='vertical-align:center; align:center' src=img/fixation3.jpg></div><div class='cl'><div class='vertical-center'>$22<br>with a<br>50% chance</div></div><div class='cr'><div class='vertical-center'>$14<br>for<br>sure</div></div><div class='respDivL'><div class='vertical-center'>(E)</div></div><div class='respDivR'><div class='vertical-center'>(I)</div></div></div>","I","$14","$22","1","14","22","SURE"
"html-keyboard-response","129","103625","0.0-5.0-3.41","5adfcb03f6b58c0001fa9083","bdp_rd","Tue Mar 28 2023 09:17:53 GMT-0600 (Mountain Daylight Time)","138565","","null","","","","offerFB","","<div class='trialBorder'><div class='vertical-center'><img style='vertical-align:center; align:center' src=img/fixation3.jpg></div><div class='cl'><div class='vertical-center'>$22<br>with a<br>50% chance</div></div><div class='cr'><div class='vertical-center'><font style='color:orange'>$14<br>for<br>sure</font></div></div><div class='respDivL'><div class='vertical-center'>(E)</div></div><div class='respDivR'><div class='vertical-center'><font style='color:orange'>(I)</font></div></div></div>","null","$14","$22","1","14","22",""
"html-keyboard-response","130","104126","0.0-5.0-1.42","5adfcb03f6b58c0001fa9083","bdp_rd","Tue Mar 28 2023 09:17:53 GMT-0600 (Mountain Daylight Time)","138565","","null","","","","FIX","","<div class='trialBorder'><div class='vertical-center'><img style='vertical-align:center; align:center' src=img/fixation3.jpg></div></div>","null","","","","","",""
"html-keyboard-response","131","105070","0.0-5.0-2.42","5adfcb03f6b58c0001fa9083","bdp_rd","Tue Mar 28 2023 09:17:53 GMT-0600 (Mountain Daylight Time)","138565","","942","","","","offer","","<div class='trialBorder'><div class='vertical-center'><img style='vertical-align:center; align:center' src=img/fixation3.jpg></div><div class='cl'><div class='vertical-center'>$10<br>with a<br>50% chance</div></div><div class='cr'><div class='vertical-center'>$7<br>for<br>sure</div></div><div class='respDivL'><div class='vertical-center'>(E)</div></div><div class='respDivR'><div class='vertical-center'>(I)</div></div></div>","I","$7","$10","1","7","10","SURE"
"html-keyboard-response","132","105322","0.0-5.0-3.42","5adfcb03f6b58c0001fa9083","bdp_rd","Tue Mar 28 2023 09:17:53 GMT-0600 (Mountain Daylight Time)","138565","","null","","","","offerFB","","<div class='trialBorder'><div class='vertical-center'><img style='vertical-align:center; align:center' src=img/fixation3.jpg></div><div class='cl'><div class='vertical-center'>$10<br>with a<br>50% chance</div></div><div class='cr'><div class='vertical-center'><font style='color:orange'>$7<br>for<br>sure</font></div></div><div class='respDivL'><div class='vertical-center'>(E)</div></div><div class='respDivR'><div class='vertical-center'><font style='color:orange'>(I)</font></div></div></div>","null","$7","$10","1","7","10",""
"html-keyboard-response","133","105824","0.0-5.0-1.43","5adfcb03f6b58c0001fa9083","bdp_rd","Tue Mar 28 2023 09:17:53 GMT-0600 (Mountain Daylight Time)","138565","","null","","","","FIX","","<div class='trialBorder'><div class='vertical-center'><img style='vertical-align:center; align:center' src=img/fixation3.jpg></div></div>","null","","","","","",""
"html-keyboard-response","134","107188","0.0-5.0-2.43","5adfcb03f6b58c0001fa9083","bdp_rd","Tue Mar 28 2023 09:17:53 GMT-0600 (Mountain Daylight Time)","138565","","1363","","","","offer","","<div class='trialBorder'><div class='vertical-center'><img style='vertical-align:center; align:center' src=img/fixation3.jpg></div><div class='cl'><div class='vertical-center'>$17<br>with a<br>50% chance</div></div><div class='cr'><div class='vertical-center'>$3<br>for<br>sure</div></div><div class='respDivL'><div class='vertical-center'>(E)</div></div><div class='respDivR'><div class='vertical-center'>(I)</div></div></div>","E","$3","$17","1","3","17","RISKY"
"html-keyboard-response","135","107441","0.0-5.0-3.43","5adfcb03f6b58c0001fa9083","bdp_rd","Tue Mar 28 2023 09:17:53 GMT-0600 (Mountain Daylight Time)","138565","","null","","","","offerFB","","<div class='trialBorder'><div class='vertical-center'><img style='vertical-align:center; align:center' src=img/fixation3.jpg></div><div class='cl'><div class='vertical-center'><font style='color:orange'>$17<br>with a<br>50% chance</font></div></div><div class='cr'><div class='vertical-center'>$3<br>for<br>sure</div></div><div class='respDivL'><div class='vertical-center'><font style='color:orange'>(E)</font></div></div><div class='respDivR'><div class='vertical-center'>(I)</div></div></div>","null","$3","$17","1","3","17",""
"html-keyboard-response","136","107944","0.0-5.0-1.44","5adfcb03f6b58c0001fa9083","bdp_rd","Tue Mar 28 2023 09:17:53 GMT-0600 (Mountain Daylight Time)","138565","","null","","","","FIX","","<div class='trialBorder'><div class='vertical-center'><img style='vertical-align:center; align:center' src=img/fixation3.jpg></div></div>","null","","","","","",""
"html-keyboard-response","137","109106","0.0-5.0-2.44","5adfcb03f6b58c0001fa9083","bdp_rd","Tue Mar 28 2023 09:17:53 GMT-0600 (Mountain Daylight Time)","138565","","1161","","","","offer","","<div class='trialBorder'><div class='vertical-center'><img style='vertical-align:center; align:center' src=img/fixation3.jpg></div><div class='cl'><div class='vertical-center'>$20<br>for<br>sure</div></div><div class='cr'><div class='vertical-center'>$80<br>with a<br>50% chance</div></div><div class='respDivL'><div class='vertical-center'>(E)</div></div><div class='respDivR'><div class='vertical-center'>(I)</div></div></div>","I","$20","$80","0","20","80","RISKY"
"html-keyboard-response","138","109358","0.0-5.0-3.44","5adfcb03f6b58c0001fa9083","bdp_rd","Tue Mar 28 2023 09:17:53 GMT-0600 (Mountain Daylight Time)","138565","","null","","","","offerFB","","<div class='trialBorder'><div class='vertical-center'><img style='vertical-align:center; align:center' src=img/fixation3.jpg></div><div class='cl'><div class='vertical-center'>$20<br>for<br>sure</div></div><div class='cr'><div class='vertical-center'><font style='color:orange'>$80<br>with a<br>50% chance</font></div></div><div class='respDivL'><div class='vertical-center'>(E)</div></div><div class='respDivR'><div class='vertical-center'><font style='color:orange'>(I)</font></div></div></div>","null","$20","$80","0","20","80",""
"html-keyboard-response","139","109860","0.0-5.0-1.45","5adfcb03f6b58c0001fa9083","bdp_rd","Tue Mar 28 2023 09:17:53 GMT-0600 (Mountain Daylight Time)","138565","","null","","","","FIX","","<div class='trialBorder'><div class='vertical-center'><img style='vertical-align:center; align:center' src=img/fixation3.jpg></div></div>","null","","","","","",""
"html-keyboard-response","140","110822","0.0-5.0-2.45","5adfcb03f6b58c0001fa9083","bdp_rd","Tue Mar 28 2023 09:17:53 GMT-0600 (Mountain Daylight Time)","138565","","961","","","","offer","","<div class='trialBorder'><div class='vertical-center'><img style='vertical-align:center; align:center' src=img/fixation3.jpg></div><div class='cl'><div class='vertical-center'>$2<br>for<br>sure</div></div><div class='cr'><div class='vertical-center'>$64<br>with a<br>50% chance</div></div><div class='respDivL'><div class='vertical-center'>(E)</div></div><div class='respDivR'><div class='vertical-center'>(I)</div></div></div>","I","$2","$64","0","2","64","RISKY"
"html-keyboard-response","141","111075","0.0-5.0-3.45","5adfcb03f6b58c0001fa9083","bdp_rd","Tue Mar 28 2023 09:17:53 GMT-0600 (Mountain Daylight Time)","138565","","null","","","","offerFB","","<div class='trialBorder'><div class='vertical-center'><img style='vertical-align:center; align:center' src=img/fixation3.jpg></div><div class='cl'><div class='vertical-center'>$2<br>for<br>sure</div></div><div class='cr'><div class='vertical-center'><font style='color:orange'>$64<br>with a<br>50% chance</font></div></div><div class='respDivL'><div class='vertical-center'>(E)</div></div><div class='respDivR'><div class='vertical-center'><font style='color:orange'>(I)</font></div></div></div>","null","$2","$64","0","2","64",""
"html-keyboard-response","142","111578","0.0-5.0-1.46","5adfcb03f6b58c0001fa9083","bdp_rd","Tue Mar 28 2023 09:17:53 GMT-0600 (Mountain Daylight Time)","138565","","null","","","","FIX","","<div class='trialBorder'><div class='vertical-center'><img style='vertical-align:center; align:center' src=img/fixation3.jpg></div></div>","null","","","","","",""
"html-keyboard-response","143","113098","0.0-5.0-2.46","5adfcb03f6b58c0001fa9083","bdp_rd","Tue Mar 28 2023 09:17:53 GMT-0600 (Mountain Daylight Time)","138565","","1518","","","","offer","","<div class='trialBorder'><div class='vertical-center'><img style='vertical-align:center; align:center' src=img/fixation3.jpg></div><div class='cl'><div class='vertical-center'>$16<br>for<br>sure</div></div><div class='cr'><div class='vertical-center'>$28<br>with a<br>50% chance</div></div><div class='respDivL'><div class='vertical-center'>(E)</div></div><div class='respDivR'><div class='vertical-center'>(I)</div></div></div>","I","$16","$28","0","16","28","RISKY"
"html-keyboard-response","144","113349","0.0-5.0-3.46","5adfcb03f6b58c0001fa9083","bdp_rd","Tue Mar 28 2023 09:17:53 GMT-0600 (Mountain Daylight Time)","138565","","null","","","","offerFB","","<div class='trialBorder'><div class='vertical-center'><img style='vertical-align:center; align:center' src=img/fixation3.jpg></div><div class='cl'><div class='vertical-center'>$16<br>for<br>sure</div></div><div class='cr'><div class='vertical-center'><font style='color:orange'>$28<br>with a<br>50% chance</font></div></div><div class='respDivL'><div class='vertical-center'>(E)</div></div><div class='respDivR'><div class='vertical-center'><font style='color:orange'>(I)</font></div></div></div>","null","$16","$28","0","16","28",""
"html-keyboard-response","145","113852","0.0-5.0-1.47","5adfcb03f6b58c0001fa9083","bdp_rd","Tue Mar 28 2023 09:17:53 GMT-0600 (Mountain Daylight Time)","138565","","null","","","","FIX","","<div class='trialBorder'><div class='vertical-center'><img style='vertical-align:center; align:center' src=img/fixation3.jpg></div></div>","null","","","","","",""
"html-keyboard-response","146","114791","0.0-5.0-2.47","5adfcb03f6b58c0001fa9083","bdp_rd","Tue Mar 28 2023 09:17:53 GMT-0600 (Mountain Daylight Time)","138565","","938","","","","offer","","<div class='trialBorder'><div class='vertical-center'><img style='vertical-align:center; align:center' src=img/fixation3.jpg></div><div class='cl'><div class='vertical-center'>$41<br>with a<br>50% chance</div></div><div class='cr'><div class='vertical-center'>$13<br>for<br>sure</div></div><div class='respDivL'><div class='vertical-center'>(E)</div></div><div class='respDivR'><div class='vertical-center'>(I)</div></div></div>","E","$13","$41","1","13","41","RISKY"
"html-keyboard-response","147","115044","0.0-5.0-3.47","5adfcb03f6b58c0001fa9083","bdp_rd","Tue Mar 28 2023 09:17:53 GMT-0600 (Mountain Daylight Time)","138565","","null","","","","offerFB","","<div class='trialBorder'><div class='vertical-center'><img style='vertical-align:center; align:center' src=img/fixation3.jpg></div><div class='cl'><div class='vertical-center'><font style='color:orange'>$41<br>with a<br>50% chance</font></div></div><div class='cr'><div class='vertical-center'>$13<br>for<br>sure</div></div><div class='respDivL'><div class='vertical-center'><font style='color:orange'>(E)</font></div></div><div class='respDivR'><div class='vertical-center'>(I)</div></div></div>","null","$13","$41","1","13","41",""
"html-keyboard-response","148","115545","0.0-5.0-1.48","5adfcb03f6b58c0001fa9083","bdp_rd","Tue Mar 28 2023 09:17:53 GMT-0600 (Mountain Daylight Time)","138565","","null","","","","FIX","","<div class='trialBorder'><div class='vertical-center'><img style='vertical-align:center; align:center' src=img/fixation3.jpg></div></div>","null","","","","","",""
"html-keyboard-response","149","116383","0.0-5.0-2.48","5adfcb03f6b58c0001fa9083","bdp_rd","Tue Mar 28 2023 09:17:53 GMT-0600 (Mountain Daylight Time)","138565","","837","","","","offer","","<div class='trialBorder'><div class='vertical-center'><img style='vertical-align:center; align:center' src=img/fixation3.jpg></div><div class='cl'><div class='vertical-center'>$14<br>for<br>sure</div></div><div class='cr'><div class='vertical-center'>$29<br>with a<br>50% chance</div></div><div class='respDivL'><div class='vertical-center'>(E)</div></div><div class='respDivR'><div class='vertical-center'>(I)</div></div></div>","I","$14","$29","0","14","29","RISKY"
"html-keyboard-response","150","116636","0.0-5.0-3.48","5adfcb03f6b58c0001fa9083","bdp_rd","Tue Mar 28 2023 09:17:53 GMT-0600 (Mountain Daylight Time)","138565","","null","","","","offerFB","","<div class='trialBorder'><div class='vertical-center'><img style='vertical-align:center; align:center' src=img/fixation3.jpg></div><div class='cl'><div class='vertical-center'>$14<br>for<br>sure</div></div><div class='cr'><div class='vertical-center'><font style='color:orange'>$29<br>with a<br>50% chance</font></div></div><div class='respDivL'><div class='vertical-center'>(E)</div></div><div class='respDivR'><div class='vertical-center'><font style='color:orange'>(I)</font></div></div></div>","null","$14","$29","0","14","29",""
"html-keyboard-response","151","117137","0.0-5.0-1.49","5adfcb03f6b58c0001fa9083","bdp_rd","Tue Mar 28 2023 09:17:53 GMT-0600 (Mountain Daylight Time)","138565","","null","","","","FIX","","<div class='trialBorder'><div class='vertical-center'><img style='vertical-align:center; align:center' src=img/fixation3.jpg></div></div>","null","","","","","",""
"html-keyboard-response","152","118302","0.0-5.0-2.49","5adfcb03f6b58c0001fa9083","bdp_rd","Tue Mar 28 2023 09:17:53 GMT-0600 (Mountain Daylight Time)","138565","","1164","","","","offer","","<div class='trialBorder'><div class='vertical-center'><img style='vertical-align:center; align:center' src=img/fixation3.jpg></div><div class='cl'><div class='vertical-center'>$15<br>with a<br>50% chance</div></div><div class='cr'><div class='vertical-center'>$6<br>for<br>sure</div></div><div class='respDivL'><div class='vertical-center'>(E)</div></div><div class='respDivR'><div class='vertical-center'>(I)</div></div></div>","E","$6","$15","1","6","15","RISKY"
"html-keyboard-response","153","118555","0.0-5.0-3.49","5adfcb03f6b58c0001fa9083","bdp_rd","Tue Mar 28 2023 09:17:53 GMT-0600 (Mountain Daylight Time)","138565","","null","","","","offerFB","","<div class='trialBorder'><div class='vertical-center'><img style='vertical-align:center; align:center' src=img/fixation3.jpg></div><div class='cl'><div class='vertical-center'><font style='color:orange'>$15<br>with a<br>50% chance</font></div></div><div class='cr'><div class='vertical-center'>$6<br>for<br>sure</div></div><div class='respDivL'><div class='vertical-center'><font style='color:orange'>(E)</font></div></div><div class='respDivR'><div class='vertical-center'>(I)</div></div></div>","null","$6","$15","1","6","15",""
"html-keyboard-response","154","119056","0.0-5.0-1.50","5adfcb03f6b58c0001fa9083","bdp_rd","Tue Mar 28 2023 09:17:53 GMT-0600 (Mountain Daylight Time)","138565","","null","","","","FIX","","<div class='trialBorder'><div class='vertical-center'><img style='vertical-align:center; align:center' src=img/fixation3.jpg></div></div>","null","","","","","",""
"html-keyboard-response","155","120133","0.0-5.0-2.50","5adfcb03f6b58c0001fa9083","bdp_rd","Tue Mar 28 2023 09:17:53 GMT-0600 (Mountain Daylight Time)","138565","","1076","","","","offer","","<div class='trialBorder'><div class='vertical-center'><img style='vertical-align:center; align:center' src=img/fixation3.jpg></div><div class='cl'><div class='vertical-center'>$21<br>with a<br>50% chance</div></div><div class='cr'><div class='vertical-center'>$2<br>for<br>sure</div></div><div class='respDivL'><div class='vertical-center'>(E)</div></div><div class='respDivR'><div class='vertical-center'>(I)</div></div></div>","I","$2","$21","1","2","21","SURE"
"html-keyboard-response","156","120385","0.0-5.0-3.50","5adfcb03f6b58c0001fa9083","bdp_rd","Tue Mar 28 2023 09:17:53 GMT-0600 (Mountain Daylight Time)","138565","","null","","","","offerFB","","<div class='trialBorder'><div class='vertical-center'><img style='vertical-align:center; align:center' src=img/fixation3.jpg></div><div class='cl'><div class='vertical-center'>$21<br>with a<br>50% chance</div></div><div class='cr'><div class='vertical-center'><font style='color:orange'>$2<br>for<br>sure</font></div></div><div class='respDivL'><div class='vertical-center'>(E)</div></div><div class='respDivR'><div class='vertical-center'><font style='color:orange'>(I)</font></div></div></div>","null","$2","$21","1","2","21",""
"html-keyboard-response","157","120887","0.0-5.0-1.51","5adfcb03f6b58c0001fa9083","bdp_rd","Tue Mar 28 2023 09:17:53 GMT-0600 (Mountain Daylight Time)","138565","","null","","","","FIX","","<div class='trialBorder'><div class='vertical-center'><img style='vertical-align:center; align:center' src=img/fixation3.jpg></div></div>","null","","","","","",""
"html-keyboard-response","158","121989","0.0-5.0-2.51","5adfcb03f6b58c0001fa9083","bdp_rd","Tue Mar 28 2023 09:17:53 GMT-0600 (Mountain Daylight Time)","138565","","1101","","","","offer","","<div class='trialBorder'><div class='vertical-center'><img style='vertical-align:center; align:center' src=img/fixation3.jpg></div><div class='cl'><div class='vertical-center'>$7<br>for<br>sure</div></div><div class='cr'><div class='vertical-center'>$71<br>with a<br>50% chance</div></div><div class='respDivL'><div class='vertical-center'>(E)</div></div><div class='respDivR'><div class='vertical-center'>(I)</div></div></div>","I","$7","$71","0","7","71","RISKY"
"html-keyboard-response","159","122242","0.0-5.0-3.51","5adfcb03f6b58c0001fa9083","bdp_rd","Tue Mar 28 2023 09:17:53 GMT-0600 (Mountain Daylight Time)","138565","","null","","","","offerFB","","<div class='trialBorder'><div class='vertical-center'><img style='vertical-align:center; align:center' src=img/fixation3.jpg></div><div class='cl'><div class='vertical-center'>$7<br>for<br>sure</div></div><div class='cr'><div class='vertical-center'><font style='color:orange'>$71<br>with a<br>50% chance</font></div></div><div class='respDivL'><div class='vertical-center'>(E)</div></div><div class='respDivR'><div class='vertical-center'><font style='color:orange'>(I)</font></div></div></div>","null","$7","$71","0","7","71",""
"html-keyboard-response","160","122743","0.0-5.0-1.52","5adfcb03f6b58c0001fa9083","bdp_rd","Tue Mar 28 2023 09:17:53 GMT-0600 (Mountain Daylight Time)","138565","","null","","","","FIX","","<div class='trialBorder'><div class='vertical-center'><img style='vertical-align:center; align:center' src=img/fixation3.jpg></div></div>","null","","","","","",""
"html-keyboard-response","161","123919","0.0-5.0-2.52","5adfcb03f6b58c0001fa9083","bdp_rd","Tue Mar 28 2023 09:17:53 GMT-0600 (Mountain Daylight Time)","138565","","1175","","","","offer","","<div class='trialBorder'><div class='vertical-center'><img style='vertical-align:center; align:center' src=img/fixation3.jpg></div><div class='cl'><div class='vertical-center'>$13<br>for<br>sure</div></div><div class='cr'><div class='vertical-center'>$24<br>with a<br>50% chance</div></div><div class='respDivL'><div class='vertical-center'>(E)</div></div><div class='respDivR'><div class='vertical-center'>(I)</div></div></div>","I","$13","$24","0","13","24","RISKY"
"html-keyboard-response","162","124171","0.0-5.0-3.52","5adfcb03f6b58c0001fa9083","bdp_rd","Tue Mar 28 2023 09:17:53 GMT-0600 (Mountain Daylight Time)","138565","","null","","","","offerFB","","<div class='trialBorder'><div class='vertical-center'><img style='vertical-align:center; align:center' src=img/fixation3.jpg></div><div class='cl'><div class='vertical-center'>$13<br>for<br>sure</div></div><div class='cr'><div class='vertical-center'><font style='color:orange'>$24<br>with a<br>50% chance</font></div></div><div class='respDivL'><div class='vertical-center'>(E)</div></div><div class='respDivR'><div class='vertical-center'><font style='color:orange'>(I)</font></div></div></div>","null","$13","$24","0","13","24",""
"html-keyboard-response","163","124673","0.0-5.0-1.53","5adfcb03f6b58c0001fa9083","bdp_rd","Tue Mar 28 2023 09:17:53 GMT-0600 (Mountain Daylight Time)","138565","","null","","","","FIX","","<div class='trialBorder'><div class='vertical-center'><img style='vertical-align:center; align:center' src=img/fixation3.jpg></div></div>","null","","","","","",""
"html-keyboard-response","164","125781","0.0-5.0-2.53","5adfcb03f6b58c0001fa9083","bdp_rd","Tue Mar 28 2023 09:17:53 GMT-0600 (Mountain Daylight Time)","138565","","1107","","","","offer","","<div class='trialBorder'><div class='vertical-center'><img style='vertical-align:center; align:center' src=img/fixation3.jpg></div><div class='cl'><div class='vertical-center'>$11<br>for<br>sure</div></div><div class='cr'><div class='vertical-center'>$62<br>with a<br>50% chance</div></div><div class='respDivL'><div class='vertical-center'>(E)</div></div><div class='respDivR'><div class='vertical-center'>(I)</div></div></div>","I","$11","$62","0","11","62","RISKY"
"html-keyboard-response","165","126033","0.0-5.0-3.53","5adfcb03f6b58c0001fa9083","bdp_rd","Tue Mar 28 2023 09:17:53 GMT-0600 (Mountain Daylight Time)","138565","","null","","","","offerFB","","<div class='trialBorder'><div class='vertical-center'><img style='vertical-align:center; align:center' src=img/fixation3.jpg></div><div class='cl'><div class='vertical-center'>$11<br>for<br>sure</div></div><div class='cr'><div class='vertical-center'><font style='color:orange'>$62<br>with a<br>50% chance</font></div></div><div class='respDivL'><div class='vertical-center'>(E)</div></div><div class='respDivR'><div class='vertical-center'><font style='color:orange'>(I)</font></div></div></div>","null","$11","$62","0","11","62",""
"html-keyboard-response","166","126535","0.0-5.0-1.54","5adfcb03f6b58c0001fa9083","bdp_rd","Tue Mar 28 2023 09:17:53 GMT-0600 (Mountain Daylight Time)","138565","","null","","","","FIX","","<div class='trialBorder'><div class='vertical-center'><img style='vertical-align:center; align:center' src=img/fixation3.jpg></div></div>","null","","","","","",""
"html-keyboard-response","167","127693","0.0-5.0-2.54","5adfcb03f6b58c0001fa9083","bdp_rd","Tue Mar 28 2023 09:17:53 GMT-0600 (Mountain Daylight Time)","138565","","1156","","","","offer","","<div class='trialBorder'><div class='vertical-center'><img style='vertical-align:center; align:center' src=img/fixation3.jpg></div><div class='cl'><div class='vertical-center'>$30<br>with a<br>50% chance</div></div><div class='cr'><div class='vertical-center'>$1<br>for<br>sure</div></div><div class='respDivL'><div class='vertical-center'>(E)</div></div><div class='respDivR'><div class='vertical-center'>(I)</div></div></div>","E","$1","$30","1","1","30","RISKY"
"html-keyboard-response","168","127945","0.0-5.0-3.54","5adfcb03f6b58c0001fa9083","bdp_rd","Tue Mar 28 2023 09:17:53 GMT-0600 (Mountain Daylight Time)","138565","","null","","","","offerFB","","<div class='trialBorder'><div class='vertical-center'><img style='vertical-align:center; align:center' src=img/fixation3.jpg></div><div class='cl'><div class='vertical-center'><font style='color:orange'>$30<br>with a<br>50% chance</font></div></div><div class='cr'><div class='vertical-center'>$1<br>for<br>sure</div></div><div class='respDivL'><div class='vertical-center'><font style='color:orange'>(E)</font></div></div><div class='respDivR'><div class='vertical-center'>(I)</div></div></div>","null","$1","$30","1","1","30",""
"html-keyboard-response","169","128447","0.0-5.0-1.55","5adfcb03f6b58c0001fa9083","bdp_rd","Tue Mar 28 2023 09:17:53 GMT-0600 (Mountain Daylight Time)","138565","","null","","","","FIX","","<div class='trialBorder'><div class='vertical-center'><img style='vertical-align:center; align:center' src=img/fixation3.jpg></div></div>","null","","","","","",""
"html-keyboard-response","170","129386","0.0-5.0-2.55","5adfcb03f6b58c0001fa9083","bdp_rd","Tue Mar 28 2023 09:17:53 GMT-0600 (Mountain Daylight Time)","138565","","938","","","","offer","","<div class='trialBorder'><div class='vertical-center'><img style='vertical-align:center; align:center' src=img/fixation3.jpg></div><div class='cl'><div class='vertical-center'>$33<br>with a<br>50% chance</div></div><div class='cr'><div class='vertical-center'>$1<br>for<br>sure</div></div><div class='respDivL'><div class='vertical-center'>(E)</div></div><div class='respDivR'><div class='vertical-center'>(I)</div></div></div>","E","$1","$33","1","1","33","RISKY"
"html-keyboard-response","171","129638","0.0-5.0-3.55","5adfcb03f6b58c0001fa9083","bdp_rd","Tue Mar 28 2023 09:17:53 GMT-0600 (Mountain Daylight Time)","138565","","null","","","","offerFB","","<div class='trialBorder'><div class='vertical-center'><img style='vertical-align:center; align:center' src=img/fixation3.jpg></div><div class='cl'><div class='vertical-center'><font style='color:orange'>$33<br>with a<br>50% chance</font></div></div><div class='cr'><div class='vertical-center'>$1<br>for<br>sure</div></div><div class='respDivL'><div class='vertical-center'><font style='color:orange'>(E)</font></div></div><div class='respDivR'><div class='vertical-center'>(I)</div></div></div>","null","$1","$33","1","1","33",""
"html-keyboard-response","172","130141","0.0-5.0-1.56","5adfcb03f6b58c0001fa9083","bdp_rd","Tue Mar 28 2023 09:17:53 GMT-0600 (Mountain Daylight Time)","138565","","null","","","","FIX","","<div class='trialBorder'><div class='vertical-center'><img style='vertical-align:center; align:center' src=img/fixation3.jpg></div></div>","null","","","","","",""
"html-keyboard-response","173","131217","0.0-5.0-2.56","5adfcb03f6b58c0001fa9083","bdp_rd","Tue Mar 28 2023 09:17:53 GMT-0600 (Mountain Daylight Time)","138565","","1076","","","","offer","","<div class='trialBorder'><div class='vertical-center'><img style='vertical-align:center; align:center' src=img/fixation3.jpg></div><div class='cl'><div class='vertical-center'>$43<br>with a<br>50% chance</div></div><div class='cr'><div class='vertical-center'>$17<br>for<br>sure</div></div><div class='respDivL'><div class='vertical-center'>(E)</div></div><div class='respDivR'><div class='vertical-center'>(I)</div></div></div>","E","$17","$43","1","17","43","RISKY"
