"trial_type","trial_index","time_elapsed","internal_node_id","subject_id","task","startTime","totalTime","view_history","rt","event","trial","time","trialtype","success","stimulus","key_press","sureOffer","riskyOffer","riskyLeft","sureAmt","riskyAmt","chosen"
"pavlovia","0","10","0.0-0.0","5e7abb2c6c89e4000a180b4a","bdp_rd","Tue Mar 28 2023 15:39:09 GMT-0500 (Central Daylight Time)","313374","","","","","","","","","","","","","","",""
"instructions","1","14054","0.0-1.0","5e7abb2c6c89e4000a180b4a","bdp_rd","Tue Mar 28 2023 15:39:09 GMT-0500 (Central Daylight Time)","313374","[{""page_index"":0,""viewing_time"":14041}]","14041","","","","","","","","","","","","",""
"","","","","5e7abb2c6c89e4000a180b4a","bdp_rd","Tue Mar 28 2023 15:39:09 GMT-0500 (Central Daylight Time)","313374","","","fullscreenenter","2","41315","fullscreenenter","","","","","","","","",""
"fullscreen","2","42258","0.0-2.0","5e7abb2c6c89e4000a180b4a","bdp_rd","Tue Mar 28 2023 15:39:09 GMT-0500 (Central Daylight Time)","313374","","","","","","","true","","","","","","","",""
"instructions","3","120402","0.0-4.0","5e7abb2c6c89e4000a180b4a","bdp_rd","Tue Mar 28 2023 15:39:09 GMT-0500 (Central Daylight Time)","313374","[{""page_index"":0,""viewing_time"":34804},{""page_index"":1,""viewing_time"":35624},{""page_index"":2,""viewing_time"":7713}]","78142","","","","","","","","","","","","",""
"html-keyboard-response","4","120906","0.0-5.0-1.0","5e7abb2c6c89e4000a180b4a","bdp_rd","Tue Mar 28 2023 15:39:09 GMT-0500 (Central Daylight Time)","313374","","null","","","","FIX","","<div class='trialBorder'><div class='vertical-center'><img style='vertical-align:center; align:center' src=img/fixation3.jpg></div></div>","null","","","","","",""
"html-keyboard-response","5","123946","0.0-5.0-2.0","5e7abb2c6c89e4000a180b4a","bdp_rd","Tue Mar 28 2023 15:39:09 GMT-0500 (Central Daylight Time)","313374","","3038","","","","offer","","<div class='trialBorder'><div class='vertical-center'><img style='vertical-align:center; align:center' src=img/fixation3.jpg></div><div class='cl'><div class='vertical-center'>$45<br>with a<br>50% chance</div></div><div class='cr'><div class='vertical-center'>$8<br>for<br>sure</div></div><div class='respDivL'><div class='vertical-center'>(E)</div></div><div class='respDivR'><div class='vertical-center'>(I)</div></div></div>","E","$8","$45","1","8","45","RISKY"
"html-keyboard-response","6","124200","0.0-5.0-3.0","5e7abb2c6c89e4000a180b4a","bdp_rd","Tue Mar 28 2023 15:39:09 GMT-0500 (Central Daylight Time)","313374","","null","","","","offerFB","","<div class='trialBorder'><div class='vertical-center'><img style='vertical-align:center; align:center' src=img/fixation3.jpg></div><div class='cl'><div class='vertical-center'><font style='color:orange'>$45<br>with a<br>50% chance</font></div></div><div class='cr'><div class='vertical-center'>$8<br>for<br>sure</div></div><div class='respDivL'><div class='vertical-center'><font style='color:orange'>(E)</font></div></div><div class='respDivR'><div class='vertical-center'>(I)</div></div></div>","null","$8","$45","1","8","45",""
"html-keyboard-response","7","124702","0.0-5.0-1.1","5e7abb2c6c89e4000a180b4a","bdp_rd","Tue Mar 28 2023 15:39:09 GMT-0500 (Central Daylight Time)","313374","","null","","","","FIX","","<div class='trialBorder'><div class='vertical-center'><img style='vertical-align:center; align:center' src=img/fixation3.jpg></div></div>","null","","","","","",""
"html-keyboard-response","8","127555","0.0-5.0-2.1","5e7abb2c6c89e4000a180b4a","bdp_rd","Tue Mar 28 2023 15:39:09 GMT-0500 (Central Daylight Time)","313374","","2850","","","","offer","","<div class='trialBorder'><div class='vertical-center'><img style='vertical-align:center; align:center' src=img/fixation3.jpg></div><div class='cl'><div class='vertical-center'>$46<br>with a<br>50% chance</div></div><div class='cr'><div class='vertical-center'>$29<br>for<br>sure</div></div><div class='respDivL'><div class='vertical-center'>(E)</div></div><div class='respDivR'><div class='vertical-center'>(I)</div></div></div>","I","$29","$46","1","29","46","SURE"
"html-keyboard-response","9","127807","0.0-5.0-3.1","5e7abb2c6c89e4000a180b4a","bdp_rd","Tue Mar 28 2023 15:39:09 GMT-0500 (Central Daylight Time)","313374","","null","","","","offerFB","","<div class='trialBorder'><div class='vertical-center'><img style='vertical-align:center; align:center' src=img/fixation3.jpg></div><div class='cl'><div class='vertical-center'>$46<br>with a<br>50% chance</div></div><div class='cr'><div class='vertical-center'><font style='color:orange'>$29<br>for<br>sure</font></div></div><div class='respDivL'><div class='vertical-center'>(E)</div></div><div class='respDivR'><div class='vertical-center'><font style='color:orange'>(I)</font></div></div></div>","null","$29","$46","1","29","46",""
"html-keyboard-response","10","128310","0.0-5.0-1.2","5e7abb2c6c89e4000a180b4a","bdp_rd","Tue Mar 28 2023 15:39:09 GMT-0500 (Central Daylight Time)","313374","","null","","","","FIX","","<div class='trialBorder'><div class='vertical-center'><img style='vertical-align:center; align:center' src=img/fixation3.jpg></div></div>","null","","","","","",""
"html-keyboard-response","11","132172","0.0-5.0-2.2","5e7abb2c6c89e4000a180b4a","bdp_rd","Tue Mar 28 2023 15:39:09 GMT-0500 (Central Daylight Time)","313374","","3861","","","","offer","","<div class='trialBorder'><div class='vertical-center'><img style='vertical-align:center; align:center' src=img/fixation3.jpg></div><div class='cl'><div class='vertical-center'>$34<br>for<br>sure</div></div><div class='cr'><div class='vertical-center'>$48<br>with a<br>50% chance</div></div><div class='respDivL'><div class='vertical-center'>(E)</div></div><div class='respDivR'><div class='vertical-center'>(I)</div></div></div>","E","$34","$48","0","34","48","SURE"
"html-keyboard-response","12","132425","0.0-5.0-3.2","5e7abb2c6c89e4000a180b4a","bdp_rd","Tue Mar 28 2023 15:39:09 GMT-0500 (Central Daylight Time)","313374","","null","","","","offerFB","","<div class='trialBorder'><div class='vertical-center'><img style='vertical-align:center; align:center' src=img/fixation3.jpg></div><div class='cl'><div class='vertical-center'><font style='color:orange'>$34<br>for<br>sure</font></div></div><div class='cr'><div class='vertical-center'>$48<br>with a<br>50% chance</div></div><div class='respDivL'><div class='vertical-center'><font style='color:orange'>(E)</font></div></div><div class='respDivR'><div class='vertical-center'>(I)</div></div></div>","null","$34","$48","0","34","48",""
"html-keyboard-response","13","132927","0.0-5.0-1.3","5e7abb2c6c89e4000a180b4a","bdp_rd","Tue Mar 28 2023 15:39:09 GMT-0500 (Central Daylight Time)","313374","","null","","","","FIX","","<div class='trialBorder'><div class='vertical-center'><img style='vertical-align:center; align:center' src=img/fixation3.jpg></div></div>","null","","","","","",""
"html-keyboard-response","14","143368","0.0-5.0-2.3","5e7abb2c6c89e4000a180b4a","bdp_rd","Tue Mar 28 2023 15:39:09 GMT-0500 (Central Daylight Time)","313374","","10439","","","","offer","","<div class='trialBorder'><div class='vertical-center'><img style='vertical-align:center; align:center' src=img/fixation3.jpg></div><div class='cl'><div class='vertical-center'>$10<br>for<br>sure</div></div><div class='cr'><div class='vertical-center'>$40<br>with a<br>50% chance</div></div><div class='respDivL'><div class='vertical-center'>(E)</div></div><div class='respDivR'><div class='vertical-center'>(I)</div></div></div>","I","$10","$40","0","10","40","RISKY"
"html-keyboard-response","15","143622","0.0-5.0-3.3","5e7abb2c6c89e4000a180b4a","bdp_rd","Tue Mar 28 2023 15:39:09 GMT-0500 (Central Daylight Time)","313374","","null","","","","offerFB","","<div class='trialBorder'><div class='vertical-center'><img style='vertical-align:center; align:center' src=img/fixation3.jpg></div><div class='cl'><div class='vertical-center'>$10<br>for<br>sure</div></div><div class='cr'><div class='vertical-center'><font style='color:orange'>$40<br>with a<br>50% chance</font></div></div><div class='respDivL'><div class='vertical-center'>(E)</div></div><div class='respDivR'><div class='vertical-center'><font style='color:orange'>(I)</font></div></div></div>","null","$10","$40","0","10","40",""
"html-keyboard-response","16","144124","0.0-5.0-1.4","5e7abb2c6c89e4000a180b4a","bdp_rd","Tue Mar 28 2023 15:39:09 GMT-0500 (Central Daylight Time)","313374","","null","","","","FIX","","<div class='trialBorder'><div class='vertical-center'><img style='vertical-align:center; align:center' src=img/fixation3.jpg></div></div>","null","","","","","",""
"html-keyboard-response","17","146475","0.0-5.0-2.4","5e7abb2c6c89e4000a180b4a","bdp_rd","Tue Mar 28 2023 15:39:09 GMT-0500 (Central Daylight Time)","313374","","2350","","","","offer","","<div class='trialBorder'><div class='vertical-center'><img style='vertical-align:center; align:center' src=img/fixation3.jpg></div><div class='cl'><div class='vertical-center'>$8<br>for<br>sure</div></div><div class='cr'><div class='vertical-center'>$23<br>with a<br>50% chance</div></div><div class='respDivL'><div class='vertical-center'>(E)</div></div><div class='respDivR'><div class='vertical-center'>(I)</div></div></div>","I","$8","$23","0","8","23","RISKY"
"html-keyboard-response","18","146728","0.0-5.0-3.4","5e7abb2c6c89e4000a180b4a","bdp_rd","Tue Mar 28 2023 15:39:09 GMT-0500 (Central Daylight Time)","313374","","null","","","","offerFB","","<div class='trialBorder'><div class='vertical-center'><img style='vertical-align:center; align:center' src=img/fixation3.jpg></div><div class='cl'><div class='vertical-center'>$8<br>for<br>sure</div></div><div class='cr'><div class='vertical-center'><font style='color:orange'>$23<br>with a<br>50% chance</font></div></div><div class='respDivL'><div class='vertical-center'>(E)</div></div><div class='respDivR'><div class='vertical-center'><font style='color:orange'>(I)</font></div></div></div>","null","$8","$23","0","8","23",""
"html-keyboard-response","19","147230","0.0-5.0-1.5","5e7abb2c6c89e4000a180b4a","bdp_rd","Tue Mar 28 2023 15:39:09 GMT-0500 (Central Daylight Time)","313374","","null","","","","FIX","","<div class='trialBorder'><div class='vertical-center'><img style='vertical-align:center; align:center' src=img/fixation3.jpg></div></div>","null","","","","","",""
"html-keyboard-response","20","149872","0.0-5.0-2.5","5e7abb2c6c89e4000a180b4a","bdp_rd","Tue Mar 28 2023 15:39:09 GMT-0500 (Central Daylight Time)","313374","","2641","","","","offer","","<div class='trialBorder'><div class='vertical-center'><img style='vertical-align:center; align:center' src=img/fixation3.jpg></div><div class='cl'><div class='vertical-center'>$36<br>with a<br>50% chance</div></div><div class='cr'><div class='vertical-center'>$18<br>for<br>sure</div></div><div class='respDivL'><div class='vertical-center'>(E)</div></div><div class='respDivR'><div class='vertical-center'>(I)</div></div></div>","I","$18","$36","1","18","36","SURE"
"html-keyboard-response","21","150125","0.0-5.0-3.5","5e7abb2c6c89e4000a180b4a","bdp_rd","Tue Mar 28 2023 15:39:09 GMT-0500 (Central Daylight Time)","313374","","null","","","","offerFB","","<div class='trialBorder'><div class='vertical-center'><img style='vertical-align:center; align:center' src=img/fixation3.jpg></div><div class='cl'><div class='vertical-center'>$36<br>with a<br>50% chance</div></div><div class='cr'><div class='vertical-center'><font style='color:orange'>$18<br>for<br>sure</font></div></div><div class='respDivL'><div class='vertical-center'>(E)</div></div><div class='respDivR'><div class='vertical-center'><font style='color:orange'>(I)</font></div></div></div>","null","$18","$36","1","18","36",""
"html-keyboard-response","22","150627","0.0-5.0-1.6","5e7abb2c6c89e4000a180b4a","bdp_rd","Tue Mar 28 2023 15:39:09 GMT-0500 (Central Daylight Time)","313374","","null","","","","FIX","","<div class='trialBorder'><div class='vertical-center'><img style='vertical-align:center; align:center' src=img/fixation3.jpg></div></div>","null","","","","","",""
"html-keyboard-response","23","152867","0.0-5.0-2.6","5e7abb2c6c89e4000a180b4a","bdp_rd","Tue Mar 28 2023 15:39:09 GMT-0500 (Central Daylight Time)","313374","","2238","","","","offer","","<div class='trialBorder'><div class='vertical-center'><img style='vertical-align:center; align:center' src=img/fixation3.jpg></div><div class='cl'><div class='vertical-center'>$18<br>with a<br>50% chance</div></div><div class='cr'><div class='vertical-center'>$9<br>for<br>sure</div></div><div class='respDivL'><div class='vertical-center'>(E)</div></div><div class='respDivR'><div class='vertical-center'>(I)</div></div></div>","I","$9","$18","1","9","18","SURE"
"html-keyboard-response","24","153120","0.0-5.0-3.6","5e7abb2c6c89e4000a180b4a","bdp_rd","Tue Mar 28 2023 15:39:09 GMT-0500 (Central Daylight Time)","313374","","null","","","","offerFB","","<div class='trialBorder'><div class='vertical-center'><img style='vertical-align:center; align:center' src=img/fixation3.jpg></div><div class='cl'><div class='vertical-center'>$18<br>with a<br>50% chance</div></div><div class='cr'><div class='vertical-center'><font style='color:orange'>$9<br>for<br>sure</font></div></div><div class='respDivL'><div class='vertical-center'>(E)</div></div><div class='respDivR'><div class='vertical-center'><font style='color:orange'>(I)</font></div></div></div>","null","$9","$18","1","9","18",""
"html-keyboard-response","25","153622","0.0-5.0-1.7","5e7abb2c6c89e4000a180b4a","bdp_rd","Tue Mar 28 2023 15:39:09 GMT-0500 (Central Daylight Time)","313374","","null","","","","FIX","","<div class='trialBorder'><div class='vertical-center'><img style='vertical-align:center; align:center' src=img/fixation3.jpg></div></div>","null","","","","","",""
"html-keyboard-response","26","155748","0.0-5.0-2.7","5e7abb2c6c89e4000a180b4a","bdp_rd","Tue Mar 28 2023 15:39:09 GMT-0500 (Central Daylight Time)","313374","","2125","","","","offer","","<div class='trialBorder'><div class='vertical-center'><img style='vertical-align:center; align:center' src=img/fixation3.jpg></div><div class='cl'><div class='vertical-center'>$29<br>with a<br>50% chance</div></div><div class='cr'><div class='vertical-center'>$14<br>for<br>sure</div></div><div class='respDivL'><div class='vertical-center'>(E)</div></div><div class='respDivR'><div class='vertical-center'>(I)</div></div></div>","E","$14","$29","1","14","29","RISKY"
"html-keyboard-response","27","156001","0.0-5.0-3.7","5e7abb2c6c89e4000a180b4a","bdp_rd","Tue Mar 28 2023 15:39:09 GMT-0500 (Central Daylight Time)","313374","","null","","","","offerFB","","<div class='trialBorder'><div class='vertical-center'><img style='vertical-align:center; align:center' src=img/fixation3.jpg></div><div class='cl'><div class='vertical-center'><font style='color:orange'>$29<br>with a<br>50% chance</font></div></div><div class='cr'><div class='vertical-center'>$14<br>for<br>sure</div></div><div class='respDivL'><div class='vertical-center'><font style='color:orange'>(E)</font></div></div><div class='respDivR'><div class='vertical-center'>(I)</div></div></div>","null","$14","$29","1","14","29",""
"html-keyboard-response","28","156504","0.0-5.0-1.8","5e7abb2c6c89e4000a180b4a","bdp_rd","Tue Mar 28 2023 15:39:09 GMT-0500 (Central Daylight Time)","313374","","null","","","","FIX","","<div class='trialBorder'><div class='vertical-center'><img style='vertical-align:center; align:center' src=img/fixation3.jpg></div></div>","null","","","","","",""
"html-keyboard-response","29","161305","0.0-5.0-2.8","5e7abb2c6c89e4000a180b4a","bdp_rd","Tue Mar 28 2023 15:39:09 GMT-0500 (Central Daylight Time)","313374","","4800","","","","offer","","<div class='trialBorder'><div class='vertical-center'><img style='vertical-align:center; align:center' src=img/fixation3.jpg></div><div class='cl'><div class='vertical-center'>$39<br>with a<br>50% chance</div></div><div class='cr'><div class='vertical-center'>$18<br>for<br>sure</div></div><div class='respDivL'><div class='vertical-center'>(E)</div></div><div class='respDivR'><div class='vertical-center'>(I)</div></div></div>","E","$18","$39","1","18","39","RISKY"
"html-keyboard-response","30","161559","0.0-5.0-3.8","5e7abb2c6c89e4000a180b4a","bdp_rd","Tue Mar 28 2023 15:39:09 GMT-0500 (Central Daylight Time)","313374","","null","","","","offerFB","","<div class='trialBorder'><div class='vertical-center'><img style='vertical-align:center; align:center' src=img/fixation3.jpg></div><div class='cl'><div class='vertical-center'><font style='color:orange'>$39<br>with a<br>50% chance</font></div></div><div class='cr'><div class='vertical-center'>$18<br>for<br>sure</div></div><div class='respDivL'><div class='vertical-center'><font style='color:orange'>(E)</font></div></div><div class='respDivR'><div class='vertical-center'>(I)</div></div></div>","null","$18","$39","1","18","39",""
"html-keyboard-response","31","162062","0.0-5.0-1.9","5e7abb2c6c89e4000a180b4a","bdp_rd","Tue Mar 28 2023 15:39:09 GMT-0500 (Central Daylight Time)","313374","","null","","","","FIX","","<div class='trialBorder'><div class='vertical-center'><img style='vertical-align:center; align:center' src=img/fixation3.jpg></div></div>","null","","","","","",""
"html-keyboard-response","32","165041","0.0-5.0-2.9","5e7abb2c6c89e4000a180b4a","bdp_rd","Tue Mar 28 2023 15:39:09 GMT-0500 (Central Daylight Time)","313374","","2978","","","","offer","","<div class='trialBorder'><div class='vertical-center'><img style='vertical-align:center; align:center' src=img/fixation3.jpg></div><div class='cl'><div class='vertical-center'>$30<br>for<br>sure</div></div><div class='cr'><div class='vertical-center'>$68<br>with a<br>50% chance</div></div><div class='respDivL'><div class='vertical-center'>(E)</div></div><div class='respDivR'><div class='vertical-center'>(I)</div></div></div>","I","$30","$68","0","30","68","RISKY"
"html-keyboard-response","33","165294","0.0-5.0-3.9","5e7abb2c6c89e4000a180b4a","bdp_rd","Tue Mar 28 2023 15:39:09 GMT-0500 (Central Daylight Time)","313374","","null","","","","offerFB","","<div class='trialBorder'><div class='vertical-center'><img style='vertical-align:center; align:center' src=img/fixation3.jpg></div><div class='cl'><div class='vertical-center'>$30<br>for<br>sure</div></div><div class='cr'><div class='vertical-center'><font style='color:orange'>$68<br>with a<br>50% chance</font></div></div><div class='respDivL'><div class='vertical-center'>(E)</div></div><div class='respDivR'><div class='vertical-center'><font style='color:orange'>(I)</font></div></div></div>","null","$30","$68","0","30","68",""
"html-keyboard-response","34","165796","0.0-5.0-1.10","5e7abb2c6c89e4000a180b4a","bdp_rd","Tue Mar 28 2023 15:39:09 GMT-0500 (Central Daylight Time)","313374","","null","","","","FIX","","<div class='trialBorder'><div class='vertical-center'><img style='vertical-align:center; align:center' src=img/fixation3.jpg></div></div>","null","","","","","",""
"html-keyboard-response","35","167638","0.0-5.0-2.10","5e7abb2c6c89e4000a180b4a","bdp_rd","Tue Mar 28 2023 15:39:09 GMT-0500 (Central Daylight Time)","313374","","1841","","","","offer","","<div class='trialBorder'><div class='vertical-center'><img style='vertical-align:center; align:center' src=img/fixation3.jpg></div><div class='cl'><div class='vertical-center'>$65<br>with a<br>50% chance</div></div><div class='cr'><div class='vertical-center'>$46<br>for<br>sure</div></div><div class='respDivL'><div class='vertical-center'>(E)</div></div><div class='respDivR'><div class='vertical-center'>(I)</div></div></div>","I","$46","$65","1","46","65","SURE"
"html-keyboard-response","36","167891","0.0-5.0-3.10","5e7abb2c6c89e4000a180b4a","bdp_rd","Tue Mar 28 2023 15:39:09 GMT-0500 (Central Daylight Time)","313374","","null","","","","offerFB","","<div class='trialBorder'><div class='vertical-center'><img style='vertical-align:center; align:center' src=img/fixation3.jpg></div><div class='cl'><div class='vertical-center'>$65<br>with a<br>50% chance</div></div><div class='cr'><div class='vertical-center'><font style='color:orange'>$46<br>for<br>sure</font></div></div><div class='respDivL'><div class='vertical-center'>(E)</div></div><div class='respDivR'><div class='vertical-center'><font style='color:orange'>(I)</font></div></div></div>","null","$46","$65","1","46","65",""
"html-keyboard-response","37","168394","0.0-5.0-1.11","5e7abb2c6c89e4000a180b4a","bdp_rd","Tue Mar 28 2023 15:39:09 GMT-0500 (Central Daylight Time)","313374","","null","","","","FIX","","<div class='trialBorder'><div class='vertical-center'><img style='vertical-align:center; align:center' src=img/fixation3.jpg></div></div>","null","","","","","",""
"html-keyboard-response","38","170539","0.0-5.0-2.11","5e7abb2c6c89e4000a180b4a","bdp_rd","Tue Mar 28 2023 15:39:09 GMT-0500 (Central Daylight Time)","313374","","2144","","","","offer","","<div class='trialBorder'><div class='vertical-center'><img style='vertical-align:center; align:center' src=img/fixation3.jpg></div><div class='cl'><div class='vertical-center'>$4<br>for<br>sure</div></div><div class='cr'><div class='vertical-center'>$11<br>with a<br>50% chance</div></div><div class='respDivL'><div class='vertical-center'>(E)</div></div><div class='respDivR'><div class='vertical-center'>(I)</div></div></div>","I","$4","$11","0","4","11","RISKY"
"html-keyboard-response","39","170791","0.0-5.0-3.11","5e7abb2c6c89e4000a180b4a","bdp_rd","Tue Mar 28 2023 15:39:09 GMT-0500 (Central Daylight Time)","313374","","null","","","","offerFB","","<div class='trialBorder'><div class='vertical-center'><img style='vertical-align:center; align:center' src=img/fixation3.jpg></div><div class='cl'><div class='vertical-center'>$4<br>for<br>sure</div></div><div class='cr'><div class='vertical-center'><font style='color:orange'>$11<br>with a<br>50% chance</font></div></div><div class='respDivL'><div class='vertical-center'>(E)</div></div><div class='respDivR'><div class='vertical-center'><font style='color:orange'>(I)</font></div></div></div>","null","$4","$11","0","4","11",""
"html-keyboard-response","40","171294","0.0-5.0-1.12","5e7abb2c6c89e4000a180b4a","bdp_rd","Tue Mar 28 2023 15:39:09 GMT-0500 (Central Daylight Time)","313374","","null","","","","FIX","","<div class='trialBorder'><div class='vertical-center'><img style='vertical-align:center; align:center' src=img/fixation3.jpg></div></div>","null","","","","","",""
"html-keyboard-response","41","173188","0.0-5.0-2.12","5e7abb2c6c89e4000a180b4a","bdp_rd","Tue Mar 28 2023 15:39:09 GMT-0500 (Central Daylight Time)","313374","","1892","","","","offer","","<div class='trialBorder'><div class='vertical-center'><img style='vertical-align:center; align:center' src=img/fixation3.jpg></div><div class='cl'><div class='vertical-center'>$95<br>with a<br>50% chance</div></div><div class='cr'><div class='vertical-center'>$40<br>for<br>sure</div></div><div class='respDivL'><div class='vertical-center'>(E)</div></div><div class='respDivR'><div class='vertical-center'>(I)</div></div></div>","E","$40","$95","1","40","95","RISKY"
"html-keyboard-response","42","173440","0.0-5.0-3.12","5e7abb2c6c89e4000a180b4a","bdp_rd","Tue Mar 28 2023 15:39:09 GMT-0500 (Central Daylight Time)","313374","","null","","","","offerFB","","<div class='trialBorder'><div class='vertical-center'><img style='vertical-align:center; align:center' src=img/fixation3.jpg></div><div class='cl'><div class='vertical-center'><font style='color:orange'>$95<br>with a<br>50% chance</font></div></div><div class='cr'><div class='vertical-center'>$40<br>for<br>sure</div></div><div class='respDivL'><div class='vertical-center'><font style='color:orange'>(E)</font></div></div><div class='respDivR'><div class='vertical-center'>(I)</div></div></div>","null","$40","$95","1","40","95",""
"html-keyboard-response","43","173943","0.0-5.0-1.13","5e7abb2c6c89e4000a180b4a","bdp_rd","Tue Mar 28 2023 15:39:09 GMT-0500 (Central Daylight Time)","313374","","null","","","","FIX","","<div class='trialBorder'><div class='vertical-center'><img style='vertical-align:center; align:center' src=img/fixation3.jpg></div></div>","null","","","","","",""
"html-keyboard-response","44","176186","0.0-5.0-2.13","5e7abb2c6c89e4000a180b4a","bdp_rd","Tue Mar 28 2023 15:39:09 GMT-0500 (Central Daylight Time)","313374","","2241","","","","offer","","<div class='trialBorder'><div class='vertical-center'><img style='vertical-align:center; align:center' src=img/fixation3.jpg></div><div class='cl'><div class='vertical-center'>$10<br>for<br>sure</div></div><div class='cr'><div class='vertical-center'>$19<br>with a<br>50% chance</div></div><div class='respDivL'><div class='vertical-center'>(E)</div></div><div class='respDivR'><div class='vertical-center'>(I)</div></div></div>","E","$10","$19","0","10","19","SURE"
"html-keyboard-response","45","176439","0.0-5.0-3.13","5e7abb2c6c89e4000a180b4a","bdp_rd","Tue Mar 28 2023 15:39:09 GMT-0500 (Central Daylight Time)","313374","","null","","","","offerFB","","<div class='trialBorder'><div class='vertical-center'><img style='vertical-align:center; align:center' src=img/fixation3.jpg></div><div class='cl'><div class='vertical-center'><font style='color:orange'>$10<br>for<br>sure</font></div></div><div class='cr'><div class='vertical-center'>$19<br>with a<br>50% chance</div></div><div class='respDivL'><div class='vertical-center'><font style='color:orange'>(E)</font></div></div><div class='respDivR'><div class='vertical-center'>(I)</div></div></div>","null","$10","$19","0","10","19",""
"html-keyboard-response","46","176941","0.0-5.0-1.14","5e7abb2c6c89e4000a180b4a","bdp_rd","Tue Mar 28 2023 15:39:09 GMT-0500 (Central Daylight Time)","313374","","null","","","","FIX","","<div class='trialBorder'><div class='vertical-center'><img style='vertical-align:center; align:center' src=img/fixation3.jpg></div></div>","null","","","","","",""
"html-keyboard-response","47","178922","0.0-5.0-2.14","5e7abb2c6c89e4000a180b4a","bdp_rd","Tue Mar 28 2023 15:39:09 GMT-0500 (Central Daylight Time)","313374","","1979","","","","offer","","<div class='trialBorder'><div class='vertical-center'><img style='vertical-align:center; align:center' src=img/fixation3.jpg></div><div class='cl'><div class='vertical-center'>$7<br>for<br>sure</div></div><div class='cr'><div class='vertical-center'>$10<br>with a<br>50% chance</div></div><div class='respDivL'><div class='vertical-center'>(E)</div></div><div class='respDivR'><div class='vertical-center'>(I)</div></div></div>","E","$7","$10","0","7","10","SURE"
"html-keyboard-response","48","179174","0.0-5.0-3.14","5e7abb2c6c89e4000a180b4a","bdp_rd","Tue Mar 28 2023 15:39:09 GMT-0500 (Central Daylight Time)","313374","","null","","","","offerFB","","<div class='trialBorder'><div class='vertical-center'><img style='vertical-align:center; align:center' src=img/fixation3.jpg></div><div class='cl'><div class='vertical-center'><font style='color:orange'>$7<br>for<br>sure</font></div></div><div class='cr'><div class='vertical-center'>$10<br>with a<br>50% chance</div></div><div class='respDivL'><div class='vertical-center'><font style='color:orange'>(E)</font></div></div><div class='respDivR'><div class='vertical-center'>(I)</div></div></div>","null","$7","$10","0","7","10",""
"html-keyboard-response","49","179677","0.0-5.0-1.15","5e7abb2c6c89e4000a180b4a","bdp_rd","Tue Mar 28 2023 15:39:09 GMT-0500 (Central Daylight Time)","313374","","null","","","","FIX","","<div class='trialBorder'><div class='vertical-center'><img style='vertical-align:center; align:center' src=img/fixation3.jpg></div></div>","null","","","","","",""
"html-keyboard-response","50","182370","0.0-5.0-2.15","5e7abb2c6c89e4000a180b4a","bdp_rd","Tue Mar 28 2023 15:39:09 GMT-0500 (Central Daylight Time)","313374","","2692","","","","offer","","<div class='trialBorder'><div class='vertical-center'><img style='vertical-align:center; align:center' src=img/fixation3.jpg></div><div class='cl'><div class='vertical-center'>$80<br>with a<br>50% chance</div></div><div class='cr'><div class='vertical-center'>$20<br>for<br>sure</div></div><div class='respDivL'><div class='vertical-center'>(E)</div></div><div class='respDivR'><div class='vertical-center'>(I)</div></div></div>","E","$20","$80","1","20","80","RISKY"
"html-keyboard-response","51","182623","0.0-5.0-3.15","5e7abb2c6c89e4000a180b4a","bdp_rd","Tue Mar 28 2023 15:39:09 GMT-0500 (Central Daylight Time)","313374","","null","","","","offerFB","","<div class='trialBorder'><div class='vertical-center'><img style='vertical-align:center; align:center' src=img/fixation3.jpg></div><div class='cl'><div class='vertical-center'><font style='color:orange'>$80<br>with a<br>50% chance</font></div></div><div class='cr'><div class='vertical-center'>$20<br>for<br>sure</div></div><div class='respDivL'><div class='vertical-center'><font style='color:orange'>(E)</font></div></div><div class='respDivR'><div class='vertical-center'>(I)</div></div></div>","null","$20","$80","1","20","80",""
"html-keyboard-response","52","183127","0.0-5.0-1.16","5e7abb2c6c89e4000a180b4a","bdp_rd","Tue Mar 28 2023 15:39:09 GMT-0500 (Central Daylight Time)","313374","","null","","","","FIX","","<div class='trialBorder'><div class='vertical-center'><img style='vertical-align:center; align:center' src=img/fixation3.jpg></div></div>","null","","","","","",""
"html-keyboard-response","53","184794","0.0-5.0-2.16","5e7abb2c6c89e4000a180b4a","bdp_rd","Tue Mar 28 2023 15:39:09 GMT-0500 (Central Daylight Time)","313374","","1665","","","","offer","","<div class='trialBorder'><div class='vertical-center'><img style='vertical-align:center; align:center' src=img/fixation3.jpg></div><div class='cl'><div class='vertical-center'>$5<br>for<br>sure</div></div><div class='cr'><div class='vertical-center'>$50<br>with a<br>50% chance</div></div><div class='respDivL'><div class='vertical-center'>(E)</div></div><div class='respDivR'><div class='vertical-center'>(I)</div></div></div>","I","$5","$50","0","5","50","RISKY"
"html-keyboard-response","54","185046","0.0-5.0-3.16","5e7abb2c6c89e4000a180b4a","bdp_rd","Tue Mar 28 2023 15:39:09 GMT-0500 (Central Daylight Time)","313374","","null","","","","offerFB","","<div class='trialBorder'><div class='vertical-center'><img style='vertical-align:center; align:center' src=img/fixation3.jpg></div><div class='cl'><div class='vertical-center'>$5<br>for<br>sure</div></div><div class='cr'><div class='vertical-center'><font style='color:orange'>$50<br>with a<br>50% chance</font></div></div><div class='respDivL'><div class='vertical-center'>(E)</div></div><div class='respDivR'><div class='vertical-center'><font style='color:orange'>(I)</font></div></div></div>","null","$5","$50","0","5","50",""
"html-keyboard-response","55","185548","0.0-5.0-1.17","5e7abb2c6c89e4000a180b4a","bdp_rd","Tue Mar 28 2023 15:39:09 GMT-0500 (Central Daylight Time)","313374","","null","","","","FIX","","<div class='trialBorder'><div class='vertical-center'><img style='vertical-align:center; align:center' src=img/fixation3.jpg></div></div>","null","","","","","",""
"html-keyboard-response","56","187731","0.0-5.0-2.17","5e7abb2c6c89e4000a180b4a","bdp_rd","Tue Mar 28 2023 15:39:09 GMT-0500 (Central Daylight Time)","313374","","2182","","","","offer","","<div class='trialBorder'><div class='vertical-center'><img style='vertical-align:center; align:center' src=img/fixation3.jpg></div><div class='cl'><div class='vertical-center'>$27<br>with a<br>50% chance</div></div><div class='cr'><div class='vertical-center'>$12<br>for<br>sure</div></div><div class='respDivL'><div class='vertical-center'>(E)</div></div><div class='respDivR'><div class='vertical-center'>(I)</div></div></div>","E","$12","$27","1","12","27","RISKY"
"html-keyboard-response","57","187983","0.0-5.0-3.17","5e7abb2c6c89e4000a180b4a","bdp_rd","Tue Mar 28 2023 15:39:09 GMT-0500 (Central Daylight Time)","313374","","null","","","","offerFB","","<div class='trialBorder'><div class='vertical-center'><img style='vertical-align:center; align:center' src=img/fixation3.jpg></div><div class='cl'><div class='vertical-center'><font style='color:orange'>$27<br>with a<br>50% chance</font></div></div><div class='cr'><div class='vertical-center'>$12<br>for<br>sure</div></div><div class='respDivL'><div class='vertical-center'><font style='color:orange'>(E)</font></div></div><div class='respDivR'><div class='vertical-center'>(I)</div></div></div>","null","$12","$27","1","12","27",""
"html-keyboard-response","58","188485","0.0-5.0-1.18","5e7abb2c6c89e4000a180b4a","bdp_rd","Tue Mar 28 2023 15:39:09 GMT-0500 (Central Daylight Time)","313374","","null","","","","FIX","","<div class='trialBorder'><div class='vertical-center'><img style='vertical-align:center; align:center' src=img/fixation3.jpg></div></div>","null","","","","","",""
"html-keyboard-response","59","190246","0.0-5.0-2.18","5e7abb2c6c89e4000a180b4a","bdp_rd","Tue Mar 28 2023 15:39:09 GMT-0500 (Central Daylight Time)","313374","","1760","","","","offer","","<div class='trialBorder'><div class='vertical-center'><img style='vertical-align:center; align:center' src=img/fixation3.jpg></div><div class='cl'><div class='vertical-center'>$58<br>for<br>sure</div></div><div class='cr'><div class='vertical-center'>$69<br>with a<br>50% chance</div></div><div class='respDivL'><div class='vertical-center'>(E)</div></div><div class='respDivR'><div class='vertical-center'>(I)</div></div></div>","E","$58","$69","0","58","69","SURE"
"html-keyboard-response","60","190498","0.0-5.0-3.18","5e7abb2c6c89e4000a180b4a","bdp_rd","Tue Mar 28 2023 15:39:09 GMT-0500 (Central Daylight Time)","313374","","null","","","","offerFB","","<div class='trialBorder'><div class='vertical-center'><img style='vertical-align:center; align:center' src=img/fixation3.jpg></div><div class='cl'><div class='vertical-center'><font style='color:orange'>$58<br>for<br>sure</font></div></div><div class='cr'><div class='vertical-center'>$69<br>with a<br>50% chance</div></div><div class='respDivL'><div class='vertical-center'><font style='color:orange'>(E)</font></div></div><div class='respDivR'><div class='vertical-center'>(I)</div></div></div>","null","$58","$69","0","58","69",""
"html-keyboard-response","61","191001","0.0-5.0-1.19","5e7abb2c6c89e4000a180b4a","bdp_rd","Tue Mar 28 2023 15:39:09 GMT-0500 (Central Daylight Time)","313374","","null","","","","FIX","","<div class='trialBorder'><div class='vertical-center'><img style='vertical-align:center; align:center' src=img/fixation3.jpg></div></div>","null","","","","","",""
"html-keyboard-response","62","192781","0.0-5.0-2.19","5e7abb2c6c89e4000a180b4a","bdp_rd","Tue Mar 28 2023 15:39:09 GMT-0500 (Central Daylight Time)","313374","","1779","","","","offer","","<div class='trialBorder'><div class='vertical-center'><img style='vertical-align:center; align:center' src=img/fixation3.jpg></div><div class='cl'><div class='vertical-center'>$6<br>for<br>sure</div></div><div class='cr'><div class='vertical-center'>$15<br>with a<br>50% chance</div></div><div class='respDivL'><div class='vertical-center'>(E)</div></div><div class='respDivR'><div class='vertical-center'>(I)</div></div></div>","I","$6","$15","0","6","15","RISKY"
"html-keyboard-response","63","193034","0.0-5.0-3.19","5e7abb2c6c89e4000a180b4a","bdp_rd","Tue Mar 28 2023 15:39:09 GMT-0500 (Central Daylight Time)","313374","","null","","","","offerFB","","<div class='trialBorder'><div class='vertical-center'><img style='vertical-align:center; align:center' src=img/fixation3.jpg></div><div class='cl'><div class='vertical-center'>$6<br>for<br>sure</div></div><div class='cr'><div class='vertical-center'><font style='color:orange'>$15<br>with a<br>50% chance</font></div></div><div class='respDivL'><div class='vertical-center'>(E)</div></div><div class='respDivR'><div class='vertical-center'><font style='color:orange'>(I)</font></div></div></div>","null","$6","$15","0","6","15",""
"html-keyboard-response","64","193536","0.0-5.0-1.20","5e7abb2c6c89e4000a180b4a","bdp_rd","Tue Mar 28 2023 15:39:09 GMT-0500 (Central Daylight Time)","313374","","null","","","","FIX","","<div class='trialBorder'><div class='vertical-center'><img style='vertical-align:center; align:center' src=img/fixation3.jpg></div></div>","null","","","","","",""
"html-keyboard-response","65","195242","0.0-5.0-2.20","5e7abb2c6c89e4000a180b4a","bdp_rd","Tue Mar 28 2023 15:39:09 GMT-0500 (Central Daylight Time)","313374","","1704","","","","offer","","<div class='trialBorder'><div class='vertical-center'><img style='vertical-align:center; align:center' src=img/fixation3.jpg></div><div class='cl'><div class='vertical-center'>$51<br>with a<br>50% chance</div></div><div class='cr'><div class='vertical-center'>$19<br>for<br>sure</div></div><div class='respDivL'><div class='vertical-center'>(E)</div></div><div class='respDivR'><div class='vertical-center'>(I)</div></div></div>","E","$19","$51","1","19","51","RISKY"
"html-keyboard-response","66","195493","0.0-5.0-3.20","5e7abb2c6c89e4000a180b4a","bdp_rd","Tue Mar 28 2023 15:39:09 GMT-0500 (Central Daylight Time)","313374","","null","","","","offerFB","","<div class='trialBorder'><div class='vertical-center'><img style='vertical-align:center; align:center' src=img/fixation3.jpg></div><div class='cl'><div class='vertical-center'><font style='color:orange'>$51<br>with a<br>50% chance</font></div></div><div class='cr'><div class='vertical-center'>$19<br>for<br>sure</div></div><div class='respDivL'><div class='vertical-center'><font style='color:orange'>(E)</font></div></div><div class='respDivR'><div class='vertical-center'>(I)</div></div></div>","null","$19","$51","1","19","51",""
"html-keyboard-response","67","195996","0.0-5.0-1.21","5e7abb2c6c89e4000a180b4a","bdp_rd","Tue Mar 28 2023 15:39:09 GMT-0500 (Central Daylight Time)","313374","","null","","","","FIX","","<div class='trialBorder'><div class='vertical-center'><img style='vertical-align:center; align:center' src=img/fixation3.jpg></div></div>","null","","","","","",""
"html-keyboard-response","68","199041","0.0-5.0-2.21","5e7abb2c6c89e4000a180b4a","bdp_rd","Tue Mar 28 2023 15:39:09 GMT-0500 (Central Daylight Time)","313374","","3044","","","","offer","","<div class='trialBorder'><div class='vertical-center'><img style='vertical-align:center; align:center' src=img/fixation3.jpg></div><div class='cl'><div class='vertical-center'>$31<br>for<br>sure</div></div><div class='cr'><div class='vertical-center'>$78<br>with a<br>50% chance</div></div><div class='respDivL'><div class='vertical-center'>(E)</div></div><div class='respDivR'><div class='vertical-center'>(I)</div></div></div>","I","$31","$78","0","31","78","RISKY"
"html-keyboard-response","69","199294","0.0-5.0-3.21","5e7abb2c6c89e4000a180b4a","bdp_rd","Tue Mar 28 2023 15:39:09 GMT-0500 (Central Daylight Time)","313374","","null","","","","offerFB","","<div class='trialBorder'><div class='vertical-center'><img style='vertical-align:center; align:center' src=img/fixation3.jpg></div><div class='cl'><div class='vertical-center'>$31<br>for<br>sure</div></div><div class='cr'><div class='vertical-center'><font style='color:orange'>$78<br>with a<br>50% chance</font></div></div><div class='respDivL'><div class='vertical-center'>(E)</div></div><div class='respDivR'><div class='vertical-center'><font style='color:orange'>(I)</font></div></div></div>","null","$31","$78","0","31","78",""
"html-keyboard-response","70","199796","0.0-5.0-1.22","5e7abb2c6c89e4000a180b4a","bdp_rd","Tue Mar 28 2023 15:39:09 GMT-0500 (Central Daylight Time)","313374","","null","","","","FIX","","<div class='trialBorder'><div class='vertical-center'><img style='vertical-align:center; align:center' src=img/fixation3.jpg></div></div>","null","","","","","",""
"html-keyboard-response","71","201777","0.0-5.0-2.22","5e7abb2c6c89e4000a180b4a","bdp_rd","Tue Mar 28 2023 15:39:09 GMT-0500 (Central Daylight Time)","313374","","1980","","","","offer","","<div class='trialBorder'><div class='vertical-center'><img style='vertical-align:center; align:center' src=img/fixation3.jpg></div><div class='cl'><div class='vertical-center'>$3<br>for<br>sure</div></div><div class='cr'><div class='vertical-center'>$12<br>with a<br>50% chance</div></div><div class='respDivL'><div class='vertical-center'>(E)</div></div><div class='respDivR'><div class='vertical-center'>(I)</div></div></div>","I","$3","$12","0","3","12","RISKY"
"html-keyboard-response","72","202029","0.0-5.0-3.22","5e7abb2c6c89e4000a180b4a","bdp_rd","Tue Mar 28 2023 15:39:09 GMT-0500 (Central Daylight Time)","313374","","null","","","","offerFB","","<div class='trialBorder'><div class='vertical-center'><img style='vertical-align:center; align:center' src=img/fixation3.jpg></div><div class='cl'><div class='vertical-center'>$3<br>for<br>sure</div></div><div class='cr'><div class='vertical-center'><font style='color:orange'>$12<br>with a<br>50% chance</font></div></div><div class='respDivL'><div class='vertical-center'>(E)</div></div><div class='respDivR'><div class='vertical-center'><font style='color:orange'>(I)</font></div></div></div>","null","$3","$12","0","3","12",""
"html-keyboard-response","73","202531","0.0-5.0-1.23","5e7abb2c6c89e4000a180b4a","bdp_rd","Tue Mar 28 2023 15:39:09 GMT-0500 (Central Daylight Time)","313374","","null","","","","FIX","","<div class='trialBorder'><div class='vertical-center'><img style='vertical-align:center; align:center' src=img/fixation3.jpg></div></div>","null","","","","","",""
"html-keyboard-response","74","204001","0.0-5.0-2.23","5e7abb2c6c89e4000a180b4a","bdp_rd","Tue Mar 28 2023 15:39:09 GMT-0500 (Central Daylight Time)","313374","","1469","","","","offer","","<div class='trialBorder'><div class='vertical-center'><img style='vertical-align:center; align:center' src=img/fixation3.jpg></div><div class='cl'><div class='vertical-center'>$21<br>with a<br>50% chance</div></div><div class='cr'><div class='vertical-center'>$2<br>for<br>sure</div></div><div class='respDivL'><div class='vertical-center'>(E)</div></div><div class='respDivR'><div class='vertical-center'>(I)</div></div></div>","E","$2","$21","1","2","21","RISKY"
"html-keyboard-response","75","204253","0.0-5.0-3.23","5e7abb2c6c89e4000a180b4a","bdp_rd","Tue Mar 28 2023 15:39:09 GMT-0500 (Central Daylight Time)","313374","","null","","","","offerFB","","<div class='trialBorder'><div class='vertical-center'><img style='vertical-align:center; align:center' src=img/fixation3.jpg></div><div class='cl'><div class='vertical-center'><font style='color:orange'>$21<br>with a<br>50% chance</font></div></div><div class='cr'><div class='vertical-center'>$2<br>for<br>sure</div></div><div class='respDivL'><div class='vertical-center'><font style='color:orange'>(E)</font></div></div><div class='respDivR'><div class='vertical-center'>(I)</div></div></div>","null","$2","$21","1","2","21",""
"html-keyboard-response","76","204756","0.0-5.0-1.24","5e7abb2c6c89e4000a180b4a","bdp_rd","Tue Mar 28 2023 15:39:09 GMT-0500 (Central Daylight Time)","313374","","null","","","","FIX","","<div class='trialBorder'><div class='vertical-center'><img style='vertical-align:center; align:center' src=img/fixation3.jpg></div></div>","null","","","","","",""
"html-keyboard-response","77","205988","0.0-5.0-2.24","5e7abb2c6c89e4000a180b4a","bdp_rd","Tue Mar 28 2023 15:39:09 GMT-0500 (Central Daylight Time)","313374","","1230","","","","offer","","<div class='trialBorder'><div class='vertical-center'><img style='vertical-align:center; align:center' src=img/fixation3.jpg></div><div class='cl'><div class='vertical-center'>$3<br>for<br>sure</div></div><div class='cr'><div class='vertical-center'>$17<br>with a<br>50% chance</div></div><div class='respDivL'><div class='vertical-center'>(E)</div></div><div class='respDivR'><div class='vertical-center'>(I)</div></div></div>","I","$3","$17","0","3","17","RISKY"
"html-keyboard-response","78","206241","0.0-5.0-3.24","5e7abb2c6c89e4000a180b4a","bdp_rd","Tue Mar 28 2023 15:39:09 GMT-0500 (Central Daylight Time)","313374","","null","","","","offerFB","","<div class='trialBorder'><div class='vertical-center'><img style='vertical-align:center; align:center' src=img/fixation3.jpg></div><div class='cl'><div class='vertical-center'>$3<br>for<br>sure</div></div><div class='cr'><div class='vertical-center'><font style='color:orange'>$17<br>with a<br>50% chance</font></div></div><div class='respDivL'><div class='vertical-center'>(E)</div></div><div class='respDivR'><div class='vertical-center'><font style='color:orange'>(I)</font></div></div></div>","null","$3","$17","0","3","17",""
"html-keyboard-response","79","206743","0.0-5.0-1.25","5e7abb2c6c89e4000a180b4a","bdp_rd","Tue Mar 28 2023 15:39:09 GMT-0500 (Central Daylight Time)","313374","","null","","","","FIX","","<div class='trialBorder'><div class='vertical-center'><img style='vertical-align:center; align:center' src=img/fixation3.jpg></div></div>","null","","","","","",""
"html-keyboard-response","80","208285","0.0-5.0-2.25","5e7abb2c6c89e4000a180b4a","bdp_rd","Tue Mar 28 2023 15:39:09 GMT-0500 (Central Daylight Time)","313374","","1541","","","","offer","","<div class='trialBorder'><div class='vertical-center'><img style='vertical-align:center; align:center' src=img/fixation3.jpg></div><div class='cl'><div class='vertical-center'>$12<br>for<br>sure</div></div><div class='cr'><div class='vertical-center'>$35<br>with a<br>50% chance</div></div><div class='respDivL'><div class='vertical-center'>(E)</div></div><div class='respDivR'><div class='vertical-center'>(I)</div></div></div>","I","$12","$35","0","12","35","RISKY"
"html-keyboard-response","81","208537","0.0-5.0-3.25","5e7abb2c6c89e4000a180b4a","bdp_rd","Tue Mar 28 2023 15:39:09 GMT-0500 (Central Daylight Time)","313374","","null","","","","offerFB","","<div class='trialBorder'><div class='vertical-center'><img style='vertical-align:center; align:center' src=img/fixation3.jpg></div><div class='cl'><div class='vertical-center'>$12<br>for<br>sure</div></div><div class='cr'><div class='vertical-center'><font style='color:orange'>$35<br>with a<br>50% chance</font></div></div><div class='respDivL'><div class='vertical-center'>(E)</div></div><div class='respDivR'><div class='vertical-center'><font style='color:orange'>(I)</font></div></div></div>","null","$12","$35","0","12","35",""
"html-keyboard-response","82","209039","0.0-5.0-1.26","5e7abb2c6c89e4000a180b4a","bdp_rd","Tue Mar 28 2023 15:39:09 GMT-0500 (Central Daylight Time)","313374","","null","","","","FIX","","<div class='trialBorder'><div class='vertical-center'><img style='vertical-align:center; align:center' src=img/fixation3.jpg></div></div>","null","","","","","",""
"html-keyboard-response","83","210375","0.0-5.0-2.26","5e7abb2c6c89e4000a180b4a","bdp_rd","Tue Mar 28 2023 15:39:09 GMT-0500 (Central Daylight Time)","313374","","1334","","","","offer","","<div class='trialBorder'><div class='vertical-center'><img style='vertical-align:center; align:center' src=img/fixation3.jpg></div><div class='cl'><div class='vertical-center'>$1<br>for<br>sure</div></div><div class='cr'><div class='vertical-center'>$33<br>with a<br>50% chance</div></div><div class='respDivL'><div class='vertical-center'>(E)</div></div><div class='respDivR'><div class='vertical-center'>(I)</div></div></div>","I","$1","$33","0","1","33","RISKY"
"html-keyboard-response","84","210627","0.0-5.0-3.26","5e7abb2c6c89e4000a180b4a","bdp_rd","Tue Mar 28 2023 15:39:09 GMT-0500 (Central Daylight Time)","313374","","null","","","","offerFB","","<div class='trialBorder'><div class='vertical-center'><img style='vertical-align:center; align:center' src=img/fixation3.jpg></div><div class='cl'><div class='vertical-center'>$1<br>for<br>sure</div></div><div class='cr'><div class='vertical-center'><font style='color:orange'>$33<br>with a<br>50% chance</font></div></div><div class='respDivL'><div class='vertical-center'>(E)</div></div><div class='respDivR'><div class='vertical-center'><font style='color:orange'>(I)</font></div></div></div>","null","$1","$33","0","1","33",""
"html-keyboard-response","85","211129","0.0-5.0-1.27","5e7abb2c6c89e4000a180b4a","bdp_rd","Tue Mar 28 2023 15:39:09 GMT-0500 (Central Daylight Time)","313374","","null","","","","FIX","","<div class='trialBorder'><div class='vertical-center'><img style='vertical-align:center; align:center' src=img/fixation3.jpg></div></div>","null","","","","","",""
"html-keyboard-response","86","213174","0.0-5.0-2.27","5e7abb2c6c89e4000a180b4a","bdp_rd","Tue Mar 28 2023 15:39:09 GMT-0500 (Central Daylight Time)","313374","","2043","","","","offer","","<div class='trialBorder'><div class='vertical-center'><img style='vertical-align:center; align:center' src=img/fixation3.jpg></div><div class='cl'><div class='vertical-center'>$44<br>with a<br>50% chance</div></div><div class='cr'><div class='vertical-center'>$37<br>for<br>sure</div></div><div class='respDivL'><div class='vertical-center'>(E)</div></div><div class='respDivR'><div class='vertical-center'>(I)</div></div></div>","I","$37","$44","1","37","44","SURE"
"html-keyboard-response","87","213425","0.0-5.0-3.27","5e7abb2c6c89e4000a180b4a","bdp_rd","Tue Mar 28 2023 15:39:09 GMT-0500 (Central Daylight Time)","313374","","null","","","","offerFB","","<div class='trialBorder'><div class='vertical-center'><img style='vertical-align:center; align:center' src=img/fixation3.jpg></div><div class='cl'><div class='vertical-center'>$44<br>with a<br>50% chance</div></div><div class='cr'><div class='vertical-center'><font style='color:orange'>$37<br>for<br>sure</font></div></div><div class='respDivL'><div class='vertical-center'>(E)</div></div><div class='respDivR'><div class='vertical-center'><font style='color:orange'>(I)</font></div></div></div>","null","$37","$44","1","37","44",""
"html-keyboard-response","88","213927","0.0-5.0-1.28","5e7abb2c6c89e4000a180b4a","bdp_rd","Tue Mar 28 2023 15:39:09 GMT-0500 (Central Daylight Time)","313374","","null","","","","FIX","","<div class='trialBorder'><div class='vertical-center'><img style='vertical-align:center; align:center' src=img/fixation3.jpg></div></div>","null","","","","","",""
"html-keyboard-response","89","218215","0.0-5.0-2.28","5e7abb2c6c89e4000a180b4a","bdp_rd","Tue Mar 28 2023 15:39:09 GMT-0500 (Central Daylight Time)","313374","","4287","","","","offer","","<div class='trialBorder'><div class='vertical-center'><img style='vertical-align:center; align:center' src=img/fixation3.jpg></div><div class='cl'><div class='vertical-center'>$45<br>for<br>sure</div></div><div class='cr'><div class='vertical-center'>$86<br>with a<br>50% chance</div></div><div class='respDivL'><div class='vertical-center'>(E)</div></div><div class='respDivR'><div class='vertical-center'>(I)</div></div></div>","E","$45","$86","0","45","86","SURE"
"html-keyboard-response","90","218469","0.0-5.0-3.28","5e7abb2c6c89e4000a180b4a","bdp_rd","Tue Mar 28 2023 15:39:09 GMT-0500 (Central Daylight Time)","313374","","null","","","","offerFB","","<div class='trialBorder'><div class='vertical-center'><img style='vertical-align:center; align:center' src=img/fixation3.jpg></div><div class='cl'><div class='vertical-center'><font style='color:orange'>$45<br>for<br>sure</font></div></div><div class='cr'><div class='vertical-center'>$86<br>with a<br>50% chance</div></div><div class='respDivL'><div class='vertical-center'><font style='color:orange'>(E)</font></div></div><div class='respDivR'><div class='vertical-center'>(I)</div></div></div>","null","$45","$86","0","45","86",""
"html-keyboard-response","91","218971","0.0-5.0-1.29","5e7abb2c6c89e4000a180b4a","bdp_rd","Tue Mar 28 2023 15:39:09 GMT-0500 (Central Daylight Time)","313374","","null","","","","FIX","","<div class='trialBorder'><div class='vertical-center'><img style='vertical-align:center; align:center' src=img/fixation3.jpg></div></div>","null","","","","","",""
"html-keyboard-response","92","220495","0.0-5.0-2.29","5e7abb2c6c89e4000a180b4a","bdp_rd","Tue Mar 28 2023 15:39:09 GMT-0500 (Central Daylight Time)","313374","","1522","","","","offer","","<div class='trialBorder'><div class='vertical-center'><img style='vertical-align:center; align:center' src=img/fixation3.jpg></div><div class='cl'><div class='vertical-center'>$4<br>for<br>sure</div></div><div class='cr'><div class='vertical-center'>$14<br>with a<br>50% chance</div></div><div class='respDivL'><div class='vertical-center'>(E)</div></div><div class='respDivR'><div class='vertical-center'>(I)</div></div></div>","I","$4","$14","0","4","14","RISKY"
"html-keyboard-response","93","220747","0.0-5.0-3.29","5e7abb2c6c89e4000a180b4a","bdp_rd","Tue Mar 28 2023 15:39:09 GMT-0500 (Central Daylight Time)","313374","","null","","","","offerFB","","<div class='trialBorder'><div class='vertical-center'><img style='vertical-align:center; align:center' src=img/fixation3.jpg></div><div class='cl'><div class='vertical-center'>$4<br>for<br>sure</div></div><div class='cr'><div class='vertical-center'><font style='color:orange'>$14<br>with a<br>50% chance</font></div></div><div class='respDivL'><div class='vertical-center'>(E)</div></div><div class='respDivR'><div class='vertical-center'><font style='color:orange'>(I)</font></div></div></div>","null","$4","$14","0","4","14",""
"html-keyboard-response","94","221249","0.0-5.0-1.30","5e7abb2c6c89e4000a180b4a","bdp_rd","Tue Mar 28 2023 15:39:09 GMT-0500 (Central Daylight Time)","313374","","null","","","","FIX","","<div class='trialBorder'><div class='vertical-center'><img style='vertical-align:center; align:center' src=img/fixation3.jpg></div></div>","null","","","","","",""
"html-keyboard-response","95","223249","0.0-5.0-2.30","5e7abb2c6c89e4000a180b4a","bdp_rd","Tue Mar 28 2023 15:39:09 GMT-0500 (Central Daylight Time)","313374","","1998","","","","offer","","<div class='trialBorder'><div class='vertical-center'><img style='vertical-align:center; align:center' src=img/fixation3.jpg></div><div class='cl'><div class='vertical-center'>$24<br>with a<br>50% chance</div></div><div class='cr'><div class='vertical-center'>$13<br>for<br>sure</div></div><div class='respDivL'><div class='vertical-center'>(E)</div></div><div class='respDivR'><div class='vertical-center'>(I)</div></div></div>","I","$13","$24","1","13","24","SURE"
"html-keyboard-response","96","223500","0.0-5.0-3.30","5e7abb2c6c89e4000a180b4a","bdp_rd","Tue Mar 28 2023 15:39:09 GMT-0500 (Central Daylight Time)","313374","","null","","","","offerFB","","<div class='trialBorder'><div class='vertical-center'><img style='vertical-align:center; align:center' src=img/fixation3.jpg></div><div class='cl'><div class='vertical-center'>$24<br>with a<br>50% chance</div></div><div class='cr'><div class='vertical-center'><font style='color:orange'>$13<br>for<br>sure</font></div></div><div class='respDivL'><div class='vertical-center'>(E)</div></div><div class='respDivR'><div class='vertical-center'><font style='color:orange'>(I)</font></div></div></div>","null","$13","$24","1","13","24",""
"html-keyboard-response","97","224002","0.0-5.0-1.31","5e7abb2c6c89e4000a180b4a","bdp_rd","Tue Mar 28 2023 15:39:09 GMT-0500 (Central Daylight Time)","313374","","null","","","","FIX","","<div class='trialBorder'><div class='vertical-center'><img style='vertical-align:center; align:center' src=img/fixation3.jpg></div></div>","null","","","","","",""
"html-keyboard-response","98","225943","0.0-5.0-2.31","5e7abb2c6c89e4000a180b4a","bdp_rd","Tue Mar 28 2023 15:39:09 GMT-0500 (Central Daylight Time)","313374","","1939","","","","offer","","<div class='trialBorder'><div class='vertical-center'><img style='vertical-align:center; align:center' src=img/fixation3.jpg></div><div class='cl'><div class='vertical-center'>$54<br>with a<br>50% chance</div></div><div class='cr'><div class='vertical-center'>$25<br>for<br>sure</div></div><div class='respDivL'><div class='vertical-center'>(E)</div></div><div class='respDivR'><div class='vertical-center'>(I)</div></div></div>","E","$25","$54","1","25","54","RISKY"
"html-keyboard-response","99","226196","0.0-5.0-3.31","5e7abb2c6c89e4000a180b4a","bdp_rd","Tue Mar 28 2023 15:39:09 GMT-0500 (Central Daylight Time)","313374","","null","","","","offerFB","","<div class='trialBorder'><div class='vertical-center'><img style='vertical-align:center; align:center' src=img/fixation3.jpg></div><div class='cl'><div class='vertical-center'><font style='color:orange'>$54<br>with a<br>50% chance</font></div></div><div class='cr'><div class='vertical-center'>$25<br>for<br>sure</div></div><div class='respDivL'><div class='vertical-center'><font style='color:orange'>(E)</font></div></div><div class='respDivR'><div class='vertical-center'>(I)</div></div></div>","null","$25","$54","1","25","54",""
"html-keyboard-response","100","226698","0.0-5.0-1.32","5e7abb2c6c89e4000a180b4a","bdp_rd","Tue Mar 28 2023 15:39:09 GMT-0500 (Central Daylight Time)","313374","","null","","","","FIX","","<div class='trialBorder'><div class='vertical-center'><img style='vertical-align:center; align:center' src=img/fixation3.jpg></div></div>","null","","","","","",""
"html-keyboard-response","101","228726","0.0-5.0-2.32","5e7abb2c6c89e4000a180b4a","bdp_rd","Tue Mar 28 2023 15:39:09 GMT-0500 (Central Daylight Time)","313374","","2027","","","","offer","","<div class='trialBorder'><div class='vertical-center'><img style='vertical-align:center; align:center' src=img/fixation3.jpg></div><div class='cl'><div class='vertical-center'>$53<br>for<br>sure</div></div><div class='cr'><div class='vertical-center'>$98<br>with a<br>50% chance</div></div><div class='respDivL'><div class='vertical-center'>(E)</div></div><div class='respDivR'><div class='vertical-center'>(I)</div></div></div>","E","$53","$98","0","53","98","SURE"
"html-keyboard-response","102","228979","0.0-5.0-3.32","5e7abb2c6c89e4000a180b4a","bdp_rd","Tue Mar 28 2023 15:39:09 GMT-0500 (Central Daylight Time)","313374","","null","","","","offerFB","","<div class='trialBorder'><div class='vertical-center'><img style='vertical-align:center; align:center' src=img/fixation3.jpg></div><div class='cl'><div class='vertical-center'><font style='color:orange'>$53<br>for<br>sure</font></div></div><div class='cr'><div class='vertical-center'>$98<br>with a<br>50% chance</div></div><div class='respDivL'><div class='vertical-center'><font style='color:orange'>(E)</font></div></div><div class='respDivR'><div class='vertical-center'>(I)</div></div></div>","null","$53","$98","0","53","98",""
"html-keyboard-response","103","229480","0.0-5.0-1.33","5e7abb2c6c89e4000a180b4a","bdp_rd","Tue Mar 28 2023 15:39:09 GMT-0500 (Central Daylight Time)","313374","","null","","","","FIX","","<div class='trialBorder'><div class='vertical-center'><img style='vertical-align:center; align:center' src=img/fixation3.jpg></div></div>","null","","","","","",""
"html-keyboard-response","104","231265","0.0-5.0-2.33","5e7abb2c6c89e4000a180b4a","bdp_rd","Tue Mar 28 2023 15:39:09 GMT-0500 (Central Daylight Time)","313374","","1783","","","","offer","","<div class='trialBorder'><div class='vertical-center'><img style='vertical-align:center; align:center' src=img/fixation3.jpg></div><div class='cl'><div class='vertical-center'>$89<br>with a<br>50% chance</div></div><div class='cr'><div class='vertical-center'>$28<br>for<br>sure</div></div><div class='respDivL'><div class='vertical-center'>(E)</div></div><div class='respDivR'><div class='vertical-center'>(I)</div></div></div>","E","$28","$89","1","28","89","RISKY"
"html-keyboard-response","105","231517","0.0-5.0-3.33","5e7abb2c6c89e4000a180b4a","bdp_rd","Tue Mar 28 2023 15:39:09 GMT-0500 (Central Daylight Time)","313374","","null","","","","offerFB","","<div class='trialBorder'><div class='vertical-center'><img style='vertical-align:center; align:center' src=img/fixation3.jpg></div><div class='cl'><div class='vertical-center'><font style='color:orange'>$89<br>with a<br>50% chance</font></div></div><div class='cr'><div class='vertical-center'>$28<br>for<br>sure</div></div><div class='respDivL'><div class='vertical-center'><font style='color:orange'>(E)</font></div></div><div class='respDivR'><div class='vertical-center'>(I)</div></div></div>","null","$28","$89","1","28","89",""
"html-keyboard-response","106","232019","0.0-5.0-1.34","5e7abb2c6c89e4000a180b4a","bdp_rd","Tue Mar 28 2023 15:39:09 GMT-0500 (Central Daylight Time)","313374","","null","","","","FIX","","<div class='trialBorder'><div class='vertical-center'><img style='vertical-align:center; align:center' src=img/fixation3.jpg></div></div>","null","","","","","",""
"html-keyboard-response","107","233626","0.0-5.0-2.34","5e7abb2c6c89e4000a180b4a","bdp_rd","Tue Mar 28 2023 15:39:09 GMT-0500 (Central Daylight Time)","313374","","1606","","","","offer","","<div class='trialBorder'><div class='vertical-center'><img style='vertical-align:center; align:center' src=img/fixation3.jpg></div><div class='cl'><div class='vertical-center'>$32<br>with a<br>50% chance</div></div><div class='cr'><div class='vertical-center'>$9<br>for<br>sure</div></div><div class='respDivL'><div class='vertical-center'>(E)</div></div><div class='respDivR'><div class='vertical-center'>(I)</div></div></div>","E","$9","$32","1","9","32","RISKY"
"html-keyboard-response","108","233879","0.0-5.0-3.34","5e7abb2c6c89e4000a180b4a","bdp_rd","Tue Mar 28 2023 15:39:09 GMT-0500 (Central Daylight Time)","313374","","null","","","","offerFB","","<div class='trialBorder'><div class='vertical-center'><img style='vertical-align:center; align:center' src=img/fixation3.jpg></div><div class='cl'><div class='vertical-center'><font style='color:orange'>$32<br>with a<br>50% chance</font></div></div><div class='cr'><div class='vertical-center'>$9<br>for<br>sure</div></div><div class='respDivL'><div class='vertical-center'><font style='color:orange'>(E)</font></div></div><div class='respDivR'><div class='vertical-center'>(I)</div></div></div>","null","$9","$32","1","9","32",""
"html-keyboard-response","109","234381","0.0-5.0-1.35","5e7abb2c6c89e4000a180b4a","bdp_rd","Tue Mar 28 2023 15:39:09 GMT-0500 (Central Daylight Time)","313374","","null","","","","FIX","","<div class='trialBorder'><div class='vertical-center'><img style='vertical-align:center; align:center' src=img/fixation3.jpg></div></div>","null","","","","","",""
"html-keyboard-response","110","237946","0.0-5.0-2.35","5e7abb2c6c89e4000a180b4a","bdp_rd","Tue Mar 28 2023 15:39:09 GMT-0500 (Central Daylight Time)","313374","","3563","","","","offer","","<div class='trialBorder'><div class='vertical-center'><img style='vertical-align:center; align:center' src=img/fixation3.jpg></div><div class='cl'><div class='vertical-center'>$28<br>with a<br>50% chance</div></div><div class='cr'><div class='vertical-center'>$16<br>for<br>sure</div></div><div class='respDivL'><div class='vertical-center'>(E)</div></div><div class='respDivR'><div class='vertical-center'>(I)</div></div></div>","I","$16","$28","1","16","28","SURE"
"html-keyboard-response","111","238199","0.0-5.0-3.35","5e7abb2c6c89e4000a180b4a","bdp_rd","Tue Mar 28 2023 15:39:09 GMT-0500 (Central Daylight Time)","313374","","null","","","","offerFB","","<div class='trialBorder'><div class='vertical-center'><img style='vertical-align:center; align:center' src=img/fixation3.jpg></div><div class='cl'><div class='vertical-center'>$28<br>with a<br>50% chance</div></div><div class='cr'><div class='vertical-center'><font style='color:orange'>$16<br>for<br>sure</font></div></div><div class='respDivL'><div class='vertical-center'>(E)</div></div><div class='respDivR'><div class='vertical-center'><font style='color:orange'>(I)</font></div></div></div>","null","$16","$28","1","16","28",""
"html-keyboard-response","112","238702","0.0-5.0-1.36","5e7abb2c6c89e4000a180b4a","bdp_rd","Tue Mar 28 2023 15:39:09 GMT-0500 (Central Daylight Time)","313374","","null","","","","FIX","","<div class='trialBorder'><div class='vertical-center'><img style='vertical-align:center; align:center' src=img/fixation3.jpg></div></div>","null","","","","","",""
"html-keyboard-response","113","240731","0.0-5.0-2.36","5e7abb2c6c89e4000a180b4a","bdp_rd","Tue Mar 28 2023 15:39:09 GMT-0500 (Central Daylight Time)","313374","","2027","","","","offer","","<div class='trialBorder'><div class='vertical-center'><img style='vertical-align:center; align:center' src=img/fixation3.jpg></div><div class='cl'><div class='vertical-center'>$66<br>with a<br>50% chance</div></div><div class='cr'><div class='vertical-center'>$33<br>for<br>sure</div></div><div class='respDivL'><div class='vertical-center'>(E)</div></div><div class='respDivR'><div class='vertical-center'>(I)</div></div></div>","I","$33","$66","1","33","66","SURE"
"html-keyboard-response","114","240983","0.0-5.0-3.36","5e7abb2c6c89e4000a180b4a","bdp_rd","Tue Mar 28 2023 15:39:09 GMT-0500 (Central Daylight Time)","313374","","null","","","","offerFB","","<div class='trialBorder'><div class='vertical-center'><img style='vertical-align:center; align:center' src=img/fixation3.jpg></div><div class='cl'><div class='vertical-center'>$66<br>with a<br>50% chance</div></div><div class='cr'><div class='vertical-center'><font style='color:orange'>$33<br>for<br>sure</font></div></div><div class='respDivL'><div class='vertical-center'>(E)</div></div><div class='respDivR'><div class='vertical-center'><font style='color:orange'>(I)</font></div></div></div>","null","$33","$66","1","33","66",""
"html-keyboard-response","115","241485","0.0-5.0-1.37","5e7abb2c6c89e4000a180b4a","bdp_rd","Tue Mar 28 2023 15:39:09 GMT-0500 (Central Daylight Time)","313374","","null","","","","FIX","","<div class='trialBorder'><div class='vertical-center'><img style='vertical-align:center; align:center' src=img/fixation3.jpg></div></div>","null","","","","","",""
"html-keyboard-response","116","243490","0.0-5.0-2.37","5e7abb2c6c89e4000a180b4a","bdp_rd","Tue Mar 28 2023 15:39:09 GMT-0500 (Central Daylight Time)","313374","","2003","","","","offer","","<div class='trialBorder'><div class='vertical-center'><img style='vertical-align:center; align:center' src=img/fixation3.jpg></div><div class='cl'><div class='vertical-center'>$39<br>for<br>sure</div></div><div class='cr'><div class='vertical-center'>$81<br>with a<br>50% chance</div></div><div class='respDivL'><div class='vertical-center'>(E)</div></div><div class='respDivR'><div class='vertical-center'>(I)</div></div></div>","I","$39","$81","0","39","81","RISKY"
"html-keyboard-response","117","243742","0.0-5.0-3.37","5e7abb2c6c89e4000a180b4a","bdp_rd","Tue Mar 28 2023 15:39:09 GMT-0500 (Central Daylight Time)","313374","","null","","","","offerFB","","<div class='trialBorder'><div class='vertical-center'><img style='vertical-align:center; align:center' src=img/fixation3.jpg></div><div class='cl'><div class='vertical-center'>$39<br>for<br>sure</div></div><div class='cr'><div class='vertical-center'><font style='color:orange'>$81<br>with a<br>50% chance</font></div></div><div class='respDivL'><div class='vertical-center'>(E)</div></div><div class='respDivR'><div class='vertical-center'><font style='color:orange'>(I)</font></div></div></div>","null","$39","$81","0","39","81",""
"html-keyboard-response","118","244244","0.0-5.0-1.38","5e7abb2c6c89e4000a180b4a","bdp_rd","Tue Mar 28 2023 15:39:09 GMT-0500 (Central Daylight Time)","313374","","null","","","","FIX","","<div class='trialBorder'><div class='vertical-center'><img style='vertical-align:center; align:center' src=img/fixation3.jpg></div></div>","null","","","","","",""
"html-keyboard-response","119","246998","0.0-5.0-2.38","5e7abb2c6c89e4000a180b4a","bdp_rd","Tue Mar 28 2023 15:39:09 GMT-0500 (Central Daylight Time)","313374","","2752","","","","offer","","<div class='trialBorder'><div class='vertical-center'><img style='vertical-align:center; align:center' src=img/fixation3.jpg></div><div class='cl'><div class='vertical-center'>$34<br>with a<br>50% chance</div></div><div class='cr'><div class='vertical-center'>$15<br>for<br>sure</div></div><div class='respDivL'><div class='vertical-center'>(E)</div></div><div class='respDivR'><div class='vertical-center'>(I)</div></div></div>","E","$15","$34","1","15","34","RISKY"
"html-keyboard-response","120","247250","0.0-5.0-3.38","5e7abb2c6c89e4000a180b4a","bdp_rd","Tue Mar 28 2023 15:39:09 GMT-0500 (Central Daylight Time)","313374","","null","","","","offerFB","","<div class='trialBorder'><div class='vertical-center'><img style='vertical-align:center; align:center' src=img/fixation3.jpg></div><div class='cl'><div class='vertical-center'><font style='color:orange'>$34<br>with a<br>50% chance</font></div></div><div class='cr'><div class='vertical-center'>$15<br>for<br>sure</div></div><div class='respDivL'><div class='vertical-center'><font style='color:orange'>(E)</font></div></div><div class='respDivR'><div class='vertical-center'>(I)</div></div></div>","null","$15","$34","1","15","34",""
"html-keyboard-response","121","247752","0.0-5.0-1.39","5e7abb2c6c89e4000a180b4a","bdp_rd","Tue Mar 28 2023 15:39:09 GMT-0500 (Central Daylight Time)","313374","","null","","","","FIX","","<div class='trialBorder'><div class='vertical-center'><img style='vertical-align:center; align:center' src=img/fixation3.jpg></div></div>","null","","","","","",""
"html-keyboard-response","122","249590","0.0-5.0-2.39","5e7abb2c6c89e4000a180b4a","bdp_rd","Tue Mar 28 2023 15:39:09 GMT-0500 (Central Daylight Time)","313374","","1837","","","","offer","","<div class='trialBorder'><div class='vertical-center'><img style='vertical-align:center; align:center' src=img/fixation3.jpg></div><div class='cl'><div class='vertical-center'>$25<br>with a<br>50% chance</div></div><div class='cr'><div class='vertical-center'>$21<br>for<br>sure</div></div><div class='respDivL'><div class='vertical-center'>(E)</div></div><div class='respDivR'><div class='vertical-center'>(I)</div></div></div>","I","$21","$25","1","21","25","SURE"
"html-keyboard-response","123","249843","0.0-5.0-3.39","5e7abb2c6c89e4000a180b4a","bdp_rd","Tue Mar 28 2023 15:39:09 GMT-0500 (Central Daylight Time)","313374","","null","","","","offerFB","","<div class='trialBorder'><div class='vertical-center'><img style='vertical-align:center; align:center' src=img/fixation3.jpg></div><div class='cl'><div class='vertical-center'>$25<br>with a<br>50% chance</div></div><div class='cr'><div class='vertical-center'><font style='color:orange'>$21<br>for<br>sure</font></div></div><div class='respDivL'><div class='vertical-center'>(E)</div></div><div class='respDivR'><div class='vertical-center'><font style='color:orange'>(I)</font></div></div></div>","null","$21","$25","1","21","25",""
"html-keyboard-response","124","250346","0.0-5.0-1.40","5e7abb2c6c89e4000a180b4a","bdp_rd","Tue Mar 28 2023 15:39:09 GMT-0500 (Central Daylight Time)","313374","","null","","","","FIX","","<div class='trialBorder'><div class='vertical-center'><img style='vertical-align:center; align:center' src=img/fixation3.jpg></div></div>","null","","","","","",""
"html-keyboard-response","125","251900","0.0-5.0-2.40","5e7abb2c6c89e4000a180b4a","bdp_rd","Tue Mar 28 2023 15:39:09 GMT-0500 (Central Daylight Time)","313374","","1553","","","","offer","","<div class='trialBorder'><div class='vertical-center'><img style='vertical-align:center; align:center' src=img/fixation3.jpg></div><div class='cl'><div class='vertical-center'>$26<br>for<br>sure</div></div><div class='cr'><div class='vertical-center'>$92<br>with a<br>50% chance</div></div><div class='respDivL'><div class='vertical-center'>(E)</div></div><div class='respDivR'><div class='vertical-center'>(I)</div></div></div>","I","$26","$92","0","26","92","RISKY"
"html-keyboard-response","126","252152","0.0-5.0-3.40","5e7abb2c6c89e4000a180b4a","bdp_rd","Tue Mar 28 2023 15:39:09 GMT-0500 (Central Daylight Time)","313374","","null","","","","offerFB","","<div class='trialBorder'><div class='vertical-center'><img style='vertical-align:center; align:center' src=img/fixation3.jpg></div><div class='cl'><div class='vertical-center'>$26<br>for<br>sure</div></div><div class='cr'><div class='vertical-center'><font style='color:orange'>$92<br>with a<br>50% chance</font></div></div><div class='respDivL'><div class='vertical-center'>(E)</div></div><div class='respDivR'><div class='vertical-center'><font style='color:orange'>(I)</font></div></div></div>","null","$26","$92","0","26","92",""
"html-keyboard-response","127","252653","0.0-5.0-1.41","5e7abb2c6c89e4000a180b4a","bdp_rd","Tue Mar 28 2023 15:39:09 GMT-0500 (Central Daylight Time)","313374","","null","","","","FIX","","<div class='trialBorder'><div class='vertical-center'><img style='vertical-align:center; align:center' src=img/fixation3.jpg></div></div>","null","","","","","",""
"html-keyboard-response","128","254413","0.0-5.0-2.41","5e7abb2c6c89e4000a180b4a","bdp_rd","Tue Mar 28 2023 15:39:09 GMT-0500 (Central Daylight Time)","313374","","1758","","","","offer","","<div class='trialBorder'><div class='vertical-center'><img style='vertical-align:center; align:center' src=img/fixation3.jpg></div><div class='cl'><div class='vertical-center'>$11<br>for<br>sure</div></div><div class='cr'><div class='vertical-center'>$26<br>with a<br>50% chance</div></div><div class='respDivL'><div class='vertical-center'>(E)</div></div><div class='respDivR'><div class='vertical-center'>(I)</div></div></div>","I","$11","$26","0","11","26","RISKY"
"html-keyboard-response","129","254665","0.0-5.0-3.41","5e7abb2c6c89e4000a180b4a","bdp_rd","Tue Mar 28 2023 15:39:09 GMT-0500 (Central Daylight Time)","313374","","null","","","","offerFB","","<div class='trialBorder'><div class='vertical-center'><img style='vertical-align:center; align:center' src=img/fixation3.jpg></div><div class='cl'><div class='vertical-center'>$11<br>for<br>sure</div></div><div class='cr'><div class='vertical-center'><font style='color:orange'>$26<br>with a<br>50% chance</font></div></div><div class='respDivL'><div class='vertical-center'>(E)</div></div><div class='respDivR'><div class='vertical-center'><font style='color:orange'>(I)</font></div></div></div>","null","$11","$26","0","11","26",""
"html-keyboard-response","130","255168","0.0-5.0-1.42","5e7abb2c6c89e4000a180b4a","bdp_rd","Tue Mar 28 2023 15:39:09 GMT-0500 (Central Daylight Time)","313374","","null","","","","FIX","","<div class='trialBorder'><div class='vertical-center'><img style='vertical-align:center; align:center' src=img/fixation3.jpg></div></div>","null","","","","","",""
"html-keyboard-response","131","257553","0.0-5.0-2.42","5e7abb2c6c89e4000a180b4a","bdp_rd","Tue Mar 28 2023 15:39:09 GMT-0500 (Central Daylight Time)","313374","","2383","","","","offer","","<div class='trialBorder'><div class='vertical-center'><img style='vertical-align:center; align:center' src=img/fixation3.jpg></div><div class='cl'><div class='vertical-center'>$15<br>for<br>sure</div></div><div class='cr'><div class='vertical-center'>$31<br>with a<br>50% chance</div></div><div class='respDivL'><div class='vertical-center'>(E)</div></div><div class='respDivR'><div class='vertical-center'>(I)</div></div></div>","I","$15","$31","0","15","31","RISKY"
"html-keyboard-response","132","257807","0.0-5.0-3.42","5e7abb2c6c89e4000a180b4a","bdp_rd","Tue Mar 28 2023 15:39:09 GMT-0500 (Central Daylight Time)","313374","","null","","","","offerFB","","<div class='trialBorder'><div class='vertical-center'><img style='vertical-align:center; align:center' src=img/fixation3.jpg></div><div class='cl'><div class='vertical-center'>$15<br>for<br>sure</div></div><div class='cr'><div class='vertical-center'><font style='color:orange'>$31<br>with a<br>50% chance</font></div></div><div class='respDivL'><div class='vertical-center'>(E)</div></div><div class='respDivR'><div class='vertical-center'><font style='color:orange'>(I)</font></div></div></div>","null","$15","$31","0","15","31",""
"html-keyboard-response","133","258309","0.0-5.0-1.43","5e7abb2c6c89e4000a180b4a","bdp_rd","Tue Mar 28 2023 15:39:09 GMT-0500 (Central Daylight Time)","313374","","null","","","","FIX","","<div class='trialBorder'><div class='vertical-center'><img style='vertical-align:center; align:center' src=img/fixation3.jpg></div></div>","null","","","","","",""
"html-keyboard-response","134","259435","0.0-5.0-2.43","5e7abb2c6c89e4000a180b4a","bdp_rd","Tue Mar 28 2023 15:39:09 GMT-0500 (Central Daylight Time)","313374","","1124","","","","offer","","<div class='trialBorder'><div class='vertical-center'><img style='vertical-align:center; align:center' src=img/fixation3.jpg></div><div class='cl'><div class='vertical-center'>$7<br>for<br>sure</div></div><div class='cr'><div class='vertical-center'>$71<br>with a<br>50% chance</div></div><div class='respDivL'><div class='vertical-center'>(E)</div></div><div class='respDivR'><div class='vertical-center'>(I)</div></div></div>","I","$7","$71","0","7","71","RISKY"
"html-keyboard-response","135","259688","0.0-5.0-3.43","5e7abb2c6c89e4000a180b4a","bdp_rd","Tue Mar 28 2023 15:39:09 GMT-0500 (Central Daylight Time)","313374","","null","","","","offerFB","","<div class='trialBorder'><div class='vertical-center'><img style='vertical-align:center; align:center' src=img/fixation3.jpg></div><div class='cl'><div class='vertical-center'>$7<br>for<br>sure</div></div><div class='cr'><div class='vertical-center'><font style='color:orange'>$71<br>with a<br>50% chance</font></div></div><div class='respDivL'><div class='vertical-center'>(E)</div></div><div class='respDivR'><div class='vertical-center'><font style='color:orange'>(I)</font></div></div></div>","null","$7","$71","0","7","71",""
"html-keyboard-response","136","260191","0.0-5.0-1.44","5e7abb2c6c89e4000a180b4a","bdp_rd","Tue Mar 28 2023 15:39:09 GMT-0500 (Central Daylight Time)","313374","","null","","","","FIX","","<div class='trialBorder'><div class='vertical-center'><img style='vertical-align:center; align:center' src=img/fixation3.jpg></div></div>","null","","","","","",""
"html-keyboard-response","137","261569","0.0-5.0-2.44","5e7abb2c6c89e4000a180b4a","bdp_rd","Tue Mar 28 2023 15:39:09 GMT-0500 (Central Daylight Time)","313374","","1377","","","","offer","","<div class='trialBorder'><div class='vertical-center'><img style='vertical-align:center; align:center' src=img/fixation3.jpg></div><div class='cl'><div class='vertical-center'>$64<br>with a<br>50% chance</div></div><div class='cr'><div class='vertical-center'>$2<br>for<br>sure</div></div><div class='respDivL'><div class='vertical-center'>(E)</div></div><div class='respDivR'><div class='vertical-center'>(I)</div></div></div>","E","$2","$64","1","2","64","RISKY"
"html-keyboard-response","138","261822","0.0-5.0-3.44","5e7abb2c6c89e4000a180b4a","bdp_rd","Tue Mar 28 2023 15:39:09 GMT-0500 (Central Daylight Time)","313374","","null","","","","offerFB","","<div class='trialBorder'><div class='vertical-center'><img style='vertical-align:center; align:center' src=img/fixation3.jpg></div><div class='cl'><div class='vertical-center'><font style='color:orange'>$64<br>with a<br>50% chance</font></div></div><div class='cr'><div class='vertical-center'>$2<br>for<br>sure</div></div><div class='respDivL'><div class='vertical-center'><font style='color:orange'>(E)</font></div></div><div class='respDivR'><div class='vertical-center'>(I)</div></div></div>","null","$2","$64","1","2","64",""
"html-keyboard-response","139","262324","0.0-5.0-1.45","5e7abb2c6c89e4000a180b4a","bdp_rd","Tue Mar 28 2023 15:39:09 GMT-0500 (Central Daylight Time)","313374","","null","","","","FIX","","<div class='trialBorder'><div class='vertical-center'><img style='vertical-align:center; align:center' src=img/fixation3.jpg></div></div>","null","","","","","",""
"html-keyboard-response","140","265413","0.0-5.0-2.45","5e7abb2c6c89e4000a180b4a","bdp_rd","Tue Mar 28 2023 15:39:09 GMT-0500 (Central Daylight Time)","313374","","3088","","","","offer","","<div class='trialBorder'><div class='vertical-center'><img style='vertical-align:center; align:center' src=img/fixation3.jpg></div><div class='cl'><div class='vertical-center'>$42<br>with a<br>50% chance</div></div><div class='cr'><div class='vertical-center'>$22<br>for<br>sure</div></div><div class='respDivL'><div class='vertical-center'>(E)</div></div><div class='respDivR'><div class='vertical-center'>(I)</div></div></div>","I","$22","$42","1","22","42","SURE"
"html-keyboard-response","141","265666","0.0-5.0-3.45","5e7abb2c6c89e4000a180b4a","bdp_rd","Tue Mar 28 2023 15:39:09 GMT-0500 (Central Daylight Time)","313374","","null","","","","offerFB","","<div class='trialBorder'><div class='vertical-center'><img style='vertical-align:center; align:center' src=img/fixation3.jpg></div><div class='cl'><div class='vertical-center'>$42<br>with a<br>50% chance</div></div><div class='cr'><div class='vertical-center'><font style='color:orange'>$22<br>for<br>sure</font></div></div><div class='respDivL'><div class='vertical-center'>(E)</div></div><div class='respDivR'><div class='vertical-center'><font style='color:orange'>(I)</font></div></div></div>","null","$22","$42","1","22","42",""
"html-keyboard-response","142","266167","0.0-5.0-1.46","5e7abb2c6c89e4000a180b4a","bdp_rd","Tue Mar 28 2023 15:39:09 GMT-0500 (Central Daylight Time)","313374","","null","","","","FIX","","<div class='trialBorder'><div class='vertical-center'><img style='vertical-align:center; align:center' src=img/fixation3.jpg></div></div>","null","","","","","",""
"html-keyboard-response","143","267582","0.0-5.0-2.46","5e7abb2c6c89e4000a180b4a","bdp_rd","Tue Mar 28 2023 15:39:09 GMT-0500 (Central Daylight Time)","313374","","1414","","","","offer","","<div class='trialBorder'><div class='vertical-center'><img style='vertical-align:center; align:center' src=img/fixation3.jpg></div><div class='cl'><div class='vertical-center'>$17<br>for<br>sure</div></div><div class='cr'><div class='vertical-center'>$43<br>with a<br>50% chance</div></div><div class='respDivL'><div class='vertical-center'>(E)</div></div><div class='respDivR'><div class='vertical-center'>(I)</div></div></div>","I","$17","$43","0","17","43","RISKY"
"html-keyboard-response","144","267834","0.0-5.0-3.46","5e7abb2c6c89e4000a180b4a","bdp_rd","Tue Mar 28 2023 15:39:09 GMT-0500 (Central Daylight Time)","313374","","null","","","","offerFB","","<div class='trialBorder'><div class='vertical-center'><img style='vertical-align:center; align:center' src=img/fixation3.jpg></div><div class='cl'><div class='vertical-center'>$17<br>for<br>sure</div></div><div class='cr'><div class='vertical-center'><font style='color:orange'>$43<br>with a<br>50% chance</font></div></div><div class='respDivL'><div class='vertical-center'>(E)</div></div><div class='respDivR'><div class='vertical-center'><font style='color:orange'>(I)</font></div></div></div>","null","$17","$43","0","17","43",""
"html-keyboard-response","145","268337","0.0-5.0-1.47","5e7abb2c6c89e4000a180b4a","bdp_rd","Tue Mar 28 2023 15:39:09 GMT-0500 (Central Daylight Time)","313374","","null","","","","FIX","","<div class='trialBorder'><div class='vertical-center'><img style='vertical-align:center; align:center' src=img/fixation3.jpg></div></div>","null","","","","","",""
"html-keyboard-response","146","270033","0.0-5.0-2.47","5e7abb2c6c89e4000a180b4a","bdp_rd","Tue Mar 28 2023 15:39:09 GMT-0500 (Central Daylight Time)","313374","","1695","","","","offer","","<div class='trialBorder'><div class='vertical-center'><img style='vertical-align:center; align:center' src=img/fixation3.jpg></div><div class='cl'><div class='vertical-center'>$20<br>for<br>sure</div></div><div class='cr'><div class='vertical-center'>$37<br>with a<br>50% chance</div></div><div class='respDivL'><div class='vertical-center'>(E)</div></div><div class='respDivR'><div class='vertical-center'>(I)</div></div></div>","E","$20","$37","0","20","37","SURE"
"html-keyboard-response","147","270285","0.0-5.0-3.47","5e7abb2c6c89e4000a180b4a","bdp_rd","Tue Mar 28 2023 15:39:09 GMT-0500 (Central Daylight Time)","313374","","null","","","","offerFB","","<div class='trialBorder'><div class='vertical-center'><img style='vertical-align:center; align:center' src=img/fixation3.jpg></div><div class='cl'><div class='vertical-center'><font style='color:orange'>$20<br>for<br>sure</font></div></div><div class='cr'><div class='vertical-center'>$37<br>with a<br>50% chance</div></div><div class='respDivL'><div class='vertical-center'><font style='color:orange'>(E)</font></div></div><div class='respDivR'><div class='vertical-center'>(I)</div></div></div>","null","$20","$37","0","20","37",""
"html-keyboard-response","148","270787","0.0-5.0-1.48","5e7abb2c6c89e4000a180b4a","bdp_rd","Tue Mar 28 2023 15:39:09 GMT-0500 (Central Daylight Time)","313374","","null","","","","FIX","","<div class='trialBorder'><div class='vertical-center'><img style='vertical-align:center; align:center' src=img/fixation3.jpg></div></div>","null","","","","","",""
"html-keyboard-response","149","272258","0.0-5.0-2.48","5e7abb2c6c89e4000a180b4a","bdp_rd","Tue Mar 28 2023 15:39:09 GMT-0500 (Central Daylight Time)","313374","","1470","","","","offer","","<div class='trialBorder'><div class='vertical-center'><img style='vertical-align:center; align:center' src=img/fixation3.jpg></div><div class='cl'><div class='vertical-center'>$1<br>for<br>sure</div></div><div class='cr'><div class='vertical-center'>$30<br>with a<br>50% chance</div></div><div class='respDivL'><div class='vertical-center'>(E)</div></div><div class='respDivR'><div class='vertical-center'>(I)</div></div></div>","I","$1","$30","0","1","30","RISKY"
"html-keyboard-response","150","272511","0.0-5.0-3.48","5e7abb2c6c89e4000a180b4a","bdp_rd","Tue Mar 28 2023 15:39:09 GMT-0500 (Central Daylight Time)","313374","","null","","","","offerFB","","<div class='trialBorder'><div class='vertical-center'><img style='vertical-align:center; align:center' src=img/fixation3.jpg></div><div class='cl'><div class='vertical-center'>$1<br>for<br>sure</div></div><div class='cr'><div class='vertical-center'><font style='color:orange'>$30<br>with a<br>50% chance</font></div></div><div class='respDivL'><div class='vertical-center'>(E)</div></div><div class='respDivR'><div class='vertical-center'><font style='color:orange'>(I)</font></div></div></div>","null","$1","$30","0","1","30",""
"html-keyboard-response","151","273013","0.0-5.0-1.49","5e7abb2c6c89e4000a180b4a","bdp_rd","Tue Mar 28 2023 15:39:09 GMT-0500 (Central Daylight Time)","313374","","null","","","","FIX","","<div class='trialBorder'><div class='vertical-center'><img style='vertical-align:center; align:center' src=img/fixation3.jpg></div></div>","null","","","","","",""
"html-keyboard-response","152","274661","0.0-5.0-2.49","5e7abb2c6c89e4000a180b4a","bdp_rd","Tue Mar 28 2023 15:39:09 GMT-0500 (Central Daylight Time)","313374","","1647","","","","offer","","<div class='trialBorder'><div class='vertical-center'><img style='vertical-align:center; align:center' src=img/fixation3.jpg></div><div class='cl'><div class='vertical-center'>$62<br>with a<br>50% chance</div></div><div class='cr'><div class='vertical-center'>$11<br>for<br>sure</div></div><div class='respDivL'><div class='vertical-center'>(E)</div></div><div class='respDivR'><div class='vertical-center'>(I)</div></div></div>","E","$11","$62","1","11","62","RISKY"
"html-keyboard-response","153","274913","0.0-5.0-3.49","5e7abb2c6c89e4000a180b4a","bdp_rd","Tue Mar 28 2023 15:39:09 GMT-0500 (Central Daylight Time)","313374","","null","","","","offerFB","","<div class='trialBorder'><div class='vertical-center'><img style='vertical-align:center; align:center' src=img/fixation3.jpg></div><div class='cl'><div class='vertical-center'><font style='color:orange'>$62<br>with a<br>50% chance</font></div></div><div class='cr'><div class='vertical-center'>$11<br>for<br>sure</div></div><div class='respDivL'><div class='vertical-center'><font style='color:orange'>(E)</font></div></div><div class='respDivR'><div class='vertical-center'>(I)</div></div></div>","null","$11","$62","1","11","62",""
"html-keyboard-response","154","275415","0.0-5.0-1.50","5e7abb2c6c89e4000a180b4a","bdp_rd","Tue Mar 28 2023 15:39:09 GMT-0500 (Central Daylight Time)","313374","","null","","","","FIX","","<div class='trialBorder'><div class='vertical-center'><img style='vertical-align:center; align:center' src=img/fixation3.jpg></div></div>","null","","","","","",""
"html-keyboard-response","155","277612","0.0-5.0-2.50","5e7abb2c6c89e4000a180b4a","bdp_rd","Tue Mar 28 2023 15:39:09 GMT-0500 (Central Daylight Time)","313374","","2195","","","","offer","","<div class='trialBorder'><div class='vertical-center'><img style='vertical-align:center; align:center' src=img/fixation3.jpg></div><div class='cl'><div class='vertical-center'>$16<br>with a<br>50% chance</div></div><div class='cr'><div class='vertical-center'>$5<br>for<br>sure</div></div><div class='respDivL'><div class='vertical-center'>(E)</div></div><div class='respDivR'><div class='vertical-center'>(I)</div></div></div>","E","$5","$16","1","5","16","RISKY"
"html-keyboard-response","156","277865","0.0-5.0-3.50","5e7abb2c6c89e4000a180b4a","bdp_rd","Tue Mar 28 2023 15:39:09 GMT-0500 (Central Daylight Time)","313374","","null","","","","offerFB","","<div class='trialBorder'><div class='vertical-center'><img style='vertical-align:center; align:center' src=img/fixation3.jpg></div><div class='cl'><div class='vertical-center'><font style='color:orange'>$16<br>with a<br>50% chance</font></div></div><div class='cr'><div class='vertical-center'>$5<br>for<br>sure</div></div><div class='respDivL'><div class='vertical-center'><font style='color:orange'>(E)</font></div></div><div class='respDivR'><div class='vertical-center'>(I)</div></div></div>","null","$5","$16","1","5","16",""
"html-keyboard-response","157","278367","0.0-5.0-1.51","5e7abb2c6c89e4000a180b4a","bdp_rd","Tue Mar 28 2023 15:39:09 GMT-0500 (Central Daylight Time)","313374","","null","","","","FIX","","<div class='trialBorder'><div class='vertical-center'><img style='vertical-align:center; align:center' src=img/fixation3.jpg></div></div>","null","","","","","",""
"html-keyboard-response","158","280250","0.0-5.0-2.51","5e7abb2c6c89e4000a180b4a","bdp_rd","Tue Mar 28 2023 15:39:09 GMT-0500 (Central Daylight Time)","313374","","1882","","","","offer","","<div class='trialBorder'><div class='vertical-center'><img style='vertical-align:center; align:center' src=img/fixation3.jpg></div><div class='cl'><div class='vertical-center'>$63<br>for<br>sure</div></div><div class='cr'><div class='vertical-center'>$100<br>with a<br>50% chance</div></div><div class='respDivL'><div class='vertical-center'>(E)</div></div><div class='respDivR'><div class='vertical-center'>(I)</div></div></div>","E","$63","$100","0","63","10","SURE"
"html-keyboard-response","159","280503","0.0-5.0-3.51","5e7abb2c6c89e4000a180b4a","bdp_rd","Tue Mar 28 2023 15:39:09 GMT-0500 (Central Daylight Time)","313374","","null","","","","offerFB","","<div class='trialBorder'><div class='vertical-center'><img style='vertical-align:center; align:center' src=img/fixation3.jpg></div><div class='cl'><div class='vertical-center'><font style='color:orange'>$63<br>for<br>sure</font></div></div><div class='cr'><div class='vertical-center'>$100<br>with a<br>50% chance</div></div><div class='respDivL'><div class='vertical-center'><font style='color:orange'>(E)</font></div></div><div class='respDivR'><div class='vertical-center'>(I)</div></div></div>","null","$63","$100","0","63","10",""
"html-keyboard-response","160","281005","0.0-5.0-1.52","5e7abb2c6c89e4000a180b4a","bdp_rd","Tue Mar 28 2023 15:39:09 GMT-0500 (Central Daylight Time)","313374","","null","","","","FIX","","<div class='trialBorder'><div class='vertical-center'><img style='vertical-align:center; align:center' src=img/fixation3.jpg></div></div>","null","","","","","",""
"html-keyboard-response","161","283878","0.0-5.0-2.52","5e7abb2c6c89e4000a180b4a","bdp_rd","Tue Mar 28 2023 15:39:09 GMT-0500 (Central Daylight Time)","313374","","2872","","","","offer","","<div class='trialBorder'><div class='vertical-center'><img style='vertical-align:center; align:center' src=img/fixation3.jpg></div><div class='cl'><div class='vertical-center'>$47<br>with a<br>50% chance</div></div><div class='cr'><div class='vertical-center'>$27<br>for<br>sure</div></div><div class='respDivL'><div class='vertical-center'>(E)</div></div><div class='respDivR'><div class='vertical-center'>(I)</div></div></div>","I","$27","$47","1","27","47","SURE"
"html-keyboard-response","162","284131","0.0-5.0-3.52","5e7abb2c6c89e4000a180b4a","bdp_rd","Tue Mar 28 2023 15:39:09 GMT-0500 (Central Daylight Time)","313374","","null","","","","offerFB","","<div class='trialBorder'><div class='vertical-center'><img style='vertical-align:center; align:center' src=img/fixation3.jpg></div><div class='cl'><div class='vertical-center'>$47<br>with a<br>50% chance</div></div><div class='cr'><div class='vertical-center'><font style='color:orange'>$27<br>for<br>sure</font></div></div><div class='respDivL'><div class='vertical-center'>(E)</div></div><div class='respDivR'><div class='vertical-center'><font style='color:orange'>(I)</font></div></div></div>","null","$27","$47","1","27","47",""
"html-keyboard-response","163","284635","0.0-5.0-1.53","5e7abb2c6c89e4000a180b4a","bdp_rd","Tue Mar 28 2023 15:39:09 GMT-0500 (Central Daylight Time)","313374","","null","","","","FIX","","<div class='trialBorder'><div class='vertical-center'><img style='vertical-align:center; align:center' src=img/fixation3.jpg></div></div>","null","","","","","",""
"html-keyboard-response","164","286204","0.0-5.0-2.53","5e7abb2c6c89e4000a180b4a","bdp_rd","Tue Mar 28 2023 15:39:09 GMT-0500 (Central Daylight Time)","313374","","1568","","","","offer","","<div class='trialBorder'><div class='vertical-center'><img style='vertical-align:center; align:center' src=img/fixation3.jpg></div><div class='cl'><div class='vertical-center'>$13<br>for<br>sure</div></div><div class='cr'><div class='vertical-center'>$41<br>with a<br>50% chance</div></div><div class='respDivL'><div class='vertical-center'>(E)</div></div><div class='respDivR'><div class='vertical-center'>(I)</div></div></div>","I","$13","$41","0","13","41","RISKY"
"html-keyboard-response","165","286456","0.0-5.0-3.53","5e7abb2c6c89e4000a180b4a","bdp_rd","Tue Mar 28 2023 15:39:09 GMT-0500 (Central Daylight Time)","313374","","null","","","","offerFB","","<div class='trialBorder'><div class='vertical-center'><img style='vertical-align:center; align:center' src=img/fixation3.jpg></div><div class='cl'><div class='vertical-center'>$13<br>for<br>sure</div></div><div class='cr'><div class='vertical-center'><font style='color:orange'>$41<br>with a<br>50% chance</font></div></div><div class='respDivL'><div class='vertical-center'>(E)</div></div><div class='respDivR'><div class='vertical-center'><font style='color:orange'>(I)</font></div></div></div>","null","$13","$41","0","13","41",""
"html-keyboard-response","166","286958","0.0-5.0-1.54","5e7abb2c6c89e4000a180b4a","bdp_rd","Tue Mar 28 2023 15:39:09 GMT-0500 (Central Daylight Time)","313374","","null","","","","FIX","","<div class='trialBorder'><div class='vertical-center'><img style='vertical-align:center; align:center' src=img/fixation3.jpg></div></div>","null","","","","","",""
"html-keyboard-response","167","289921","0.0-5.0-2.54","5e7abb2c6c89e4000a180b4a","bdp_rd","Tue Mar 28 2023 15:39:09 GMT-0500 (Central Daylight Time)","313374","","2961","","","","offer","","<div class='trialBorder'><div class='vertical-center'><img style='vertical-align:center; align:center' src=img/fixation3.jpg></div><div class='cl'><div class='vertical-center'>$59<br>with a<br>50% chance</div></div><div class='cr'><div class='vertical-center'>$22<br>for<br>sure</div></div><div class='respDivL'><div class='vertical-center'>(E)</div></div><div class='respDivR'><div class='vertical-center'>(I)</div></div></div>","E","$22","$59","1","22","59","RISKY"
"html-keyboard-response","168","290174","0.0-5.0-3.54","5e7abb2c6c89e4000a180b4a","bdp_rd","Tue Mar 28 2023 15:39:09 GMT-0500 (Central Daylight Time)","313374","","null","","","","offerFB","","<div class='trialBorder'><div class='vertical-center'><img style='vertical-align:center; align:center' src=img/fixation3.jpg></div><div class='cl'><div class='vertical-center'><font style='color:orange'>$59<br>with a<br>50% chance</font></div></div><div class='cr'><div class='vertical-center'>$22<br>for<br>sure</div></div><div class='respDivL'><div class='vertical-center'><font style='color:orange'>(E)</font></div></div><div class='respDivR'><div class='vertical-center'>(I)</div></div></div>","null","$22","$59","1","22","59",""
"html-keyboard-response","169","290676","0.0-5.0-1.55","5e7abb2c6c89e4000a180b4a","bdp_rd","Tue Mar 28 2023 15:39:09 GMT-0500 (Central Daylight Time)","313374","","null","","","","FIX","","<div class='trialBorder'><div class='vertical-center'><img style='vertical-align:center; align:center' src=img/fixation3.jpg></div></div>","null","","","","","",""
"html-keyboard-response","170","293522","0.0-5.0-2.55","5e7abb2c6c89e4000a180b4a","bdp_rd","Tue Mar 28 2023 15:39:09 GMT-0500 (Central Daylight Time)","313374","","2844","","","","offer","","<div class='trialBorder'><div class='vertical-center'><img style='vertical-align:center; align:center' src=img/fixation3.jpg></div><div class='cl'><div class='vertical-center'>$73<br>with a<br>50% chance</div></div><div class='cr'><div class='vertical-center'>$42<br>for<br>sure</div></div><div class='respDivL'><div class='vertical-center'>(E)</div></div><div class='respDivR'><div class='vertical-center'>(I)</div></div></div>","I","$42","$73","1","42","73","SURE"
"html-keyboard-response","171","293775","0.0-5.0-3.55","5e7abb2c6c89e4000a180b4a","bdp_rd","Tue Mar 28 2023 15:39:09 GMT-0500 (Central Daylight Time)","313374","","null","","","","offerFB","","<div class='trialBorder'><div class='vertical-center'><img style='vertical-align:center; align:center' src=img/fixation3.jpg></div><div class='cl'><div class='vertical-center'>$73<br>with a<br>50% chance</div></div><div class='cr'><div class='vertical-center'><font style='color:orange'>$42<br>for<br>sure</font></div></div><div class='respDivL'><div class='vertical-center'>(E)</div></div><div class='respDivR'><div class='vertical-center'><font style='color:orange'>(I)</font></div></div></div>","null","$42","$73","1","42","73",""
"html-keyboard-response","172","294278","0.0-5.0-1.56","5e7abb2c6c89e4000a180b4a","bdp_rd","Tue Mar 28 2023 15:39:09 GMT-0500 (Central Daylight Time)","313374","","null","","","","FIX","","<div class='trialBorder'><div class='vertical-center'><img style='vertical-align:center; align:center' src=img/fixation3.jpg></div></div>","null","","","","","",""
"html-keyboard-response","173","302636","0.0-5.0-2.56","5e7abb2c6c89e4000a180b4a","bdp_rd","Tue Mar 28 2023 15:39:09 GMT-0500 (Central Daylight Time)","313374","","8356","","","","offer","","<div class='trialBorder'><div class='vertical-center'><img style='vertical-align:center; align:center' src=img/fixation3.jpg></div><div class='cl'><div class='vertical-center'>$16<br>for<br>sure</div></div><div class='cr'><div class='vertical-center'>$38<br>with a<br>50% chance</div></div><div class='respDivL'><div class='vertical-center'>(E)</div></div><div class='respDivR'><div class='vertical-center'>(I)</div></div></div>","I","$16","$38","0","16","38","RISKY"
