"trial_type","trial_index","time_elapsed","internal_node_id","subject_id","task","startTime","totalTime","view_history","rt","event","trial","time","trialtype","success","stimulus","key_press","sureOffer","riskyOffer","riskyLeft","sureAmt","riskyAmt","chosen"
"pavlovia","0","13","0.0-0.0","63dcc00d97b599698e60a1a6","bdp_rd","Sun Mar 26 2023 02:50:17 GMT-0400 (Eastern Daylight Time)","144511","","","","","","","","","","","","","","",""
"instructions","1","4657","0.0-1.0","63dcc00d97b599698e60a1a6","bdp_rd","Sun Mar 26 2023 02:50:17 GMT-0400 (Eastern Daylight Time)","144511","[{""page_index"":0,""viewing_time"":4643}]","4643","","","","","","","","","","","","",""
"","","","","63dcc00d97b599698e60a1a6","bdp_rd","Sun Mar 26 2023 02:50:17 GMT-0400 (Eastern Daylight Time)","144511","","","fullscreenenter","2","7709","fullscreenenter","","","","","","","","",""
"fullscreen","2","8690","0.0-2.0","63dcc00d97b599698e60a1a6","bdp_rd","Sun Mar 26 2023 02:50:17 GMT-0400 (Eastern Daylight Time)","144511","","","","","","","true","","","","","","","",""
"instructions","3","51349","0.0-4.0","63dcc00d97b599698e60a1a6","bdp_rd","Sun Mar 26 2023 02:50:17 GMT-0400 (Eastern Daylight Time)","144511","[{""page_index"":0,""viewing_time"":21213},{""page_index"":1,""viewing_time"":17265},{""page_index"":2,""viewing_time"":4179}]","42657","","","","","","","","","","","","",""
"html-keyboard-response","4","51854","0.0-5.0-1.0","63dcc00d97b599698e60a1a6","bdp_rd","Sun Mar 26 2023 02:50:17 GMT-0400 (Eastern Daylight Time)","144511","","null","","","","FIX","","<div class='trialBorder'><div class='vertical-center'><img style='vertical-align:center; align:center' src=img/fixation3.jpg></div></div>","null","","","","","",""
"html-keyboard-response","5","60551","0.0-5.0-2.0","63dcc00d97b599698e60a1a6","bdp_rd","Sun Mar 26 2023 02:50:17 GMT-0400 (Eastern Daylight Time)","144511","","8693","","","","offer","","<div class='trialBorder'><div class='vertical-center'><img style='vertical-align:center; align:center' src=img/fixation3.jpg></div><div class='cl'><div class='vertical-center'>$46<br>for<br>sure</div></div><div class='cr'><div class='vertical-center'>$65<br>with a<br>50% chance</div></div><div class='respDivL'><div class='vertical-center'>(E)</div></div><div class='respDivR'><div class='vertical-center'>(I)</div></div></div>","I","$46","$65","0","46","65","RISKY"
"html-keyboard-response","6","60806","0.0-5.0-3.0","63dcc00d97b599698e60a1a6","bdp_rd","Sun Mar 26 2023 02:50:17 GMT-0400 (Eastern Daylight Time)","144511","","null","","","","offerFB","","<div class='trialBorder'><div class='vertical-center'><img style='vertical-align:center; align:center' src=img/fixation3.jpg></div><div class='cl'><div class='vertical-center'>$46<br>for<br>sure</div></div><div class='cr'><div class='vertical-center'><font style='color:orange'>$65<br>with a<br>50% chance</font></div></div><div class='respDivL'><div class='vertical-center'>(E)</div></div><div class='respDivR'><div class='vertical-center'><font style='color:orange'>(I)</font></div></div></div>","null","$46","$65","0","46","65",""
"html-keyboard-response","7","61309","0.0-5.0-1.1","63dcc00d97b599698e60a1a6","bdp_rd","Sun Mar 26 2023 02:50:17 GMT-0400 (Eastern Daylight Time)","144511","","null","","","","FIX","","<div class='trialBorder'><div class='vertical-center'><img style='vertical-align:center; align:center' src=img/fixation3.jpg></div></div>","null","","","","","",""
"html-keyboard-response","8","63579","0.0-5.0-2.1","63dcc00d97b599698e60a1a6","bdp_rd","Sun Mar 26 2023 02:50:17 GMT-0400 (Eastern Daylight Time)","144511","","2268","","","","offer","","<div class='trialBorder'><div class='vertical-center'><img style='vertical-align:center; align:center' src=img/fixation3.jpg></div><div class='cl'><div class='vertical-center'>$100<br>with a<br>50% chance</div></div><div class='cr'><div class='vertical-center'>$63<br>for<br>sure</div></div><div class='respDivL'><div class='vertical-center'>(E)</div></div><div class='respDivR'><div class='vertical-center'>(I)</div></div></div>","E","$63","$100","1","63","10","RISKY"
"html-keyboard-response","9","63832","0.0-5.0-3.1","63dcc00d97b599698e60a1a6","bdp_rd","Sun Mar 26 2023 02:50:17 GMT-0400 (Eastern Daylight Time)","144511","","null","","","","offerFB","","<div class='trialBorder'><div class='vertical-center'><img style='vertical-align:center; align:center' src=img/fixation3.jpg></div><div class='cl'><div class='vertical-center'><font style='color:orange'>$100<br>with a<br>50% chance</font></div></div><div class='cr'><div class='vertical-center'>$63<br>for<br>sure</div></div><div class='respDivL'><div class='vertical-center'><font style='color:orange'>(E)</font></div></div><div class='respDivR'><div class='vertical-center'>(I)</div></div></div>","null","$63","$100","1","63","10",""
"html-keyboard-response","10","64335","0.0-5.0-1.2","63dcc00d97b599698e60a1a6","bdp_rd","Sun Mar 26 2023 02:50:17 GMT-0400 (Eastern Daylight Time)","144511","","null","","","","FIX","","<div class='trialBorder'><div class='vertical-center'><img style='vertical-align:center; align:center' src=img/fixation3.jpg></div></div>","null","","","","","",""
"html-keyboard-response","11","66483","0.0-5.0-2.2","63dcc00d97b599698e60a1a6","bdp_rd","Sun Mar 26 2023 02:50:17 GMT-0400 (Eastern Daylight Time)","144511","","2147","","","","offer","","<div class='trialBorder'><div class='vertical-center'><img style='vertical-align:center; align:center' src=img/fixation3.jpg></div><div class='cl'><div class='vertical-center'>$20<br>for<br>sure</div></div><div class='cr'><div class='vertical-center'>$37<br>with a<br>50% chance</div></div><div class='respDivL'><div class='vertical-center'>(E)</div></div><div class='respDivR'><div class='vertical-center'>(I)</div></div></div>","E","$20","$37","0","20","37","SURE"
"html-keyboard-response","12","66736","0.0-5.0-3.2","63dcc00d97b599698e60a1a6","bdp_rd","Sun Mar 26 2023 02:50:17 GMT-0400 (Eastern Daylight Time)","144511","","null","","","","offerFB","","<div class='trialBorder'><div class='vertical-center'><img style='vertical-align:center; align:center' src=img/fixation3.jpg></div><div class='cl'><div class='vertical-center'><font style='color:orange'>$20<br>for<br>sure</font></div></div><div class='cr'><div class='vertical-center'>$37<br>with a<br>50% chance</div></div><div class='respDivL'><div class='vertical-center'><font style='color:orange'>(E)</font></div></div><div class='respDivR'><div class='vertical-center'>(I)</div></div></div>","null","$20","$37","0","20","37",""
"html-keyboard-response","13","67238","0.0-5.0-1.3","63dcc00d97b599698e60a1a6","bdp_rd","Sun Mar 26 2023 02:50:17 GMT-0400 (Eastern Daylight Time)","144511","","null","","","","FIX","","<div class='trialBorder'><div class='vertical-center'><img style='vertical-align:center; align:center' src=img/fixation3.jpg></div></div>","null","","","","","",""
"html-keyboard-response","14","68848","0.0-5.0-2.3","63dcc00d97b599698e60a1a6","bdp_rd","Sun Mar 26 2023 02:50:17 GMT-0400 (Eastern Daylight Time)","144511","","1608","","","","offer","","<div class='trialBorder'><div class='vertical-center'><img style='vertical-align:center; align:center' src=img/fixation3.jpg></div><div class='cl'><div class='vertical-center'>$40<br>for<br>sure</div></div><div class='cr'><div class='vertical-center'>$95<br>with a<br>50% chance</div></div><div class='respDivL'><div class='vertical-center'>(E)</div></div><div class='respDivR'><div class='vertical-center'>(I)</div></div></div>","I","$40","$95","0","40","95","RISKY"
"html-keyboard-response","15","69101","0.0-5.0-3.3","63dcc00d97b599698e60a1a6","bdp_rd","Sun Mar 26 2023 02:50:17 GMT-0400 (Eastern Daylight Time)","144511","","null","","","","offerFB","","<div class='trialBorder'><div class='vertical-center'><img style='vertical-align:center; align:center' src=img/fixation3.jpg></div><div class='cl'><div class='vertical-center'>$40<br>for<br>sure</div></div><div class='cr'><div class='vertical-center'><font style='color:orange'>$95<br>with a<br>50% chance</font></div></div><div class='respDivL'><div class='vertical-center'>(E)</div></div><div class='respDivR'><div class='vertical-center'><font style='color:orange'>(I)</font></div></div></div>","null","$40","$95","0","40","95",""
"html-keyboard-response","16","69604","0.0-5.0-1.4","63dcc00d97b599698e60a1a6","bdp_rd","Sun Mar 26 2023 02:50:17 GMT-0400 (Eastern Daylight Time)","144511","","null","","","","FIX","","<div class='trialBorder'><div class='vertical-center'><img style='vertical-align:center; align:center' src=img/fixation3.jpg></div></div>","null","","","","","",""
"html-keyboard-response","17","72175","0.0-5.0-2.4","63dcc00d97b599698e60a1a6","bdp_rd","Sun Mar 26 2023 02:50:17 GMT-0400 (Eastern Daylight Time)","144511","","2569","","","","offer","","<div class='trialBorder'><div class='vertical-center'><img style='vertical-align:center; align:center' src=img/fixation3.jpg></div><div class='cl'><div class='vertical-center'>$15<br>with a<br>50% chance</div></div><div class='cr'><div class='vertical-center'>$6<br>for<br>sure</div></div><div class='respDivL'><div class='vertical-center'>(E)</div></div><div class='respDivR'><div class='vertical-center'>(I)</div></div></div>","E","$6","$15","1","6","15","RISKY"
"html-keyboard-response","18","72429","0.0-5.0-3.4","63dcc00d97b599698e60a1a6","bdp_rd","Sun Mar 26 2023 02:50:17 GMT-0400 (Eastern Daylight Time)","144511","","null","","","","offerFB","","<div class='trialBorder'><div class='vertical-center'><img style='vertical-align:center; align:center' src=img/fixation3.jpg></div><div class='cl'><div class='vertical-center'><font style='color:orange'>$15<br>with a<br>50% chance</font></div></div><div class='cr'><div class='vertical-center'>$6<br>for<br>sure</div></div><div class='respDivL'><div class='vertical-center'><font style='color:orange'>(E)</font></div></div><div class='respDivR'><div class='vertical-center'>(I)</div></div></div>","null","$6","$15","1","6","15",""
"html-keyboard-response","19","72932","0.0-5.0-1.5","63dcc00d97b599698e60a1a6","bdp_rd","Sun Mar 26 2023 02:50:17 GMT-0400 (Eastern Daylight Time)","144511","","null","","","","FIX","","<div class='trialBorder'><div class='vertical-center'><img style='vertical-align:center; align:center' src=img/fixation3.jpg></div></div>","null","","","","","",""
"html-keyboard-response","20","73931","0.0-5.0-2.5","63dcc00d97b599698e60a1a6","bdp_rd","Sun Mar 26 2023 02:50:17 GMT-0400 (Eastern Daylight Time)","144511","","997","","","","offer","","<div class='trialBorder'><div class='vertical-center'><img style='vertical-align:center; align:center' src=img/fixation3.jpg></div><div class='cl'><div class='vertical-center'>$12<br>with a<br>50% chance</div></div><div class='cr'><div class='vertical-center'>$3<br>for<br>sure</div></div><div class='respDivL'><div class='vertical-center'>(E)</div></div><div class='respDivR'><div class='vertical-center'>(I)</div></div></div>","E","$3","$12","1","3","12","RISKY"
"html-keyboard-response","21","74184","0.0-5.0-3.5","63dcc00d97b599698e60a1a6","bdp_rd","Sun Mar 26 2023 02:50:17 GMT-0400 (Eastern Daylight Time)","144511","","null","","","","offerFB","","<div class='trialBorder'><div class='vertical-center'><img style='vertical-align:center; align:center' src=img/fixation3.jpg></div><div class='cl'><div class='vertical-center'><font style='color:orange'>$12<br>with a<br>50% chance</font></div></div><div class='cr'><div class='vertical-center'>$3<br>for<br>sure</div></div><div class='respDivL'><div class='vertical-center'><font style='color:orange'>(E)</font></div></div><div class='respDivR'><div class='vertical-center'>(I)</div></div></div>","null","$3","$12","1","3","12",""
"html-keyboard-response","22","74687","0.0-5.0-1.6","63dcc00d97b599698e60a1a6","bdp_rd","Sun Mar 26 2023 02:50:17 GMT-0400 (Eastern Daylight Time)","144511","","null","","","","FIX","","<div class='trialBorder'><div class='vertical-center'><img style='vertical-align:center; align:center' src=img/fixation3.jpg></div></div>","null","","","","","",""
"html-keyboard-response","23","75221","0.0-5.0-2.6","63dcc00d97b599698e60a1a6","bdp_rd","Sun Mar 26 2023 02:50:17 GMT-0400 (Eastern Daylight Time)","144511","","532","","","","offer","","<div class='trialBorder'><div class='vertical-center'><img style='vertical-align:center; align:center' src=img/fixation3.jpg></div><div class='cl'><div class='vertical-center'>$16<br>for<br>sure</div></div><div class='cr'><div class='vertical-center'>$38<br>with a<br>50% chance</div></div><div class='respDivL'><div class='vertical-center'>(E)</div></div><div class='respDivR'><div class='vertical-center'>(I)</div></div></div>","E","$16","$38","0","16","38","SURE"
"html-keyboard-response","24","75474","0.0-5.0-3.6","63dcc00d97b599698e60a1a6","bdp_rd","Sun Mar 26 2023 02:50:17 GMT-0400 (Eastern Daylight Time)","144511","","null","","","","offerFB","","<div class='trialBorder'><div class='vertical-center'><img style='vertical-align:center; align:center' src=img/fixation3.jpg></div><div class='cl'><div class='vertical-center'><font style='color:orange'>$16<br>for<br>sure</font></div></div><div class='cr'><div class='vertical-center'>$38<br>with a<br>50% chance</div></div><div class='respDivL'><div class='vertical-center'><font style='color:orange'>(E)</font></div></div><div class='respDivR'><div class='vertical-center'>(I)</div></div></div>","null","$16","$38","0","16","38",""
"html-keyboard-response","25","75977","0.0-5.0-1.7","63dcc00d97b599698e60a1a6","bdp_rd","Sun Mar 26 2023 02:50:17 GMT-0400 (Eastern Daylight Time)","144511","","null","","","","FIX","","<div class='trialBorder'><div class='vertical-center'><img style='vertical-align:center; align:center' src=img/fixation3.jpg></div></div>","null","","","","","",""
"html-keyboard-response","26","76685","0.0-5.0-2.7","63dcc00d97b599698e60a1a6","bdp_rd","Sun Mar 26 2023 02:50:17 GMT-0400 (Eastern Daylight Time)","144511","","707","","","","offer","","<div class='trialBorder'><div class='vertical-center'><img style='vertical-align:center; align:center' src=img/fixation3.jpg></div><div class='cl'><div class='vertical-center'>$45<br>with a<br>50% chance</div></div><div class='cr'><div class='vertical-center'>$8<br>for<br>sure</div></div><div class='respDivL'><div class='vertical-center'>(E)</div></div><div class='respDivR'><div class='vertical-center'>(I)</div></div></div>","E","$8","$45","1","8","45","RISKY"
"html-keyboard-response","27","76938","0.0-5.0-3.7","63dcc00d97b599698e60a1a6","bdp_rd","Sun Mar 26 2023 02:50:17 GMT-0400 (Eastern Daylight Time)","144511","","null","","","","offerFB","","<div class='trialBorder'><div class='vertical-center'><img style='vertical-align:center; align:center' src=img/fixation3.jpg></div><div class='cl'><div class='vertical-center'><font style='color:orange'>$45<br>with a<br>50% chance</font></div></div><div class='cr'><div class='vertical-center'>$8<br>for<br>sure</div></div><div class='respDivL'><div class='vertical-center'><font style='color:orange'>(E)</font></div></div><div class='respDivR'><div class='vertical-center'>(I)</div></div></div>","null","$8","$45","1","8","45",""
"html-keyboard-response","28","77441","0.0-5.0-1.8","63dcc00d97b599698e60a1a6","bdp_rd","Sun Mar 26 2023 02:50:17 GMT-0400 (Eastern Daylight Time)","144511","","null","","","","FIX","","<div class='trialBorder'><div class='vertical-center'><img style='vertical-align:center; align:center' src=img/fixation3.jpg></div></div>","null","","","","","",""
"html-keyboard-response","29","77950","0.0-5.0-2.8","63dcc00d97b599698e60a1a6","bdp_rd","Sun Mar 26 2023 02:50:17 GMT-0400 (Eastern Daylight Time)","144511","","507","","","","offer","","<div class='trialBorder'><div class='vertical-center'><img style='vertical-align:center; align:center' src=img/fixation3.jpg></div><div class='cl'><div class='vertical-center'>$16<br>with a<br>50% chance</div></div><div class='cr'><div class='vertical-center'>$5<br>for<br>sure</div></div><div class='respDivL'><div class='vertical-center'>(E)</div></div><div class='respDivR'><div class='vertical-center'>(I)</div></div></div>","E","$5","$16","1","5","16","RISKY"
"html-keyboard-response","30","78203","0.0-5.0-3.8","63dcc00d97b599698e60a1a6","bdp_rd","Sun Mar 26 2023 02:50:17 GMT-0400 (Eastern Daylight Time)","144511","","null","","","","offerFB","","<div class='trialBorder'><div class='vertical-center'><img style='vertical-align:center; align:center' src=img/fixation3.jpg></div><div class='cl'><div class='vertical-center'><font style='color:orange'>$16<br>with a<br>50% chance</font></div></div><div class='cr'><div class='vertical-center'>$5<br>for<br>sure</div></div><div class='respDivL'><div class='vertical-center'><font style='color:orange'>(E)</font></div></div><div class='respDivR'><div class='vertical-center'>(I)</div></div></div>","null","$5","$16","1","5","16",""
"html-keyboard-response","31","78705","0.0-5.0-1.9","63dcc00d97b599698e60a1a6","bdp_rd","Sun Mar 26 2023 02:50:17 GMT-0400 (Eastern Daylight Time)","144511","","null","","","","FIX","","<div class='trialBorder'><div class='vertical-center'><img style='vertical-align:center; align:center' src=img/fixation3.jpg></div></div>","null","","","","","",""
"html-keyboard-response","32","79685","0.0-5.0-2.9","63dcc00d97b599698e60a1a6","bdp_rd","Sun Mar 26 2023 02:50:17 GMT-0400 (Eastern Daylight Time)","144511","","978","","","","offer","","<div class='trialBorder'><div class='vertical-center'><img style='vertical-align:center; align:center' src=img/fixation3.jpg></div><div class='cl'><div class='vertical-center'>$11<br>for<br>sure</div></div><div class='cr'><div class='vertical-center'>$62<br>with a<br>50% chance</div></div><div class='respDivL'><div class='vertical-center'>(E)</div></div><div class='respDivR'><div class='vertical-center'>(I)</div></div></div>","I","$11","$62","0","11","62","RISKY"
"html-keyboard-response","33","79938","0.0-5.0-3.9","63dcc00d97b599698e60a1a6","bdp_rd","Sun Mar 26 2023 02:50:17 GMT-0400 (Eastern Daylight Time)","144511","","null","","","","offerFB","","<div class='trialBorder'><div class='vertical-center'><img style='vertical-align:center; align:center' src=img/fixation3.jpg></div><div class='cl'><div class='vertical-center'>$11<br>for<br>sure</div></div><div class='cr'><div class='vertical-center'><font style='color:orange'>$62<br>with a<br>50% chance</font></div></div><div class='respDivL'><div class='vertical-center'>(E)</div></div><div class='respDivR'><div class='vertical-center'><font style='color:orange'>(I)</font></div></div></div>","null","$11","$62","0","11","62",""
"html-keyboard-response","34","80441","0.0-5.0-1.10","63dcc00d97b599698e60a1a6","bdp_rd","Sun Mar 26 2023 02:50:17 GMT-0400 (Eastern Daylight Time)","144511","","null","","","","FIX","","<div class='trialBorder'><div class='vertical-center'><img style='vertical-align:center; align:center' src=img/fixation3.jpg></div></div>","null","","","","","",""
"html-keyboard-response","35","81146","0.0-5.0-2.10","63dcc00d97b599698e60a1a6","bdp_rd","Sun Mar 26 2023 02:50:17 GMT-0400 (Eastern Daylight Time)","144511","","704","","","","offer","","<div class='trialBorder'><div class='vertical-center'><img style='vertical-align:center; align:center' src=img/fixation3.jpg></div><div class='cl'><div class='vertical-center'>$50<br>with a<br>50% chance</div></div><div class='cr'><div class='vertical-center'>$5<br>for<br>sure</div></div><div class='respDivL'><div class='vertical-center'>(E)</div></div><div class='respDivR'><div class='vertical-center'>(I)</div></div></div>","E","$5","$50","1","5","50","RISKY"
"html-keyboard-response","36","81400","0.0-5.0-3.10","63dcc00d97b599698e60a1a6","bdp_rd","Sun Mar 26 2023 02:50:17 GMT-0400 (Eastern Daylight Time)","144511","","null","","","","offerFB","","<div class='trialBorder'><div class='vertical-center'><img style='vertical-align:center; align:center' src=img/fixation3.jpg></div><div class='cl'><div class='vertical-center'><font style='color:orange'>$50<br>with a<br>50% chance</font></div></div><div class='cr'><div class='vertical-center'>$5<br>for<br>sure</div></div><div class='respDivL'><div class='vertical-center'><font style='color:orange'>(E)</font></div></div><div class='respDivR'><div class='vertical-center'>(I)</div></div></div>","null","$5","$50","1","5","50",""
"html-keyboard-response","37","81903","0.0-5.0-1.11","63dcc00d97b599698e60a1a6","bdp_rd","Sun Mar 26 2023 02:50:17 GMT-0400 (Eastern Daylight Time)","144511","","null","","","","FIX","","<div class='trialBorder'><div class='vertical-center'><img style='vertical-align:center; align:center' src=img/fixation3.jpg></div></div>","null","","","","","",""
"html-keyboard-response","38","82548","0.0-5.0-2.11","63dcc00d97b599698e60a1a6","bdp_rd","Sun Mar 26 2023 02:50:17 GMT-0400 (Eastern Daylight Time)","144511","","644","","","","offer","","<div class='trialBorder'><div class='vertical-center'><img style='vertical-align:center; align:center' src=img/fixation3.jpg></div><div class='cl'><div class='vertical-center'>$30<br>for<br>sure</div></div><div class='cr'><div class='vertical-center'>$68<br>with a<br>50% chance</div></div><div class='respDivL'><div class='vertical-center'>(E)</div></div><div class='respDivR'><div class='vertical-center'>(I)</div></div></div>","I","$30","$68","0","30","68","RISKY"
"html-keyboard-response","39","82802","0.0-5.0-3.11","63dcc00d97b599698e60a1a6","bdp_rd","Sun Mar 26 2023 02:50:17 GMT-0400 (Eastern Daylight Time)","144511","","null","","","","offerFB","","<div class='trialBorder'><div class='vertical-center'><img style='vertical-align:center; align:center' src=img/fixation3.jpg></div><div class='cl'><div class='vertical-center'>$30<br>for<br>sure</div></div><div class='cr'><div class='vertical-center'><font style='color:orange'>$68<br>with a<br>50% chance</font></div></div><div class='respDivL'><div class='vertical-center'>(E)</div></div><div class='respDivR'><div class='vertical-center'><font style='color:orange'>(I)</font></div></div></div>","null","$30","$68","0","30","68",""
"html-keyboard-response","40","83304","0.0-5.0-1.12","63dcc00d97b599698e60a1a6","bdp_rd","Sun Mar 26 2023 02:50:17 GMT-0400 (Eastern Daylight Time)","144511","","null","","","","FIX","","<div class='trialBorder'><div class='vertical-center'><img style='vertical-align:center; align:center' src=img/fixation3.jpg></div></div>","null","","","","","",""
"html-keyboard-response","41","83832","0.0-5.0-2.12","63dcc00d97b599698e60a1a6","bdp_rd","Sun Mar 26 2023 02:50:17 GMT-0400 (Eastern Daylight Time)","144511","","527","","","","offer","","<div class='trialBorder'><div class='vertical-center'><img style='vertical-align:center; align:center' src=img/fixation3.jpg></div><div class='cl'><div class='vertical-center'>$21<br>with a<br>50% chance</div></div><div class='cr'><div class='vertical-center'>$2<br>for<br>sure</div></div><div class='respDivL'><div class='vertical-center'>(E)</div></div><div class='respDivR'><div class='vertical-center'>(I)</div></div></div>","E","$2","$21","1","2","21","RISKY"
"html-keyboard-response","42","84085","0.0-5.0-3.12","63dcc00d97b599698e60a1a6","bdp_rd","Sun Mar 26 2023 02:50:17 GMT-0400 (Eastern Daylight Time)","144511","","null","","","","offerFB","","<div class='trialBorder'><div class='vertical-center'><img style='vertical-align:center; align:center' src=img/fixation3.jpg></div><div class='cl'><div class='vertical-center'><font style='color:orange'>$21<br>with a<br>50% chance</font></div></div><div class='cr'><div class='vertical-center'>$2<br>for<br>sure</div></div><div class='respDivL'><div class='vertical-center'><font style='color:orange'>(E)</font></div></div><div class='respDivR'><div class='vertical-center'>(I)</div></div></div>","null","$2","$21","1","2","21",""
"html-keyboard-response","43","84587","0.0-5.0-1.13","63dcc00d97b599698e60a1a6","bdp_rd","Sun Mar 26 2023 02:50:17 GMT-0400 (Eastern Daylight Time)","144511","","null","","","","FIX","","<div class='trialBorder'><div class='vertical-center'><img style='vertical-align:center; align:center' src=img/fixation3.jpg></div></div>","null","","","","","",""
"html-keyboard-response","44","85098","0.0-5.0-2.13","63dcc00d97b599698e60a1a6","bdp_rd","Sun Mar 26 2023 02:50:17 GMT-0400 (Eastern Daylight Time)","144511","","509","","","","offer","","<div class='trialBorder'><div class='vertical-center'><img style='vertical-align:center; align:center' src=img/fixation3.jpg></div><div class='cl'><div class='vertical-center'>$80<br>with a<br>50% chance</div></div><div class='cr'><div class='vertical-center'>$20<br>for<br>sure</div></div><div class='respDivL'><div class='vertical-center'>(E)</div></div><div class='respDivR'><div class='vertical-center'>(I)</div></div></div>","E","$20","$80","1","20","80","RISKY"
"html-keyboard-response","45","85350","0.0-5.0-3.13","63dcc00d97b599698e60a1a6","bdp_rd","Sun Mar 26 2023 02:50:17 GMT-0400 (Eastern Daylight Time)","144511","","null","","","","offerFB","","<div class='trialBorder'><div class='vertical-center'><img style='vertical-align:center; align:center' src=img/fixation3.jpg></div><div class='cl'><div class='vertical-center'><font style='color:orange'>$80<br>with a<br>50% chance</font></div></div><div class='cr'><div class='vertical-center'>$20<br>for<br>sure</div></div><div class='respDivL'><div class='vertical-center'><font style='color:orange'>(E)</font></div></div><div class='respDivR'><div class='vertical-center'>(I)</div></div></div>","null","$20","$80","1","20","80",""
"html-keyboard-response","46","85852","0.0-5.0-1.14","63dcc00d97b599698e60a1a6","bdp_rd","Sun Mar 26 2023 02:50:17 GMT-0400 (Eastern Daylight Time)","144511","","null","","","","FIX","","<div class='trialBorder'><div class='vertical-center'><img style='vertical-align:center; align:center' src=img/fixation3.jpg></div></div>","null","","","","","",""
"html-keyboard-response","47","86515","0.0-5.0-2.14","63dcc00d97b599698e60a1a6","bdp_rd","Sun Mar 26 2023 02:50:17 GMT-0400 (Eastern Daylight Time)","144511","","662","","","","offer","","<div class='trialBorder'><div class='vertical-center'><img style='vertical-align:center; align:center' src=img/fixation3.jpg></div><div class='cl'><div class='vertical-center'>$12<br>for<br>sure</div></div><div class='cr'><div class='vertical-center'>$27<br>with a<br>50% chance</div></div><div class='respDivL'><div class='vertical-center'>(E)</div></div><div class='respDivR'><div class='vertical-center'>(I)</div></div></div>","I","$12","$27","0","12","27","RISKY"
"html-keyboard-response","48","86767","0.0-5.0-3.14","63dcc00d97b599698e60a1a6","bdp_rd","Sun Mar 26 2023 02:50:17 GMT-0400 (Eastern Daylight Time)","144511","","null","","","","offerFB","","<div class='trialBorder'><div class='vertical-center'><img style='vertical-align:center; align:center' src=img/fixation3.jpg></div><div class='cl'><div class='vertical-center'>$12<br>for<br>sure</div></div><div class='cr'><div class='vertical-center'><font style='color:orange'>$27<br>with a<br>50% chance</font></div></div><div class='respDivL'><div class='vertical-center'>(E)</div></div><div class='respDivR'><div class='vertical-center'><font style='color:orange'>(I)</font></div></div></div>","null","$12","$27","0","12","27",""
"html-keyboard-response","49","87270","0.0-5.0-1.15","63dcc00d97b599698e60a1a6","bdp_rd","Sun Mar 26 2023 02:50:17 GMT-0400 (Eastern Daylight Time)","144511","","null","","","","FIX","","<div class='trialBorder'><div class='vertical-center'><img style='vertical-align:center; align:center' src=img/fixation3.jpg></div></div>","null","","","","","",""
"html-keyboard-response","50","87927","0.0-5.0-2.15","63dcc00d97b599698e60a1a6","bdp_rd","Sun Mar 26 2023 02:50:17 GMT-0400 (Eastern Daylight Time)","144511","","654","","","","offer","","<div class='trialBorder'><div class='vertical-center'><img style='vertical-align:center; align:center' src=img/fixation3.jpg></div><div class='cl'><div class='vertical-center'>$8<br>for<br>sure</div></div><div class='cr'><div class='vertical-center'>$23<br>with a<br>50% chance</div></div><div class='respDivL'><div class='vertical-center'>(E)</div></div><div class='respDivR'><div class='vertical-center'>(I)</div></div></div>","I","$8","$23","0","8","23","RISKY"
"html-keyboard-response","51","88181","0.0-5.0-3.15","63dcc00d97b599698e60a1a6","bdp_rd","Sun Mar 26 2023 02:50:17 GMT-0400 (Eastern Daylight Time)","144511","","null","","","","offerFB","","<div class='trialBorder'><div class='vertical-center'><img style='vertical-align:center; align:center' src=img/fixation3.jpg></div><div class='cl'><div class='vertical-center'>$8<br>for<br>sure</div></div><div class='cr'><div class='vertical-center'><font style='color:orange'>$23<br>with a<br>50% chance</font></div></div><div class='respDivL'><div class='vertical-center'>(E)</div></div><div class='respDivR'><div class='vertical-center'><font style='color:orange'>(I)</font></div></div></div>","null","$8","$23","0","8","23",""
"html-keyboard-response","52","88683","0.0-5.0-1.16","63dcc00d97b599698e60a1a6","bdp_rd","Sun Mar 26 2023 02:50:17 GMT-0400 (Eastern Daylight Time)","144511","","null","","","","FIX","","<div class='trialBorder'><div class='vertical-center'><img style='vertical-align:center; align:center' src=img/fixation3.jpg></div></div>","null","","","","","",""
"html-keyboard-response","53","89224","0.0-5.0-2.16","63dcc00d97b599698e60a1a6","bdp_rd","Sun Mar 26 2023 02:50:17 GMT-0400 (Eastern Daylight Time)","144511","","539","","","","offer","","<div class='trialBorder'><div class='vertical-center'><img style='vertical-align:center; align:center' src=img/fixation3.jpg></div><div class='cl'><div class='vertical-center'>$31<br>for<br>sure</div></div><div class='cr'><div class='vertical-center'>$78<br>with a<br>50% chance</div></div><div class='respDivL'><div class='vertical-center'>(E)</div></div><div class='respDivR'><div class='vertical-center'>(I)</div></div></div>","I","$31","$78","0","31","78","RISKY"
"html-keyboard-response","54","89477","0.0-5.0-3.16","63dcc00d97b599698e60a1a6","bdp_rd","Sun Mar 26 2023 02:50:17 GMT-0400 (Eastern Daylight Time)","144511","","null","","","","offerFB","","<div class='trialBorder'><div class='vertical-center'><img style='vertical-align:center; align:center' src=img/fixation3.jpg></div><div class='cl'><div class='vertical-center'>$31<br>for<br>sure</div></div><div class='cr'><div class='vertical-center'><font style='color:orange'>$78<br>with a<br>50% chance</font></div></div><div class='respDivL'><div class='vertical-center'>(E)</div></div><div class='respDivR'><div class='vertical-center'><font style='color:orange'>(I)</font></div></div></div>","null","$31","$78","0","31","78",""
"html-keyboard-response","55","89980","0.0-5.0-1.17","63dcc00d97b599698e60a1a6","bdp_rd","Sun Mar 26 2023 02:50:17 GMT-0400 (Eastern Daylight Time)","144511","","null","","","","FIX","","<div class='trialBorder'><div class='vertical-center'><img style='vertical-align:center; align:center' src=img/fixation3.jpg></div></div>","null","","","","","",""
"html-keyboard-response","56","90499","0.0-5.0-2.17","63dcc00d97b599698e60a1a6","bdp_rd","Sun Mar 26 2023 02:50:17 GMT-0400 (Eastern Daylight Time)","144511","","517","","","","offer","","<div class='trialBorder'><div class='vertical-center'><img style='vertical-align:center; align:center' src=img/fixation3.jpg></div><div class='cl'><div class='vertical-center'>$27<br>for<br>sure</div></div><div class='cr'><div class='vertical-center'>$47<br>with a<br>50% chance</div></div><div class='respDivL'><div class='vertical-center'>(E)</div></div><div class='respDivR'><div class='vertical-center'>(I)</div></div></div>","I","$27","$47","0","27","47","RISKY"
"html-keyboard-response","57","90752","0.0-5.0-3.17","63dcc00d97b599698e60a1a6","bdp_rd","Sun Mar 26 2023 02:50:17 GMT-0400 (Eastern Daylight Time)","144511","","null","","","","offerFB","","<div class='trialBorder'><div class='vertical-center'><img style='vertical-align:center; align:center' src=img/fixation3.jpg></div><div class='cl'><div class='vertical-center'>$27<br>for<br>sure</div></div><div class='cr'><div class='vertical-center'><font style='color:orange'>$47<br>with a<br>50% chance</font></div></div><div class='respDivL'><div class='vertical-center'>(E)</div></div><div class='respDivR'><div class='vertical-center'><font style='color:orange'>(I)</font></div></div></div>","null","$27","$47","0","27","47",""
"html-keyboard-response","58","91254","0.0-5.0-1.18","63dcc00d97b599698e60a1a6","bdp_rd","Sun Mar 26 2023 02:50:17 GMT-0400 (Eastern Daylight Time)","144511","","null","","","","FIX","","<div class='trialBorder'><div class='vertical-center'><img style='vertical-align:center; align:center' src=img/fixation3.jpg></div></div>","null","","","","","",""
"html-keyboard-response","59","91838","0.0-5.0-2.18","63dcc00d97b599698e60a1a6","bdp_rd","Sun Mar 26 2023 02:50:17 GMT-0400 (Eastern Daylight Time)","144511","","583","","","","offer","","<div class='trialBorder'><div class='vertical-center'><img style='vertical-align:center; align:center' src=img/fixation3.jpg></div><div class='cl'><div class='vertical-center'>$11<br>for<br>sure</div></div><div class='cr'><div class='vertical-center'>$26<br>with a<br>50% chance</div></div><div class='respDivL'><div class='vertical-center'>(E)</div></div><div class='respDivR'><div class='vertical-center'>(I)</div></div></div>","I","$11","$26","0","11","26","RISKY"
"html-keyboard-response","60","92091","0.0-5.0-3.18","63dcc00d97b599698e60a1a6","bdp_rd","Sun Mar 26 2023 02:50:17 GMT-0400 (Eastern Daylight Time)","144511","","null","","","","offerFB","","<div class='trialBorder'><div class='vertical-center'><img style='vertical-align:center; align:center' src=img/fixation3.jpg></div><div class='cl'><div class='vertical-center'>$11<br>for<br>sure</div></div><div class='cr'><div class='vertical-center'><font style='color:orange'>$26<br>with a<br>50% chance</font></div></div><div class='respDivL'><div class='vertical-center'>(E)</div></div><div class='respDivR'><div class='vertical-center'><font style='color:orange'>(I)</font></div></div></div>","null","$11","$26","0","11","26",""
"html-keyboard-response","61","92594","0.0-5.0-1.19","63dcc00d97b599698e60a1a6","bdp_rd","Sun Mar 26 2023 02:50:17 GMT-0400 (Eastern Daylight Time)","144511","","null","","","","FIX","","<div class='trialBorder'><div class='vertical-center'><img style='vertical-align:center; align:center' src=img/fixation3.jpg></div></div>","null","","","","","",""
"html-keyboard-response","62","93106","0.0-5.0-2.19","63dcc00d97b599698e60a1a6","bdp_rd","Sun Mar 26 2023 02:50:17 GMT-0400 (Eastern Daylight Time)","144511","","509","","","","offer","","<div class='trialBorder'><div class='vertical-center'><img style='vertical-align:center; align:center' src=img/fixation3.jpg></div><div class='cl'><div class='vertical-center'>$29<br>with a<br>50% chance</div></div><div class='cr'><div class='vertical-center'>$14<br>for<br>sure</div></div><div class='respDivL'><div class='vertical-center'>(E)</div></div><div class='respDivR'><div class='vertical-center'>(I)</div></div></div>","E","$14","$29","1","14","29","RISKY"
"html-keyboard-response","63","93359","0.0-5.0-3.19","63dcc00d97b599698e60a1a6","bdp_rd","Sun Mar 26 2023 02:50:17 GMT-0400 (Eastern Daylight Time)","144511","","null","","","","offerFB","","<div class='trialBorder'><div class='vertical-center'><img style='vertical-align:center; align:center' src=img/fixation3.jpg></div><div class='cl'><div class='vertical-center'><font style='color:orange'>$29<br>with a<br>50% chance</font></div></div><div class='cr'><div class='vertical-center'>$14<br>for<br>sure</div></div><div class='respDivL'><div class='vertical-center'><font style='color:orange'>(E)</font></div></div><div class='respDivR'><div class='vertical-center'>(I)</div></div></div>","null","$14","$29","1","14","29",""
"html-keyboard-response","64","93862","0.0-5.0-1.20","63dcc00d97b599698e60a1a6","bdp_rd","Sun Mar 26 2023 02:50:17 GMT-0400 (Eastern Daylight Time)","144511","","null","","","","FIX","","<div class='trialBorder'><div class='vertical-center'><img style='vertical-align:center; align:center' src=img/fixation3.jpg></div></div>","null","","","","","",""
"html-keyboard-response","65","94321","0.0-5.0-2.20","63dcc00d97b599698e60a1a6","bdp_rd","Sun Mar 26 2023 02:50:17 GMT-0400 (Eastern Daylight Time)","144511","","457","","","","offer","","<div class='trialBorder'><div class='vertical-center'><img style='vertical-align:center; align:center' src=img/fixation3.jpg></div><div class='cl'><div class='vertical-center'>$34<br>with a<br>50% chance</div></div><div class='cr'><div class='vertical-center'>$15<br>for<br>sure</div></div><div class='respDivL'><div class='vertical-center'>(E)</div></div><div class='respDivR'><div class='vertical-center'>(I)</div></div></div>","E","$15","$34","1","15","34","RISKY"
"html-keyboard-response","66","94574","0.0-5.0-3.20","63dcc00d97b599698e60a1a6","bdp_rd","Sun Mar 26 2023 02:50:17 GMT-0400 (Eastern Daylight Time)","144511","","null","","","","offerFB","","<div class='trialBorder'><div class='vertical-center'><img style='vertical-align:center; align:center' src=img/fixation3.jpg></div><div class='cl'><div class='vertical-center'><font style='color:orange'>$34<br>with a<br>50% chance</font></div></div><div class='cr'><div class='vertical-center'>$15<br>for<br>sure</div></div><div class='respDivL'><div class='vertical-center'><font style='color:orange'>(E)</font></div></div><div class='respDivR'><div class='vertical-center'>(I)</div></div></div>","null","$15","$34","1","15","34",""
"html-keyboard-response","67","95076","0.0-5.0-1.21","63dcc00d97b599698e60a1a6","bdp_rd","Sun Mar 26 2023 02:50:17 GMT-0400 (Eastern Daylight Time)","144511","","null","","","","FIX","","<div class='trialBorder'><div class='vertical-center'><img style='vertical-align:center; align:center' src=img/fixation3.jpg></div></div>","null","","","","","",""
"html-keyboard-response","68","95522","0.0-5.0-2.21","63dcc00d97b599698e60a1a6","bdp_rd","Sun Mar 26 2023 02:50:17 GMT-0400 (Eastern Daylight Time)","144511","","445","","","","offer","","<div class='trialBorder'><div class='vertical-center'><img style='vertical-align:center; align:center' src=img/fixation3.jpg></div><div class='cl'><div class='vertical-center'>$71<br>with a<br>50% chance</div></div><div class='cr'><div class='vertical-center'>$7<br>for<br>sure</div></div><div class='respDivL'><div class='vertical-center'>(E)</div></div><div class='respDivR'><div class='vertical-center'>(I)</div></div></div>","E","$7","$71","1","7","71","RISKY"
"html-keyboard-response","69","95775","0.0-5.0-3.21","63dcc00d97b599698e60a1a6","bdp_rd","Sun Mar 26 2023 02:50:17 GMT-0400 (Eastern Daylight Time)","144511","","null","","","","offerFB","","<div class='trialBorder'><div class='vertical-center'><img style='vertical-align:center; align:center' src=img/fixation3.jpg></div><div class='cl'><div class='vertical-center'><font style='color:orange'>$71<br>with a<br>50% chance</font></div></div><div class='cr'><div class='vertical-center'>$7<br>for<br>sure</div></div><div class='respDivL'><div class='vertical-center'><font style='color:orange'>(E)</font></div></div><div class='respDivR'><div class='vertical-center'>(I)</div></div></div>","null","$7","$71","1","7","71",""
"html-keyboard-response","70","96278","0.0-5.0-1.22","63dcc00d97b599698e60a1a6","bdp_rd","Sun Mar 26 2023 02:50:17 GMT-0400 (Eastern Daylight Time)","144511","","null","","","","FIX","","<div class='trialBorder'><div class='vertical-center'><img style='vertical-align:center; align:center' src=img/fixation3.jpg></div></div>","null","","","","","",""
"html-keyboard-response","71","96734","0.0-5.0-2.22","63dcc00d97b599698e60a1a6","bdp_rd","Sun Mar 26 2023 02:50:17 GMT-0400 (Eastern Daylight Time)","144511","","454","","","","offer","","<div class='trialBorder'><div class='vertical-center'><img style='vertical-align:center; align:center' src=img/fixation3.jpg></div><div class='cl'><div class='vertical-center'>$69<br>with a<br>50% chance</div></div><div class='cr'><div class='vertical-center'>$58<br>for<br>sure</div></div><div class='respDivL'><div class='vertical-center'>(E)</div></div><div class='respDivR'><div class='vertical-center'>(I)</div></div></div>","E","$58","$69","1","58","69","RISKY"
"html-keyboard-response","72","96987","0.0-5.0-3.22","63dcc00d97b599698e60a1a6","bdp_rd","Sun Mar 26 2023 02:50:17 GMT-0400 (Eastern Daylight Time)","144511","","null","","","","offerFB","","<div class='trialBorder'><div class='vertical-center'><img style='vertical-align:center; align:center' src=img/fixation3.jpg></div><div class='cl'><div class='vertical-center'><font style='color:orange'>$69<br>with a<br>50% chance</font></div></div><div class='cr'><div class='vertical-center'>$58<br>for<br>sure</div></div><div class='respDivL'><div class='vertical-center'><font style='color:orange'>(E)</font></div></div><div class='respDivR'><div class='vertical-center'>(I)</div></div></div>","null","$58","$69","1","58","69",""
"html-keyboard-response","73","97490","0.0-5.0-1.23","63dcc00d97b599698e60a1a6","bdp_rd","Sun Mar 26 2023 02:50:17 GMT-0400 (Eastern Daylight Time)","144511","","null","","","","FIX","","<div class='trialBorder'><div class='vertical-center'><img style='vertical-align:center; align:center' src=img/fixation3.jpg></div></div>","null","","","","","",""
"html-keyboard-response","74","98167","0.0-5.0-2.23","63dcc00d97b599698e60a1a6","bdp_rd","Sun Mar 26 2023 02:50:17 GMT-0400 (Eastern Daylight Time)","144511","","675","","","","offer","","<div class='trialBorder'><div class='vertical-center'><img style='vertical-align:center; align:center' src=img/fixation3.jpg></div><div class='cl'><div class='vertical-center'>$7<br>for<br>sure</div></div><div class='cr'><div class='vertical-center'>$10<br>with a<br>50% chance</div></div><div class='respDivL'><div class='vertical-center'>(E)</div></div><div class='respDivR'><div class='vertical-center'>(I)</div></div></div>","I","$7","$10","0","7","10","RISKY"
"html-keyboard-response","75","98420","0.0-5.0-3.23","63dcc00d97b599698e60a1a6","bdp_rd","Sun Mar 26 2023 02:50:17 GMT-0400 (Eastern Daylight Time)","144511","","null","","","","offerFB","","<div class='trialBorder'><div class='vertical-center'><img style='vertical-align:center; align:center' src=img/fixation3.jpg></div><div class='cl'><div class='vertical-center'>$7<br>for<br>sure</div></div><div class='cr'><div class='vertical-center'><font style='color:orange'>$10<br>with a<br>50% chance</font></div></div><div class='respDivL'><div class='vertical-center'>(E)</div></div><div class='respDivR'><div class='vertical-center'><font style='color:orange'>(I)</font></div></div></div>","null","$7","$10","0","7","10",""
"html-keyboard-response","76","98923","0.0-5.0-1.24","63dcc00d97b599698e60a1a6","bdp_rd","Sun Mar 26 2023 02:50:17 GMT-0400 (Eastern Daylight Time)","144511","","null","","","","FIX","","<div class='trialBorder'><div class='vertical-center'><img style='vertical-align:center; align:center' src=img/fixation3.jpg></div></div>","null","","","","","",""
"html-keyboard-response","77","99414","0.0-5.0-2.24","63dcc00d97b599698e60a1a6","bdp_rd","Sun Mar 26 2023 02:50:17 GMT-0400 (Eastern Daylight Time)","144511","","490","","","","offer","","<div class='trialBorder'><div class='vertical-center'><img style='vertical-align:center; align:center' src=img/fixation3.jpg></div><div class='cl'><div class='vertical-center'>$73<br>with a<br>50% chance</div></div><div class='cr'><div class='vertical-center'>$42<br>for<br>sure</div></div><div class='respDivL'><div class='vertical-center'>(E)</div></div><div class='respDivR'><div class='vertical-center'>(I)</div></div></div>","E","$42","$73","1","42","73","RISKY"
"html-keyboard-response","78","99668","0.0-5.0-3.24","63dcc00d97b599698e60a1a6","bdp_rd","Sun Mar 26 2023 02:50:17 GMT-0400 (Eastern Daylight Time)","144511","","null","","","","offerFB","","<div class='trialBorder'><div class='vertical-center'><img style='vertical-align:center; align:center' src=img/fixation3.jpg></div><div class='cl'><div class='vertical-center'><font style='color:orange'>$73<br>with a<br>50% chance</font></div></div><div class='cr'><div class='vertical-center'>$42<br>for<br>sure</div></div><div class='respDivL'><div class='vertical-center'><font style='color:orange'>(E)</font></div></div><div class='respDivR'><div class='vertical-center'>(I)</div></div></div>","null","$42","$73","1","42","73",""
"html-keyboard-response","79","100171","0.0-5.0-1.25","63dcc00d97b599698e60a1a6","bdp_rd","Sun Mar 26 2023 02:50:17 GMT-0400 (Eastern Daylight Time)","144511","","null","","","","FIX","","<div class='trialBorder'><div class='vertical-center'><img style='vertical-align:center; align:center' src=img/fixation3.jpg></div></div>","null","","","","","",""
"html-keyboard-response","80","100710","0.0-5.0-2.25","63dcc00d97b599698e60a1a6","bdp_rd","Sun Mar 26 2023 02:50:17 GMT-0400 (Eastern Daylight Time)","144511","","538","","","","offer","","<div class='trialBorder'><div class='vertical-center'><img style='vertical-align:center; align:center' src=img/fixation3.jpg></div><div class='cl'><div class='vertical-center'>$28<br>with a<br>50% chance</div></div><div class='cr'><div class='vertical-center'>$16<br>for<br>sure</div></div><div class='respDivL'><div class='vertical-center'>(E)</div></div><div class='respDivR'><div class='vertical-center'>(I)</div></div></div>","E","$16","$28","1","16","28","RISKY"
"html-keyboard-response","81","100963","0.0-5.0-3.25","63dcc00d97b599698e60a1a6","bdp_rd","Sun Mar 26 2023 02:50:17 GMT-0400 (Eastern Daylight Time)","144511","","null","","","","offerFB","","<div class='trialBorder'><div class='vertical-center'><img style='vertical-align:center; align:center' src=img/fixation3.jpg></div><div class='cl'><div class='vertical-center'><font style='color:orange'>$28<br>with a<br>50% chance</font></div></div><div class='cr'><div class='vertical-center'>$16<br>for<br>sure</div></div><div class='respDivL'><div class='vertical-center'><font style='color:orange'>(E)</font></div></div><div class='respDivR'><div class='vertical-center'>(I)</div></div></div>","null","$16","$28","1","16","28",""
"html-keyboard-response","82","101466","0.0-5.0-1.26","63dcc00d97b599698e60a1a6","bdp_rd","Sun Mar 26 2023 02:50:17 GMT-0400 (Eastern Daylight Time)","144511","","null","","","","FIX","","<div class='trialBorder'><div class='vertical-center'><img style='vertical-align:center; align:center' src=img/fixation3.jpg></div></div>","null","","","","","",""
"html-keyboard-response","83","102069","0.0-5.0-2.26","63dcc00d97b599698e60a1a6","bdp_rd","Sun Mar 26 2023 02:50:17 GMT-0400 (Eastern Daylight Time)","144511","","602","","","","offer","","<div class='trialBorder'><div class='vertical-center'><img style='vertical-align:center; align:center' src=img/fixation3.jpg></div><div class='cl'><div class='vertical-center'>$92<br>with a<br>50% chance</div></div><div class='cr'><div class='vertical-center'>$26<br>for<br>sure</div></div><div class='respDivL'><div class='vertical-center'>(E)</div></div><div class='respDivR'><div class='vertical-center'>(I)</div></div></div>","E","$26","$92","1","26","92","RISKY"
"html-keyboard-response","84","102323","0.0-5.0-3.26","63dcc00d97b599698e60a1a6","bdp_rd","Sun Mar 26 2023 02:50:17 GMT-0400 (Eastern Daylight Time)","144511","","null","","","","offerFB","","<div class='trialBorder'><div class='vertical-center'><img style='vertical-align:center; align:center' src=img/fixation3.jpg></div><div class='cl'><div class='vertical-center'><font style='color:orange'>$92<br>with a<br>50% chance</font></div></div><div class='cr'><div class='vertical-center'>$26<br>for<br>sure</div></div><div class='respDivL'><div class='vertical-center'><font style='color:orange'>(E)</font></div></div><div class='respDivR'><div class='vertical-center'>(I)</div></div></div>","null","$26","$92","1","26","92",""
"html-keyboard-response","85","102825","0.0-5.0-1.27","63dcc00d97b599698e60a1a6","bdp_rd","Sun Mar 26 2023 02:50:17 GMT-0400 (Eastern Daylight Time)","144511","","null","","","","FIX","","<div class='trialBorder'><div class='vertical-center'><img style='vertical-align:center; align:center' src=img/fixation3.jpg></div></div>","null","","","","","",""
"html-keyboard-response","86","103266","0.0-5.0-2.27","63dcc00d97b599698e60a1a6","bdp_rd","Sun Mar 26 2023 02:50:17 GMT-0400 (Eastern Daylight Time)","144511","","439","","","","offer","","<div class='trialBorder'><div class='vertical-center'><img style='vertical-align:center; align:center' src=img/fixation3.jpg></div><div class='cl'><div class='vertical-center'>$41<br>with a<br>50% chance</div></div><div class='cr'><div class='vertical-center'>$13<br>for<br>sure</div></div><div class='respDivL'><div class='vertical-center'>(E)</div></div><div class='respDivR'><div class='vertical-center'>(I)</div></div></div>","E","$13","$41","1","13","41","RISKY"
"html-keyboard-response","87","103520","0.0-5.0-3.27","63dcc00d97b599698e60a1a6","bdp_rd","Sun Mar 26 2023 02:50:17 GMT-0400 (Eastern Daylight Time)","144511","","null","","","","offerFB","","<div class='trialBorder'><div class='vertical-center'><img style='vertical-align:center; align:center' src=img/fixation3.jpg></div><div class='cl'><div class='vertical-center'><font style='color:orange'>$41<br>with a<br>50% chance</font></div></div><div class='cr'><div class='vertical-center'>$13<br>for<br>sure</div></div><div class='respDivL'><div class='vertical-center'><font style='color:orange'>(E)</font></div></div><div class='respDivR'><div class='vertical-center'>(I)</div></div></div>","null","$13","$41","1","13","41",""
"html-keyboard-response","88","104022","0.0-5.0-1.28","63dcc00d97b599698e60a1a6","bdp_rd","Sun Mar 26 2023 02:50:17 GMT-0400 (Eastern Daylight Time)","144511","","null","","","","FIX","","<div class='trialBorder'><div class='vertical-center'><img style='vertical-align:center; align:center' src=img/fixation3.jpg></div></div>","null","","","","","",""
"html-keyboard-response","89","104562","0.0-5.0-2.28","63dcc00d97b599698e60a1a6","bdp_rd","Sun Mar 26 2023 02:50:17 GMT-0400 (Eastern Daylight Time)","144511","","537","","","","offer","","<div class='trialBorder'><div class='vertical-center'><img style='vertical-align:center; align:center' src=img/fixation3.jpg></div><div class='cl'><div class='vertical-center'>$4<br>for<br>sure</div></div><div class='cr'><div class='vertical-center'>$11<br>with a<br>50% chance</div></div><div class='respDivL'><div class='vertical-center'>(E)</div></div><div class='respDivR'><div class='vertical-center'>(I)</div></div></div>","I","$4","$11","0","4","11","RISKY"
"html-keyboard-response","90","104813","0.0-5.0-3.28","63dcc00d97b599698e60a1a6","bdp_rd","Sun Mar 26 2023 02:50:17 GMT-0400 (Eastern Daylight Time)","144511","","null","","","","offerFB","","<div class='trialBorder'><div class='vertical-center'><img style='vertical-align:center; align:center' src=img/fixation3.jpg></div><div class='cl'><div class='vertical-center'>$4<br>for<br>sure</div></div><div class='cr'><div class='vertical-center'><font style='color:orange'>$11<br>with a<br>50% chance</font></div></div><div class='respDivL'><div class='vertical-center'>(E)</div></div><div class='respDivR'><div class='vertical-center'><font style='color:orange'>(I)</font></div></div></div>","null","$4","$11","0","4","11",""
"html-keyboard-response","91","105316","0.0-5.0-1.29","63dcc00d97b599698e60a1a6","bdp_rd","Sun Mar 26 2023 02:50:17 GMT-0400 (Eastern Daylight Time)","144511","","null","","","","FIX","","<div class='trialBorder'><div class='vertical-center'><img style='vertical-align:center; align:center' src=img/fixation3.jpg></div></div>","null","","","","","",""
"html-keyboard-response","92","105833","0.0-5.0-2.29","63dcc00d97b599698e60a1a6","bdp_rd","Sun Mar 26 2023 02:50:17 GMT-0400 (Eastern Daylight Time)","144511","","516","","","","offer","","<div class='trialBorder'><div class='vertical-center'><img style='vertical-align:center; align:center' src=img/fixation3.jpg></div><div class='cl'><div class='vertical-center'>$32<br>with a<br>50% chance</div></div><div class='cr'><div class='vertical-center'>$9<br>for<br>sure</div></div><div class='respDivL'><div class='vertical-center'>(E)</div></div><div class='respDivR'><div class='vertical-center'>(I)</div></div></div>","E","$9","$32","1","9","32","RISKY"
"html-keyboard-response","93","106086","0.0-5.0-3.29","63dcc00d97b599698e60a1a6","bdp_rd","Sun Mar 26 2023 02:50:17 GMT-0400 (Eastern Daylight Time)","144511","","null","","","","offerFB","","<div class='trialBorder'><div class='vertical-center'><img style='vertical-align:center; align:center' src=img/fixation3.jpg></div><div class='cl'><div class='vertical-center'><font style='color:orange'>$32<br>with a<br>50% chance</font></div></div><div class='cr'><div class='vertical-center'>$9<br>for<br>sure</div></div><div class='respDivL'><div class='vertical-center'><font style='color:orange'>(E)</font></div></div><div class='respDivR'><div class='vertical-center'>(I)</div></div></div>","null","$9","$32","1","9","32",""
"html-keyboard-response","94","106588","0.0-5.0-1.30","63dcc00d97b599698e60a1a6","bdp_rd","Sun Mar 26 2023 02:50:17 GMT-0400 (Eastern Daylight Time)","144511","","null","","","","FIX","","<div class='trialBorder'><div class='vertical-center'><img style='vertical-align:center; align:center' src=img/fixation3.jpg></div></div>","null","","","","","",""
"html-keyboard-response","95","107162","0.0-5.0-2.30","63dcc00d97b599698e60a1a6","bdp_rd","Sun Mar 26 2023 02:50:17 GMT-0400 (Eastern Daylight Time)","144511","","572","","","","offer","","<div class='trialBorder'><div class='vertical-center'><img style='vertical-align:center; align:center' src=img/fixation3.jpg></div><div class='cl'><div class='vertical-center'>$21<br>for<br>sure</div></div><div class='cr'><div class='vertical-center'>$25<br>with a<br>50% chance</div></div><div class='respDivL'><div class='vertical-center'>(E)</div></div><div class='respDivR'><div class='vertical-center'>(I)</div></div></div>","I","$21","$25","0","21","25","RISKY"
"html-keyboard-response","96","107415","0.0-5.0-3.30","63dcc00d97b599698e60a1a6","bdp_rd","Sun Mar 26 2023 02:50:17 GMT-0400 (Eastern Daylight Time)","144511","","null","","","","offerFB","","<div class='trialBorder'><div class='vertical-center'><img style='vertical-align:center; align:center' src=img/fixation3.jpg></div><div class='cl'><div class='vertical-center'>$21<br>for<br>sure</div></div><div class='cr'><div class='vertical-center'><font style='color:orange'>$25<br>with a<br>50% chance</font></div></div><div class='respDivL'><div class='vertical-center'>(E)</div></div><div class='respDivR'><div class='vertical-center'><font style='color:orange'>(I)</font></div></div></div>","null","$21","$25","0","21","25",""
"html-keyboard-response","97","107917","0.0-5.0-1.31","63dcc00d97b599698e60a1a6","bdp_rd","Sun Mar 26 2023 02:50:17 GMT-0400 (Eastern Daylight Time)","144511","","null","","","","FIX","","<div class='trialBorder'><div class='vertical-center'><img style='vertical-align:center; align:center' src=img/fixation3.jpg></div></div>","null","","","","","",""
"html-keyboard-response","98","108338","0.0-5.0-2.31","63dcc00d97b599698e60a1a6","bdp_rd","Sun Mar 26 2023 02:50:17 GMT-0400 (Eastern Daylight Time)","144511","","419","","","","offer","","<div class='trialBorder'><div class='vertical-center'><img style='vertical-align:center; align:center' src=img/fixation3.jpg></div><div class='cl'><div class='vertical-center'>$98<br>with a<br>50% chance</div></div><div class='cr'><div class='vertical-center'>$53<br>for<br>sure</div></div><div class='respDivL'><div class='vertical-center'>(E)</div></div><div class='respDivR'><div class='vertical-center'>(I)</div></div></div>","E","$53","$98","1","53","98","RISKY"
"html-keyboard-response","99","108591","0.0-5.0-3.31","63dcc00d97b599698e60a1a6","bdp_rd","Sun Mar 26 2023 02:50:17 GMT-0400 (Eastern Daylight Time)","144511","","null","","","","offerFB","","<div class='trialBorder'><div class='vertical-center'><img style='vertical-align:center; align:center' src=img/fixation3.jpg></div><div class='cl'><div class='vertical-center'><font style='color:orange'>$98<br>with a<br>50% chance</font></div></div><div class='cr'><div class='vertical-center'>$53<br>for<br>sure</div></div><div class='respDivL'><div class='vertical-center'><font style='color:orange'>(E)</font></div></div><div class='respDivR'><div class='vertical-center'>(I)</div></div></div>","null","$53","$98","1","53","98",""
"html-keyboard-response","100","109093","0.0-5.0-1.32","63dcc00d97b599698e60a1a6","bdp_rd","Sun Mar 26 2023 02:50:17 GMT-0400 (Eastern Daylight Time)","144511","","null","","","","FIX","","<div class='trialBorder'><div class='vertical-center'><img style='vertical-align:center; align:center' src=img/fixation3.jpg></div></div>","null","","","","","",""
"html-keyboard-response","101","109537","0.0-5.0-2.32","63dcc00d97b599698e60a1a6","bdp_rd","Sun Mar 26 2023 02:50:17 GMT-0400 (Eastern Daylight Time)","144511","","443","","","","offer","","<div class='trialBorder'><div class='vertical-center'><img style='vertical-align:center; align:center' src=img/fixation3.jpg></div><div class='cl'><div class='vertical-center'>$15<br>for<br>sure</div></div><div class='cr'><div class='vertical-center'>$31<br>with a<br>50% chance</div></div><div class='respDivL'><div class='vertical-center'>(E)</div></div><div class='respDivR'><div class='vertical-center'>(I)</div></div></div>","I","$15","$31","0","15","31","RISKY"
"html-keyboard-response","102","109790","0.0-5.0-3.32","63dcc00d97b599698e60a1a6","bdp_rd","Sun Mar 26 2023 02:50:17 GMT-0400 (Eastern Daylight Time)","144511","","null","","","","offerFB","","<div class='trialBorder'><div class='vertical-center'><img style='vertical-align:center; align:center' src=img/fixation3.jpg></div><div class='cl'><div class='vertical-center'>$15<br>for<br>sure</div></div><div class='cr'><div class='vertical-center'><font style='color:orange'>$31<br>with a<br>50% chance</font></div></div><div class='respDivL'><div class='vertical-center'>(E)</div></div><div class='respDivR'><div class='vertical-center'><font style='color:orange'>(I)</font></div></div></div>","null","$15","$31","0","15","31",""
"html-keyboard-response","103","110293","0.0-5.0-1.33","63dcc00d97b599698e60a1a6","bdp_rd","Sun Mar 26 2023 02:50:17 GMT-0400 (Eastern Daylight Time)","144511","","null","","","","FIX","","<div class='trialBorder'><div class='vertical-center'><img style='vertical-align:center; align:center' src=img/fixation3.jpg></div></div>","null","","","","","",""
"html-keyboard-response","104","110700","0.0-5.0-2.33","63dcc00d97b599698e60a1a6","bdp_rd","Sun Mar 26 2023 02:50:17 GMT-0400 (Eastern Daylight Time)","144511","","406","","","","offer","","<div class='trialBorder'><div class='vertical-center'><img style='vertical-align:center; align:center' src=img/fixation3.jpg></div><div class='cl'><div class='vertical-center'>$66<br>with a<br>50% chance</div></div><div class='cr'><div class='vertical-center'>$33<br>for<br>sure</div></div><div class='respDivL'><div class='vertical-center'>(E)</div></div><div class='respDivR'><div class='vertical-center'>(I)</div></div></div>","E","$33","$66","1","33","66","RISKY"
"html-keyboard-response","105","110952","0.0-5.0-3.33","63dcc00d97b599698e60a1a6","bdp_rd","Sun Mar 26 2023 02:50:17 GMT-0400 (Eastern Daylight Time)","144511","","null","","","","offerFB","","<div class='trialBorder'><div class='vertical-center'><img style='vertical-align:center; align:center' src=img/fixation3.jpg></div><div class='cl'><div class='vertical-center'><font style='color:orange'>$66<br>with a<br>50% chance</font></div></div><div class='cr'><div class='vertical-center'>$33<br>for<br>sure</div></div><div class='respDivL'><div class='vertical-center'><font style='color:orange'>(E)</font></div></div><div class='respDivR'><div class='vertical-center'>(I)</div></div></div>","null","$33","$66","1","33","66",""
"html-keyboard-response","106","111455","0.0-5.0-1.34","63dcc00d97b599698e60a1a6","bdp_rd","Sun Mar 26 2023 02:50:17 GMT-0400 (Eastern Daylight Time)","144511","","null","","","","FIX","","<div class='trialBorder'><div class='vertical-center'><img style='vertical-align:center; align:center' src=img/fixation3.jpg></div></div>","null","","","","","",""
"html-keyboard-response","107","111874","0.0-5.0-2.34","63dcc00d97b599698e60a1a6","bdp_rd","Sun Mar 26 2023 02:50:17 GMT-0400 (Eastern Daylight Time)","144511","","418","","","","offer","","<div class='trialBorder'><div class='vertical-center'><img style='vertical-align:center; align:center' src=img/fixation3.jpg></div><div class='cl'><div class='vertical-center'>$36<br>with a<br>50% chance</div></div><div class='cr'><div class='vertical-center'>$18<br>for<br>sure</div></div><div class='respDivL'><div class='vertical-center'>(E)</div></div><div class='respDivR'><div class='vertical-center'>(I)</div></div></div>","E","$18","$36","1","18","36","RISKY"
"html-keyboard-response","108","112128","0.0-5.0-3.34","63dcc00d97b599698e60a1a6","bdp_rd","Sun Mar 26 2023 02:50:17 GMT-0400 (Eastern Daylight Time)","144511","","null","","","","offerFB","","<div class='trialBorder'><div class='vertical-center'><img style='vertical-align:center; align:center' src=img/fixation3.jpg></div><div class='cl'><div class='vertical-center'><font style='color:orange'>$36<br>with a<br>50% chance</font></div></div><div class='cr'><div class='vertical-center'>$18<br>for<br>sure</div></div><div class='respDivL'><div class='vertical-center'><font style='color:orange'>(E)</font></div></div><div class='respDivR'><div class='vertical-center'>(I)</div></div></div>","null","$18","$36","1","18","36",""
"html-keyboard-response","109","112630","0.0-5.0-1.35","63dcc00d97b599698e60a1a6","bdp_rd","Sun Mar 26 2023 02:50:17 GMT-0400 (Eastern Daylight Time)","144511","","null","","","","FIX","","<div class='trialBorder'><div class='vertical-center'><img style='vertical-align:center; align:center' src=img/fixation3.jpg></div></div>","null","","","","","",""
"html-keyboard-response","110","113090","0.0-5.0-2.35","63dcc00d97b599698e60a1a6","bdp_rd","Sun Mar 26 2023 02:50:17 GMT-0400 (Eastern Daylight Time)","144511","","458","","","","offer","","<div class='trialBorder'><div class='vertical-center'><img style='vertical-align:center; align:center' src=img/fixation3.jpg></div><div class='cl'><div class='vertical-center'>$10<br>for<br>sure</div></div><div class='cr'><div class='vertical-center'>$40<br>with a<br>50% chance</div></div><div class='respDivL'><div class='vertical-center'>(E)</div></div><div class='respDivR'><div class='vertical-center'>(I)</div></div></div>","I","$10","$40","0","10","40","RISKY"
"html-keyboard-response","111","113342","0.0-5.0-3.35","63dcc00d97b599698e60a1a6","bdp_rd","Sun Mar 26 2023 02:50:17 GMT-0400 (Eastern Daylight Time)","144511","","null","","","","offerFB","","<div class='trialBorder'><div class='vertical-center'><img style='vertical-align:center; align:center' src=img/fixation3.jpg></div><div class='cl'><div class='vertical-center'>$10<br>for<br>sure</div></div><div class='cr'><div class='vertical-center'><font style='color:orange'>$40<br>with a<br>50% chance</font></div></div><div class='respDivL'><div class='vertical-center'>(E)</div></div><div class='respDivR'><div class='vertical-center'><font style='color:orange'>(I)</font></div></div></div>","null","$10","$40","0","10","40",""
"html-keyboard-response","112","113844","0.0-5.0-1.36","63dcc00d97b599698e60a1a6","bdp_rd","Sun Mar 26 2023 02:50:17 GMT-0400 (Eastern Daylight Time)","144511","","null","","","","FIX","","<div class='trialBorder'><div class='vertical-center'><img style='vertical-align:center; align:center' src=img/fixation3.jpg></div></div>","null","","","","","",""
"html-keyboard-response","113","114324","0.0-5.0-2.36","63dcc00d97b599698e60a1a6","bdp_rd","Sun Mar 26 2023 02:50:17 GMT-0400 (Eastern Daylight Time)","144511","","479","","","","offer","","<div class='trialBorder'><div class='vertical-center'><img style='vertical-align:center; align:center' src=img/fixation3.jpg></div><div class='cl'><div class='vertical-center'>$37<br>for<br>sure</div></div><div class='cr'><div class='vertical-center'>$44<br>with a<br>50% chance</div></div><div class='respDivL'><div class='vertical-center'>(E)</div></div><div class='respDivR'><div class='vertical-center'>(I)</div></div></div>","I","$37","$44","0","37","44","RISKY"
"html-keyboard-response","114","114576","0.0-5.0-3.36","63dcc00d97b599698e60a1a6","bdp_rd","Sun Mar 26 2023 02:50:17 GMT-0400 (Eastern Daylight Time)","144511","","null","","","","offerFB","","<div class='trialBorder'><div class='vertical-center'><img style='vertical-align:center; align:center' src=img/fixation3.jpg></div><div class='cl'><div class='vertical-center'>$37<br>for<br>sure</div></div><div class='cr'><div class='vertical-center'><font style='color:orange'>$44<br>with a<br>50% chance</font></div></div><div class='respDivL'><div class='vertical-center'>(E)</div></div><div class='respDivR'><div class='vertical-center'><font style='color:orange'>(I)</font></div></div></div>","null","$37","$44","0","37","44",""
"html-keyboard-response","115","115078","0.0-5.0-1.37","63dcc00d97b599698e60a1a6","bdp_rd","Sun Mar 26 2023 02:50:17 GMT-0400 (Eastern Daylight Time)","144511","","null","","","","FIX","","<div class='trialBorder'><div class='vertical-center'><img style='vertical-align:center; align:center' src=img/fixation3.jpg></div></div>","null","","","","","",""
"html-keyboard-response","116","115760","0.0-5.0-2.37","63dcc00d97b599698e60a1a6","bdp_rd","Sun Mar 26 2023 02:50:17 GMT-0400 (Eastern Daylight Time)","144511","","681","","","","offer","","<div class='trialBorder'><div class='vertical-center'><img style='vertical-align:center; align:center' src=img/fixation3.jpg></div><div class='cl'><div class='vertical-center'>$29<br>for<br>sure</div></div><div class='cr'><div class='vertical-center'>$46<br>with a<br>50% chance</div></div><div class='respDivL'><div class='vertical-center'>(E)</div></div><div class='respDivR'><div class='vertical-center'>(I)</div></div></div>","I","$29","$46","0","29","46","RISKY"
"html-keyboard-response","117","116012","0.0-5.0-3.37","63dcc00d97b599698e60a1a6","bdp_rd","Sun Mar 26 2023 02:50:17 GMT-0400 (Eastern Daylight Time)","144511","","null","","","","offerFB","","<div class='trialBorder'><div class='vertical-center'><img style='vertical-align:center; align:center' src=img/fixation3.jpg></div><div class='cl'><div class='vertical-center'>$29<br>for<br>sure</div></div><div class='cr'><div class='vertical-center'><font style='color:orange'>$46<br>with a<br>50% chance</font></div></div><div class='respDivL'><div class='vertical-center'>(E)</div></div><div class='respDivR'><div class='vertical-center'><font style='color:orange'>(I)</font></div></div></div>","null","$29","$46","0","29","46",""
"html-keyboard-response","118","116515","0.0-5.0-1.38","63dcc00d97b599698e60a1a6","bdp_rd","Sun Mar 26 2023 02:50:17 GMT-0400 (Eastern Daylight Time)","144511","","null","","","","FIX","","<div class='trialBorder'><div class='vertical-center'><img style='vertical-align:center; align:center' src=img/fixation3.jpg></div></div>","null","","","","","",""
"html-keyboard-response","119","116975","0.0-5.0-2.38","63dcc00d97b599698e60a1a6","bdp_rd","Sun Mar 26 2023 02:50:17 GMT-0400 (Eastern Daylight Time)","144511","","459","","","","offer","","<div class='trialBorder'><div class='vertical-center'><img style='vertical-align:center; align:center' src=img/fixation3.jpg></div><div class='cl'><div class='vertical-center'>$17<br>for<br>sure</div></div><div class='cr'><div class='vertical-center'>$43<br>with a<br>50% chance</div></div><div class='respDivL'><div class='vertical-center'>(E)</div></div><div class='respDivR'><div class='vertical-center'>(I)</div></div></div>","I","$17","$43","0","17","43","RISKY"
"html-keyboard-response","120","117229","0.0-5.0-3.38","63dcc00d97b599698e60a1a6","bdp_rd","Sun Mar 26 2023 02:50:17 GMT-0400 (Eastern Daylight Time)","144511","","null","","","","offerFB","","<div class='trialBorder'><div class='vertical-center'><img style='vertical-align:center; align:center' src=img/fixation3.jpg></div><div class='cl'><div class='vertical-center'>$17<br>for<br>sure</div></div><div class='cr'><div class='vertical-center'><font style='color:orange'>$43<br>with a<br>50% chance</font></div></div><div class='respDivL'><div class='vertical-center'>(E)</div></div><div class='respDivR'><div class='vertical-center'><font style='color:orange'>(I)</font></div></div></div>","null","$17","$43","0","17","43",""
"html-keyboard-response","121","117732","0.0-5.0-1.39","63dcc00d97b599698e60a1a6","bdp_rd","Sun Mar 26 2023 02:50:17 GMT-0400 (Eastern Daylight Time)","144511","","null","","","","FIX","","<div class='trialBorder'><div class='vertical-center'><img style='vertical-align:center; align:center' src=img/fixation3.jpg></div></div>","null","","","","","",""
"html-keyboard-response","122","118512","0.0-5.0-2.39","63dcc00d97b599698e60a1a6","bdp_rd","Sun Mar 26 2023 02:50:17 GMT-0400 (Eastern Daylight Time)","144511","","779","","","","offer","","<div class='trialBorder'><div class='vertical-center'><img style='vertical-align:center; align:center' src=img/fixation3.jpg></div><div class='cl'><div class='vertical-center'>$54<br>with a<br>50% chance</div></div><div class='cr'><div class='vertical-center'>$25<br>for<br>sure</div></div><div class='respDivL'><div class='vertical-center'>(E)</div></div><div class='respDivR'><div class='vertical-center'>(I)</div></div></div>","E","$25","$54","1","25","54","RISKY"
"html-keyboard-response","123","118765","0.0-5.0-3.39","63dcc00d97b599698e60a1a6","bdp_rd","Sun Mar 26 2023 02:50:17 GMT-0400 (Eastern Daylight Time)","144511","","null","","","","offerFB","","<div class='trialBorder'><div class='vertical-center'><img style='vertical-align:center; align:center' src=img/fixation3.jpg></div><div class='cl'><div class='vertical-center'><font style='color:orange'>$54<br>with a<br>50% chance</font></div></div><div class='cr'><div class='vertical-center'>$25<br>for<br>sure</div></div><div class='respDivL'><div class='vertical-center'><font style='color:orange'>(E)</font></div></div><div class='respDivR'><div class='vertical-center'>(I)</div></div></div>","null","$25","$54","1","25","54",""
"html-keyboard-response","124","119268","0.0-5.0-1.40","63dcc00d97b599698e60a1a6","bdp_rd","Sun Mar 26 2023 02:50:17 GMT-0400 (Eastern Daylight Time)","144511","","null","","","","FIX","","<div class='trialBorder'><div class='vertical-center'><img style='vertical-align:center; align:center' src=img/fixation3.jpg></div></div>","null","","","","","",""
"html-keyboard-response","125","119770","0.0-5.0-2.40","63dcc00d97b599698e60a1a6","bdp_rd","Sun Mar 26 2023 02:50:17 GMT-0400 (Eastern Daylight Time)","144511","","500","","","","offer","","<div class='trialBorder'><div class='vertical-center'><img style='vertical-align:center; align:center' src=img/fixation3.jpg></div><div class='cl'><div class='vertical-center'>$45<br>for<br>sure</div></div><div class='cr'><div class='vertical-center'>$86<br>with a<br>50% chance</div></div><div class='respDivL'><div class='vertical-center'>(E)</div></div><div class='respDivR'><div class='vertical-center'>(I)</div></div></div>","I","$45","$86","0","45","86","RISKY"
"html-keyboard-response","126","120024","0.0-5.0-3.40","63dcc00d97b599698e60a1a6","bdp_rd","Sun Mar 26 2023 02:50:17 GMT-0400 (Eastern Daylight Time)","144511","","null","","","","offerFB","","<div class='trialBorder'><div class='vertical-center'><img style='vertical-align:center; align:center' src=img/fixation3.jpg></div><div class='cl'><div class='vertical-center'>$45<br>for<br>sure</div></div><div class='cr'><div class='vertical-center'><font style='color:orange'>$86<br>with a<br>50% chance</font></div></div><div class='respDivL'><div class='vertical-center'>(E)</div></div><div class='respDivR'><div class='vertical-center'><font style='color:orange'>(I)</font></div></div></div>","null","$45","$86","0","45","86",""
"html-keyboard-response","127","120526","0.0-5.0-1.41","63dcc00d97b599698e60a1a6","bdp_rd","Sun Mar 26 2023 02:50:17 GMT-0400 (Eastern Daylight Time)","144511","","null","","","","FIX","","<div class='trialBorder'><div class='vertical-center'><img style='vertical-align:center; align:center' src=img/fixation3.jpg></div></div>","null","","","","","",""
"html-keyboard-response","128","121050","0.0-5.0-2.41","63dcc00d97b599698e60a1a6","bdp_rd","Sun Mar 26 2023 02:50:17 GMT-0400 (Eastern Daylight Time)","144511","","522","","","","offer","","<div class='trialBorder'><div class='vertical-center'><img style='vertical-align:center; align:center' src=img/fixation3.jpg></div><div class='cl'><div class='vertical-center'>$81<br>with a<br>50% chance</div></div><div class='cr'><div class='vertical-center'>$39<br>for<br>sure</div></div><div class='respDivL'><div class='vertical-center'>(E)</div></div><div class='respDivR'><div class='vertical-center'>(I)</div></div></div>","E","$39","$81","1","39","81","RISKY"
"html-keyboard-response","129","121302","0.0-5.0-3.41","63dcc00d97b599698e60a1a6","bdp_rd","Sun Mar 26 2023 02:50:17 GMT-0400 (Eastern Daylight Time)","144511","","null","","","","offerFB","","<div class='trialBorder'><div class='vertical-center'><img style='vertical-align:center; align:center' src=img/fixation3.jpg></div><div class='cl'><div class='vertical-center'><font style='color:orange'>$81<br>with a<br>50% chance</font></div></div><div class='cr'><div class='vertical-center'>$39<br>for<br>sure</div></div><div class='respDivL'><div class='vertical-center'><font style='color:orange'>(E)</font></div></div><div class='respDivR'><div class='vertical-center'>(I)</div></div></div>","null","$39","$81","1","39","81",""
"html-keyboard-response","130","121805","0.0-5.0-1.42","63dcc00d97b599698e60a1a6","bdp_rd","Sun Mar 26 2023 02:50:17 GMT-0400 (Eastern Daylight Time)","144511","","null","","","","FIX","","<div class='trialBorder'><div class='vertical-center'><img style='vertical-align:center; align:center' src=img/fixation3.jpg></div></div>","null","","","","","",""
"html-keyboard-response","131","122424","0.0-5.0-2.42","63dcc00d97b599698e60a1a6","bdp_rd","Sun Mar 26 2023 02:50:17 GMT-0400 (Eastern Daylight Time)","144511","","618","","","","offer","","<div class='trialBorder'><div class='vertical-center'><img style='vertical-align:center; align:center' src=img/fixation3.jpg></div><div class='cl'><div class='vertical-center'>$22<br>with a<br>50% chance</div></div><div class='cr'><div class='vertical-center'>$14<br>for<br>sure</div></div><div class='respDivL'><div class='vertical-center'>(E)</div></div><div class='respDivR'><div class='vertical-center'>(I)</div></div></div>","E","$14","$22","1","14","22","RISKY"
"html-keyboard-response","132","122676","0.0-5.0-3.42","63dcc00d97b599698e60a1a6","bdp_rd","Sun Mar 26 2023 02:50:17 GMT-0400 (Eastern Daylight Time)","144511","","null","","","","offerFB","","<div class='trialBorder'><div class='vertical-center'><img style='vertical-align:center; align:center' src=img/fixation3.jpg></div><div class='cl'><div class='vertical-center'><font style='color:orange'>$22<br>with a<br>50% chance</font></div></div><div class='cr'><div class='vertical-center'>$14<br>for<br>sure</div></div><div class='respDivL'><div class='vertical-center'><font style='color:orange'>(E)</font></div></div><div class='respDivR'><div class='vertical-center'>(I)</div></div></div>","null","$14","$22","1","14","22",""
"html-keyboard-response","133","123179","0.0-5.0-1.43","63dcc00d97b599698e60a1a6","bdp_rd","Sun Mar 26 2023 02:50:17 GMT-0400 (Eastern Daylight Time)","144511","","null","","","","FIX","","<div class='trialBorder'><div class='vertical-center'><img style='vertical-align:center; align:center' src=img/fixation3.jpg></div></div>","null","","","","","",""
"html-keyboard-response","134","123675","0.0-5.0-2.43","63dcc00d97b599698e60a1a6","bdp_rd","Sun Mar 26 2023 02:50:17 GMT-0400 (Eastern Daylight Time)","144511","","495","","","","offer","","<div class='trialBorder'><div class='vertical-center'><img style='vertical-align:center; align:center' src=img/fixation3.jpg></div><div class='cl'><div class='vertical-center'>$9<br>for<br>sure</div></div><div class='cr'><div class='vertical-center'>$18<br>with a<br>50% chance</div></div><div class='respDivL'><div class='vertical-center'>(E)</div></div><div class='respDivR'><div class='vertical-center'>(I)</div></div></div>","I","$9","$18","0","9","18","RISKY"
"html-keyboard-response","135","123929","0.0-5.0-3.43","63dcc00d97b599698e60a1a6","bdp_rd","Sun Mar 26 2023 02:50:17 GMT-0400 (Eastern Daylight Time)","144511","","null","","","","offerFB","","<div class='trialBorder'><div class='vertical-center'><img style='vertical-align:center; align:center' src=img/fixation3.jpg></div><div class='cl'><div class='vertical-center'>$9<br>for<br>sure</div></div><div class='cr'><div class='vertical-center'><font style='color:orange'>$18<br>with a<br>50% chance</font></div></div><div class='respDivL'><div class='vertical-center'>(E)</div></div><div class='respDivR'><div class='vertical-center'><font style='color:orange'>(I)</font></div></div></div>","null","$9","$18","0","9","18",""
"html-keyboard-response","136","124432","0.0-5.0-1.44","63dcc00d97b599698e60a1a6","bdp_rd","Sun Mar 26 2023 02:50:17 GMT-0400 (Eastern Daylight Time)","144511","","null","","","","FIX","","<div class='trialBorder'><div class='vertical-center'><img style='vertical-align:center; align:center' src=img/fixation3.jpg></div></div>","null","","","","","",""
"html-keyboard-response","137","124899","0.0-5.0-2.44","63dcc00d97b599698e60a1a6","bdp_rd","Sun Mar 26 2023 02:50:17 GMT-0400 (Eastern Daylight Time)","144511","","465","","","","offer","","<div class='trialBorder'><div class='vertical-center'><img style='vertical-align:center; align:center' src=img/fixation3.jpg></div><div class='cl'><div class='vertical-center'>$34<br>for<br>sure</div></div><div class='cr'><div class='vertical-center'>$48<br>with a<br>50% chance</div></div><div class='respDivL'><div class='vertical-center'>(E)</div></div><div class='respDivR'><div class='vertical-center'>(I)</div></div></div>","I","$34","$48","0","34","48","RISKY"
"html-keyboard-response","138","125151","0.0-5.0-3.44","63dcc00d97b599698e60a1a6","bdp_rd","Sun Mar 26 2023 02:50:17 GMT-0400 (Eastern Daylight Time)","144511","","null","","","","offerFB","","<div class='trialBorder'><div class='vertical-center'><img style='vertical-align:center; align:center' src=img/fixation3.jpg></div><div class='cl'><div class='vertical-center'>$34<br>for<br>sure</div></div><div class='cr'><div class='vertical-center'><font style='color:orange'>$48<br>with a<br>50% chance</font></div></div><div class='respDivL'><div class='vertical-center'>(E)</div></div><div class='respDivR'><div class='vertical-center'><font style='color:orange'>(I)</font></div></div></div>","null","$34","$48","0","34","48",""
"html-keyboard-response","139","125654","0.0-5.0-1.45","63dcc00d97b599698e60a1a6","bdp_rd","Sun Mar 26 2023 02:50:17 GMT-0400 (Eastern Daylight Time)","144511","","null","","","","FIX","","<div class='trialBorder'><div class='vertical-center'><img style='vertical-align:center; align:center' src=img/fixation3.jpg></div></div>","null","","","","","",""
"html-keyboard-response","140","126086","0.0-5.0-2.45","63dcc00d97b599698e60a1a6","bdp_rd","Sun Mar 26 2023 02:50:17 GMT-0400 (Eastern Daylight Time)","144511","","431","","","","offer","","<div class='trialBorder'><div class='vertical-center'><img style='vertical-align:center; align:center' src=img/fixation3.jpg></div><div class='cl'><div class='vertical-center'>$1<br>for<br>sure</div></div><div class='cr'><div class='vertical-center'>$33<br>with a<br>50% chance</div></div><div class='respDivL'><div class='vertical-center'>(E)</div></div><div class='respDivR'><div class='vertical-center'>(I)</div></div></div>","I","$1","$33","0","1","33","RISKY"
"html-keyboard-response","141","126340","0.0-5.0-3.45","63dcc00d97b599698e60a1a6","bdp_rd","Sun Mar 26 2023 02:50:17 GMT-0400 (Eastern Daylight Time)","144511","","null","","","","offerFB","","<div class='trialBorder'><div class='vertical-center'><img style='vertical-align:center; align:center' src=img/fixation3.jpg></div><div class='cl'><div class='vertical-center'>$1<br>for<br>sure</div></div><div class='cr'><div class='vertical-center'><font style='color:orange'>$33<br>with a<br>50% chance</font></div></div><div class='respDivL'><div class='vertical-center'>(E)</div></div><div class='respDivR'><div class='vertical-center'><font style='color:orange'>(I)</font></div></div></div>","null","$1","$33","0","1","33",""
"html-keyboard-response","142","126842","0.0-5.0-1.46","63dcc00d97b599698e60a1a6","bdp_rd","Sun Mar 26 2023 02:50:17 GMT-0400 (Eastern Daylight Time)","144511","","null","","","","FIX","","<div class='trialBorder'><div class='vertical-center'><img style='vertical-align:center; align:center' src=img/fixation3.jpg></div></div>","null","","","","","",""
"html-keyboard-response","143","127327","0.0-5.0-2.46","63dcc00d97b599698e60a1a6","bdp_rd","Sun Mar 26 2023 02:50:17 GMT-0400 (Eastern Daylight Time)","144511","","483","","","","offer","","<div class='trialBorder'><div class='vertical-center'><img style='vertical-align:center; align:center' src=img/fixation3.jpg></div><div class='cl'><div class='vertical-center'>$24<br>for<br>sure</div></div><div class='cr'><div class='vertical-center'>$70<br>with a<br>50% chance</div></div><div class='respDivL'><div class='vertical-center'>(E)</div></div><div class='respDivR'><div class='vertical-center'>(I)</div></div></div>","I","$24","$70","0","24","70","RISKY"
"html-keyboard-response","144","127580","0.0-5.0-3.46","63dcc00d97b599698e60a1a6","bdp_rd","Sun Mar 26 2023 02:50:17 GMT-0400 (Eastern Daylight Time)","144511","","null","","","","offerFB","","<div class='trialBorder'><div class='vertical-center'><img style='vertical-align:center; align:center' src=img/fixation3.jpg></div><div class='cl'><div class='vertical-center'>$24<br>for<br>sure</div></div><div class='cr'><div class='vertical-center'><font style='color:orange'>$70<br>with a<br>50% chance</font></div></div><div class='respDivL'><div class='vertical-center'>(E)</div></div><div class='respDivR'><div class='vertical-center'><font style='color:orange'>(I)</font></div></div></div>","null","$24","$70","0","24","70",""
"html-keyboard-response","145","128083","0.0-5.0-1.47","63dcc00d97b599698e60a1a6","bdp_rd","Sun Mar 26 2023 02:50:17 GMT-0400 (Eastern Daylight Time)","144511","","null","","","","FIX","","<div class='trialBorder'><div class='vertical-center'><img style='vertical-align:center; align:center' src=img/fixation3.jpg></div></div>","null","","","","","",""
"html-keyboard-response","146","128651","0.0-5.0-2.47","63dcc00d97b599698e60a1a6","bdp_rd","Sun Mar 26 2023 02:50:17 GMT-0400 (Eastern Daylight Time)","144511","","565","","","","offer","","<div class='trialBorder'><div class='vertical-center'><img style='vertical-align:center; align:center' src=img/fixation3.jpg></div><div class='cl'><div class='vertical-center'>$59<br>with a<br>50% chance</div></div><div class='cr'><div class='vertical-center'>$22<br>for<br>sure</div></div><div class='respDivL'><div class='vertical-center'>(E)</div></div><div class='respDivR'><div class='vertical-center'>(I)</div></div></div>","E","$22","$59","1","22","59","RISKY"
"html-keyboard-response","147","128903","0.0-5.0-3.47","63dcc00d97b599698e60a1a6","bdp_rd","Sun Mar 26 2023 02:50:17 GMT-0400 (Eastern Daylight Time)","144511","","null","","","","offerFB","","<div class='trialBorder'><div class='vertical-center'><img style='vertical-align:center; align:center' src=img/fixation3.jpg></div><div class='cl'><div class='vertical-center'><font style='color:orange'>$59<br>with a<br>50% chance</font></div></div><div class='cr'><div class='vertical-center'>$22<br>for<br>sure</div></div><div class='respDivL'><div class='vertical-center'><font style='color:orange'>(E)</font></div></div><div class='respDivR'><div class='vertical-center'>(I)</div></div></div>","null","$22","$59","1","22","59",""
"html-keyboard-response","148","129406","0.0-5.0-1.48","63dcc00d97b599698e60a1a6","bdp_rd","Sun Mar 26 2023 02:50:17 GMT-0400 (Eastern Daylight Time)","144511","","null","","","","FIX","","<div class='trialBorder'><div class='vertical-center'><img style='vertical-align:center; align:center' src=img/fixation3.jpg></div></div>","null","","","","","",""
"html-keyboard-response","149","129899","0.0-5.0-2.48","63dcc00d97b599698e60a1a6","bdp_rd","Sun Mar 26 2023 02:50:17 GMT-0400 (Eastern Daylight Time)","144511","","491","","","","offer","","<div class='trialBorder'><div class='vertical-center'><img style='vertical-align:center; align:center' src=img/fixation3.jpg></div><div class='cl'><div class='vertical-center'>$19<br>for<br>sure</div></div><div class='cr'><div class='vertical-center'>$51<br>with a<br>50% chance</div></div><div class='respDivL'><div class='vertical-center'>(E)</div></div><div class='respDivR'><div class='vertical-center'>(I)</div></div></div>","I","$19","$51","0","19","51","RISKY"
"html-keyboard-response","150","130151","0.0-5.0-3.48","63dcc00d97b599698e60a1a6","bdp_rd","Sun Mar 26 2023 02:50:17 GMT-0400 (Eastern Daylight Time)","144511","","null","","","","offerFB","","<div class='trialBorder'><div class='vertical-center'><img style='vertical-align:center; align:center' src=img/fixation3.jpg></div><div class='cl'><div class='vertical-center'>$19<br>for<br>sure</div></div><div class='cr'><div class='vertical-center'><font style='color:orange'>$51<br>with a<br>50% chance</font></div></div><div class='respDivL'><div class='vertical-center'>(E)</div></div><div class='respDivR'><div class='vertical-center'><font style='color:orange'>(I)</font></div></div></div>","null","$19","$51","0","19","51",""
"html-keyboard-response","151","130653","0.0-5.0-1.49","63dcc00d97b599698e60a1a6","bdp_rd","Sun Mar 26 2023 02:50:17 GMT-0400 (Eastern Daylight Time)","144511","","null","","","","FIX","","<div class='trialBorder'><div class='vertical-center'><img style='vertical-align:center; align:center' src=img/fixation3.jpg></div></div>","null","","","","","",""
"html-keyboard-response","152","131049","0.0-5.0-2.49","63dcc00d97b599698e60a1a6","bdp_rd","Sun Mar 26 2023 02:50:17 GMT-0400 (Eastern Daylight Time)","144511","","394","","","","offer","","<div class='trialBorder'><div class='vertical-center'><img style='vertical-align:center; align:center' src=img/fixation3.jpg></div><div class='cl'><div class='vertical-center'>$64<br>with a<br>50% chance</div></div><div class='cr'><div class='vertical-center'>$2<br>for<br>sure</div></div><div class='respDivL'><div class='vertical-center'>(E)</div></div><div class='respDivR'><div class='vertical-center'>(I)</div></div></div>","E","$2","$64","1","2","64","RISKY"
"html-keyboard-response","153","131304","0.0-5.0-3.49","63dcc00d97b599698e60a1a6","bdp_rd","Sun Mar 26 2023 02:50:17 GMT-0400 (Eastern Daylight Time)","144511","","null","","","","offerFB","","<div class='trialBorder'><div class='vertical-center'><img style='vertical-align:center; align:center' src=img/fixation3.jpg></div><div class='cl'><div class='vertical-center'><font style='color:orange'>$64<br>with a<br>50% chance</font></div></div><div class='cr'><div class='vertical-center'>$2<br>for<br>sure</div></div><div class='respDivL'><div class='vertical-center'><font style='color:orange'>(E)</font></div></div><div class='respDivR'><div class='vertical-center'>(I)</div></div></div>","null","$2","$64","1","2","64",""
"html-keyboard-response","154","131806","0.0-5.0-1.50","63dcc00d97b599698e60a1a6","bdp_rd","Sun Mar 26 2023 02:50:17 GMT-0400 (Eastern Daylight Time)","144511","","null","","","","FIX","","<div class='trialBorder'><div class='vertical-center'><img style='vertical-align:center; align:center' src=img/fixation3.jpg></div></div>","null","","","","","",""
"html-keyboard-response","155","132322","0.0-5.0-2.50","63dcc00d97b599698e60a1a6","bdp_rd","Sun Mar 26 2023 02:50:17 GMT-0400 (Eastern Daylight Time)","144511","","515","","","","offer","","<div class='trialBorder'><div class='vertical-center'><img style='vertical-align:center; align:center' src=img/fixation3.jpg></div><div class='cl'><div class='vertical-center'>$18<br>for<br>sure</div></div><div class='cr'><div class='vertical-center'>$39<br>with a<br>50% chance</div></div><div class='respDivL'><div class='vertical-center'>(E)</div></div><div class='respDivR'><div class='vertical-center'>(I)</div></div></div>","I","$18","$39","0","18","39","RISKY"
"html-keyboard-response","156","132575","0.0-5.0-3.50","63dcc00d97b599698e60a1a6","bdp_rd","Sun Mar 26 2023 02:50:17 GMT-0400 (Eastern Daylight Time)","144511","","null","","","","offerFB","","<div class='trialBorder'><div class='vertical-center'><img style='vertical-align:center; align:center' src=img/fixation3.jpg></div><div class='cl'><div class='vertical-center'>$18<br>for<br>sure</div></div><div class='cr'><div class='vertical-center'><font style='color:orange'>$39<br>with a<br>50% chance</font></div></div><div class='respDivL'><div class='vertical-center'>(E)</div></div><div class='respDivR'><div class='vertical-center'><font style='color:orange'>(I)</font></div></div></div>","null","$18","$39","0","18","39",""
"html-keyboard-response","157","133078","0.0-5.0-1.51","63dcc00d97b599698e60a1a6","bdp_rd","Sun Mar 26 2023 02:50:17 GMT-0400 (Eastern Daylight Time)","144511","","null","","","","FIX","","<div class='trialBorder'><div class='vertical-center'><img style='vertical-align:center; align:center' src=img/fixation3.jpg></div></div>","null","","","","","",""
"html-keyboard-response","158","133539","0.0-5.0-2.51","63dcc00d97b599698e60a1a6","bdp_rd","Sun Mar 26 2023 02:50:17 GMT-0400 (Eastern Daylight Time)","144511","","460","","","","offer","","<div class='trialBorder'><div class='vertical-center'><img style='vertical-align:center; align:center' src=img/fixation3.jpg></div><div class='cl'><div class='vertical-center'>$14<br>with a<br>50% chance</div></div><div class='cr'><div class='vertical-center'>$4<br>for<br>sure</div></div><div class='respDivL'><div class='vertical-center'>(E)</div></div><div class='respDivR'><div class='vertical-center'>(I)</div></div></div>","E","$4","$14","1","4","14","RISKY"
"html-keyboard-response","159","133792","0.0-5.0-3.51","63dcc00d97b599698e60a1a6","bdp_rd","Sun Mar 26 2023 02:50:17 GMT-0400 (Eastern Daylight Time)","144511","","null","","","","offerFB","","<div class='trialBorder'><div class='vertical-center'><img style='vertical-align:center; align:center' src=img/fixation3.jpg></div><div class='cl'><div class='vertical-center'><font style='color:orange'>$14<br>with a<br>50% chance</font></div></div><div class='cr'><div class='vertical-center'>$4<br>for<br>sure</div></div><div class='respDivL'><div class='vertical-center'><font style='color:orange'>(E)</font></div></div><div class='respDivR'><div class='vertical-center'>(I)</div></div></div>","null","$4","$14","1","4","14",""
"html-keyboard-response","160","134295","0.0-5.0-1.52","63dcc00d97b599698e60a1a6","bdp_rd","Sun Mar 26 2023 02:50:17 GMT-0400 (Eastern Daylight Time)","144511","","null","","","","FIX","","<div class='trialBorder'><div class='vertical-center'><img style='vertical-align:center; align:center' src=img/fixation3.jpg></div></div>","null","","","","","",""
"html-keyboard-response","161","134726","0.0-5.0-2.52","63dcc00d97b599698e60a1a6","bdp_rd","Sun Mar 26 2023 02:50:17 GMT-0400 (Eastern Daylight Time)","144511","","430","","","","offer","","<div class='trialBorder'><div class='vertical-center'><img style='vertical-align:center; align:center' src=img/fixation3.jpg></div><div class='cl'><div class='vertical-center'>$89<br>with a<br>50% chance</div></div><div class='cr'><div class='vertical-center'>$28<br>for<br>sure</div></div><div class='respDivL'><div class='vertical-center'>(E)</div></div><div class='respDivR'><div class='vertical-center'>(I)</div></div></div>","E","$28","$89","1","28","89","RISKY"
"html-keyboard-response","162","134980","0.0-5.0-3.52","63dcc00d97b599698e60a1a6","bdp_rd","Sun Mar 26 2023 02:50:17 GMT-0400 (Eastern Daylight Time)","144511","","null","","","","offerFB","","<div class='trialBorder'><div class='vertical-center'><img style='vertical-align:center; align:center' src=img/fixation3.jpg></div><div class='cl'><div class='vertical-center'><font style='color:orange'>$89<br>with a<br>50% chance</font></div></div><div class='cr'><div class='vertical-center'>$28<br>for<br>sure</div></div><div class='respDivL'><div class='vertical-center'><font style='color:orange'>(E)</font></div></div><div class='respDivR'><div class='vertical-center'>(I)</div></div></div>","null","$28","$89","1","28","89",""
"html-keyboard-response","163","135483","0.0-5.0-1.53","63dcc00d97b599698e60a1a6","bdp_rd","Sun Mar 26 2023 02:50:17 GMT-0400 (Eastern Daylight Time)","144511","","null","","","","FIX","","<div class='trialBorder'><div class='vertical-center'><img style='vertical-align:center; align:center' src=img/fixation3.jpg></div></div>","null","","","","","",""
"html-keyboard-response","164","136026","0.0-5.0-2.53","63dcc00d97b599698e60a1a6","bdp_rd","Sun Mar 26 2023 02:50:17 GMT-0400 (Eastern Daylight Time)","144511","","541","","","","offer","","<div class='trialBorder'><div class='vertical-center'><img style='vertical-align:center; align:center' src=img/fixation3.jpg></div><div class='cl'><div class='vertical-center'>$6<br>for<br>sure</div></div><div class='cr'><div class='vertical-center'>$13<br>with a<br>50% chance</div></div><div class='respDivL'><div class='vertical-center'>(E)</div></div><div class='respDivR'><div class='vertical-center'>(I)</div></div></div>","I","$6","$13","0","6","13","RISKY"
"html-keyboard-response","165","136278","0.0-5.0-3.53","63dcc00d97b599698e60a1a6","bdp_rd","Sun Mar 26 2023 02:50:17 GMT-0400 (Eastern Daylight Time)","144511","","null","","","","offerFB","","<div class='trialBorder'><div class='vertical-center'><img style='vertical-align:center; align:center' src=img/fixation3.jpg></div><div class='cl'><div class='vertical-center'>$6<br>for<br>sure</div></div><div class='cr'><div class='vertical-center'><font style='color:orange'>$13<br>with a<br>50% chance</font></div></div><div class='respDivL'><div class='vertical-center'>(E)</div></div><div class='respDivR'><div class='vertical-center'><font style='color:orange'>(I)</font></div></div></div>","null","$6","$13","0","6","13",""
"html-keyboard-response","166","136781","0.0-5.0-1.54","63dcc00d97b599698e60a1a6","bdp_rd","Sun Mar 26 2023 02:50:17 GMT-0400 (Eastern Daylight Time)","144511","","null","","","","FIX","","<div class='trialBorder'><div class='vertical-center'><img style='vertical-align:center; align:center' src=img/fixation3.jpg></div></div>","null","","","","","",""
"html-keyboard-response","167","137154","0.0-5.0-2.54","63dcc00d97b599698e60a1a6","bdp_rd","Sun Mar 26 2023 02:50:17 GMT-0400 (Eastern Daylight Time)","144511","","372","","","","offer","","<div class='trialBorder'><div class='vertical-center'><img style='vertical-align:center; align:center' src=img/fixation3.jpg></div><div class='cl'><div class='vertical-center'>$30<br>with a<br>50% chance</div></div><div class='cr'><div class='vertical-center'>$1<br>for<br>sure</div></div><div class='respDivL'><div class='vertical-center'>(E)</div></div><div class='respDivR'><div class='vertical-center'>(I)</div></div></div>","E","$1","$30","1","1","30","RISKY"
"html-keyboard-response","168","137406","0.0-5.0-3.54","63dcc00d97b599698e60a1a6","bdp_rd","Sun Mar 26 2023 02:50:17 GMT-0400 (Eastern Daylight Time)","144511","","null","","","","offerFB","","<div class='trialBorder'><div class='vertical-center'><img style='vertical-align:center; align:center' src=img/fixation3.jpg></div><div class='cl'><div class='vertical-center'><font style='color:orange'>$30<br>with a<br>50% chance</font></div></div><div class='cr'><div class='vertical-center'>$1<br>for<br>sure</div></div><div class='respDivL'><div class='vertical-center'><font style='color:orange'>(E)</font></div></div><div class='respDivR'><div class='vertical-center'>(I)</div></div></div>","null","$1","$30","1","1","30",""
"html-keyboard-response","169","137909","0.0-5.0-1.55","63dcc00d97b599698e60a1a6","bdp_rd","Sun Mar 26 2023 02:50:17 GMT-0400 (Eastern Daylight Time)","144511","","null","","","","FIX","","<div class='trialBorder'><div class='vertical-center'><img style='vertical-align:center; align:center' src=img/fixation3.jpg></div></div>","null","","","","","",""
"html-keyboard-response","170","138403","0.0-5.0-2.55","63dcc00d97b599698e60a1a6","bdp_rd","Sun Mar 26 2023 02:50:17 GMT-0400 (Eastern Daylight Time)","144511","","493","","","","offer","","<div class='trialBorder'><div class='vertical-center'><img style='vertical-align:center; align:center' src=img/fixation3.jpg></div><div class='cl'><div class='vertical-center'>$42<br>with a<br>50% chance</div></div><div class='cr'><div class='vertical-center'>$22<br>for<br>sure</div></div><div class='respDivL'><div class='vertical-center'>(E)</div></div><div class='respDivR'><div class='vertical-center'>(I)</div></div></div>","E","$22","$42","1","22","42","RISKY"
"html-keyboard-response","171","138657","0.0-5.0-3.55","63dcc00d97b599698e60a1a6","bdp_rd","Sun Mar 26 2023 02:50:17 GMT-0400 (Eastern Daylight Time)","144511","","null","","","","offerFB","","<div class='trialBorder'><div class='vertical-center'><img style='vertical-align:center; align:center' src=img/fixation3.jpg></div><div class='cl'><div class='vertical-center'><font style='color:orange'>$42<br>with a<br>50% chance</font></div></div><div class='cr'><div class='vertical-center'>$22<br>for<br>sure</div></div><div class='respDivL'><div class='vertical-center'><font style='color:orange'>(E)</font></div></div><div class='respDivR'><div class='vertical-center'>(I)</div></div></div>","null","$22","$42","1","22","42",""
"html-keyboard-response","172","139160","0.0-5.0-1.56","63dcc00d97b599698e60a1a6","bdp_rd","Sun Mar 26 2023 02:50:17 GMT-0400 (Eastern Daylight Time)","144511","","null","","","","FIX","","<div class='trialBorder'><div class='vertical-center'><img style='vertical-align:center; align:center' src=img/fixation3.jpg></div></div>","null","","","","","",""
"html-keyboard-response","173","139642","0.0-5.0-2.56","63dcc00d97b599698e60a1a6","bdp_rd","Sun Mar 26 2023 02:50:17 GMT-0400 (Eastern Daylight Time)","144511","","480","","","","offer","","<div class='trialBorder'><div class='vertical-center'><img style='vertical-align:center; align:center' src=img/fixation3.jpg></div><div class='cl'><div class='vertical-center'>$3<br>for<br>sure</div></div><div class='cr'><div class='vertical-center'>$17<br>with a<br>50% chance</div></div><div class='respDivL'><div class='vertical-center'>(E)</div></div><div class='respDivR'><div class='vertical-center'>(I)</div></div></div>","I","$3","$17","0","3","17","RISKY"
