"trial_type","trial_index","time_elapsed","internal_node_id","subject_id","task","startTime","totalTime","view_history","rt","event","trial","time","trialtype","success","stimulus","key_press","sureOffer","riskyOffer","riskyLeft","sureAmt","riskyAmt","chosen"
"pavlovia","0","6","0.0-0.0","63b6e5e23b31a38790ff1ce2","bdp_rd","Mon Mar 27 2023 01:41:39 GMT-0400 (Eastern Daylight Time)","212801","","","","","","","","","","","","","","",""
"instructions","1","3507","0.0-1.0","63b6e5e23b31a38790ff1ce2","bdp_rd","Mon Mar 27 2023 01:41:39 GMT-0400 (Eastern Daylight Time)","212801","[{""page_index"":0,""viewing_time"":3500}]","3500","","","","","","","","","","","","",""
"","","","","63b6e5e23b31a38790ff1ce2","bdp_rd","Mon Mar 27 2023 01:41:39 GMT-0400 (Eastern Daylight Time)","212801","","","fullscreenenter","2","6492","fullscreenenter","","","","","","","","",""
"fullscreen","2","7444","0.0-2.0","63b6e5e23b31a38790ff1ce2","bdp_rd","Mon Mar 27 2023 01:41:39 GMT-0400 (Eastern Daylight Time)","212801","","","","","","","true","","","","","","","",""
"instructions","3","32858","0.0-4.0","63b6e5e23b31a38790ff1ce2","bdp_rd","Mon Mar 27 2023 01:41:39 GMT-0400 (Eastern Daylight Time)","212801","[{""page_index"":0,""viewing_time"":18140},{""page_index"":1,""viewing_time"":3176},{""page_index"":2,""viewing_time"":4096}]","25412","","","","","","","","","","","","",""
"html-keyboard-response","4","33361","0.0-5.0-1.0","63b6e5e23b31a38790ff1ce2","bdp_rd","Mon Mar 27 2023 01:41:39 GMT-0400 (Eastern Daylight Time)","212801","","null","","","","FIX","","<div class='trialBorder'><div class='vertical-center'><img style='vertical-align:center; align:center' src=img/fixation3.jpg></div></div>","null","","","","","",""
"html-keyboard-response","5","41931","0.0-5.0-2.0","63b6e5e23b31a38790ff1ce2","bdp_rd","Mon Mar 27 2023 01:41:39 GMT-0400 (Eastern Daylight Time)","212801","","8567","","","","offer","","<div class='trialBorder'><div class='vertical-center'><img style='vertical-align:center; align:center' src=img/fixation3.jpg></div><div class='cl'><div class='vertical-center'>$50<br>with a<br>50% chance</div></div><div class='cr'><div class='vertical-center'>$5<br>for<br>sure</div></div><div class='respDivL'><div class='vertical-center'>(E)</div></div><div class='respDivR'><div class='vertical-center'>(I)</div></div></div>","E","$5","$50","1","5","50","RISKY"
"html-keyboard-response","6","42184","0.0-5.0-3.0","63b6e5e23b31a38790ff1ce2","bdp_rd","Mon Mar 27 2023 01:41:39 GMT-0400 (Eastern Daylight Time)","212801","","null","","","","offerFB","","<div class='trialBorder'><div class='vertical-center'><img style='vertical-align:center; align:center' src=img/fixation3.jpg></div><div class='cl'><div class='vertical-center'><font style='color:orange'>$50<br>with a<br>50% chance</font></div></div><div class='cr'><div class='vertical-center'>$5<br>for<br>sure</div></div><div class='respDivL'><div class='vertical-center'><font style='color:orange'>(E)</font></div></div><div class='respDivR'><div class='vertical-center'>(I)</div></div></div>","null","$5","$50","1","5","50",""
"html-keyboard-response","7","42688","0.0-5.0-1.1","63b6e5e23b31a38790ff1ce2","bdp_rd","Mon Mar 27 2023 01:41:39 GMT-0400 (Eastern Daylight Time)","212801","","null","","","","FIX","","<div class='trialBorder'><div class='vertical-center'><img style='vertical-align:center; align:center' src=img/fixation3.jpg></div></div>","null","","","","","",""
"html-keyboard-response","8","46490","0.0-5.0-2.1","63b6e5e23b31a38790ff1ce2","bdp_rd","Mon Mar 27 2023 01:41:39 GMT-0400 (Eastern Daylight Time)","212801","","3801","","","","offer","","<div class='trialBorder'><div class='vertical-center'><img style='vertical-align:center; align:center' src=img/fixation3.jpg></div><div class='cl'><div class='vertical-center'>$22<br>for<br>sure</div></div><div class='cr'><div class='vertical-center'>$42<br>with a<br>50% chance</div></div><div class='respDivL'><div class='vertical-center'>(E)</div></div><div class='respDivR'><div class='vertical-center'>(I)</div></div></div>","E","$22","$42","0","22","42","SURE"
"html-keyboard-response","9","46744","0.0-5.0-3.1","63b6e5e23b31a38790ff1ce2","bdp_rd","Mon Mar 27 2023 01:41:39 GMT-0400 (Eastern Daylight Time)","212801","","null","","","","offerFB","","<div class='trialBorder'><div class='vertical-center'><img style='vertical-align:center; align:center' src=img/fixation3.jpg></div><div class='cl'><div class='vertical-center'><font style='color:orange'>$22<br>for<br>sure</font></div></div><div class='cr'><div class='vertical-center'>$42<br>with a<br>50% chance</div></div><div class='respDivL'><div class='vertical-center'><font style='color:orange'>(E)</font></div></div><div class='respDivR'><div class='vertical-center'>(I)</div></div></div>","null","$22","$42","0","22","42",""
"html-keyboard-response","10","47246","0.0-5.0-1.2","63b6e5e23b31a38790ff1ce2","bdp_rd","Mon Mar 27 2023 01:41:39 GMT-0400 (Eastern Daylight Time)","212801","","null","","","","FIX","","<div class='trialBorder'><div class='vertical-center'><img style='vertical-align:center; align:center' src=img/fixation3.jpg></div></div>","null","","","","","",""
"html-keyboard-response","11","49842","0.0-5.0-2.2","63b6e5e23b31a38790ff1ce2","bdp_rd","Mon Mar 27 2023 01:41:39 GMT-0400 (Eastern Daylight Time)","212801","","2595","","","","offer","","<div class='trialBorder'><div class='vertical-center'><img style='vertical-align:center; align:center' src=img/fixation3.jpg></div><div class='cl'><div class='vertical-center'>$92<br>with a<br>50% chance</div></div><div class='cr'><div class='vertical-center'>$26<br>for<br>sure</div></div><div class='respDivL'><div class='vertical-center'>(E)</div></div><div class='respDivR'><div class='vertical-center'>(I)</div></div></div>","E","$26","$92","1","26","92","RISKY"
"html-keyboard-response","12","50094","0.0-5.0-3.2","63b6e5e23b31a38790ff1ce2","bdp_rd","Mon Mar 27 2023 01:41:39 GMT-0400 (Eastern Daylight Time)","212801","","null","","","","offerFB","","<div class='trialBorder'><div class='vertical-center'><img style='vertical-align:center; align:center' src=img/fixation3.jpg></div><div class='cl'><div class='vertical-center'><font style='color:orange'>$92<br>with a<br>50% chance</font></div></div><div class='cr'><div class='vertical-center'>$26<br>for<br>sure</div></div><div class='respDivL'><div class='vertical-center'><font style='color:orange'>(E)</font></div></div><div class='respDivR'><div class='vertical-center'>(I)</div></div></div>","null","$26","$92","1","26","92",""
"html-keyboard-response","13","50596","0.0-5.0-1.3","63b6e5e23b31a38790ff1ce2","bdp_rd","Mon Mar 27 2023 01:41:39 GMT-0400 (Eastern Daylight Time)","212801","","null","","","","FIX","","<div class='trialBorder'><div class='vertical-center'><img style='vertical-align:center; align:center' src=img/fixation3.jpg></div></div>","null","","","","","",""
"html-keyboard-response","14","52419","0.0-5.0-2.3","63b6e5e23b31a38790ff1ce2","bdp_rd","Mon Mar 27 2023 01:41:39 GMT-0400 (Eastern Daylight Time)","212801","","1821","","","","offer","","<div class='trialBorder'><div class='vertical-center'><img style='vertical-align:center; align:center' src=img/fixation3.jpg></div><div class='cl'><div class='vertical-center'>$13<br>for<br>sure</div></div><div class='cr'><div class='vertical-center'>$24<br>with a<br>50% chance</div></div><div class='respDivL'><div class='vertical-center'>(E)</div></div><div class='respDivR'><div class='vertical-center'>(I)</div></div></div>","E","$13","$24","0","13","24","SURE"
"html-keyboard-response","15","52671","0.0-5.0-3.3","63b6e5e23b31a38790ff1ce2","bdp_rd","Mon Mar 27 2023 01:41:39 GMT-0400 (Eastern Daylight Time)","212801","","null","","","","offerFB","","<div class='trialBorder'><div class='vertical-center'><img style='vertical-align:center; align:center' src=img/fixation3.jpg></div><div class='cl'><div class='vertical-center'><font style='color:orange'>$13<br>for<br>sure</font></div></div><div class='cr'><div class='vertical-center'>$24<br>with a<br>50% chance</div></div><div class='respDivL'><div class='vertical-center'><font style='color:orange'>(E)</font></div></div><div class='respDivR'><div class='vertical-center'>(I)</div></div></div>","null","$13","$24","0","13","24",""
"html-keyboard-response","16","53174","0.0-5.0-1.4","63b6e5e23b31a38790ff1ce2","bdp_rd","Mon Mar 27 2023 01:41:39 GMT-0400 (Eastern Daylight Time)","212801","","null","","","","FIX","","<div class='trialBorder'><div class='vertical-center'><img style='vertical-align:center; align:center' src=img/fixation3.jpg></div></div>","null","","","","","",""
"html-keyboard-response","17","58411","0.0-5.0-2.4","63b6e5e23b31a38790ff1ce2","bdp_rd","Mon Mar 27 2023 01:41:39 GMT-0400 (Eastern Daylight Time)","212801","","5235","","","","offer","","<div class='trialBorder'><div class='vertical-center'><img style='vertical-align:center; align:center' src=img/fixation3.jpg></div><div class='cl'><div class='vertical-center'>$58<br>for<br>sure</div></div><div class='cr'><div class='vertical-center'>$69<br>with a<br>50% chance</div></div><div class='respDivL'><div class='vertical-center'>(E)</div></div><div class='respDivR'><div class='vertical-center'>(I)</div></div></div>","E","$58","$69","0","58","69","SURE"
"html-keyboard-response","18","58666","0.0-5.0-3.4","63b6e5e23b31a38790ff1ce2","bdp_rd","Mon Mar 27 2023 01:41:39 GMT-0400 (Eastern Daylight Time)","212801","","null","","","","offerFB","","<div class='trialBorder'><div class='vertical-center'><img style='vertical-align:center; align:center' src=img/fixation3.jpg></div><div class='cl'><div class='vertical-center'><font style='color:orange'>$58<br>for<br>sure</font></div></div><div class='cr'><div class='vertical-center'>$69<br>with a<br>50% chance</div></div><div class='respDivL'><div class='vertical-center'><font style='color:orange'>(E)</font></div></div><div class='respDivR'><div class='vertical-center'>(I)</div></div></div>","null","$58","$69","0","58","69",""
"html-keyboard-response","19","59168","0.0-5.0-1.5","63b6e5e23b31a38790ff1ce2","bdp_rd","Mon Mar 27 2023 01:41:39 GMT-0400 (Eastern Daylight Time)","212801","","null","","","","FIX","","<div class='trialBorder'><div class='vertical-center'><img style='vertical-align:center; align:center' src=img/fixation3.jpg></div></div>","null","","","","","",""
"html-keyboard-response","20","60826","0.0-5.0-2.5","63b6e5e23b31a38790ff1ce2","bdp_rd","Mon Mar 27 2023 01:41:39 GMT-0400 (Eastern Daylight Time)","212801","","1658","","","","offer","","<div class='trialBorder'><div class='vertical-center'><img style='vertical-align:center; align:center' src=img/fixation3.jpg></div><div class='cl'><div class='vertical-center'>$40<br>for<br>sure</div></div><div class='cr'><div class='vertical-center'>$95<br>with a<br>50% chance</div></div><div class='respDivL'><div class='vertical-center'>(E)</div></div><div class='respDivR'><div class='vertical-center'>(I)</div></div></div>","I","$40","$95","0","40","95","RISKY"
"html-keyboard-response","21","61079","0.0-5.0-3.5","63b6e5e23b31a38790ff1ce2","bdp_rd","Mon Mar 27 2023 01:41:39 GMT-0400 (Eastern Daylight Time)","212801","","null","","","","offerFB","","<div class='trialBorder'><div class='vertical-center'><img style='vertical-align:center; align:center' src=img/fixation3.jpg></div><div class='cl'><div class='vertical-center'>$40<br>for<br>sure</div></div><div class='cr'><div class='vertical-center'><font style='color:orange'>$95<br>with a<br>50% chance</font></div></div><div class='respDivL'><div class='vertical-center'>(E)</div></div><div class='respDivR'><div class='vertical-center'><font style='color:orange'>(I)</font></div></div></div>","null","$40","$95","0","40","95",""
"html-keyboard-response","22","61581","0.0-5.0-1.6","63b6e5e23b31a38790ff1ce2","bdp_rd","Mon Mar 27 2023 01:41:39 GMT-0400 (Eastern Daylight Time)","212801","","null","","","","FIX","","<div class='trialBorder'><div class='vertical-center'><img style='vertical-align:center; align:center' src=img/fixation3.jpg></div></div>","null","","","","","",""
"html-keyboard-response","23","64075","0.0-5.0-2.6","63b6e5e23b31a38790ff1ce2","bdp_rd","Mon Mar 27 2023 01:41:39 GMT-0400 (Eastern Daylight Time)","212801","","2492","","","","offer","","<div class='trialBorder'><div class='vertical-center'><img style='vertical-align:center; align:center' src=img/fixation3.jpg></div><div class='cl'><div class='vertical-center'>$17<br>with a<br>50% chance</div></div><div class='cr'><div class='vertical-center'>$3<br>for<br>sure</div></div><div class='respDivL'><div class='vertical-center'>(E)</div></div><div class='respDivR'><div class='vertical-center'>(I)</div></div></div>","E","$3","$17","1","3","17","RISKY"
"html-keyboard-response","24","64327","0.0-5.0-3.6","63b6e5e23b31a38790ff1ce2","bdp_rd","Mon Mar 27 2023 01:41:39 GMT-0400 (Eastern Daylight Time)","212801","","null","","","","offerFB","","<div class='trialBorder'><div class='vertical-center'><img style='vertical-align:center; align:center' src=img/fixation3.jpg></div><div class='cl'><div class='vertical-center'><font style='color:orange'>$17<br>with a<br>50% chance</font></div></div><div class='cr'><div class='vertical-center'>$3<br>for<br>sure</div></div><div class='respDivL'><div class='vertical-center'><font style='color:orange'>(E)</font></div></div><div class='respDivR'><div class='vertical-center'>(I)</div></div></div>","null","$3","$17","1","3","17",""
"html-keyboard-response","25","64829","0.0-5.0-1.7","63b6e5e23b31a38790ff1ce2","bdp_rd","Mon Mar 27 2023 01:41:39 GMT-0400 (Eastern Daylight Time)","212801","","null","","","","FIX","","<div class='trialBorder'><div class='vertical-center'><img style='vertical-align:center; align:center' src=img/fixation3.jpg></div></div>","null","","","","","",""
"html-keyboard-response","26","68370","0.0-5.0-2.7","63b6e5e23b31a38790ff1ce2","bdp_rd","Mon Mar 27 2023 01:41:39 GMT-0400 (Eastern Daylight Time)","212801","","3541","","","","offer","","<div class='trialBorder'><div class='vertical-center'><img style='vertical-align:center; align:center' src=img/fixation3.jpg></div><div class='cl'><div class='vertical-center'>$46<br>with a<br>50% chance</div></div><div class='cr'><div class='vertical-center'>$29<br>for<br>sure</div></div><div class='respDivL'><div class='vertical-center'>(E)</div></div><div class='respDivR'><div class='vertical-center'>(I)</div></div></div>","I","$29","$46","1","29","46","SURE"
"html-keyboard-response","27","68623","0.0-5.0-3.7","63b6e5e23b31a38790ff1ce2","bdp_rd","Mon Mar 27 2023 01:41:39 GMT-0400 (Eastern Daylight Time)","212801","","null","","","","offerFB","","<div class='trialBorder'><div class='vertical-center'><img style='vertical-align:center; align:center' src=img/fixation3.jpg></div><div class='cl'><div class='vertical-center'>$46<br>with a<br>50% chance</div></div><div class='cr'><div class='vertical-center'><font style='color:orange'>$29<br>for<br>sure</font></div></div><div class='respDivL'><div class='vertical-center'>(E)</div></div><div class='respDivR'><div class='vertical-center'><font style='color:orange'>(I)</font></div></div></div>","null","$29","$46","1","29","46",""
"html-keyboard-response","28","69125","0.0-5.0-1.8","63b6e5e23b31a38790ff1ce2","bdp_rd","Mon Mar 27 2023 01:41:39 GMT-0400 (Eastern Daylight Time)","212801","","null","","","","FIX","","<div class='trialBorder'><div class='vertical-center'><img style='vertical-align:center; align:center' src=img/fixation3.jpg></div></div>","null","","","","","",""
"html-keyboard-response","29","71642","0.0-5.0-2.8","63b6e5e23b31a38790ff1ce2","bdp_rd","Mon Mar 27 2023 01:41:39 GMT-0400 (Eastern Daylight Time)","212801","","2516","","","","offer","","<div class='trialBorder'><div class='vertical-center'><img style='vertical-align:center; align:center' src=img/fixation3.jpg></div><div class='cl'><div class='vertical-center'>$38<br>with a<br>50% chance</div></div><div class='cr'><div class='vertical-center'>$16<br>for<br>sure</div></div><div class='respDivL'><div class='vertical-center'>(E)</div></div><div class='respDivR'><div class='vertical-center'>(I)</div></div></div>","I","$16","$38","1","16","38","SURE"
"html-keyboard-response","30","71895","0.0-5.0-3.8","63b6e5e23b31a38790ff1ce2","bdp_rd","Mon Mar 27 2023 01:41:39 GMT-0400 (Eastern Daylight Time)","212801","","null","","","","offerFB","","<div class='trialBorder'><div class='vertical-center'><img style='vertical-align:center; align:center' src=img/fixation3.jpg></div><div class='cl'><div class='vertical-center'>$38<br>with a<br>50% chance</div></div><div class='cr'><div class='vertical-center'><font style='color:orange'>$16<br>for<br>sure</font></div></div><div class='respDivL'><div class='vertical-center'>(E)</div></div><div class='respDivR'><div class='vertical-center'><font style='color:orange'>(I)</font></div></div></div>","null","$16","$38","1","16","38",""
"html-keyboard-response","31","72397","0.0-5.0-1.9","63b6e5e23b31a38790ff1ce2","bdp_rd","Mon Mar 27 2023 01:41:39 GMT-0400 (Eastern Daylight Time)","212801","","null","","","","FIX","","<div class='trialBorder'><div class='vertical-center'><img style='vertical-align:center; align:center' src=img/fixation3.jpg></div></div>","null","","","","","",""
"html-keyboard-response","32","74203","0.0-5.0-2.9","63b6e5e23b31a38790ff1ce2","bdp_rd","Mon Mar 27 2023 01:41:39 GMT-0400 (Eastern Daylight Time)","212801","","1804","","","","offer","","<div class='trialBorder'><div class='vertical-center'><img style='vertical-align:center; align:center' src=img/fixation3.jpg></div><div class='cl'><div class='vertical-center'>$20<br>for<br>sure</div></div><div class='cr'><div class='vertical-center'>$37<br>with a<br>50% chance</div></div><div class='respDivL'><div class='vertical-center'>(E)</div></div><div class='respDivR'><div class='vertical-center'>(I)</div></div></div>","E","$20","$37","0","20","37","SURE"
"html-keyboard-response","33","74455","0.0-5.0-3.9","63b6e5e23b31a38790ff1ce2","bdp_rd","Mon Mar 27 2023 01:41:39 GMT-0400 (Eastern Daylight Time)","212801","","null","","","","offerFB","","<div class='trialBorder'><div class='vertical-center'><img style='vertical-align:center; align:center' src=img/fixation3.jpg></div><div class='cl'><div class='vertical-center'><font style='color:orange'>$20<br>for<br>sure</font></div></div><div class='cr'><div class='vertical-center'>$37<br>with a<br>50% chance</div></div><div class='respDivL'><div class='vertical-center'><font style='color:orange'>(E)</font></div></div><div class='respDivR'><div class='vertical-center'>(I)</div></div></div>","null","$20","$37","0","20","37",""
"html-keyboard-response","34","74957","0.0-5.0-1.10","63b6e5e23b31a38790ff1ce2","bdp_rd","Mon Mar 27 2023 01:41:39 GMT-0400 (Eastern Daylight Time)","212801","","null","","","","FIX","","<div class='trialBorder'><div class='vertical-center'><img style='vertical-align:center; align:center' src=img/fixation3.jpg></div></div>","null","","","","","",""
"html-keyboard-response","35","77250","0.0-5.0-2.10","63b6e5e23b31a38790ff1ce2","bdp_rd","Mon Mar 27 2023 01:41:39 GMT-0400 (Eastern Daylight Time)","212801","","2292","","","","offer","","<div class='trialBorder'><div class='vertical-center'><img style='vertical-align:center; align:center' src=img/fixation3.jpg></div><div class='cl'><div class='vertical-center'>$80<br>with a<br>50% chance</div></div><div class='cr'><div class='vertical-center'>$20<br>for<br>sure</div></div><div class='respDivL'><div class='vertical-center'>(E)</div></div><div class='respDivR'><div class='vertical-center'>(I)</div></div></div>","E","$20","$80","1","20","80","RISKY"
"html-keyboard-response","36","77503","0.0-5.0-3.10","63b6e5e23b31a38790ff1ce2","bdp_rd","Mon Mar 27 2023 01:41:39 GMT-0400 (Eastern Daylight Time)","212801","","null","","","","offerFB","","<div class='trialBorder'><div class='vertical-center'><img style='vertical-align:center; align:center' src=img/fixation3.jpg></div><div class='cl'><div class='vertical-center'><font style='color:orange'>$80<br>with a<br>50% chance</font></div></div><div class='cr'><div class='vertical-center'>$20<br>for<br>sure</div></div><div class='respDivL'><div class='vertical-center'><font style='color:orange'>(E)</font></div></div><div class='respDivR'><div class='vertical-center'>(I)</div></div></div>","null","$20","$80","1","20","80",""
"html-keyboard-response","37","78005","0.0-5.0-1.11","63b6e5e23b31a38790ff1ce2","bdp_rd","Mon Mar 27 2023 01:41:39 GMT-0400 (Eastern Daylight Time)","212801","","null","","","","FIX","","<div class='trialBorder'><div class='vertical-center'><img style='vertical-align:center; align:center' src=img/fixation3.jpg></div></div>","null","","","","","",""
"html-keyboard-response","38","79738","0.0-5.0-2.11","63b6e5e23b31a38790ff1ce2","bdp_rd","Mon Mar 27 2023 01:41:39 GMT-0400 (Eastern Daylight Time)","212801","","1732","","","","offer","","<div class='trialBorder'><div class='vertical-center'><img style='vertical-align:center; align:center' src=img/fixation3.jpg></div><div class='cl'><div class='vertical-center'>$4<br>for<br>sure</div></div><div class='cr'><div class='vertical-center'>$11<br>with a<br>50% chance</div></div><div class='respDivL'><div class='vertical-center'>(E)</div></div><div class='respDivR'><div class='vertical-center'>(I)</div></div></div>","E","$4","$11","0","4","11","SURE"
"html-keyboard-response","39","79991","0.0-5.0-3.11","63b6e5e23b31a38790ff1ce2","bdp_rd","Mon Mar 27 2023 01:41:39 GMT-0400 (Eastern Daylight Time)","212801","","null","","","","offerFB","","<div class='trialBorder'><div class='vertical-center'><img style='vertical-align:center; align:center' src=img/fixation3.jpg></div><div class='cl'><div class='vertical-center'><font style='color:orange'>$4<br>for<br>sure</font></div></div><div class='cr'><div class='vertical-center'>$11<br>with a<br>50% chance</div></div><div class='respDivL'><div class='vertical-center'><font style='color:orange'>(E)</font></div></div><div class='respDivR'><div class='vertical-center'>(I)</div></div></div>","null","$4","$11","0","4","11",""
"html-keyboard-response","40","80492","0.0-5.0-1.12","63b6e5e23b31a38790ff1ce2","bdp_rd","Mon Mar 27 2023 01:41:39 GMT-0400 (Eastern Daylight Time)","212801","","null","","","","FIX","","<div class='trialBorder'><div class='vertical-center'><img style='vertical-align:center; align:center' src=img/fixation3.jpg></div></div>","null","","","","","",""
"html-keyboard-response","41","83666","0.0-5.0-2.12","63b6e5e23b31a38790ff1ce2","bdp_rd","Mon Mar 27 2023 01:41:39 GMT-0400 (Eastern Daylight Time)","212801","","3173","","","","offer","","<div class='trialBorder'><div class='vertical-center'><img style='vertical-align:center; align:center' src=img/fixation3.jpg></div><div class='cl'><div class='vertical-center'>$78<br>with a<br>50% chance</div></div><div class='cr'><div class='vertical-center'>$31<br>for<br>sure</div></div><div class='respDivL'><div class='vertical-center'>(E)</div></div><div class='respDivR'><div class='vertical-center'>(I)</div></div></div>","E","$31","$78","1","31","78","RISKY"
"html-keyboard-response","42","83919","0.0-5.0-3.12","63b6e5e23b31a38790ff1ce2","bdp_rd","Mon Mar 27 2023 01:41:39 GMT-0400 (Eastern Daylight Time)","212801","","null","","","","offerFB","","<div class='trialBorder'><div class='vertical-center'><img style='vertical-align:center; align:center' src=img/fixation3.jpg></div><div class='cl'><div class='vertical-center'><font style='color:orange'>$78<br>with a<br>50% chance</font></div></div><div class='cr'><div class='vertical-center'>$31<br>for<br>sure</div></div><div class='respDivL'><div class='vertical-center'><font style='color:orange'>(E)</font></div></div><div class='respDivR'><div class='vertical-center'>(I)</div></div></div>","null","$31","$78","1","31","78",""
"html-keyboard-response","43","84422","0.0-5.0-1.13","63b6e5e23b31a38790ff1ce2","bdp_rd","Mon Mar 27 2023 01:41:39 GMT-0400 (Eastern Daylight Time)","212801","","null","","","","FIX","","<div class='trialBorder'><div class='vertical-center'><img style='vertical-align:center; align:center' src=img/fixation3.jpg></div></div>","null","","","","","",""
"html-keyboard-response","44","86563","0.0-5.0-2.13","63b6e5e23b31a38790ff1ce2","bdp_rd","Mon Mar 27 2023 01:41:39 GMT-0400 (Eastern Daylight Time)","212801","","2140","","","","offer","","<div class='trialBorder'><div class='vertical-center'><img style='vertical-align:center; align:center' src=img/fixation3.jpg></div><div class='cl'><div class='vertical-center'>$59<br>with a<br>50% chance</div></div><div class='cr'><div class='vertical-center'>$22<br>for<br>sure</div></div><div class='respDivL'><div class='vertical-center'>(E)</div></div><div class='respDivR'><div class='vertical-center'>(I)</div></div></div>","E","$22","$59","1","22","59","RISKY"
"html-keyboard-response","45","86815","0.0-5.0-3.13","63b6e5e23b31a38790ff1ce2","bdp_rd","Mon Mar 27 2023 01:41:39 GMT-0400 (Eastern Daylight Time)","212801","","null","","","","offerFB","","<div class='trialBorder'><div class='vertical-center'><img style='vertical-align:center; align:center' src=img/fixation3.jpg></div><div class='cl'><div class='vertical-center'><font style='color:orange'>$59<br>with a<br>50% chance</font></div></div><div class='cr'><div class='vertical-center'>$22<br>for<br>sure</div></div><div class='respDivL'><div class='vertical-center'><font style='color:orange'>(E)</font></div></div><div class='respDivR'><div class='vertical-center'>(I)</div></div></div>","null","$22","$59","1","22","59",""
"html-keyboard-response","46","87317","0.0-5.0-1.14","63b6e5e23b31a38790ff1ce2","bdp_rd","Mon Mar 27 2023 01:41:39 GMT-0400 (Eastern Daylight Time)","212801","","null","","","","FIX","","<div class='trialBorder'><div class='vertical-center'><img style='vertical-align:center; align:center' src=img/fixation3.jpg></div></div>","null","","","","","",""
"html-keyboard-response","47","88618","0.0-5.0-2.14","63b6e5e23b31a38790ff1ce2","bdp_rd","Mon Mar 27 2023 01:41:39 GMT-0400 (Eastern Daylight Time)","212801","","1300","","","","offer","","<div class='trialBorder'><div class='vertical-center'><img style='vertical-align:center; align:center' src=img/fixation3.jpg></div><div class='cl'><div class='vertical-center'>$12<br>for<br>sure</div></div><div class='cr'><div class='vertical-center'>$35<br>with a<br>50% chance</div></div><div class='respDivL'><div class='vertical-center'>(E)</div></div><div class='respDivR'><div class='vertical-center'>(I)</div></div></div>","E","$12","$35","0","12","35","SURE"
"html-keyboard-response","48","88871","0.0-5.0-3.14","63b6e5e23b31a38790ff1ce2","bdp_rd","Mon Mar 27 2023 01:41:39 GMT-0400 (Eastern Daylight Time)","212801","","null","","","","offerFB","","<div class='trialBorder'><div class='vertical-center'><img style='vertical-align:center; align:center' src=img/fixation3.jpg></div><div class='cl'><div class='vertical-center'><font style='color:orange'>$12<br>for<br>sure</font></div></div><div class='cr'><div class='vertical-center'>$35<br>with a<br>50% chance</div></div><div class='respDivL'><div class='vertical-center'><font style='color:orange'>(E)</font></div></div><div class='respDivR'><div class='vertical-center'>(I)</div></div></div>","null","$12","$35","0","12","35",""
"html-keyboard-response","49","89374","0.0-5.0-1.15","63b6e5e23b31a38790ff1ce2","bdp_rd","Mon Mar 27 2023 01:41:39 GMT-0400 (Eastern Daylight Time)","212801","","null","","","","FIX","","<div class='trialBorder'><div class='vertical-center'><img style='vertical-align:center; align:center' src=img/fixation3.jpg></div></div>","null","","","","","",""
"html-keyboard-response","50","90707","0.0-5.0-2.15","63b6e5e23b31a38790ff1ce2","bdp_rd","Mon Mar 27 2023 01:41:39 GMT-0400 (Eastern Daylight Time)","212801","","1331","","","","offer","","<div class='trialBorder'><div class='vertical-center'><img style='vertical-align:center; align:center' src=img/fixation3.jpg></div><div class='cl'><div class='vertical-center'>$1<br>for<br>sure</div></div><div class='cr'><div class='vertical-center'>$33<br>with a<br>50% chance</div></div><div class='respDivL'><div class='vertical-center'>(E)</div></div><div class='respDivR'><div class='vertical-center'>(I)</div></div></div>","I","$1","$33","0","1","33","RISKY"
"html-keyboard-response","51","90959","0.0-5.0-3.15","63b6e5e23b31a38790ff1ce2","bdp_rd","Mon Mar 27 2023 01:41:39 GMT-0400 (Eastern Daylight Time)","212801","","null","","","","offerFB","","<div class='trialBorder'><div class='vertical-center'><img style='vertical-align:center; align:center' src=img/fixation3.jpg></div><div class='cl'><div class='vertical-center'>$1<br>for<br>sure</div></div><div class='cr'><div class='vertical-center'><font style='color:orange'>$33<br>with a<br>50% chance</font></div></div><div class='respDivL'><div class='vertical-center'>(E)</div></div><div class='respDivR'><div class='vertical-center'><font style='color:orange'>(I)</font></div></div></div>","null","$1","$33","0","1","33",""
"html-keyboard-response","52","91462","0.0-5.0-1.16","63b6e5e23b31a38790ff1ce2","bdp_rd","Mon Mar 27 2023 01:41:39 GMT-0400 (Eastern Daylight Time)","212801","","null","","","","FIX","","<div class='trialBorder'><div class='vertical-center'><img style='vertical-align:center; align:center' src=img/fixation3.jpg></div></div>","null","","","","","",""
"html-keyboard-response","53","93315","0.0-5.0-2.16","63b6e5e23b31a38790ff1ce2","bdp_rd","Mon Mar 27 2023 01:41:39 GMT-0400 (Eastern Daylight Time)","212801","","1852","","","","offer","","<div class='trialBorder'><div class='vertical-center'><img style='vertical-align:center; align:center' src=img/fixation3.jpg></div><div class='cl'><div class='vertical-center'>$23<br>with a<br>50% chance</div></div><div class='cr'><div class='vertical-center'>$8<br>for<br>sure</div></div><div class='respDivL'><div class='vertical-center'>(E)</div></div><div class='respDivR'><div class='vertical-center'>(I)</div></div></div>","E","$8","$23","1","8","23","RISKY"
"html-keyboard-response","54","93567","0.0-5.0-3.16","63b6e5e23b31a38790ff1ce2","bdp_rd","Mon Mar 27 2023 01:41:39 GMT-0400 (Eastern Daylight Time)","212801","","null","","","","offerFB","","<div class='trialBorder'><div class='vertical-center'><img style='vertical-align:center; align:center' src=img/fixation3.jpg></div><div class='cl'><div class='vertical-center'><font style='color:orange'>$23<br>with a<br>50% chance</font></div></div><div class='cr'><div class='vertical-center'>$8<br>for<br>sure</div></div><div class='respDivL'><div class='vertical-center'><font style='color:orange'>(E)</font></div></div><div class='respDivR'><div class='vertical-center'>(I)</div></div></div>","null","$8","$23","1","8","23",""
"html-keyboard-response","55","94069","0.0-5.0-1.17","63b6e5e23b31a38790ff1ce2","bdp_rd","Mon Mar 27 2023 01:41:39 GMT-0400 (Eastern Daylight Time)","212801","","null","","","","FIX","","<div class='trialBorder'><div class='vertical-center'><img style='vertical-align:center; align:center' src=img/fixation3.jpg></div></div>","null","","","","","",""
"html-keyboard-response","56","96403","0.0-5.0-2.17","63b6e5e23b31a38790ff1ce2","bdp_rd","Mon Mar 27 2023 01:41:39 GMT-0400 (Eastern Daylight Time)","212801","","2332","","","","offer","","<div class='trialBorder'><div class='vertical-center'><img style='vertical-align:center; align:center' src=img/fixation3.jpg></div><div class='cl'><div class='vertical-center'>$25<br>with a<br>50% chance</div></div><div class='cr'><div class='vertical-center'>$21<br>for<br>sure</div></div><div class='respDivL'><div class='vertical-center'>(E)</div></div><div class='respDivR'><div class='vertical-center'>(I)</div></div></div>","I","$21","$25","1","21","25","SURE"
"html-keyboard-response","57","96655","0.0-5.0-3.17","63b6e5e23b31a38790ff1ce2","bdp_rd","Mon Mar 27 2023 01:41:39 GMT-0400 (Eastern Daylight Time)","212801","","null","","","","offerFB","","<div class='trialBorder'><div class='vertical-center'><img style='vertical-align:center; align:center' src=img/fixation3.jpg></div><div class='cl'><div class='vertical-center'>$25<br>with a<br>50% chance</div></div><div class='cr'><div class='vertical-center'><font style='color:orange'>$21<br>for<br>sure</font></div></div><div class='respDivL'><div class='vertical-center'>(E)</div></div><div class='respDivR'><div class='vertical-center'><font style='color:orange'>(I)</font></div></div></div>","null","$21","$25","1","21","25",""
"html-keyboard-response","58","97157","0.0-5.0-1.18","63b6e5e23b31a38790ff1ce2","bdp_rd","Mon Mar 27 2023 01:41:39 GMT-0400 (Eastern Daylight Time)","212801","","null","","","","FIX","","<div class='trialBorder'><div class='vertical-center'><img style='vertical-align:center; align:center' src=img/fixation3.jpg></div></div>","null","","","","","",""
"html-keyboard-response","59","98667","0.0-5.0-2.18","63b6e5e23b31a38790ff1ce2","bdp_rd","Mon Mar 27 2023 01:41:39 GMT-0400 (Eastern Daylight Time)","212801","","1508","","","","offer","","<div class='trialBorder'><div class='vertical-center'><img style='vertical-align:center; align:center' src=img/fixation3.jpg></div><div class='cl'><div class='vertical-center'>$12<br>for<br>sure</div></div><div class='cr'><div class='vertical-center'>$27<br>with a<br>50% chance</div></div><div class='respDivL'><div class='vertical-center'>(E)</div></div><div class='respDivR'><div class='vertical-center'>(I)</div></div></div>","E","$12","$27","0","12","27","SURE"
"html-keyboard-response","60","98919","0.0-5.0-3.18","63b6e5e23b31a38790ff1ce2","bdp_rd","Mon Mar 27 2023 01:41:39 GMT-0400 (Eastern Daylight Time)","212801","","null","","","","offerFB","","<div class='trialBorder'><div class='vertical-center'><img style='vertical-align:center; align:center' src=img/fixation3.jpg></div><div class='cl'><div class='vertical-center'><font style='color:orange'>$12<br>for<br>sure</font></div></div><div class='cr'><div class='vertical-center'>$27<br>with a<br>50% chance</div></div><div class='respDivL'><div class='vertical-center'><font style='color:orange'>(E)</font></div></div><div class='respDivR'><div class='vertical-center'>(I)</div></div></div>","null","$12","$27","0","12","27",""
"html-keyboard-response","61","99421","0.0-5.0-1.19","63b6e5e23b31a38790ff1ce2","bdp_rd","Mon Mar 27 2023 01:41:39 GMT-0400 (Eastern Daylight Time)","212801","","null","","","","FIX","","<div class='trialBorder'><div class='vertical-center'><img style='vertical-align:center; align:center' src=img/fixation3.jpg></div></div>","null","","","","","",""
"html-keyboard-response","62","100811","0.0-5.0-2.19","63b6e5e23b31a38790ff1ce2","bdp_rd","Mon Mar 27 2023 01:41:39 GMT-0400 (Eastern Daylight Time)","212801","","1388","","","","offer","","<div class='trialBorder'><div class='vertical-center'><img style='vertical-align:center; align:center' src=img/fixation3.jpg></div><div class='cl'><div class='vertical-center'>$25<br>for<br>sure</div></div><div class='cr'><div class='vertical-center'>$54<br>with a<br>50% chance</div></div><div class='respDivL'><div class='vertical-center'>(E)</div></div><div class='respDivR'><div class='vertical-center'>(I)</div></div></div>","E","$25","$54","0","25","54","SURE"
"html-keyboard-response","63","101063","0.0-5.0-3.19","63b6e5e23b31a38790ff1ce2","bdp_rd","Mon Mar 27 2023 01:41:39 GMT-0400 (Eastern Daylight Time)","212801","","null","","","","offerFB","","<div class='trialBorder'><div class='vertical-center'><img style='vertical-align:center; align:center' src=img/fixation3.jpg></div><div class='cl'><div class='vertical-center'><font style='color:orange'>$25<br>for<br>sure</font></div></div><div class='cr'><div class='vertical-center'>$54<br>with a<br>50% chance</div></div><div class='respDivL'><div class='vertical-center'><font style='color:orange'>(E)</font></div></div><div class='respDivR'><div class='vertical-center'>(I)</div></div></div>","null","$25","$54","0","25","54",""
"html-keyboard-response","64","101565","0.0-5.0-1.20","63b6e5e23b31a38790ff1ce2","bdp_rd","Mon Mar 27 2023 01:41:39 GMT-0400 (Eastern Daylight Time)","212801","","null","","","","FIX","","<div class='trialBorder'><div class='vertical-center'><img style='vertical-align:center; align:center' src=img/fixation3.jpg></div></div>","null","","","","","",""
"html-keyboard-response","65","103907","0.0-5.0-2.20","63b6e5e23b31a38790ff1ce2","bdp_rd","Mon Mar 27 2023 01:41:39 GMT-0400 (Eastern Daylight Time)","212801","","2340","","","","offer","","<div class='trialBorder'><div class='vertical-center'><img style='vertical-align:center; align:center' src=img/fixation3.jpg></div><div class='cl'><div class='vertical-center'>$16<br>with a<br>50% chance</div></div><div class='cr'><div class='vertical-center'>$5<br>for<br>sure</div></div><div class='respDivL'><div class='vertical-center'>(E)</div></div><div class='respDivR'><div class='vertical-center'>(I)</div></div></div>","I","$5","$16","1","5","16","SURE"
"html-keyboard-response","66","104159","0.0-5.0-3.20","63b6e5e23b31a38790ff1ce2","bdp_rd","Mon Mar 27 2023 01:41:39 GMT-0400 (Eastern Daylight Time)","212801","","null","","","","offerFB","","<div class='trialBorder'><div class='vertical-center'><img style='vertical-align:center; align:center' src=img/fixation3.jpg></div><div class='cl'><div class='vertical-center'>$16<br>with a<br>50% chance</div></div><div class='cr'><div class='vertical-center'><font style='color:orange'>$5<br>for<br>sure</font></div></div><div class='respDivL'><div class='vertical-center'>(E)</div></div><div class='respDivR'><div class='vertical-center'><font style='color:orange'>(I)</font></div></div></div>","null","$5","$16","1","5","16",""
"html-keyboard-response","67","104661","0.0-5.0-1.21","63b6e5e23b31a38790ff1ce2","bdp_rd","Mon Mar 27 2023 01:41:39 GMT-0400 (Eastern Daylight Time)","212801","","null","","","","FIX","","<div class='trialBorder'><div class='vertical-center'><img style='vertical-align:center; align:center' src=img/fixation3.jpg></div></div>","null","","","","","",""
"html-keyboard-response","68","106362","0.0-5.0-2.21","63b6e5e23b31a38790ff1ce2","bdp_rd","Mon Mar 27 2023 01:41:39 GMT-0400 (Eastern Daylight Time)","212801","","1700","","","","offer","","<div class='trialBorder'><div class='vertical-center'><img style='vertical-align:center; align:center' src=img/fixation3.jpg></div><div class='cl'><div class='vertical-center'>$28<br>with a<br>50% chance</div></div><div class='cr'><div class='vertical-center'>$16<br>for<br>sure</div></div><div class='respDivL'><div class='vertical-center'>(E)</div></div><div class='respDivR'><div class='vertical-center'>(I)</div></div></div>","I","$16","$28","1","16","28","SURE"
"html-keyboard-response","69","106614","0.0-5.0-3.21","63b6e5e23b31a38790ff1ce2","bdp_rd","Mon Mar 27 2023 01:41:39 GMT-0400 (Eastern Daylight Time)","212801","","null","","","","offerFB","","<div class='trialBorder'><div class='vertical-center'><img style='vertical-align:center; align:center' src=img/fixation3.jpg></div><div class='cl'><div class='vertical-center'>$28<br>with a<br>50% chance</div></div><div class='cr'><div class='vertical-center'><font style='color:orange'>$16<br>for<br>sure</font></div></div><div class='respDivL'><div class='vertical-center'>(E)</div></div><div class='respDivR'><div class='vertical-center'><font style='color:orange'>(I)</font></div></div></div>","null","$16","$28","1","16","28",""
"html-keyboard-response","70","107116","0.0-5.0-1.22","63b6e5e23b31a38790ff1ce2","bdp_rd","Mon Mar 27 2023 01:41:39 GMT-0400 (Eastern Daylight Time)","212801","","null","","","","FIX","","<div class='trialBorder'><div class='vertical-center'><img style='vertical-align:center; align:center' src=img/fixation3.jpg></div></div>","null","","","","","",""
"html-keyboard-response","71","109571","0.0-5.0-2.22","63b6e5e23b31a38790ff1ce2","bdp_rd","Mon Mar 27 2023 01:41:39 GMT-0400 (Eastern Daylight Time)","212801","","2453","","","","offer","","<div class='trialBorder'><div class='vertical-center'><img style='vertical-align:center; align:center' src=img/fixation3.jpg></div><div class='cl'><div class='vertical-center'>$14<br>with a<br>50% chance</div></div><div class='cr'><div class='vertical-center'>$4<br>for<br>sure</div></div><div class='respDivL'><div class='vertical-center'>(E)</div></div><div class='respDivR'><div class='vertical-center'>(I)</div></div></div>","E","$4","$14","1","4","14","RISKY"
"html-keyboard-response","72","109824","0.0-5.0-3.22","63b6e5e23b31a38790ff1ce2","bdp_rd","Mon Mar 27 2023 01:41:39 GMT-0400 (Eastern Daylight Time)","212801","","null","","","","offerFB","","<div class='trialBorder'><div class='vertical-center'><img style='vertical-align:center; align:center' src=img/fixation3.jpg></div><div class='cl'><div class='vertical-center'><font style='color:orange'>$14<br>with a<br>50% chance</font></div></div><div class='cr'><div class='vertical-center'>$4<br>for<br>sure</div></div><div class='respDivL'><div class='vertical-center'><font style='color:orange'>(E)</font></div></div><div class='respDivR'><div class='vertical-center'>(I)</div></div></div>","null","$4","$14","1","4","14",""
"html-keyboard-response","73","110326","0.0-5.0-1.23","63b6e5e23b31a38790ff1ce2","bdp_rd","Mon Mar 27 2023 01:41:39 GMT-0400 (Eastern Daylight Time)","212801","","null","","","","FIX","","<div class='trialBorder'><div class='vertical-center'><img style='vertical-align:center; align:center' src=img/fixation3.jpg></div></div>","null","","","","","",""
"html-keyboard-response","74","112787","0.0-5.0-2.23","63b6e5e23b31a38790ff1ce2","bdp_rd","Mon Mar 27 2023 01:41:39 GMT-0400 (Eastern Daylight Time)","212801","","2459","","","","offer","","<div class='trialBorder'><div class='vertical-center'><img style='vertical-align:center; align:center' src=img/fixation3.jpg></div><div class='cl'><div class='vertical-center'>$8<br>for<br>sure</div></div><div class='cr'><div class='vertical-center'>$45<br>with a<br>50% chance</div></div><div class='respDivL'><div class='vertical-center'>(E)</div></div><div class='respDivR'><div class='vertical-center'>(I)</div></div></div>","I","$8","$45","0","8","45","RISKY"
"html-keyboard-response","75","113039","0.0-5.0-3.23","63b6e5e23b31a38790ff1ce2","bdp_rd","Mon Mar 27 2023 01:41:39 GMT-0400 (Eastern Daylight Time)","212801","","null","","","","offerFB","","<div class='trialBorder'><div class='vertical-center'><img style='vertical-align:center; align:center' src=img/fixation3.jpg></div><div class='cl'><div class='vertical-center'>$8<br>for<br>sure</div></div><div class='cr'><div class='vertical-center'><font style='color:orange'>$45<br>with a<br>50% chance</font></div></div><div class='respDivL'><div class='vertical-center'>(E)</div></div><div class='respDivR'><div class='vertical-center'><font style='color:orange'>(I)</font></div></div></div>","null","$8","$45","0","8","45",""
"html-keyboard-response","76","113541","0.0-5.0-1.24","63b6e5e23b31a38790ff1ce2","bdp_rd","Mon Mar 27 2023 01:41:39 GMT-0400 (Eastern Daylight Time)","212801","","null","","","","FIX","","<div class='trialBorder'><div class='vertical-center'><img style='vertical-align:center; align:center' src=img/fixation3.jpg></div></div>","null","","","","","",""
"html-keyboard-response","77","115683","0.0-5.0-2.24","63b6e5e23b31a38790ff1ce2","bdp_rd","Mon Mar 27 2023 01:41:39 GMT-0400 (Eastern Daylight Time)","212801","","2140","","","","offer","","<div class='trialBorder'><div class='vertical-center'><img style='vertical-align:center; align:center' src=img/fixation3.jpg></div><div class='cl'><div class='vertical-center'>$6<br>for<br>sure</div></div><div class='cr'><div class='vertical-center'>$15<br>with a<br>50% chance</div></div><div class='respDivL'><div class='vertical-center'>(E)</div></div><div class='respDivR'><div class='vertical-center'>(I)</div></div></div>","I","$6","$15","0","6","15","RISKY"
"html-keyboard-response","78","115935","0.0-5.0-3.24","63b6e5e23b31a38790ff1ce2","bdp_rd","Mon Mar 27 2023 01:41:39 GMT-0400 (Eastern Daylight Time)","212801","","null","","","","offerFB","","<div class='trialBorder'><div class='vertical-center'><img style='vertical-align:center; align:center' src=img/fixation3.jpg></div><div class='cl'><div class='vertical-center'>$6<br>for<br>sure</div></div><div class='cr'><div class='vertical-center'><font style='color:orange'>$15<br>with a<br>50% chance</font></div></div><div class='respDivL'><div class='vertical-center'>(E)</div></div><div class='respDivR'><div class='vertical-center'><font style='color:orange'>(I)</font></div></div></div>","null","$6","$15","0","6","15",""
"html-keyboard-response","79","116437","0.0-5.0-1.25","63b6e5e23b31a38790ff1ce2","bdp_rd","Mon Mar 27 2023 01:41:39 GMT-0400 (Eastern Daylight Time)","212801","","null","","","","FIX","","<div class='trialBorder'><div class='vertical-center'><img style='vertical-align:center; align:center' src=img/fixation3.jpg></div></div>","null","","","","","",""
"html-keyboard-response","80","117867","0.0-5.0-2.25","63b6e5e23b31a38790ff1ce2","bdp_rd","Mon Mar 27 2023 01:41:39 GMT-0400 (Eastern Daylight Time)","212801","","1428","","","","offer","","<div class='trialBorder'><div class='vertical-center'><img style='vertical-align:center; align:center' src=img/fixation3.jpg></div><div class='cl'><div class='vertical-center'>$13<br>for<br>sure</div></div><div class='cr'><div class='vertical-center'>$41<br>with a<br>50% chance</div></div><div class='respDivL'><div class='vertical-center'>(E)</div></div><div class='respDivR'><div class='vertical-center'>(I)</div></div></div>","I","$13","$41","0","13","41","RISKY"
"html-keyboard-response","81","118119","0.0-5.0-3.25","63b6e5e23b31a38790ff1ce2","bdp_rd","Mon Mar 27 2023 01:41:39 GMT-0400 (Eastern Daylight Time)","212801","","null","","","","offerFB","","<div class='trialBorder'><div class='vertical-center'><img style='vertical-align:center; align:center' src=img/fixation3.jpg></div><div class='cl'><div class='vertical-center'>$13<br>for<br>sure</div></div><div class='cr'><div class='vertical-center'><font style='color:orange'>$41<br>with a<br>50% chance</font></div></div><div class='respDivL'><div class='vertical-center'>(E)</div></div><div class='respDivR'><div class='vertical-center'><font style='color:orange'>(I)</font></div></div></div>","null","$13","$41","0","13","41",""
"html-keyboard-response","82","118621","0.0-5.0-1.26","63b6e5e23b31a38790ff1ce2","bdp_rd","Mon Mar 27 2023 01:41:39 GMT-0400 (Eastern Daylight Time)","212801","","null","","","","FIX","","<div class='trialBorder'><div class='vertical-center'><img style='vertical-align:center; align:center' src=img/fixation3.jpg></div></div>","null","","","","","",""
"html-keyboard-response","83","120283","0.0-5.0-2.26","63b6e5e23b31a38790ff1ce2","bdp_rd","Mon Mar 27 2023 01:41:39 GMT-0400 (Eastern Daylight Time)","212801","","1660","","","","offer","","<div class='trialBorder'><div class='vertical-center'><img style='vertical-align:center; align:center' src=img/fixation3.jpg></div><div class='cl'><div class='vertical-center'>$46<br>for<br>sure</div></div><div class='cr'><div class='vertical-center'>$65<br>with a<br>50% chance</div></div><div class='respDivL'><div class='vertical-center'>(E)</div></div><div class='respDivR'><div class='vertical-center'>(I)</div></div></div>","E","$46","$65","0","46","65","SURE"
"html-keyboard-response","84","120535","0.0-5.0-3.26","63b6e5e23b31a38790ff1ce2","bdp_rd","Mon Mar 27 2023 01:41:39 GMT-0400 (Eastern Daylight Time)","212801","","null","","","","offerFB","","<div class='trialBorder'><div class='vertical-center'><img style='vertical-align:center; align:center' src=img/fixation3.jpg></div><div class='cl'><div class='vertical-center'><font style='color:orange'>$46<br>for<br>sure</font></div></div><div class='cr'><div class='vertical-center'>$65<br>with a<br>50% chance</div></div><div class='respDivL'><div class='vertical-center'><font style='color:orange'>(E)</font></div></div><div class='respDivR'><div class='vertical-center'>(I)</div></div></div>","null","$46","$65","0","46","65",""
"html-keyboard-response","85","121037","0.0-5.0-1.27","63b6e5e23b31a38790ff1ce2","bdp_rd","Mon Mar 27 2023 01:41:39 GMT-0400 (Eastern Daylight Time)","212801","","null","","","","FIX","","<div class='trialBorder'><div class='vertical-center'><img style='vertical-align:center; align:center' src=img/fixation3.jpg></div></div>","null","","","","","",""
"html-keyboard-response","86","126091","0.0-5.0-2.27","63b6e5e23b31a38790ff1ce2","bdp_rd","Mon Mar 27 2023 01:41:39 GMT-0400 (Eastern Daylight Time)","212801","","5052","","","","offer","","<div class='trialBorder'><div class='vertical-center'><img style='vertical-align:center; align:center' src=img/fixation3.jpg></div><div class='cl'><div class='vertical-center'>$14<br>for<br>sure</div></div><div class='cr'><div class='vertical-center'>$29<br>with a<br>50% chance</div></div><div class='respDivL'><div class='vertical-center'>(E)</div></div><div class='respDivR'><div class='vertical-center'>(I)</div></div></div>","E","$14","$29","0","14","29","SURE"
"html-keyboard-response","87","126343","0.0-5.0-3.27","63b6e5e23b31a38790ff1ce2","bdp_rd","Mon Mar 27 2023 01:41:39 GMT-0400 (Eastern Daylight Time)","212801","","null","","","","offerFB","","<div class='trialBorder'><div class='vertical-center'><img style='vertical-align:center; align:center' src=img/fixation3.jpg></div><div class='cl'><div class='vertical-center'><font style='color:orange'>$14<br>for<br>sure</font></div></div><div class='cr'><div class='vertical-center'>$29<br>with a<br>50% chance</div></div><div class='respDivL'><div class='vertical-center'><font style='color:orange'>(E)</font></div></div><div class='respDivR'><div class='vertical-center'>(I)</div></div></div>","null","$14","$29","0","14","29",""
"html-keyboard-response","88","126845","0.0-5.0-1.28","63b6e5e23b31a38790ff1ce2","bdp_rd","Mon Mar 27 2023 01:41:39 GMT-0400 (Eastern Daylight Time)","212801","","null","","","","FIX","","<div class='trialBorder'><div class='vertical-center'><img style='vertical-align:center; align:center' src=img/fixation3.jpg></div></div>","null","","","","","",""
"html-keyboard-response","89","128531","0.0-5.0-2.28","63b6e5e23b31a38790ff1ce2","bdp_rd","Mon Mar 27 2023 01:41:39 GMT-0400 (Eastern Daylight Time)","212801","","1684","","","","offer","","<div class='trialBorder'><div class='vertical-center'><img style='vertical-align:center; align:center' src=img/fixation3.jpg></div><div class='cl'><div class='vertical-center'>$26<br>with a<br>50% chance</div></div><div class='cr'><div class='vertical-center'>$11<br>for<br>sure</div></div><div class='respDivL'><div class='vertical-center'>(E)</div></div><div class='respDivR'><div class='vertical-center'>(I)</div></div></div>","I","$11","$26","1","11","26","SURE"
"html-keyboard-response","90","128783","0.0-5.0-3.28","63b6e5e23b31a38790ff1ce2","bdp_rd","Mon Mar 27 2023 01:41:39 GMT-0400 (Eastern Daylight Time)","212801","","null","","","","offerFB","","<div class='trialBorder'><div class='vertical-center'><img style='vertical-align:center; align:center' src=img/fixation3.jpg></div><div class='cl'><div class='vertical-center'>$26<br>with a<br>50% chance</div></div><div class='cr'><div class='vertical-center'><font style='color:orange'>$11<br>for<br>sure</font></div></div><div class='respDivL'><div class='vertical-center'>(E)</div></div><div class='respDivR'><div class='vertical-center'><font style='color:orange'>(I)</font></div></div></div>","null","$11","$26","1","11","26",""
"html-keyboard-response","91","129285","0.0-5.0-1.29","63b6e5e23b31a38790ff1ce2","bdp_rd","Mon Mar 27 2023 01:41:39 GMT-0400 (Eastern Daylight Time)","212801","","null","","","","FIX","","<div class='trialBorder'><div class='vertical-center'><img style='vertical-align:center; align:center' src=img/fixation3.jpg></div></div>","null","","","","","",""
"html-keyboard-response","92","131155","0.0-5.0-2.29","63b6e5e23b31a38790ff1ce2","bdp_rd","Mon Mar 27 2023 01:41:39 GMT-0400 (Eastern Daylight Time)","212801","","1868","","","","offer","","<div class='trialBorder'><div class='vertical-center'><img style='vertical-align:center; align:center' src=img/fixation3.jpg></div><div class='cl'><div class='vertical-center'>$3<br>for<br>sure</div></div><div class='cr'><div class='vertical-center'>$12<br>with a<br>50% chance</div></div><div class='respDivL'><div class='vertical-center'>(E)</div></div><div class='respDivR'><div class='vertical-center'>(I)</div></div></div>","I","$3","$12","0","3","12","RISKY"
"html-keyboard-response","93","131407","0.0-5.0-3.29","63b6e5e23b31a38790ff1ce2","bdp_rd","Mon Mar 27 2023 01:41:39 GMT-0400 (Eastern Daylight Time)","212801","","null","","","","offerFB","","<div class='trialBorder'><div class='vertical-center'><img style='vertical-align:center; align:center' src=img/fixation3.jpg></div><div class='cl'><div class='vertical-center'>$3<br>for<br>sure</div></div><div class='cr'><div class='vertical-center'><font style='color:orange'>$12<br>with a<br>50% chance</font></div></div><div class='respDivL'><div class='vertical-center'>(E)</div></div><div class='respDivR'><div class='vertical-center'><font style='color:orange'>(I)</font></div></div></div>","null","$3","$12","0","3","12",""
"html-keyboard-response","94","131909","0.0-5.0-1.30","63b6e5e23b31a38790ff1ce2","bdp_rd","Mon Mar 27 2023 01:41:39 GMT-0400 (Eastern Daylight Time)","212801","","null","","","","FIX","","<div class='trialBorder'><div class='vertical-center'><img style='vertical-align:center; align:center' src=img/fixation3.jpg></div></div>","null","","","","","",""
"html-keyboard-response","95","133195","0.0-5.0-2.30","63b6e5e23b31a38790ff1ce2","bdp_rd","Mon Mar 27 2023 01:41:39 GMT-0400 (Eastern Daylight Time)","212801","","1284","","","","offer","","<div class='trialBorder'><div class='vertical-center'><img style='vertical-align:center; align:center' src=img/fixation3.jpg></div><div class='cl'><div class='vertical-center'>$18<br>with a<br>50% chance</div></div><div class='cr'><div class='vertical-center'>$9<br>for<br>sure</div></div><div class='respDivL'><div class='vertical-center'>(E)</div></div><div class='respDivR'><div class='vertical-center'>(I)</div></div></div>","E","$9","$18","1","9","18","RISKY"
"html-keyboard-response","96","133447","0.0-5.0-3.30","63b6e5e23b31a38790ff1ce2","bdp_rd","Mon Mar 27 2023 01:41:39 GMT-0400 (Eastern Daylight Time)","212801","","null","","","","offerFB","","<div class='trialBorder'><div class='vertical-center'><img style='vertical-align:center; align:center' src=img/fixation3.jpg></div><div class='cl'><div class='vertical-center'><font style='color:orange'>$18<br>with a<br>50% chance</font></div></div><div class='cr'><div class='vertical-center'>$9<br>for<br>sure</div></div><div class='respDivL'><div class='vertical-center'><font style='color:orange'>(E)</font></div></div><div class='respDivR'><div class='vertical-center'>(I)</div></div></div>","null","$9","$18","1","9","18",""
"html-keyboard-response","97","133949","0.0-5.0-1.31","63b6e5e23b31a38790ff1ce2","bdp_rd","Mon Mar 27 2023 01:41:39 GMT-0400 (Eastern Daylight Time)","212801","","null","","","","FIX","","<div class='trialBorder'><div class='vertical-center'><img style='vertical-align:center; align:center' src=img/fixation3.jpg></div></div>","null","","","","","",""
"html-keyboard-response","98","138267","0.0-5.0-2.31","63b6e5e23b31a38790ff1ce2","bdp_rd","Mon Mar 27 2023 01:41:39 GMT-0400 (Eastern Daylight Time)","212801","","4315","","","","offer","","<div class='trialBorder'><div class='vertical-center'><img style='vertical-align:center; align:center' src=img/fixation3.jpg></div><div class='cl'><div class='vertical-center'>$68<br>with a<br>50% chance</div></div><div class='cr'><div class='vertical-center'>$30<br>for<br>sure</div></div><div class='respDivL'><div class='vertical-center'>(E)</div></div><div class='respDivR'><div class='vertical-center'>(I)</div></div></div>","E","$30","$68","1","30","68","RISKY"
"html-keyboard-response","99","138519","0.0-5.0-3.31","63b6e5e23b31a38790ff1ce2","bdp_rd","Mon Mar 27 2023 01:41:39 GMT-0400 (Eastern Daylight Time)","212801","","null","","","","offerFB","","<div class='trialBorder'><div class='vertical-center'><img style='vertical-align:center; align:center' src=img/fixation3.jpg></div><div class='cl'><div class='vertical-center'><font style='color:orange'>$68<br>with a<br>50% chance</font></div></div><div class='cr'><div class='vertical-center'>$30<br>for<br>sure</div></div><div class='respDivL'><div class='vertical-center'><font style='color:orange'>(E)</font></div></div><div class='respDivR'><div class='vertical-center'>(I)</div></div></div>","null","$30","$68","1","30","68",""
"html-keyboard-response","100","139021","0.0-5.0-1.32","63b6e5e23b31a38790ff1ce2","bdp_rd","Mon Mar 27 2023 01:41:39 GMT-0400 (Eastern Daylight Time)","212801","","null","","","","FIX","","<div class='trialBorder'><div class='vertical-center'><img style='vertical-align:center; align:center' src=img/fixation3.jpg></div></div>","null","","","","","",""
"html-keyboard-response","101","140363","0.0-5.0-2.32","63b6e5e23b31a38790ff1ce2","bdp_rd","Mon Mar 27 2023 01:41:39 GMT-0400 (Eastern Daylight Time)","212801","","1340","","","","offer","","<div class='trialBorder'><div class='vertical-center'><img style='vertical-align:center; align:center' src=img/fixation3.jpg></div><div class='cl'><div class='vertical-center'>$62<br>with a<br>50% chance</div></div><div class='cr'><div class='vertical-center'>$11<br>for<br>sure</div></div><div class='respDivL'><div class='vertical-center'>(E)</div></div><div class='respDivR'><div class='vertical-center'>(I)</div></div></div>","E","$11","$62","1","11","62","RISKY"
"html-keyboard-response","102","140615","0.0-5.0-3.32","63b6e5e23b31a38790ff1ce2","bdp_rd","Mon Mar 27 2023 01:41:39 GMT-0400 (Eastern Daylight Time)","212801","","null","","","","offerFB","","<div class='trialBorder'><div class='vertical-center'><img style='vertical-align:center; align:center' src=img/fixation3.jpg></div><div class='cl'><div class='vertical-center'><font style='color:orange'>$62<br>with a<br>50% chance</font></div></div><div class='cr'><div class='vertical-center'>$11<br>for<br>sure</div></div><div class='respDivL'><div class='vertical-center'><font style='color:orange'>(E)</font></div></div><div class='respDivR'><div class='vertical-center'>(I)</div></div></div>","null","$11","$62","1","11","62",""
"html-keyboard-response","103","141117","0.0-5.0-1.33","63b6e5e23b31a38790ff1ce2","bdp_rd","Mon Mar 27 2023 01:41:39 GMT-0400 (Eastern Daylight Time)","212801","","null","","","","FIX","","<div class='trialBorder'><div class='vertical-center'><img style='vertical-align:center; align:center' src=img/fixation3.jpg></div></div>","null","","","","","",""
"html-keyboard-response","104","142827","0.0-5.0-2.33","63b6e5e23b31a38790ff1ce2","bdp_rd","Mon Mar 27 2023 01:41:39 GMT-0400 (Eastern Daylight Time)","212801","","1708","","","","offer","","<div class='trialBorder'><div class='vertical-center'><img style='vertical-align:center; align:center' src=img/fixation3.jpg></div><div class='cl'><div class='vertical-center'>$17<br>for<br>sure</div></div><div class='cr'><div class='vertical-center'>$43<br>with a<br>50% chance</div></div><div class='respDivL'><div class='vertical-center'>(E)</div></div><div class='respDivR'><div class='vertical-center'>(I)</div></div></div>","I","$17","$43","0","17","43","RISKY"
"html-keyboard-response","105","143079","0.0-5.0-3.33","63b6e5e23b31a38790ff1ce2","bdp_rd","Mon Mar 27 2023 01:41:39 GMT-0400 (Eastern Daylight Time)","212801","","null","","","","offerFB","","<div class='trialBorder'><div class='vertical-center'><img style='vertical-align:center; align:center' src=img/fixation3.jpg></div><div class='cl'><div class='vertical-center'>$17<br>for<br>sure</div></div><div class='cr'><div class='vertical-center'><font style='color:orange'>$43<br>with a<br>50% chance</font></div></div><div class='respDivL'><div class='vertical-center'>(E)</div></div><div class='respDivR'><div class='vertical-center'><font style='color:orange'>(I)</font></div></div></div>","null","$17","$43","0","17","43",""
"html-keyboard-response","106","143580","0.0-5.0-1.34","63b6e5e23b31a38790ff1ce2","bdp_rd","Mon Mar 27 2023 01:41:39 GMT-0400 (Eastern Daylight Time)","212801","","null","","","","FIX","","<div class='trialBorder'><div class='vertical-center'><img style='vertical-align:center; align:center' src=img/fixation3.jpg></div></div>","null","","","","","",""
"html-keyboard-response","107","145514","0.0-5.0-2.34","63b6e5e23b31a38790ff1ce2","bdp_rd","Mon Mar 27 2023 01:41:39 GMT-0400 (Eastern Daylight Time)","212801","","1933","","","","offer","","<div class='trialBorder'><div class='vertical-center'><img style='vertical-align:center; align:center' src=img/fixation3.jpg></div><div class='cl'><div class='vertical-center'>$47<br>with a<br>50% chance</div></div><div class='cr'><div class='vertical-center'>$27<br>for<br>sure</div></div><div class='respDivL'><div class='vertical-center'>(E)</div></div><div class='respDivR'><div class='vertical-center'>(I)</div></div></div>","E","$27","$47","1","27","47","RISKY"
"html-keyboard-response","108","145767","0.0-5.0-3.34","63b6e5e23b31a38790ff1ce2","bdp_rd","Mon Mar 27 2023 01:41:39 GMT-0400 (Eastern Daylight Time)","212801","","null","","","","offerFB","","<div class='trialBorder'><div class='vertical-center'><img style='vertical-align:center; align:center' src=img/fixation3.jpg></div><div class='cl'><div class='vertical-center'><font style='color:orange'>$47<br>with a<br>50% chance</font></div></div><div class='cr'><div class='vertical-center'>$27<br>for<br>sure</div></div><div class='respDivL'><div class='vertical-center'><font style='color:orange'>(E)</font></div></div><div class='respDivR'><div class='vertical-center'>(I)</div></div></div>","null","$27","$47","1","27","47",""
"html-keyboard-response","109","146269","0.0-5.0-1.35","63b6e5e23b31a38790ff1ce2","bdp_rd","Mon Mar 27 2023 01:41:39 GMT-0400 (Eastern Daylight Time)","212801","","null","","","","FIX","","<div class='trialBorder'><div class='vertical-center'><img style='vertical-align:center; align:center' src=img/fixation3.jpg></div></div>","null","","","","","",""
"html-keyboard-response","110","147363","0.0-5.0-2.35","63b6e5e23b31a38790ff1ce2","bdp_rd","Mon Mar 27 2023 01:41:39 GMT-0400 (Eastern Daylight Time)","212801","","1092","","","","offer","","<div class='trialBorder'><div class='vertical-center'><img style='vertical-align:center; align:center' src=img/fixation3.jpg></div><div class='cl'><div class='vertical-center'>$45<br>for<br>sure</div></div><div class='cr'><div class='vertical-center'>$86<br>with a<br>50% chance</div></div><div class='respDivL'><div class='vertical-center'>(E)</div></div><div class='respDivR'><div class='vertical-center'>(I)</div></div></div>","I","$45","$86","0","45","86","RISKY"
"html-keyboard-response","111","147614","0.0-5.0-3.35","63b6e5e23b31a38790ff1ce2","bdp_rd","Mon Mar 27 2023 01:41:39 GMT-0400 (Eastern Daylight Time)","212801","","null","","","","offerFB","","<div class='trialBorder'><div class='vertical-center'><img style='vertical-align:center; align:center' src=img/fixation3.jpg></div><div class='cl'><div class='vertical-center'>$45<br>for<br>sure</div></div><div class='cr'><div class='vertical-center'><font style='color:orange'>$86<br>with a<br>50% chance</font></div></div><div class='respDivL'><div class='vertical-center'>(E)</div></div><div class='respDivR'><div class='vertical-center'><font style='color:orange'>(I)</font></div></div></div>","null","$45","$86","0","45","86",""
"html-keyboard-response","112","148117","0.0-5.0-1.36","63b6e5e23b31a38790ff1ce2","bdp_rd","Mon Mar 27 2023 01:41:39 GMT-0400 (Eastern Daylight Time)","212801","","null","","","","FIX","","<div class='trialBorder'><div class='vertical-center'><img style='vertical-align:center; align:center' src=img/fixation3.jpg></div></div>","null","","","","","",""
"html-keyboard-response","113","150130","0.0-5.0-2.36","63b6e5e23b31a38790ff1ce2","bdp_rd","Mon Mar 27 2023 01:41:39 GMT-0400 (Eastern Daylight Time)","212801","","2012","","","","offer","","<div class='trialBorder'><div class='vertical-center'><img style='vertical-align:center; align:center' src=img/fixation3.jpg></div><div class='cl'><div class='vertical-center'>$1<br>for<br>sure</div></div><div class='cr'><div class='vertical-center'>$30<br>with a<br>50% chance</div></div><div class='respDivL'><div class='vertical-center'>(E)</div></div><div class='respDivR'><div class='vertical-center'>(I)</div></div></div>","I","$1","$30","0","1","30","RISKY"
"html-keyboard-response","114","150383","0.0-5.0-3.36","63b6e5e23b31a38790ff1ce2","bdp_rd","Mon Mar 27 2023 01:41:39 GMT-0400 (Eastern Daylight Time)","212801","","null","","","","offerFB","","<div class='trialBorder'><div class='vertical-center'><img style='vertical-align:center; align:center' src=img/fixation3.jpg></div><div class='cl'><div class='vertical-center'>$1<br>for<br>sure</div></div><div class='cr'><div class='vertical-center'><font style='color:orange'>$30<br>with a<br>50% chance</font></div></div><div class='respDivL'><div class='vertical-center'>(E)</div></div><div class='respDivR'><div class='vertical-center'><font style='color:orange'>(I)</font></div></div></div>","null","$1","$30","0","1","30",""
"html-keyboard-response","115","150884","0.0-5.0-1.37","63b6e5e23b31a38790ff1ce2","bdp_rd","Mon Mar 27 2023 01:41:39 GMT-0400 (Eastern Daylight Time)","212801","","null","","","","FIX","","<div class='trialBorder'><div class='vertical-center'><img style='vertical-align:center; align:center' src=img/fixation3.jpg></div></div>","null","","","","","",""
"html-keyboard-response","116","152442","0.0-5.0-2.37","63b6e5e23b31a38790ff1ce2","bdp_rd","Mon Mar 27 2023 01:41:39 GMT-0400 (Eastern Daylight Time)","212801","","1557","","","","offer","","<div class='trialBorder'><div class='vertical-center'><img style='vertical-align:center; align:center' src=img/fixation3.jpg></div><div class='cl'><div class='vertical-center'>$70<br>with a<br>50% chance</div></div><div class='cr'><div class='vertical-center'>$24<br>for<br>sure</div></div><div class='respDivL'><div class='vertical-center'>(E)</div></div><div class='respDivR'><div class='vertical-center'>(I)</div></div></div>","E","$24","$70","1","24","70","RISKY"
"html-keyboard-response","117","152694","0.0-5.0-3.37","63b6e5e23b31a38790ff1ce2","bdp_rd","Mon Mar 27 2023 01:41:39 GMT-0400 (Eastern Daylight Time)","212801","","null","","","","offerFB","","<div class='trialBorder'><div class='vertical-center'><img style='vertical-align:center; align:center' src=img/fixation3.jpg></div><div class='cl'><div class='vertical-center'><font style='color:orange'>$70<br>with a<br>50% chance</font></div></div><div class='cr'><div class='vertical-center'>$24<br>for<br>sure</div></div><div class='respDivL'><div class='vertical-center'><font style='color:orange'>(E)</font></div></div><div class='respDivR'><div class='vertical-center'>(I)</div></div></div>","null","$24","$70","1","24","70",""
"html-keyboard-response","118","153196","0.0-5.0-1.38","63b6e5e23b31a38790ff1ce2","bdp_rd","Mon Mar 27 2023 01:41:39 GMT-0400 (Eastern Daylight Time)","212801","","null","","","","FIX","","<div class='trialBorder'><div class='vertical-center'><img style='vertical-align:center; align:center' src=img/fixation3.jpg></div></div>","null","","","","","",""
"html-keyboard-response","119","154546","0.0-5.0-2.38","63b6e5e23b31a38790ff1ce2","bdp_rd","Mon Mar 27 2023 01:41:39 GMT-0400 (Eastern Daylight Time)","212801","","1349","","","","offer","","<div class='trialBorder'><div class='vertical-center'><img style='vertical-align:center; align:center' src=img/fixation3.jpg></div><div class='cl'><div class='vertical-center'>$7<br>for<br>sure</div></div><div class='cr'><div class='vertical-center'>$10<br>with a<br>50% chance</div></div><div class='respDivL'><div class='vertical-center'>(E)</div></div><div class='respDivR'><div class='vertical-center'>(I)</div></div></div>","E","$7","$10","0","7","10","SURE"
"html-keyboard-response","120","154799","0.0-5.0-3.38","63b6e5e23b31a38790ff1ce2","bdp_rd","Mon Mar 27 2023 01:41:39 GMT-0400 (Eastern Daylight Time)","212801","","null","","","","offerFB","","<div class='trialBorder'><div class='vertical-center'><img style='vertical-align:center; align:center' src=img/fixation3.jpg></div><div class='cl'><div class='vertical-center'><font style='color:orange'>$7<br>for<br>sure</font></div></div><div class='cr'><div class='vertical-center'>$10<br>with a<br>50% chance</div></div><div class='respDivL'><div class='vertical-center'><font style='color:orange'>(E)</font></div></div><div class='respDivR'><div class='vertical-center'>(I)</div></div></div>","null","$7","$10","0","7","10",""
"html-keyboard-response","121","155302","0.0-5.0-1.39","63b6e5e23b31a38790ff1ce2","bdp_rd","Mon Mar 27 2023 01:41:39 GMT-0400 (Eastern Daylight Time)","212801","","null","","","","FIX","","<div class='trialBorder'><div class='vertical-center'><img style='vertical-align:center; align:center' src=img/fixation3.jpg></div></div>","null","","","","","",""
"html-keyboard-response","122","157282","0.0-5.0-2.39","63b6e5e23b31a38790ff1ce2","bdp_rd","Mon Mar 27 2023 01:41:39 GMT-0400 (Eastern Daylight Time)","212801","","1980","","","","offer","","<div class='trialBorder'><div class='vertical-center'><img style='vertical-align:center; align:center' src=img/fixation3.jpg></div><div class='cl'><div class='vertical-center'>$66<br>with a<br>50% chance</div></div><div class='cr'><div class='vertical-center'>$33<br>for<br>sure</div></div><div class='respDivL'><div class='vertical-center'>(E)</div></div><div class='respDivR'><div class='vertical-center'>(I)</div></div></div>","I","$33","$66","1","33","66","SURE"
"html-keyboard-response","123","157535","0.0-5.0-3.39","63b6e5e23b31a38790ff1ce2","bdp_rd","Mon Mar 27 2023 01:41:39 GMT-0400 (Eastern Daylight Time)","212801","","null","","","","offerFB","","<div class='trialBorder'><div class='vertical-center'><img style='vertical-align:center; align:center' src=img/fixation3.jpg></div><div class='cl'><div class='vertical-center'>$66<br>with a<br>50% chance</div></div><div class='cr'><div class='vertical-center'><font style='color:orange'>$33<br>for<br>sure</font></div></div><div class='respDivL'><div class='vertical-center'>(E)</div></div><div class='respDivR'><div class='vertical-center'><font style='color:orange'>(I)</font></div></div></div>","null","$33","$66","1","33","66",""
"html-keyboard-response","124","158037","0.0-5.0-1.40","63b6e5e23b31a38790ff1ce2","bdp_rd","Mon Mar 27 2023 01:41:39 GMT-0400 (Eastern Daylight Time)","212801","","null","","","","FIX","","<div class='trialBorder'><div class='vertical-center'><img style='vertical-align:center; align:center' src=img/fixation3.jpg></div></div>","null","","","","","",""
"html-keyboard-response","125","160618","0.0-5.0-2.40","63b6e5e23b31a38790ff1ce2","bdp_rd","Mon Mar 27 2023 01:41:39 GMT-0400 (Eastern Daylight Time)","212801","","2580","","","","offer","","<div class='trialBorder'><div class='vertical-center'><img style='vertical-align:center; align:center' src=img/fixation3.jpg></div><div class='cl'><div class='vertical-center'>$19<br>for<br>sure</div></div><div class='cr'><div class='vertical-center'>$51<br>with a<br>50% chance</div></div><div class='respDivL'><div class='vertical-center'>(E)</div></div><div class='respDivR'><div class='vertical-center'>(I)</div></div></div>","I","$19","$51","0","19","51","RISKY"
"html-keyboard-response","126","160871","0.0-5.0-3.40","63b6e5e23b31a38790ff1ce2","bdp_rd","Mon Mar 27 2023 01:41:39 GMT-0400 (Eastern Daylight Time)","212801","","null","","","","offerFB","","<div class='trialBorder'><div class='vertical-center'><img style='vertical-align:center; align:center' src=img/fixation3.jpg></div><div class='cl'><div class='vertical-center'>$19<br>for<br>sure</div></div><div class='cr'><div class='vertical-center'><font style='color:orange'>$51<br>with a<br>50% chance</font></div></div><div class='respDivL'><div class='vertical-center'>(E)</div></div><div class='respDivR'><div class='vertical-center'><font style='color:orange'>(I)</font></div></div></div>","null","$19","$51","0","19","51",""
"html-keyboard-response","127","161372","0.0-5.0-1.41","63b6e5e23b31a38790ff1ce2","bdp_rd","Mon Mar 27 2023 01:41:39 GMT-0400 (Eastern Daylight Time)","212801","","null","","","","FIX","","<div class='trialBorder'><div class='vertical-center'><img style='vertical-align:center; align:center' src=img/fixation3.jpg></div></div>","null","","","","","",""
"html-keyboard-response","128","163082","0.0-5.0-2.41","63b6e5e23b31a38790ff1ce2","bdp_rd","Mon Mar 27 2023 01:41:39 GMT-0400 (Eastern Daylight Time)","212801","","1709","","","","offer","","<div class='trialBorder'><div class='vertical-center'><img style='vertical-align:center; align:center' src=img/fixation3.jpg></div><div class='cl'><div class='vertical-center'>$21<br>with a<br>50% chance</div></div><div class='cr'><div class='vertical-center'>$2<br>for<br>sure</div></div><div class='respDivL'><div class='vertical-center'>(E)</div></div><div class='respDivR'><div class='vertical-center'>(I)</div></div></div>","E","$2","$21","1","2","21","RISKY"
"html-keyboard-response","129","163334","0.0-5.0-3.41","63b6e5e23b31a38790ff1ce2","bdp_rd","Mon Mar 27 2023 01:41:39 GMT-0400 (Eastern Daylight Time)","212801","","null","","","","offerFB","","<div class='trialBorder'><div class='vertical-center'><img style='vertical-align:center; align:center' src=img/fixation3.jpg></div><div class='cl'><div class='vertical-center'><font style='color:orange'>$21<br>with a<br>50% chance</font></div></div><div class='cr'><div class='vertical-center'>$2<br>for<br>sure</div></div><div class='respDivL'><div class='vertical-center'><font style='color:orange'>(E)</font></div></div><div class='respDivR'><div class='vertical-center'>(I)</div></div></div>","null","$2","$21","1","2","21",""
"html-keyboard-response","130","163836","0.0-5.0-1.42","63b6e5e23b31a38790ff1ce2","bdp_rd","Mon Mar 27 2023 01:41:39 GMT-0400 (Eastern Daylight Time)","212801","","null","","","","FIX","","<div class='trialBorder'><div class='vertical-center'><img style='vertical-align:center; align:center' src=img/fixation3.jpg></div></div>","null","","","","","",""
"html-keyboard-response","131","165331","0.0-5.0-2.42","63b6e5e23b31a38790ff1ce2","bdp_rd","Mon Mar 27 2023 01:41:39 GMT-0400 (Eastern Daylight Time)","212801","","1493","","","","offer","","<div class='trialBorder'><div class='vertical-center'><img style='vertical-align:center; align:center' src=img/fixation3.jpg></div><div class='cl'><div class='vertical-center'>$19<br>with a<br>50% chance</div></div><div class='cr'><div class='vertical-center'>$10<br>for<br>sure</div></div><div class='respDivL'><div class='vertical-center'>(E)</div></div><div class='respDivR'><div class='vertical-center'>(I)</div></div></div>","I","$10","$19","1","10","19","SURE"
"html-keyboard-response","132","165583","0.0-5.0-3.42","63b6e5e23b31a38790ff1ce2","bdp_rd","Mon Mar 27 2023 01:41:39 GMT-0400 (Eastern Daylight Time)","212801","","null","","","","offerFB","","<div class='trialBorder'><div class='vertical-center'><img style='vertical-align:center; align:center' src=img/fixation3.jpg></div><div class='cl'><div class='vertical-center'>$19<br>with a<br>50% chance</div></div><div class='cr'><div class='vertical-center'><font style='color:orange'>$10<br>for<br>sure</font></div></div><div class='respDivL'><div class='vertical-center'>(E)</div></div><div class='respDivR'><div class='vertical-center'><font style='color:orange'>(I)</font></div></div></div>","null","$10","$19","1","10","19",""
"html-keyboard-response","133","166085","0.0-5.0-1.43","63b6e5e23b31a38790ff1ce2","bdp_rd","Mon Mar 27 2023 01:41:39 GMT-0400 (Eastern Daylight Time)","212801","","null","","","","FIX","","<div class='trialBorder'><div class='vertical-center'><img style='vertical-align:center; align:center' src=img/fixation3.jpg></div></div>","null","","","","","",""
"html-keyboard-response","134","169450","0.0-5.0-2.43","63b6e5e23b31a38790ff1ce2","bdp_rd","Mon Mar 27 2023 01:41:39 GMT-0400 (Eastern Daylight Time)","212801","","3364","","","","offer","","<div class='trialBorder'><div class='vertical-center'><img style='vertical-align:center; align:center' src=img/fixation3.jpg></div><div class='cl'><div class='vertical-center'>$53<br>for<br>sure</div></div><div class='cr'><div class='vertical-center'>$98<br>with a<br>50% chance</div></div><div class='respDivL'><div class='vertical-center'>(E)</div></div><div class='respDivR'><div class='vertical-center'>(I)</div></div></div>","E","$53","$98","0","53","98","SURE"
"html-keyboard-response","135","169703","0.0-5.0-3.43","63b6e5e23b31a38790ff1ce2","bdp_rd","Mon Mar 27 2023 01:41:39 GMT-0400 (Eastern Daylight Time)","212801","","null","","","","offerFB","","<div class='trialBorder'><div class='vertical-center'><img style='vertical-align:center; align:center' src=img/fixation3.jpg></div><div class='cl'><div class='vertical-center'><font style='color:orange'>$53<br>for<br>sure</font></div></div><div class='cr'><div class='vertical-center'>$98<br>with a<br>50% chance</div></div><div class='respDivL'><div class='vertical-center'><font style='color:orange'>(E)</font></div></div><div class='respDivR'><div class='vertical-center'>(I)</div></div></div>","null","$53","$98","0","53","98",""
"html-keyboard-response","136","170205","0.0-5.0-1.44","63b6e5e23b31a38790ff1ce2","bdp_rd","Mon Mar 27 2023 01:41:39 GMT-0400 (Eastern Daylight Time)","212801","","null","","","","FIX","","<div class='trialBorder'><div class='vertical-center'><img style='vertical-align:center; align:center' src=img/fixation3.jpg></div></div>","null","","","","","",""
"html-keyboard-response","137","171530","0.0-5.0-2.44","63b6e5e23b31a38790ff1ce2","bdp_rd","Mon Mar 27 2023 01:41:39 GMT-0400 (Eastern Daylight Time)","212801","","1324","","","","offer","","<div class='trialBorder'><div class='vertical-center'><img style='vertical-align:center; align:center' src=img/fixation3.jpg></div><div class='cl'><div class='vertical-center'>$7<br>for<br>sure</div></div><div class='cr'><div class='vertical-center'>$71<br>with a<br>50% chance</div></div><div class='respDivL'><div class='vertical-center'>(E)</div></div><div class='respDivR'><div class='vertical-center'>(I)</div></div></div>","I","$7","$71","0","7","71","RISKY"
"html-keyboard-response","138","171782","0.0-5.0-3.44","63b6e5e23b31a38790ff1ce2","bdp_rd","Mon Mar 27 2023 01:41:39 GMT-0400 (Eastern Daylight Time)","212801","","null","","","","offerFB","","<div class='trialBorder'><div class='vertical-center'><img style='vertical-align:center; align:center' src=img/fixation3.jpg></div><div class='cl'><div class='vertical-center'>$7<br>for<br>sure</div></div><div class='cr'><div class='vertical-center'><font style='color:orange'>$71<br>with a<br>50% chance</font></div></div><div class='respDivL'><div class='vertical-center'>(E)</div></div><div class='respDivR'><div class='vertical-center'><font style='color:orange'>(I)</font></div></div></div>","null","$7","$71","0","7","71",""
"html-keyboard-response","139","172284","0.0-5.0-1.45","63b6e5e23b31a38790ff1ce2","bdp_rd","Mon Mar 27 2023 01:41:39 GMT-0400 (Eastern Daylight Time)","212801","","null","","","","FIX","","<div class='trialBorder'><div class='vertical-center'><img style='vertical-align:center; align:center' src=img/fixation3.jpg></div></div>","null","","","","","",""
"html-keyboard-response","140","173842","0.0-5.0-2.45","63b6e5e23b31a38790ff1ce2","bdp_rd","Mon Mar 27 2023 01:41:39 GMT-0400 (Eastern Daylight Time)","212801","","1557","","","","offer","","<div class='trialBorder'><div class='vertical-center'><img style='vertical-align:center; align:center' src=img/fixation3.jpg></div><div class='cl'><div class='vertical-center'>$89<br>with a<br>50% chance</div></div><div class='cr'><div class='vertical-center'>$28<br>for<br>sure</div></div><div class='respDivL'><div class='vertical-center'>(E)</div></div><div class='respDivR'><div class='vertical-center'>(I)</div></div></div>","E","$28","$89","1","28","89","RISKY"
"html-keyboard-response","141","174094","0.0-5.0-3.45","63b6e5e23b31a38790ff1ce2","bdp_rd","Mon Mar 27 2023 01:41:39 GMT-0400 (Eastern Daylight Time)","212801","","null","","","","offerFB","","<div class='trialBorder'><div class='vertical-center'><img style='vertical-align:center; align:center' src=img/fixation3.jpg></div><div class='cl'><div class='vertical-center'><font style='color:orange'>$89<br>with a<br>50% chance</font></div></div><div class='cr'><div class='vertical-center'>$28<br>for<br>sure</div></div><div class='respDivL'><div class='vertical-center'><font style='color:orange'>(E)</font></div></div><div class='respDivR'><div class='vertical-center'>(I)</div></div></div>","null","$28","$89","1","28","89",""
"html-keyboard-response","142","174596","0.0-5.0-1.46","63b6e5e23b31a38790ff1ce2","bdp_rd","Mon Mar 27 2023 01:41:39 GMT-0400 (Eastern Daylight Time)","212801","","null","","","","FIX","","<div class='trialBorder'><div class='vertical-center'><img style='vertical-align:center; align:center' src=img/fixation3.jpg></div></div>","null","","","","","",""
"html-keyboard-response","143","178762","0.0-5.0-2.46","63b6e5e23b31a38790ff1ce2","bdp_rd","Mon Mar 27 2023 01:41:39 GMT-0400 (Eastern Daylight Time)","212801","","4165","","","","offer","","<div class='trialBorder'><div class='vertical-center'><img style='vertical-align:center; align:center' src=img/fixation3.jpg></div><div class='cl'><div class='vertical-center'>$15<br>for<br>sure</div></div><div class='cr'><div class='vertical-center'>$34<br>with a<br>50% chance</div></div><div class='respDivL'><div class='vertical-center'>(E)</div></div><div class='respDivR'><div class='vertical-center'>(I)</div></div></div>","E","$15","$34","0","15","34","SURE"
"html-keyboard-response","144","179015","0.0-5.0-3.46","63b6e5e23b31a38790ff1ce2","bdp_rd","Mon Mar 27 2023 01:41:39 GMT-0400 (Eastern Daylight Time)","212801","","null","","","","offerFB","","<div class='trialBorder'><div class='vertical-center'><img style='vertical-align:center; align:center' src=img/fixation3.jpg></div><div class='cl'><div class='vertical-center'><font style='color:orange'>$15<br>for<br>sure</font></div></div><div class='cr'><div class='vertical-center'>$34<br>with a<br>50% chance</div></div><div class='respDivL'><div class='vertical-center'><font style='color:orange'>(E)</font></div></div><div class='respDivR'><div class='vertical-center'>(I)</div></div></div>","null","$15","$34","0","15","34",""
"html-keyboard-response","145","179517","0.0-5.0-1.47","63b6e5e23b31a38790ff1ce2","bdp_rd","Mon Mar 27 2023 01:41:39 GMT-0400 (Eastern Daylight Time)","212801","","null","","","","FIX","","<div class='trialBorder'><div class='vertical-center'><img style='vertical-align:center; align:center' src=img/fixation3.jpg></div></div>","null","","","","","",""
"html-keyboard-response","146","181178","0.0-5.0-2.47","63b6e5e23b31a38790ff1ce2","bdp_rd","Mon Mar 27 2023 01:41:39 GMT-0400 (Eastern Daylight Time)","212801","","1660","","","","offer","","<div class='trialBorder'><div class='vertical-center'><img style='vertical-align:center; align:center' src=img/fixation3.jpg></div><div class='cl'><div class='vertical-center'>$22<br>with a<br>50% chance</div></div><div class='cr'><div class='vertical-center'>$14<br>for<br>sure</div></div><div class='respDivL'><div class='vertical-center'>(E)</div></div><div class='respDivR'><div class='vertical-center'>(I)</div></div></div>","E","$14","$22","1","14","22","RISKY"
"html-keyboard-response","147","181430","0.0-5.0-3.47","63b6e5e23b31a38790ff1ce2","bdp_rd","Mon Mar 27 2023 01:41:39 GMT-0400 (Eastern Daylight Time)","212801","","null","","","","offerFB","","<div class='trialBorder'><div class='vertical-center'><img style='vertical-align:center; align:center' src=img/fixation3.jpg></div><div class='cl'><div class='vertical-center'><font style='color:orange'>$22<br>with a<br>50% chance</font></div></div><div class='cr'><div class='vertical-center'>$14<br>for<br>sure</div></div><div class='respDivL'><div class='vertical-center'><font style='color:orange'>(E)</font></div></div><div class='respDivR'><div class='vertical-center'>(I)</div></div></div>","null","$14","$22","1","14","22",""
"html-keyboard-response","148","181933","0.0-5.0-1.48","63b6e5e23b31a38790ff1ce2","bdp_rd","Mon Mar 27 2023 01:41:39 GMT-0400 (Eastern Daylight Time)","212801","","null","","","","FIX","","<div class='trialBorder'><div class='vertical-center'><img style='vertical-align:center; align:center' src=img/fixation3.jpg></div></div>","null","","","","","",""
"html-keyboard-response","149","184122","0.0-5.0-2.48","63b6e5e23b31a38790ff1ce2","bdp_rd","Mon Mar 27 2023 01:41:39 GMT-0400 (Eastern Daylight Time)","212801","","2188","","","","offer","","<div class='trialBorder'><div class='vertical-center'><img style='vertical-align:center; align:center' src=img/fixation3.jpg></div><div class='cl'><div class='vertical-center'>$44<br>with a<br>50% chance</div></div><div class='cr'><div class='vertical-center'>$37<br>for<br>sure</div></div><div class='respDivL'><div class='vertical-center'>(E)</div></div><div class='respDivR'><div class='vertical-center'>(I)</div></div></div>","I","$37","$44","1","37","44","SURE"
"html-keyboard-response","150","184375","0.0-5.0-3.48","63b6e5e23b31a38790ff1ce2","bdp_rd","Mon Mar 27 2023 01:41:39 GMT-0400 (Eastern Daylight Time)","212801","","null","","","","offerFB","","<div class='trialBorder'><div class='vertical-center'><img style='vertical-align:center; align:center' src=img/fixation3.jpg></div><div class='cl'><div class='vertical-center'>$44<br>with a<br>50% chance</div></div><div class='cr'><div class='vertical-center'><font style='color:orange'>$37<br>for<br>sure</font></div></div><div class='respDivL'><div class='vertical-center'>(E)</div></div><div class='respDivR'><div class='vertical-center'><font style='color:orange'>(I)</font></div></div></div>","null","$37","$44","1","37","44",""
"html-keyboard-response","151","184876","0.0-5.0-1.49","63b6e5e23b31a38790ff1ce2","bdp_rd","Mon Mar 27 2023 01:41:39 GMT-0400 (Eastern Daylight Time)","212801","","null","","","","FIX","","<div class='trialBorder'><div class='vertical-center'><img style='vertical-align:center; align:center' src=img/fixation3.jpg></div></div>","null","","","","","",""
"html-keyboard-response","152","187386","0.0-5.0-2.49","63b6e5e23b31a38790ff1ce2","bdp_rd","Mon Mar 27 2023 01:41:39 GMT-0400 (Eastern Daylight Time)","212801","","2508","","","","offer","","<div class='trialBorder'><div class='vertical-center'><img style='vertical-align:center; align:center' src=img/fixation3.jpg></div><div class='cl'><div class='vertical-center'>$6<br>for<br>sure</div></div><div class='cr'><div class='vertical-center'>$13<br>with a<br>50% chance</div></div><div class='respDivL'><div class='vertical-center'>(E)</div></div><div class='respDivR'><div class='vertical-center'>(I)</div></div></div>","I","$6","$13","0","6","13","RISKY"
"html-keyboard-response","153","187639","0.0-5.0-3.49","63b6e5e23b31a38790ff1ce2","bdp_rd","Mon Mar 27 2023 01:41:39 GMT-0400 (Eastern Daylight Time)","212801","","null","","","","offerFB","","<div class='trialBorder'><div class='vertical-center'><img style='vertical-align:center; align:center' src=img/fixation3.jpg></div><div class='cl'><div class='vertical-center'>$6<br>for<br>sure</div></div><div class='cr'><div class='vertical-center'><font style='color:orange'>$13<br>with a<br>50% chance</font></div></div><div class='respDivL'><div class='vertical-center'>(E)</div></div><div class='respDivR'><div class='vertical-center'><font style='color:orange'>(I)</font></div></div></div>","null","$6","$13","0","6","13",""
"html-keyboard-response","154","188142","0.0-5.0-1.50","63b6e5e23b31a38790ff1ce2","bdp_rd","Mon Mar 27 2023 01:41:39 GMT-0400 (Eastern Daylight Time)","212801","","null","","","","FIX","","<div class='trialBorder'><div class='vertical-center'><img style='vertical-align:center; align:center' src=img/fixation3.jpg></div></div>","null","","","","","",""
"html-keyboard-response","155","189523","0.0-5.0-2.50","63b6e5e23b31a38790ff1ce2","bdp_rd","Mon Mar 27 2023 01:41:39 GMT-0400 (Eastern Daylight Time)","212801","","1380","","","","offer","","<div class='trialBorder'><div class='vertical-center'><img style='vertical-align:center; align:center' src=img/fixation3.jpg></div><div class='cl'><div class='vertical-center'>$31<br>with a<br>50% chance</div></div><div class='cr'><div class='vertical-center'>$15<br>for<br>sure</div></div><div class='respDivL'><div class='vertical-center'>(E)</div></div><div class='respDivR'><div class='vertical-center'>(I)</div></div></div>","E","$15","$31","1","15","31","RISKY"
"html-keyboard-response","156","189776","0.0-5.0-3.50","63b6e5e23b31a38790ff1ce2","bdp_rd","Mon Mar 27 2023 01:41:39 GMT-0400 (Eastern Daylight Time)","212801","","null","","","","offerFB","","<div class='trialBorder'><div class='vertical-center'><img style='vertical-align:center; align:center' src=img/fixation3.jpg></div><div class='cl'><div class='vertical-center'><font style='color:orange'>$31<br>with a<br>50% chance</font></div></div><div class='cr'><div class='vertical-center'>$15<br>for<br>sure</div></div><div class='respDivL'><div class='vertical-center'><font style='color:orange'>(E)</font></div></div><div class='respDivR'><div class='vertical-center'>(I)</div></div></div>","null","$15","$31","1","15","31",""
"html-keyboard-response","157","190277","0.0-5.0-1.51","63b6e5e23b31a38790ff1ce2","bdp_rd","Mon Mar 27 2023 01:41:39 GMT-0400 (Eastern Daylight Time)","212801","","null","","","","FIX","","<div class='trialBorder'><div class='vertical-center'><img style='vertical-align:center; align:center' src=img/fixation3.jpg></div></div>","null","","","","","",""
"html-keyboard-response","158","191714","0.0-5.0-2.51","63b6e5e23b31a38790ff1ce2","bdp_rd","Mon Mar 27 2023 01:41:39 GMT-0400 (Eastern Daylight Time)","212801","","1436","","","","offer","","<div class='trialBorder'><div class='vertical-center'><img style='vertical-align:center; align:center' src=img/fixation3.jpg></div><div class='cl'><div class='vertical-center'>$36<br>with a<br>50% chance</div></div><div class='cr'><div class='vertical-center'>$18<br>for<br>sure</div></div><div class='respDivL'><div class='vertical-center'>(E)</div></div><div class='respDivR'><div class='vertical-center'>(I)</div></div></div>","I","$18","$36","1","18","36","SURE"
"html-keyboard-response","159","191968","0.0-5.0-3.51","63b6e5e23b31a38790ff1ce2","bdp_rd","Mon Mar 27 2023 01:41:39 GMT-0400 (Eastern Daylight Time)","212801","","null","","","","offerFB","","<div class='trialBorder'><div class='vertical-center'><img style='vertical-align:center; align:center' src=img/fixation3.jpg></div><div class='cl'><div class='vertical-center'>$36<br>with a<br>50% chance</div></div><div class='cr'><div class='vertical-center'><font style='color:orange'>$18<br>for<br>sure</font></div></div><div class='respDivL'><div class='vertical-center'>(E)</div></div><div class='respDivR'><div class='vertical-center'><font style='color:orange'>(I)</font></div></div></div>","null","$18","$36","1","18","36",""
"html-keyboard-response","160","192469","0.0-5.0-1.52","63b6e5e23b31a38790ff1ce2","bdp_rd","Mon Mar 27 2023 01:41:39 GMT-0400 (Eastern Daylight Time)","212801","","null","","","","FIX","","<div class='trialBorder'><div class='vertical-center'><img style='vertical-align:center; align:center' src=img/fixation3.jpg></div></div>","null","","","","","",""
"html-keyboard-response","161","194266","0.0-5.0-2.52","63b6e5e23b31a38790ff1ce2","bdp_rd","Mon Mar 27 2023 01:41:39 GMT-0400 (Eastern Daylight Time)","212801","","1796","","","","offer","","<div class='trialBorder'><div class='vertical-center'><img style='vertical-align:center; align:center' src=img/fixation3.jpg></div><div class='cl'><div class='vertical-center'>$10<br>for<br>sure</div></div><div class='cr'><div class='vertical-center'>$40<br>with a<br>50% chance</div></div><div class='respDivL'><div class='vertical-center'>(E)</div></div><div class='respDivR'><div class='vertical-center'>(I)</div></div></div>","I","$10","$40","0","10","40","RISKY"
"html-keyboard-response","162","194519","0.0-5.0-3.52","63b6e5e23b31a38790ff1ce2","bdp_rd","Mon Mar 27 2023 01:41:39 GMT-0400 (Eastern Daylight Time)","212801","","null","","","","offerFB","","<div class='trialBorder'><div class='vertical-center'><img style='vertical-align:center; align:center' src=img/fixation3.jpg></div><div class='cl'><div class='vertical-center'>$10<br>for<br>sure</div></div><div class='cr'><div class='vertical-center'><font style='color:orange'>$40<br>with a<br>50% chance</font></div></div><div class='respDivL'><div class='vertical-center'>(E)</div></div><div class='respDivR'><div class='vertical-center'><font style='color:orange'>(I)</font></div></div></div>","null","$10","$40","0","10","40",""
"html-keyboard-response","163","195021","0.0-5.0-1.53","63b6e5e23b31a38790ff1ce2","bdp_rd","Mon Mar 27 2023 01:41:39 GMT-0400 (Eastern Daylight Time)","212801","","null","","","","FIX","","<div class='trialBorder'><div class='vertical-center'><img style='vertical-align:center; align:center' src=img/fixation3.jpg></div></div>","null","","","","","",""
"html-keyboard-response","164","196394","0.0-5.0-2.53","63b6e5e23b31a38790ff1ce2","bdp_rd","Mon Mar 27 2023 01:41:39 GMT-0400 (Eastern Daylight Time)","212801","","1373","","","","offer","","<div class='trialBorder'><div class='vertical-center'><img style='vertical-align:center; align:center' src=img/fixation3.jpg></div><div class='cl'><div class='vertical-center'>$9<br>for<br>sure</div></div><div class='cr'><div class='vertical-center'>$32<br>with a<br>50% chance</div></div><div class='respDivL'><div class='vertical-center'>(E)</div></div><div class='respDivR'><div class='vertical-center'>(I)</div></div></div>","I","$9","$32","0","9","32","RISKY"
"html-keyboard-response","165","196647","0.0-5.0-3.53","63b6e5e23b31a38790ff1ce2","bdp_rd","Mon Mar 27 2023 01:41:39 GMT-0400 (Eastern Daylight Time)","212801","","null","","","","offerFB","","<div class='trialBorder'><div class='vertical-center'><img style='vertical-align:center; align:center' src=img/fixation3.jpg></div><div class='cl'><div class='vertical-center'>$9<br>for<br>sure</div></div><div class='cr'><div class='vertical-center'><font style='color:orange'>$32<br>with a<br>50% chance</font></div></div><div class='respDivL'><div class='vertical-center'>(E)</div></div><div class='respDivR'><div class='vertical-center'><font style='color:orange'>(I)</font></div></div></div>","null","$9","$32","0","9","32",""
"html-keyboard-response","166","197148","0.0-5.0-1.54","63b6e5e23b31a38790ff1ce2","bdp_rd","Mon Mar 27 2023 01:41:39 GMT-0400 (Eastern Daylight Time)","212801","","null","","","","FIX","","<div class='trialBorder'><div class='vertical-center'><img style='vertical-align:center; align:center' src=img/fixation3.jpg></div></div>","null","","","","","",""
"html-keyboard-response","167","198442","0.0-5.0-2.54","63b6e5e23b31a38790ff1ce2","bdp_rd","Mon Mar 27 2023 01:41:39 GMT-0400 (Eastern Daylight Time)","212801","","1293","","","","offer","","<div class='trialBorder'><div class='vertical-center'><img style='vertical-align:center; align:center' src=img/fixation3.jpg></div><div class='cl'><div class='vertical-center'>$2<br>for<br>sure</div></div><div class='cr'><div class='vertical-center'>$64<br>with a<br>50% chance</div></div><div class='respDivL'><div class='vertical-center'>(E)</div></div><div class='respDivR'><div class='vertical-center'>(I)</div></div></div>","I","$2","$64","0","2","64","RISKY"
"html-keyboard-response","168","198695","0.0-5.0-3.54","63b6e5e23b31a38790ff1ce2","bdp_rd","Mon Mar 27 2023 01:41:39 GMT-0400 (Eastern Daylight Time)","212801","","null","","","","offerFB","","<div class='trialBorder'><div class='vertical-center'><img style='vertical-align:center; align:center' src=img/fixation3.jpg></div><div class='cl'><div class='vertical-center'>$2<br>for<br>sure</div></div><div class='cr'><div class='vertical-center'><font style='color:orange'>$64<br>with a<br>50% chance</font></div></div><div class='respDivL'><div class='vertical-center'>(E)</div></div><div class='respDivR'><div class='vertical-center'><font style='color:orange'>(I)</font></div></div></div>","null","$2","$64","0","2","64",""
"html-keyboard-response","169","199196","0.0-5.0-1.55","63b6e5e23b31a38790ff1ce2","bdp_rd","Mon Mar 27 2023 01:41:39 GMT-0400 (Eastern Daylight Time)","212801","","null","","","","FIX","","<div class='trialBorder'><div class='vertical-center'><img style='vertical-align:center; align:center' src=img/fixation3.jpg></div></div>","null","","","","","",""
"html-keyboard-response","170","202283","0.0-5.0-2.55","63b6e5e23b31a38790ff1ce2","bdp_rd","Mon Mar 27 2023 01:41:39 GMT-0400 (Eastern Daylight Time)","212801","","3085","","","","offer","","<div class='trialBorder'><div class='vertical-center'><img style='vertical-align:center; align:center' src=img/fixation3.jpg></div><div class='cl'><div class='vertical-center'>$18<br>for<br>sure</div></div><div class='cr'><div class='vertical-center'>$39<br>with a<br>50% chance</div></div><div class='respDivL'><div class='vertical-center'>(E)</div></div><div class='respDivR'><div class='vertical-center'>(I)</div></div></div>","E","$18","$39","0","18","39","SURE"
"html-keyboard-response","171","202535","0.0-5.0-3.55","63b6e5e23b31a38790ff1ce2","bdp_rd","Mon Mar 27 2023 01:41:39 GMT-0400 (Eastern Daylight Time)","212801","","null","","","","offerFB","","<div class='trialBorder'><div class='vertical-center'><img style='vertical-align:center; align:center' src=img/fixation3.jpg></div><div class='cl'><div class='vertical-center'><font style='color:orange'>$18<br>for<br>sure</font></div></div><div class='cr'><div class='vertical-center'>$39<br>with a<br>50% chance</div></div><div class='respDivL'><div class='vertical-center'><font style='color:orange'>(E)</font></div></div><div class='respDivR'><div class='vertical-center'>(I)</div></div></div>","null","$18","$39","0","18","39",""
"html-keyboard-response","172","203037","0.0-5.0-1.56","63b6e5e23b31a38790ff1ce2","bdp_rd","Mon Mar 27 2023 01:41:39 GMT-0400 (Eastern Daylight Time)","212801","","null","","","","FIX","","<div class='trialBorder'><div class='vertical-center'><img style='vertical-align:center; align:center' src=img/fixation3.jpg></div></div>","null","","","","","",""
"html-keyboard-response","173","204970","0.0-5.0-2.56","63b6e5e23b31a38790ff1ce2","bdp_rd","Mon Mar 27 2023 01:41:39 GMT-0400 (Eastern Daylight Time)","212801","","1932","","","","offer","","<div class='trialBorder'><div class='vertical-center'><img style='vertical-align:center; align:center' src=img/fixation3.jpg></div><div class='cl'><div class='vertical-center'>$100<br>with a<br>50% chance</div></div><div class='cr'><div class='vertical-center'>$63<br>for<br>sure</div></div><div class='respDivL'><div class='vertical-center'>(E)</div></div><div class='respDivR'><div class='vertical-center'>(I)</div></div></div>","I","$63","$100","1","63","10","SURE"
