"trial_type","trial_index","time_elapsed","internal_node_id","subject_id","task","startTime","totalTime","view_history","rt","event","trial","time","trialtype","success","stimulus","key_press","sureOffer","riskyOffer","riskyLeft","sureAmt","riskyAmt","chosen"
"pavlovia","0","7","0.0-0.0","63d12f8c48b235842187c959","bdp_rd","Mon Mar 27 2023 20:06:08 GMT-0500 (Central Daylight Time)","81546","","","","","","","","","","","","","","",""
"instructions","1","3592","0.0-1.0","63d12f8c48b235842187c959","bdp_rd","Mon Mar 27 2023 20:06:08 GMT-0500 (Central Daylight Time)","81546","[{""page_index"":0,""viewing_time"":3584}]","3584","","","","","","","","","","","","",""
"","","","","63d12f8c48b235842187c959","bdp_rd","Mon Mar 27 2023 20:06:08 GMT-0500 (Central Daylight Time)","81546","","","fullscreenenter","2","5179","fullscreenenter","","","","","","","","",""
"fullscreen","2","6134","0.0-2.0","63d12f8c48b235842187c959","bdp_rd","Mon Mar 27 2023 20:06:08 GMT-0500 (Central Daylight Time)","81546","","","","","","","true","","","","","","","",""
"instructions","3","14760","0.0-4.0","63d12f8c48b235842187c959","bdp_rd","Mon Mar 27 2023 20:06:08 GMT-0500 (Central Daylight Time)","81546","[{""page_index"":0,""viewing_time"":5156},{""page_index"":1,""viewing_time"":2205},{""page_index"":2,""viewing_time"":1263}]","8624","","","","","","","","","","","","",""
"html-keyboard-response","4","15265","0.0-5.0-1.0","63d12f8c48b235842187c959","bdp_rd","Mon Mar 27 2023 20:06:08 GMT-0500 (Central Daylight Time)","81546","","null","","","","FIX","","<div class='trialBorder'><div class='vertical-center'><img style='vertical-align:center; align:center' src=img/fixation3.jpg></div></div>","null","","","","","",""
"html-keyboard-response","5","16684","0.0-5.0-2.0","63d12f8c48b235842187c959","bdp_rd","Mon Mar 27 2023 20:06:08 GMT-0500 (Central Daylight Time)","81546","","1416","","","","offer","","<div class='trialBorder'><div class='vertical-center'><img style='vertical-align:center; align:center' src=img/fixation3.jpg></div><div class='cl'><div class='vertical-center'>$12<br>with a<br>50% chance</div></div><div class='cr'><div class='vertical-center'>$3<br>for<br>sure</div></div><div class='respDivL'><div class='vertical-center'>(E)</div></div><div class='respDivR'><div class='vertical-center'>(I)</div></div></div>","E","$3","$12","1","3","12","RISKY"
"html-keyboard-response","6","16944","0.0-5.0-3.0","63d12f8c48b235842187c959","bdp_rd","Mon Mar 27 2023 20:06:08 GMT-0500 (Central Daylight Time)","81546","","null","","","","offerFB","","<div class='trialBorder'><div class='vertical-center'><img style='vertical-align:center; align:center' src=img/fixation3.jpg></div><div class='cl'><div class='vertical-center'><font style='color:orange'>$12<br>with a<br>50% chance</font></div></div><div class='cr'><div class='vertical-center'>$3<br>for<br>sure</div></div><div class='respDivL'><div class='vertical-center'><font style='color:orange'>(E)</font></div></div><div class='respDivR'><div class='vertical-center'>(I)</div></div></div>","null","$3","$12","1","3","12",""
"html-keyboard-response","7","17455","0.0-5.0-1.1","63d12f8c48b235842187c959","bdp_rd","Mon Mar 27 2023 20:06:08 GMT-0500 (Central Daylight Time)","81546","","null","","","","FIX","","<div class='trialBorder'><div class='vertical-center'><img style='vertical-align:center; align:center' src=img/fixation3.jpg></div></div>","null","","","","","",""
"html-keyboard-response","8","20248","0.0-5.0-2.1","63d12f8c48b235842187c959","bdp_rd","Mon Mar 27 2023 20:06:08 GMT-0500 (Central Daylight Time)","81546","","2792","","","","offer","","<div class='trialBorder'><div class='vertical-center'><img style='vertical-align:center; align:center' src=img/fixation3.jpg></div><div class='cl'><div class='vertical-center'>$10<br>for<br>sure</div></div><div class='cr'><div class='vertical-center'>$19<br>with a<br>50% chance</div></div><div class='respDivL'><div class='vertical-center'>(E)</div></div><div class='respDivR'><div class='vertical-center'>(I)</div></div></div>","E","$10","$19","0","10","19","SURE"
"html-keyboard-response","9","20504","0.0-5.0-3.1","63d12f8c48b235842187c959","bdp_rd","Mon Mar 27 2023 20:06:08 GMT-0500 (Central Daylight Time)","81546","","null","","","","offerFB","","<div class='trialBorder'><div class='vertical-center'><img style='vertical-align:center; align:center' src=img/fixation3.jpg></div><div class='cl'><div class='vertical-center'><font style='color:orange'>$10<br>for<br>sure</font></div></div><div class='cr'><div class='vertical-center'>$19<br>with a<br>50% chance</div></div><div class='respDivL'><div class='vertical-center'><font style='color:orange'>(E)</font></div></div><div class='respDivR'><div class='vertical-center'>(I)</div></div></div>","null","$10","$19","0","10","19",""
"html-keyboard-response","10","21015","0.0-5.0-1.2","63d12f8c48b235842187c959","bdp_rd","Mon Mar 27 2023 20:06:08 GMT-0500 (Central Daylight Time)","81546","","null","","","","FIX","","<div class='trialBorder'><div class='vertical-center'><img style='vertical-align:center; align:center' src=img/fixation3.jpg></div></div>","null","","","","","",""
"html-keyboard-response","11","22703","0.0-5.0-2.2","63d12f8c48b235842187c959","bdp_rd","Mon Mar 27 2023 20:06:08 GMT-0500 (Central Daylight Time)","81546","","1686","","","","offer","","<div class='trialBorder'><div class='vertical-center'><img style='vertical-align:center; align:center' src=img/fixation3.jpg></div><div class='cl'><div class='vertical-center'>$50<br>with a<br>50% chance</div></div><div class='cr'><div class='vertical-center'>$5<br>for<br>sure</div></div><div class='respDivL'><div class='vertical-center'>(E)</div></div><div class='respDivR'><div class='vertical-center'>(I)</div></div></div>","E","$5","$50","1","5","50","RISKY"
"html-keyboard-response","12","22965","0.0-5.0-3.2","63d12f8c48b235842187c959","bdp_rd","Mon Mar 27 2023 20:06:08 GMT-0500 (Central Daylight Time)","81546","","null","","","","offerFB","","<div class='trialBorder'><div class='vertical-center'><img style='vertical-align:center; align:center' src=img/fixation3.jpg></div><div class='cl'><div class='vertical-center'><font style='color:orange'>$50<br>with a<br>50% chance</font></div></div><div class='cr'><div class='vertical-center'>$5<br>for<br>sure</div></div><div class='respDivL'><div class='vertical-center'><font style='color:orange'>(E)</font></div></div><div class='respDivR'><div class='vertical-center'>(I)</div></div></div>","null","$5","$50","1","5","50",""
"html-keyboard-response","13","23474","0.0-5.0-1.3","63d12f8c48b235842187c959","bdp_rd","Mon Mar 27 2023 20:06:08 GMT-0500 (Central Daylight Time)","81546","","null","","","","FIX","","<div class='trialBorder'><div class='vertical-center'><img style='vertical-align:center; align:center' src=img/fixation3.jpg></div></div>","null","","","","","",""
"html-keyboard-response","14","24838","0.0-5.0-2.3","63d12f8c48b235842187c959","bdp_rd","Mon Mar 27 2023 20:06:08 GMT-0500 (Central Daylight Time)","81546","","1362","","","","offer","","<div class='trialBorder'><div class='vertical-center'><img style='vertical-align:center; align:center' src=img/fixation3.jpg></div><div class='cl'><div class='vertical-center'>$24<br>for<br>sure</div></div><div class='cr'><div class='vertical-center'>$70<br>with a<br>50% chance</div></div><div class='respDivL'><div class='vertical-center'>(E)</div></div><div class='respDivR'><div class='vertical-center'>(I)</div></div></div>","I","$24","$70","0","24","70","RISKY"
"html-keyboard-response","15","25096","0.0-5.0-3.3","63d12f8c48b235842187c959","bdp_rd","Mon Mar 27 2023 20:06:08 GMT-0500 (Central Daylight Time)","81546","","null","","","","offerFB","","<div class='trialBorder'><div class='vertical-center'><img style='vertical-align:center; align:center' src=img/fixation3.jpg></div><div class='cl'><div class='vertical-center'>$24<br>for<br>sure</div></div><div class='cr'><div class='vertical-center'><font style='color:orange'>$70<br>with a<br>50% chance</font></div></div><div class='respDivL'><div class='vertical-center'>(E)</div></div><div class='respDivR'><div class='vertical-center'><font style='color:orange'>(I)</font></div></div></div>","null","$24","$70","0","24","70",""
"html-keyboard-response","16","25601","0.0-5.0-1.4","63d12f8c48b235842187c959","bdp_rd","Mon Mar 27 2023 20:06:08 GMT-0500 (Central Daylight Time)","81546","","null","","","","FIX","","<div class='trialBorder'><div class='vertical-center'><img style='vertical-align:center; align:center' src=img/fixation3.jpg></div></div>","null","","","","","",""
"html-keyboard-response","17","27036","0.0-5.0-2.4","63d12f8c48b235842187c959","bdp_rd","Mon Mar 27 2023 20:06:08 GMT-0500 (Central Daylight Time)","81546","","1434","","","","offer","","<div class='trialBorder'><div class='vertical-center'><img style='vertical-align:center; align:center' src=img/fixation3.jpg></div><div class='cl'><div class='vertical-center'>$20<br>for<br>sure</div></div><div class='cr'><div class='vertical-center'>$37<br>with a<br>50% chance</div></div><div class='respDivL'><div class='vertical-center'>(E)</div></div><div class='respDivR'><div class='vertical-center'>(I)</div></div></div>","E","$20","$37","0","20","37","SURE"
"html-keyboard-response","18","27295","0.0-5.0-3.4","63d12f8c48b235842187c959","bdp_rd","Mon Mar 27 2023 20:06:08 GMT-0500 (Central Daylight Time)","81546","","null","","","","offerFB","","<div class='trialBorder'><div class='vertical-center'><img style='vertical-align:center; align:center' src=img/fixation3.jpg></div><div class='cl'><div class='vertical-center'><font style='color:orange'>$20<br>for<br>sure</font></div></div><div class='cr'><div class='vertical-center'>$37<br>with a<br>50% chance</div></div><div class='respDivL'><div class='vertical-center'><font style='color:orange'>(E)</font></div></div><div class='respDivR'><div class='vertical-center'>(I)</div></div></div>","null","$20","$37","0","20","37",""
"html-keyboard-response","19","27805","0.0-5.0-1.5","63d12f8c48b235842187c959","bdp_rd","Mon Mar 27 2023 20:06:08 GMT-0500 (Central Daylight Time)","81546","","null","","","","FIX","","<div class='trialBorder'><div class='vertical-center'><img style='vertical-align:center; align:center' src=img/fixation3.jpg></div></div>","null","","","","","",""
"html-keyboard-response","20","28832","0.0-5.0-2.5","63d12f8c48b235842187c959","bdp_rd","Mon Mar 27 2023 20:06:08 GMT-0500 (Central Daylight Time)","81546","","1026","","","","offer","","<div class='trialBorder'><div class='vertical-center'><img style='vertical-align:center; align:center' src=img/fixation3.jpg></div><div class='cl'><div class='vertical-center'>$6<br>for<br>sure</div></div><div class='cr'><div class='vertical-center'>$13<br>with a<br>50% chance</div></div><div class='respDivL'><div class='vertical-center'>(E)</div></div><div class='respDivR'><div class='vertical-center'>(I)</div></div></div>","E","$6","$13","0","6","13","SURE"
"html-keyboard-response","21","29085","0.0-5.0-3.5","63d12f8c48b235842187c959","bdp_rd","Mon Mar 27 2023 20:06:08 GMT-0500 (Central Daylight Time)","81546","","null","","","","offerFB","","<div class='trialBorder'><div class='vertical-center'><img style='vertical-align:center; align:center' src=img/fixation3.jpg></div><div class='cl'><div class='vertical-center'><font style='color:orange'>$6<br>for<br>sure</font></div></div><div class='cr'><div class='vertical-center'>$13<br>with a<br>50% chance</div></div><div class='respDivL'><div class='vertical-center'><font style='color:orange'>(E)</font></div></div><div class='respDivR'><div class='vertical-center'>(I)</div></div></div>","null","$6","$13","0","6","13",""
"html-keyboard-response","22","29595","0.0-5.0-1.6","63d12f8c48b235842187c959","bdp_rd","Mon Mar 27 2023 20:06:08 GMT-0500 (Central Daylight Time)","81546","","null","","","","FIX","","<div class='trialBorder'><div class='vertical-center'><img style='vertical-align:center; align:center' src=img/fixation3.jpg></div></div>","null","","","","","",""
"html-keyboard-response","23","31036","0.0-5.0-2.6","63d12f8c48b235842187c959","bdp_rd","Mon Mar 27 2023 20:06:08 GMT-0500 (Central Daylight Time)","81546","","1439","","","","offer","","<div class='trialBorder'><div class='vertical-center'><img style='vertical-align:center; align:center' src=img/fixation3.jpg></div><div class='cl'><div class='vertical-center'>$46<br>for<br>sure</div></div><div class='cr'><div class='vertical-center'>$65<br>with a<br>50% chance</div></div><div class='respDivL'><div class='vertical-center'>(E)</div></div><div class='respDivR'><div class='vertical-center'>(I)</div></div></div>","I","$46","$65","0","46","65","RISKY"
"html-keyboard-response","24","31295","0.0-5.0-3.6","63d12f8c48b235842187c959","bdp_rd","Mon Mar 27 2023 20:06:08 GMT-0500 (Central Daylight Time)","81546","","null","","","","offerFB","","<div class='trialBorder'><div class='vertical-center'><img style='vertical-align:center; align:center' src=img/fixation3.jpg></div><div class='cl'><div class='vertical-center'>$46<br>for<br>sure</div></div><div class='cr'><div class='vertical-center'><font style='color:orange'>$65<br>with a<br>50% chance</font></div></div><div class='respDivL'><div class='vertical-center'>(E)</div></div><div class='respDivR'><div class='vertical-center'><font style='color:orange'>(I)</font></div></div></div>","null","$46","$65","0","46","65",""
"html-keyboard-response","25","31805","0.0-5.0-1.7","63d12f8c48b235842187c959","bdp_rd","Mon Mar 27 2023 20:06:08 GMT-0500 (Central Daylight Time)","81546","","null","","","","FIX","","<div class='trialBorder'><div class='vertical-center'><img style='vertical-align:center; align:center' src=img/fixation3.jpg></div></div>","null","","","","","",""
"html-keyboard-response","26","32847","0.0-5.0-2.7","63d12f8c48b235842187c959","bdp_rd","Mon Mar 27 2023 20:06:08 GMT-0500 (Central Daylight Time)","81546","","1040","","","","offer","","<div class='trialBorder'><div class='vertical-center'><img style='vertical-align:center; align:center' src=img/fixation3.jpg></div><div class='cl'><div class='vertical-center'>$25<br>with a<br>50% chance</div></div><div class='cr'><div class='vertical-center'>$21<br>for<br>sure</div></div><div class='respDivL'><div class='vertical-center'>(E)</div></div><div class='respDivR'><div class='vertical-center'>(I)</div></div></div>","I","$21","$25","1","21","25","SURE"
"html-keyboard-response","27","33099","0.0-5.0-3.7","63d12f8c48b235842187c959","bdp_rd","Mon Mar 27 2023 20:06:08 GMT-0500 (Central Daylight Time)","81546","","null","","","","offerFB","","<div class='trialBorder'><div class='vertical-center'><img style='vertical-align:center; align:center' src=img/fixation3.jpg></div><div class='cl'><div class='vertical-center'>$25<br>with a<br>50% chance</div></div><div class='cr'><div class='vertical-center'><font style='color:orange'>$21<br>for<br>sure</font></div></div><div class='respDivL'><div class='vertical-center'>(E)</div></div><div class='respDivR'><div class='vertical-center'><font style='color:orange'>(I)</font></div></div></div>","null","$21","$25","1","21","25",""
"html-keyboard-response","28","33601","0.0-5.0-1.8","63d12f8c48b235842187c959","bdp_rd","Mon Mar 27 2023 20:06:08 GMT-0500 (Central Daylight Time)","81546","","null","","","","FIX","","<div class='trialBorder'><div class='vertical-center'><img style='vertical-align:center; align:center' src=img/fixation3.jpg></div></div>","null","","","","","",""
"html-keyboard-response","29","33799","0.0-5.0-2.8","63d12f8c48b235842187c959","bdp_rd","Mon Mar 27 2023 20:06:08 GMT-0500 (Central Daylight Time)","81546","","195","","","","offer","","<div class='trialBorder'><div class='vertical-center'><img style='vertical-align:center; align:center' src=img/fixation3.jpg></div><div class='cl'><div class='vertical-center'>$6<br>for<br>sure</div></div><div class='cr'><div class='vertical-center'>$15<br>with a<br>50% chance</div></div><div class='respDivL'><div class='vertical-center'>(E)</div></div><div class='respDivR'><div class='vertical-center'>(I)</div></div></div>","E","$6","$15","0","6","15","SURE"
"html-keyboard-response","30","34061","0.0-5.0-3.8","63d12f8c48b235842187c959","bdp_rd","Mon Mar 27 2023 20:06:08 GMT-0500 (Central Daylight Time)","81546","","null","","","","offerFB","","<div class='trialBorder'><div class='vertical-center'><img style='vertical-align:center; align:center' src=img/fixation3.jpg></div><div class='cl'><div class='vertical-center'><font style='color:orange'>$6<br>for<br>sure</font></div></div><div class='cr'><div class='vertical-center'>$15<br>with a<br>50% chance</div></div><div class='respDivL'><div class='vertical-center'><font style='color:orange'>(E)</font></div></div><div class='respDivR'><div class='vertical-center'>(I)</div></div></div>","null","$6","$15","0","6","15",""
"html-keyboard-response","31","34568","0.0-5.0-1.9","63d12f8c48b235842187c959","bdp_rd","Mon Mar 27 2023 20:06:08 GMT-0500 (Central Daylight Time)","81546","","null","","","","FIX","","<div class='trialBorder'><div class='vertical-center'><img style='vertical-align:center; align:center' src=img/fixation3.jpg></div></div>","null","","","","","",""
"html-keyboard-response","32","34580","0.0-5.0-2.9","63d12f8c48b235842187c959","bdp_rd","Mon Mar 27 2023 20:06:08 GMT-0500 (Central Daylight Time)","81546","","11","","","","offer","","<div class='trialBorder'><div class='vertical-center'><img style='vertical-align:center; align:center' src=img/fixation3.jpg></div><div class='cl'><div class='vertical-center'>$1<br>for<br>sure</div></div><div class='cr'><div class='vertical-center'>$30<br>with a<br>50% chance</div></div><div class='respDivL'><div class='vertical-center'>(E)</div></div><div class='respDivR'><div class='vertical-center'>(I)</div></div></div>","I","$1","$30","0","1","30","RISKY"
"html-keyboard-response","33","34838","0.0-5.0-3.9","63d12f8c48b235842187c959","bdp_rd","Mon Mar 27 2023 20:06:08 GMT-0500 (Central Daylight Time)","81546","","null","","","","offerFB","","<div class='trialBorder'><div class='vertical-center'><img style='vertical-align:center; align:center' src=img/fixation3.jpg></div><div class='cl'><div class='vertical-center'>$1<br>for<br>sure</div></div><div class='cr'><div class='vertical-center'><font style='color:orange'>$30<br>with a<br>50% chance</font></div></div><div class='respDivL'><div class='vertical-center'>(E)</div></div><div class='respDivR'><div class='vertical-center'><font style='color:orange'>(I)</font></div></div></div>","null","$1","$30","0","1","30",""
"html-keyboard-response","34","35346","0.0-5.0-1.10","63d12f8c48b235842187c959","bdp_rd","Mon Mar 27 2023 20:06:08 GMT-0500 (Central Daylight Time)","81546","","null","","","","FIX","","<div class='trialBorder'><div class='vertical-center'><img style='vertical-align:center; align:center' src=img/fixation3.jpg></div></div>","null","","","","","",""
"html-keyboard-response","35","35386","0.0-5.0-2.10","63d12f8c48b235842187c959","bdp_rd","Mon Mar 27 2023 20:06:08 GMT-0500 (Central Daylight Time)","81546","","39","","","","offer","","<div class='trialBorder'><div class='vertical-center'><img style='vertical-align:center; align:center' src=img/fixation3.jpg></div><div class='cl'><div class='vertical-center'>$8<br>for<br>sure</div></div><div class='cr'><div class='vertical-center'>$45<br>with a<br>50% chance</div></div><div class='respDivL'><div class='vertical-center'>(E)</div></div><div class='respDivR'><div class='vertical-center'>(I)</div></div></div>","I","$8","$45","0","8","45","RISKY"
"html-keyboard-response","36","35640","0.0-5.0-3.10","63d12f8c48b235842187c959","bdp_rd","Mon Mar 27 2023 20:06:08 GMT-0500 (Central Daylight Time)","81546","","null","","","","offerFB","","<div class='trialBorder'><div class='vertical-center'><img style='vertical-align:center; align:center' src=img/fixation3.jpg></div><div class='cl'><div class='vertical-center'>$8<br>for<br>sure</div></div><div class='cr'><div class='vertical-center'><font style='color:orange'>$45<br>with a<br>50% chance</font></div></div><div class='respDivL'><div class='vertical-center'>(E)</div></div><div class='respDivR'><div class='vertical-center'><font style='color:orange'>(I)</font></div></div></div>","null","$8","$45","0","8","45",""
"html-keyboard-response","37","36146","0.0-5.0-1.11","63d12f8c48b235842187c959","bdp_rd","Mon Mar 27 2023 20:06:08 GMT-0500 (Central Daylight Time)","81546","","null","","","","FIX","","<div class='trialBorder'><div class='vertical-center'><img style='vertical-align:center; align:center' src=img/fixation3.jpg></div></div>","null","","","","","",""
"html-keyboard-response","38","36195","0.0-5.0-2.11","63d12f8c48b235842187c959","bdp_rd","Mon Mar 27 2023 20:06:08 GMT-0500 (Central Daylight Time)","81546","","48","","","","offer","","<div class='trialBorder'><div class='vertical-center'><img style='vertical-align:center; align:center' src=img/fixation3.jpg></div><div class='cl'><div class='vertical-center'>$53<br>for<br>sure</div></div><div class='cr'><div class='vertical-center'>$98<br>with a<br>50% chance</div></div><div class='respDivL'><div class='vertical-center'>(E)</div></div><div class='respDivR'><div class='vertical-center'>(I)</div></div></div>","E","$53","$98","0","53","98","SURE"
"html-keyboard-response","39","36450","0.0-5.0-3.11","63d12f8c48b235842187c959","bdp_rd","Mon Mar 27 2023 20:06:08 GMT-0500 (Central Daylight Time)","81546","","null","","","","offerFB","","<div class='trialBorder'><div class='vertical-center'><img style='vertical-align:center; align:center' src=img/fixation3.jpg></div><div class='cl'><div class='vertical-center'><font style='color:orange'>$53<br>for<br>sure</font></div></div><div class='cr'><div class='vertical-center'>$98<br>with a<br>50% chance</div></div><div class='respDivL'><div class='vertical-center'><font style='color:orange'>(E)</font></div></div><div class='respDivR'><div class='vertical-center'>(I)</div></div></div>","null","$53","$98","0","53","98",""
"html-keyboard-response","40","36954","0.0-5.0-1.12","63d12f8c48b235842187c959","bdp_rd","Mon Mar 27 2023 20:06:08 GMT-0500 (Central Daylight Time)","81546","","null","","","","FIX","","<div class='trialBorder'><div class='vertical-center'><img style='vertical-align:center; align:center' src=img/fixation3.jpg></div></div>","null","","","","","",""
"html-keyboard-response","41","37323","0.0-5.0-2.12","63d12f8c48b235842187c959","bdp_rd","Mon Mar 27 2023 20:06:08 GMT-0500 (Central Daylight Time)","81546","","367","","","","offer","","<div class='trialBorder'><div class='vertical-center'><img style='vertical-align:center; align:center' src=img/fixation3.jpg></div><div class='cl'><div class='vertical-center'>$24<br>with a<br>50% chance</div></div><div class='cr'><div class='vertical-center'>$13<br>for<br>sure</div></div><div class='respDivL'><div class='vertical-center'>(E)</div></div><div class='respDivR'><div class='vertical-center'>(I)</div></div></div>","E","$13","$24","1","13","24","RISKY"
"html-keyboard-response","42","37579","0.0-5.0-3.12","63d12f8c48b235842187c959","bdp_rd","Mon Mar 27 2023 20:06:08 GMT-0500 (Central Daylight Time)","81546","","null","","","","offerFB","","<div class='trialBorder'><div class='vertical-center'><img style='vertical-align:center; align:center' src=img/fixation3.jpg></div><div class='cl'><div class='vertical-center'><font style='color:orange'>$24<br>with a<br>50% chance</font></div></div><div class='cr'><div class='vertical-center'>$13<br>for<br>sure</div></div><div class='respDivL'><div class='vertical-center'><font style='color:orange'>(E)</font></div></div><div class='respDivR'><div class='vertical-center'>(I)</div></div></div>","null","$13","$24","1","13","24",""
"html-keyboard-response","43","38088","0.0-5.0-1.13","63d12f8c48b235842187c959","bdp_rd","Mon Mar 27 2023 20:06:08 GMT-0500 (Central Daylight Time)","81546","","null","","","","FIX","","<div class='trialBorder'><div class='vertical-center'><img style='vertical-align:center; align:center' src=img/fixation3.jpg></div></div>","null","","","","","",""
"html-keyboard-response","44","38116","0.0-5.0-2.13","63d12f8c48b235842187c959","bdp_rd","Mon Mar 27 2023 20:06:08 GMT-0500 (Central Daylight Time)","81546","","26","","","","offer","","<div class='trialBorder'><div class='vertical-center'><img style='vertical-align:center; align:center' src=img/fixation3.jpg></div><div class='cl'><div class='vertical-center'>$18<br>with a<br>50% chance</div></div><div class='cr'><div class='vertical-center'>$9<br>for<br>sure</div></div><div class='respDivL'><div class='vertical-center'>(E)</div></div><div class='respDivR'><div class='vertical-center'>(I)</div></div></div>","I","$9","$18","1","9","18","SURE"
"html-keyboard-response","45","38374","0.0-5.0-3.13","63d12f8c48b235842187c959","bdp_rd","Mon Mar 27 2023 20:06:08 GMT-0500 (Central Daylight Time)","81546","","null","","","","offerFB","","<div class='trialBorder'><div class='vertical-center'><img style='vertical-align:center; align:center' src=img/fixation3.jpg></div><div class='cl'><div class='vertical-center'>$18<br>with a<br>50% chance</div></div><div class='cr'><div class='vertical-center'><font style='color:orange'>$9<br>for<br>sure</font></div></div><div class='respDivL'><div class='vertical-center'>(E)</div></div><div class='respDivR'><div class='vertical-center'><font style='color:orange'>(I)</font></div></div></div>","null","$9","$18","1","9","18",""
"html-keyboard-response","46","38885","0.0-5.0-1.14","63d12f8c48b235842187c959","bdp_rd","Mon Mar 27 2023 20:06:08 GMT-0500 (Central Daylight Time)","81546","","null","","","","FIX","","<div class='trialBorder'><div class='vertical-center'><img style='vertical-align:center; align:center' src=img/fixation3.jpg></div></div>","null","","","","","",""
"html-keyboard-response","47","38939","0.0-5.0-2.14","63d12f8c48b235842187c959","bdp_rd","Mon Mar 27 2023 20:06:08 GMT-0500 (Central Daylight Time)","81546","","51","","","","offer","","<div class='trialBorder'><div class='vertical-center'><img style='vertical-align:center; align:center' src=img/fixation3.jpg></div><div class='cl'><div class='vertical-center'>$7<br>for<br>sure</div></div><div class='cr'><div class='vertical-center'>$10<br>with a<br>50% chance</div></div><div class='respDivL'><div class='vertical-center'>(E)</div></div><div class='respDivR'><div class='vertical-center'>(I)</div></div></div>","I","$7","$10","0","7","10","RISKY"
"html-keyboard-response","48","39197","0.0-5.0-3.14","63d12f8c48b235842187c959","bdp_rd","Mon Mar 27 2023 20:06:08 GMT-0500 (Central Daylight Time)","81546","","null","","","","offerFB","","<div class='trialBorder'><div class='vertical-center'><img style='vertical-align:center; align:center' src=img/fixation3.jpg></div><div class='cl'><div class='vertical-center'>$7<br>for<br>sure</div></div><div class='cr'><div class='vertical-center'><font style='color:orange'>$10<br>with a<br>50% chance</font></div></div><div class='respDivL'><div class='vertical-center'>(E)</div></div><div class='respDivR'><div class='vertical-center'><font style='color:orange'>(I)</font></div></div></div>","null","$7","$10","0","7","10",""
"html-keyboard-response","49","39698","0.0-5.0-1.15","63d12f8c48b235842187c959","bdp_rd","Mon Mar 27 2023 20:06:08 GMT-0500 (Central Daylight Time)","81546","","null","","","","FIX","","<div class='trialBorder'><div class='vertical-center'><img style='vertical-align:center; align:center' src=img/fixation3.jpg></div></div>","null","","","","","",""
"html-keyboard-response","50","40170","0.0-5.0-2.15","63d12f8c48b235842187c959","bdp_rd","Mon Mar 27 2023 20:06:08 GMT-0500 (Central Daylight Time)","81546","","471","","","","offer","","<div class='trialBorder'><div class='vertical-center'><img style='vertical-align:center; align:center' src=img/fixation3.jpg></div><div class='cl'><div class='vertical-center'>$80<br>with a<br>50% chance</div></div><div class='cr'><div class='vertical-center'>$20<br>for<br>sure</div></div><div class='respDivL'><div class='vertical-center'>(E)</div></div><div class='respDivR'><div class='vertical-center'>(I)</div></div></div>","E","$20","$80","1","20","80","RISKY"
"html-keyboard-response","51","40431","0.0-5.0-3.15","63d12f8c48b235842187c959","bdp_rd","Mon Mar 27 2023 20:06:08 GMT-0500 (Central Daylight Time)","81546","","null","","","","offerFB","","<div class='trialBorder'><div class='vertical-center'><img style='vertical-align:center; align:center' src=img/fixation3.jpg></div><div class='cl'><div class='vertical-center'><font style='color:orange'>$80<br>with a<br>50% chance</font></div></div><div class='cr'><div class='vertical-center'>$20<br>for<br>sure</div></div><div class='respDivL'><div class='vertical-center'><font style='color:orange'>(E)</font></div></div><div class='respDivR'><div class='vertical-center'>(I)</div></div></div>","null","$20","$80","1","20","80",""
"html-keyboard-response","52","40937","0.0-5.0-1.16","63d12f8c48b235842187c959","bdp_rd","Mon Mar 27 2023 20:06:08 GMT-0500 (Central Daylight Time)","81546","","null","","","","FIX","","<div class='trialBorder'><div class='vertical-center'><img style='vertical-align:center; align:center' src=img/fixation3.jpg></div></div>","null","","","","","",""
"html-keyboard-response","53","41330","0.0-5.0-2.16","63d12f8c48b235842187c959","bdp_rd","Mon Mar 27 2023 20:06:08 GMT-0500 (Central Daylight Time)","81546","","391","","","","offer","","<div class='trialBorder'><div class='vertical-center'><img style='vertical-align:center; align:center' src=img/fixation3.jpg></div><div class='cl'><div class='vertical-center'>$1<br>for<br>sure</div></div><div class='cr'><div class='vertical-center'>$33<br>with a<br>50% chance</div></div><div class='respDivL'><div class='vertical-center'>(E)</div></div><div class='respDivR'><div class='vertical-center'>(I)</div></div></div>","E","$1","$33","0","1","33","SURE"
"html-keyboard-response","54","41589","0.0-5.0-3.16","63d12f8c48b235842187c959","bdp_rd","Mon Mar 27 2023 20:06:08 GMT-0500 (Central Daylight Time)","81546","","null","","","","offerFB","","<div class='trialBorder'><div class='vertical-center'><img style='vertical-align:center; align:center' src=img/fixation3.jpg></div><div class='cl'><div class='vertical-center'><font style='color:orange'>$1<br>for<br>sure</font></div></div><div class='cr'><div class='vertical-center'>$33<br>with a<br>50% chance</div></div><div class='respDivL'><div class='vertical-center'><font style='color:orange'>(E)</font></div></div><div class='respDivR'><div class='vertical-center'>(I)</div></div></div>","null","$1","$33","0","1","33",""
"html-keyboard-response","55","42107","0.0-5.0-1.17","63d12f8c48b235842187c959","bdp_rd","Mon Mar 27 2023 20:06:08 GMT-0500 (Central Daylight Time)","81546","","null","","","","FIX","","<div class='trialBorder'><div class='vertical-center'><img style='vertical-align:center; align:center' src=img/fixation3.jpg></div></div>","null","","","","","",""
"html-keyboard-response","56","42151","0.0-5.0-2.17","63d12f8c48b235842187c959","bdp_rd","Mon Mar 27 2023 20:06:08 GMT-0500 (Central Daylight Time)","81546","","43","","","","offer","","<div class='trialBorder'><div class='vertical-center'><img style='vertical-align:center; align:center' src=img/fixation3.jpg></div><div class='cl'><div class='vertical-center'>$23<br>with a<br>50% chance</div></div><div class='cr'><div class='vertical-center'>$8<br>for<br>sure</div></div><div class='respDivL'><div class='vertical-center'>(E)</div></div><div class='respDivR'><div class='vertical-center'>(I)</div></div></div>","I","$8","$23","1","8","23","SURE"
"html-keyboard-response","57","42410","0.0-5.0-3.17","63d12f8c48b235842187c959","bdp_rd","Mon Mar 27 2023 20:06:08 GMT-0500 (Central Daylight Time)","81546","","null","","","","offerFB","","<div class='trialBorder'><div class='vertical-center'><img style='vertical-align:center; align:center' src=img/fixation3.jpg></div><div class='cl'><div class='vertical-center'>$23<br>with a<br>50% chance</div></div><div class='cr'><div class='vertical-center'><font style='color:orange'>$8<br>for<br>sure</font></div></div><div class='respDivL'><div class='vertical-center'>(E)</div></div><div class='respDivR'><div class='vertical-center'><font style='color:orange'>(I)</font></div></div></div>","null","$8","$23","1","8","23",""
"html-keyboard-response","58","42913","0.0-5.0-1.18","63d12f8c48b235842187c959","bdp_rd","Mon Mar 27 2023 20:06:08 GMT-0500 (Central Daylight Time)","81546","","null","","","","FIX","","<div class='trialBorder'><div class='vertical-center'><img style='vertical-align:center; align:center' src=img/fixation3.jpg></div></div>","null","","","","","",""
"html-keyboard-response","59","43093","0.0-5.0-2.18","63d12f8c48b235842187c959","bdp_rd","Mon Mar 27 2023 20:06:08 GMT-0500 (Central Daylight Time)","81546","","178","","","","offer","","<div class='trialBorder'><div class='vertical-center'><img style='vertical-align:center; align:center' src=img/fixation3.jpg></div><div class='cl'><div class='vertical-center'>$59<br>with a<br>50% chance</div></div><div class='cr'><div class='vertical-center'>$22<br>for<br>sure</div></div><div class='respDivL'><div class='vertical-center'>(E)</div></div><div class='respDivR'><div class='vertical-center'>(I)</div></div></div>","I","$22","$59","1","22","59","SURE"
"html-keyboard-response","60","43348","0.0-5.0-3.18","63d12f8c48b235842187c959","bdp_rd","Mon Mar 27 2023 20:06:08 GMT-0500 (Central Daylight Time)","81546","","null","","","","offerFB","","<div class='trialBorder'><div class='vertical-center'><img style='vertical-align:center; align:center' src=img/fixation3.jpg></div><div class='cl'><div class='vertical-center'>$59<br>with a<br>50% chance</div></div><div class='cr'><div class='vertical-center'><font style='color:orange'>$22<br>for<br>sure</font></div></div><div class='respDivL'><div class='vertical-center'>(E)</div></div><div class='respDivR'><div class='vertical-center'><font style='color:orange'>(I)</font></div></div></div>","null","$22","$59","1","22","59",""
"html-keyboard-response","61","43856","0.0-5.0-1.19","63d12f8c48b235842187c959","bdp_rd","Mon Mar 27 2023 20:06:08 GMT-0500 (Central Daylight Time)","81546","","null","","","","FIX","","<div class='trialBorder'><div class='vertical-center'><img style='vertical-align:center; align:center' src=img/fixation3.jpg></div></div>","null","","","","","",""
"html-keyboard-response","62","44436","0.0-5.0-2.19","63d12f8c48b235842187c959","bdp_rd","Mon Mar 27 2023 20:06:08 GMT-0500 (Central Daylight Time)","81546","","577","","","","offer","","<div class='trialBorder'><div class='vertical-center'><img style='vertical-align:center; align:center' src=img/fixation3.jpg></div><div class='cl'><div class='vertical-center'>$100<br>with a<br>50% chance</div></div><div class='cr'><div class='vertical-center'>$63<br>for<br>sure</div></div><div class='respDivL'><div class='vertical-center'>(E)</div></div><div class='respDivR'><div class='vertical-center'>(I)</div></div></div>","E","$63","$100","1","63","10","RISKY"
"html-keyboard-response","63","44689","0.0-5.0-3.19","63d12f8c48b235842187c959","bdp_rd","Mon Mar 27 2023 20:06:08 GMT-0500 (Central Daylight Time)","81546","","null","","","","offerFB","","<div class='trialBorder'><div class='vertical-center'><img style='vertical-align:center; align:center' src=img/fixation3.jpg></div><div class='cl'><div class='vertical-center'><font style='color:orange'>$100<br>with a<br>50% chance</font></div></div><div class='cr'><div class='vertical-center'>$63<br>for<br>sure</div></div><div class='respDivL'><div class='vertical-center'><font style='color:orange'>(E)</font></div></div><div class='respDivR'><div class='vertical-center'>(I)</div></div></div>","null","$63","$100","1","63","10",""
"html-keyboard-response","64","45192","0.0-5.0-1.20","63d12f8c48b235842187c959","bdp_rd","Mon Mar 27 2023 20:06:08 GMT-0500 (Central Daylight Time)","81546","","null","","","","FIX","","<div class='trialBorder'><div class='vertical-center'><img style='vertical-align:center; align:center' src=img/fixation3.jpg></div></div>","null","","","","","",""
"html-keyboard-response","65","45348","0.0-5.0-2.20","63d12f8c48b235842187c959","bdp_rd","Mon Mar 27 2023 20:06:08 GMT-0500 (Central Daylight Time)","81546","","153","","","","offer","","<div class='trialBorder'><div class='vertical-center'><img style='vertical-align:center; align:center' src=img/fixation3.jpg></div><div class='cl'><div class='vertical-center'>$95<br>with a<br>50% chance</div></div><div class='cr'><div class='vertical-center'>$40<br>for<br>sure</div></div><div class='respDivL'><div class='vertical-center'>(E)</div></div><div class='respDivR'><div class='vertical-center'>(I)</div></div></div>","I","$40","$95","1","40","95","SURE"
"html-keyboard-response","66","45607","0.0-5.0-3.20","63d12f8c48b235842187c959","bdp_rd","Mon Mar 27 2023 20:06:08 GMT-0500 (Central Daylight Time)","81546","","null","","","","offerFB","","<div class='trialBorder'><div class='vertical-center'><img style='vertical-align:center; align:center' src=img/fixation3.jpg></div><div class='cl'><div class='vertical-center'>$95<br>with a<br>50% chance</div></div><div class='cr'><div class='vertical-center'><font style='color:orange'>$40<br>for<br>sure</font></div></div><div class='respDivL'><div class='vertical-center'>(E)</div></div><div class='respDivR'><div class='vertical-center'><font style='color:orange'>(I)</font></div></div></div>","null","$40","$95","1","40","95",""
"html-keyboard-response","67","46110","0.0-5.0-1.21","63d12f8c48b235842187c959","bdp_rd","Mon Mar 27 2023 20:06:08 GMT-0500 (Central Daylight Time)","81546","","null","","","","FIX","","<div class='trialBorder'><div class='vertical-center'><img style='vertical-align:center; align:center' src=img/fixation3.jpg></div></div>","null","","","","","",""
"html-keyboard-response","68","46239","0.0-5.0-2.21","63d12f8c48b235842187c959","bdp_rd","Mon Mar 27 2023 20:06:08 GMT-0500 (Central Daylight Time)","81546","","126","","","","offer","","<div class='trialBorder'><div class='vertical-center'><img style='vertical-align:center; align:center' src=img/fixation3.jpg></div><div class='cl'><div class='vertical-center'>$34<br>for<br>sure</div></div><div class='cr'><div class='vertical-center'>$48<br>with a<br>50% chance</div></div><div class='respDivL'><div class='vertical-center'>(E)</div></div><div class='respDivR'><div class='vertical-center'>(I)</div></div></div>","I","$34","$48","0","34","48","RISKY"
"html-keyboard-response","69","46499","0.0-5.0-3.21","63d12f8c48b235842187c959","bdp_rd","Mon Mar 27 2023 20:06:08 GMT-0500 (Central Daylight Time)","81546","","null","","","","offerFB","","<div class='trialBorder'><div class='vertical-center'><img style='vertical-align:center; align:center' src=img/fixation3.jpg></div><div class='cl'><div class='vertical-center'>$34<br>for<br>sure</div></div><div class='cr'><div class='vertical-center'><font style='color:orange'>$48<br>with a<br>50% chance</font></div></div><div class='respDivL'><div class='vertical-center'>(E)</div></div><div class='respDivR'><div class='vertical-center'><font style='color:orange'>(I)</font></div></div></div>","null","$34","$48","0","34","48",""
"html-keyboard-response","70","47003","0.0-5.0-1.22","63d12f8c48b235842187c959","bdp_rd","Mon Mar 27 2023 20:06:08 GMT-0500 (Central Daylight Time)","81546","","null","","","","FIX","","<div class='trialBorder'><div class='vertical-center'><img style='vertical-align:center; align:center' src=img/fixation3.jpg></div></div>","null","","","","","",""
"html-keyboard-response","71","47040","0.0-5.0-2.22","63d12f8c48b235842187c959","bdp_rd","Mon Mar 27 2023 20:06:08 GMT-0500 (Central Daylight Time)","81546","","36","","","","offer","","<div class='trialBorder'><div class='vertical-center'><img style='vertical-align:center; align:center' src=img/fixation3.jpg></div><div class='cl'><div class='vertical-center'>$46<br>with a<br>50% chance</div></div><div class='cr'><div class='vertical-center'>$29<br>for<br>sure</div></div><div class='respDivL'><div class='vertical-center'>(E)</div></div><div class='respDivR'><div class='vertical-center'>(I)</div></div></div>","E","$29","$46","1","29","46","RISKY"
"html-keyboard-response","72","47299","0.0-5.0-3.22","63d12f8c48b235842187c959","bdp_rd","Mon Mar 27 2023 20:06:08 GMT-0500 (Central Daylight Time)","81546","","null","","","","offerFB","","<div class='trialBorder'><div class='vertical-center'><img style='vertical-align:center; align:center' src=img/fixation3.jpg></div><div class='cl'><div class='vertical-center'><font style='color:orange'>$46<br>with a<br>50% chance</font></div></div><div class='cr'><div class='vertical-center'>$29<br>for<br>sure</div></div><div class='respDivL'><div class='vertical-center'><font style='color:orange'>(E)</font></div></div><div class='respDivR'><div class='vertical-center'>(I)</div></div></div>","null","$29","$46","1","29","46",""
"html-keyboard-response","73","47803","0.0-5.0-1.23","63d12f8c48b235842187c959","bdp_rd","Mon Mar 27 2023 20:06:08 GMT-0500 (Central Daylight Time)","81546","","null","","","","FIX","","<div class='trialBorder'><div class='vertical-center'><img style='vertical-align:center; align:center' src=img/fixation3.jpg></div></div>","null","","","","","",""
"html-keyboard-response","74","47858","0.0-5.0-2.23","63d12f8c48b235842187c959","bdp_rd","Mon Mar 27 2023 20:06:08 GMT-0500 (Central Daylight Time)","81546","","54","","","","offer","","<div class='trialBorder'><div class='vertical-center'><img style='vertical-align:center; align:center' src=img/fixation3.jpg></div><div class='cl'><div class='vertical-center'>$18<br>for<br>sure</div></div><div class='cr'><div class='vertical-center'>$39<br>with a<br>50% chance</div></div><div class='respDivL'><div class='vertical-center'>(E)</div></div><div class='respDivR'><div class='vertical-center'>(I)</div></div></div>","I","$18","$39","0","18","39","RISKY"
"html-keyboard-response","75","48115","0.0-5.0-3.23","63d12f8c48b235842187c959","bdp_rd","Mon Mar 27 2023 20:06:08 GMT-0500 (Central Daylight Time)","81546","","null","","","","offerFB","","<div class='trialBorder'><div class='vertical-center'><img style='vertical-align:center; align:center' src=img/fixation3.jpg></div><div class='cl'><div class='vertical-center'>$18<br>for<br>sure</div></div><div class='cr'><div class='vertical-center'><font style='color:orange'>$39<br>with a<br>50% chance</font></div></div><div class='respDivL'><div class='vertical-center'>(E)</div></div><div class='respDivR'><div class='vertical-center'><font style='color:orange'>(I)</font></div></div></div>","null","$18","$39","0","18","39",""
"html-keyboard-response","76","48625","0.0-5.0-1.24","63d12f8c48b235842187c959","bdp_rd","Mon Mar 27 2023 20:06:08 GMT-0500 (Central Daylight Time)","81546","","null","","","","FIX","","<div class='trialBorder'><div class='vertical-center'><img style='vertical-align:center; align:center' src=img/fixation3.jpg></div></div>","null","","","","","",""
"html-keyboard-response","77","48653","0.0-5.0-2.24","63d12f8c48b235842187c959","bdp_rd","Mon Mar 27 2023 20:06:08 GMT-0500 (Central Daylight Time)","81546","","26","","","","offer","","<div class='trialBorder'><div class='vertical-center'><img style='vertical-align:center; align:center' src=img/fixation3.jpg></div><div class='cl'><div class='vertical-center'>$2<br>for<br>sure</div></div><div class='cr'><div class='vertical-center'>$64<br>with a<br>50% chance</div></div><div class='respDivL'><div class='vertical-center'>(E)</div></div><div class='respDivR'><div class='vertical-center'>(I)</div></div></div>","E","$2","$64","0","2","64","SURE"
"html-keyboard-response","78","48906","0.0-5.0-3.24","63d12f8c48b235842187c959","bdp_rd","Mon Mar 27 2023 20:06:08 GMT-0500 (Central Daylight Time)","81546","","null","","","","offerFB","","<div class='trialBorder'><div class='vertical-center'><img style='vertical-align:center; align:center' src=img/fixation3.jpg></div><div class='cl'><div class='vertical-center'><font style='color:orange'>$2<br>for<br>sure</font></div></div><div class='cr'><div class='vertical-center'>$64<br>with a<br>50% chance</div></div><div class='respDivL'><div class='vertical-center'><font style='color:orange'>(E)</font></div></div><div class='respDivR'><div class='vertical-center'>(I)</div></div></div>","null","$2","$64","0","2","64",""
"html-keyboard-response","79","49415","0.0-5.0-1.25","63d12f8c48b235842187c959","bdp_rd","Mon Mar 27 2023 20:06:08 GMT-0500 (Central Daylight Time)","81546","","null","","","","FIX","","<div class='trialBorder'><div class='vertical-center'><img style='vertical-align:center; align:center' src=img/fixation3.jpg></div></div>","null","","","","","",""
"html-keyboard-response","80","49796","0.0-5.0-2.25","63d12f8c48b235842187c959","bdp_rd","Mon Mar 27 2023 20:06:08 GMT-0500 (Central Daylight Time)","81546","","378","","","","offer","","<div class='trialBorder'><div class='vertical-center'><img style='vertical-align:center; align:center' src=img/fixation3.jpg></div><div class='cl'><div class='vertical-center'>$62<br>with a<br>50% chance</div></div><div class='cr'><div class='vertical-center'>$11<br>for<br>sure</div></div><div class='respDivL'><div class='vertical-center'>(E)</div></div><div class='respDivR'><div class='vertical-center'>(I)</div></div></div>","E","$11","$62","1","11","62","RISKY"
"html-keyboard-response","81","50052","0.0-5.0-3.25","63d12f8c48b235842187c959","bdp_rd","Mon Mar 27 2023 20:06:08 GMT-0500 (Central Daylight Time)","81546","","null","","","","offerFB","","<div class='trialBorder'><div class='vertical-center'><img style='vertical-align:center; align:center' src=img/fixation3.jpg></div><div class='cl'><div class='vertical-center'><font style='color:orange'>$62<br>with a<br>50% chance</font></div></div><div class='cr'><div class='vertical-center'>$11<br>for<br>sure</div></div><div class='respDivL'><div class='vertical-center'><font style='color:orange'>(E)</font></div></div><div class='respDivR'><div class='vertical-center'>(I)</div></div></div>","null","$11","$62","1","11","62",""
"html-keyboard-response","82","50555","0.0-5.0-1.26","63d12f8c48b235842187c959","bdp_rd","Mon Mar 27 2023 20:06:08 GMT-0500 (Central Daylight Time)","81546","","null","","","","FIX","","<div class='trialBorder'><div class='vertical-center'><img style='vertical-align:center; align:center' src=img/fixation3.jpg></div></div>","null","","","","","",""
"html-keyboard-response","83","50567","0.0-5.0-2.26","63d12f8c48b235842187c959","bdp_rd","Mon Mar 27 2023 20:06:08 GMT-0500 (Central Daylight Time)","81546","","11","","","","offer","","<div class='trialBorder'><div class='vertical-center'><img style='vertical-align:center; align:center' src=img/fixation3.jpg></div><div class='cl'><div class='vertical-center'>$33<br>for<br>sure</div></div><div class='cr'><div class='vertical-center'>$66<br>with a<br>50% chance</div></div><div class='respDivL'><div class='vertical-center'>(E)</div></div><div class='respDivR'><div class='vertical-center'>(I)</div></div></div>","I","$33","$66","0","33","66","RISKY"
"html-keyboard-response","84","50826","0.0-5.0-3.26","63d12f8c48b235842187c959","bdp_rd","Mon Mar 27 2023 20:06:08 GMT-0500 (Central Daylight Time)","81546","","null","","","","offerFB","","<div class='trialBorder'><div class='vertical-center'><img style='vertical-align:center; align:center' src=img/fixation3.jpg></div><div class='cl'><div class='vertical-center'>$33<br>for<br>sure</div></div><div class='cr'><div class='vertical-center'><font style='color:orange'>$66<br>with a<br>50% chance</font></div></div><div class='respDivL'><div class='vertical-center'>(E)</div></div><div class='respDivR'><div class='vertical-center'><font style='color:orange'>(I)</font></div></div></div>","null","$33","$66","0","33","66",""
"html-keyboard-response","85","51329","0.0-5.0-1.27","63d12f8c48b235842187c959","bdp_rd","Mon Mar 27 2023 20:06:08 GMT-0500 (Central Daylight Time)","81546","","null","","","","FIX","","<div class='trialBorder'><div class='vertical-center'><img style='vertical-align:center; align:center' src=img/fixation3.jpg></div></div>","null","","","","","",""
"html-keyboard-response","86","51445","0.0-5.0-2.27","63d12f8c48b235842187c959","bdp_rd","Mon Mar 27 2023 20:06:08 GMT-0500 (Central Daylight Time)","81546","","114","","","","offer","","<div class='trialBorder'><div class='vertical-center'><img style='vertical-align:center; align:center' src=img/fixation3.jpg></div><div class='cl'><div class='vertical-center'>$35<br>with a<br>50% chance</div></div><div class='cr'><div class='vertical-center'>$12<br>for<br>sure</div></div><div class='respDivL'><div class='vertical-center'>(E)</div></div><div class='respDivR'><div class='vertical-center'>(I)</div></div></div>","I","$12","$35","1","12","35","SURE"
"html-keyboard-response","87","51698","0.0-5.0-3.27","63d12f8c48b235842187c959","bdp_rd","Mon Mar 27 2023 20:06:08 GMT-0500 (Central Daylight Time)","81546","","null","","","","offerFB","","<div class='trialBorder'><div class='vertical-center'><img style='vertical-align:center; align:center' src=img/fixation3.jpg></div><div class='cl'><div class='vertical-center'>$35<br>with a<br>50% chance</div></div><div class='cr'><div class='vertical-center'><font style='color:orange'>$12<br>for<br>sure</font></div></div><div class='respDivL'><div class='vertical-center'>(E)</div></div><div class='respDivR'><div class='vertical-center'><font style='color:orange'>(I)</font></div></div></div>","null","$12","$35","1","12","35",""
"html-keyboard-response","88","52201","0.0-5.0-1.28","63d12f8c48b235842187c959","bdp_rd","Mon Mar 27 2023 20:06:08 GMT-0500 (Central Daylight Time)","81546","","null","","","","FIX","","<div class='trialBorder'><div class='vertical-center'><img style='vertical-align:center; align:center' src=img/fixation3.jpg></div></div>","null","","","","","",""
"html-keyboard-response","89","52327","0.0-5.0-2.28","63d12f8c48b235842187c959","bdp_rd","Mon Mar 27 2023 20:06:08 GMT-0500 (Central Daylight Time)","81546","","125","","","","offer","","<div class='trialBorder'><div class='vertical-center'><img style='vertical-align:center; align:center' src=img/fixation3.jpg></div><div class='cl'><div class='vertical-center'>$11<br>for<br>sure</div></div><div class='cr'><div class='vertical-center'>$26<br>with a<br>50% chance</div></div><div class='respDivL'><div class='vertical-center'>(E)</div></div><div class='respDivR'><div class='vertical-center'>(I)</div></div></div>","E","$11","$26","0","11","26","SURE"
"html-keyboard-response","90","52580","0.0-5.0-3.28","63d12f8c48b235842187c959","bdp_rd","Mon Mar 27 2023 20:06:08 GMT-0500 (Central Daylight Time)","81546","","null","","","","offerFB","","<div class='trialBorder'><div class='vertical-center'><img style='vertical-align:center; align:center' src=img/fixation3.jpg></div><div class='cl'><div class='vertical-center'><font style='color:orange'>$11<br>for<br>sure</font></div></div><div class='cr'><div class='vertical-center'>$26<br>with a<br>50% chance</div></div><div class='respDivL'><div class='vertical-center'><font style='color:orange'>(E)</font></div></div><div class='respDivR'><div class='vertical-center'>(I)</div></div></div>","null","$11","$26","0","11","26",""
"html-keyboard-response","91","53086","0.0-5.0-1.29","63d12f8c48b235842187c959","bdp_rd","Mon Mar 27 2023 20:06:08 GMT-0500 (Central Daylight Time)","81546","","null","","","","FIX","","<div class='trialBorder'><div class='vertical-center'><img style='vertical-align:center; align:center' src=img/fixation3.jpg></div></div>","null","","","","","",""
"html-keyboard-response","92","53146","0.0-5.0-2.29","63d12f8c48b235842187c959","bdp_rd","Mon Mar 27 2023 20:06:08 GMT-0500 (Central Daylight Time)","81546","","58","","","","offer","","<div class='trialBorder'><div class='vertical-center'><img style='vertical-align:center; align:center' src=img/fixation3.jpg></div><div class='cl'><div class='vertical-center'>$14<br>for<br>sure</div></div><div class='cr'><div class='vertical-center'>$29<br>with a<br>50% chance</div></div><div class='respDivL'><div class='vertical-center'>(E)</div></div><div class='respDivR'><div class='vertical-center'>(I)</div></div></div>","E","$14","$29","0","14","29","SURE"
"html-keyboard-response","93","53406","0.0-5.0-3.29","63d12f8c48b235842187c959","bdp_rd","Mon Mar 27 2023 20:06:08 GMT-0500 (Central Daylight Time)","81546","","null","","","","offerFB","","<div class='trialBorder'><div class='vertical-center'><img style='vertical-align:center; align:center' src=img/fixation3.jpg></div><div class='cl'><div class='vertical-center'><font style='color:orange'>$14<br>for<br>sure</font></div></div><div class='cr'><div class='vertical-center'>$29<br>with a<br>50% chance</div></div><div class='respDivL'><div class='vertical-center'><font style='color:orange'>(E)</font></div></div><div class='respDivR'><div class='vertical-center'>(I)</div></div></div>","null","$14","$29","0","14","29",""
"html-keyboard-response","94","53909","0.0-5.0-1.30","63d12f8c48b235842187c959","bdp_rd","Mon Mar 27 2023 20:06:08 GMT-0500 (Central Daylight Time)","81546","","null","","","","FIX","","<div class='trialBorder'><div class='vertical-center'><img style='vertical-align:center; align:center' src=img/fixation3.jpg></div></div>","null","","","","","",""
"html-keyboard-response","95","53957","0.0-5.0-2.30","63d12f8c48b235842187c959","bdp_rd","Mon Mar 27 2023 20:06:08 GMT-0500 (Central Daylight Time)","81546","","45","","","","offer","","<div class='trialBorder'><div class='vertical-center'><img style='vertical-align:center; align:center' src=img/fixation3.jpg></div><div class='cl'><div class='vertical-center'>$4<br>for<br>sure</div></div><div class='cr'><div class='vertical-center'>$14<br>with a<br>50% chance</div></div><div class='respDivL'><div class='vertical-center'>(E)</div></div><div class='respDivR'><div class='vertical-center'>(I)</div></div></div>","I","$4","$14","0","4","14","RISKY"
"html-keyboard-response","96","54216","0.0-5.0-3.30","63d12f8c48b235842187c959","bdp_rd","Mon Mar 27 2023 20:06:08 GMT-0500 (Central Daylight Time)","81546","","null","","","","offerFB","","<div class='trialBorder'><div class='vertical-center'><img style='vertical-align:center; align:center' src=img/fixation3.jpg></div><div class='cl'><div class='vertical-center'>$4<br>for<br>sure</div></div><div class='cr'><div class='vertical-center'><font style='color:orange'>$14<br>with a<br>50% chance</font></div></div><div class='respDivL'><div class='vertical-center'>(E)</div></div><div class='respDivR'><div class='vertical-center'><font style='color:orange'>(I)</font></div></div></div>","null","$4","$14","0","4","14",""
"html-keyboard-response","97","54719","0.0-5.0-1.31","63d12f8c48b235842187c959","bdp_rd","Mon Mar 27 2023 20:06:08 GMT-0500 (Central Daylight Time)","81546","","null","","","","FIX","","<div class='trialBorder'><div class='vertical-center'><img style='vertical-align:center; align:center' src=img/fixation3.jpg></div></div>","null","","","","","",""
"html-keyboard-response","98","54908","0.0-5.0-2.31","63d12f8c48b235842187c959","bdp_rd","Mon Mar 27 2023 20:06:08 GMT-0500 (Central Daylight Time)","81546","","187","","","","offer","","<div class='trialBorder'><div class='vertical-center'><img style='vertical-align:center; align:center' src=img/fixation3.jpg></div><div class='cl'><div class='vertical-center'>$69<br>with a<br>50% chance</div></div><div class='cr'><div class='vertical-center'>$58<br>for<br>sure</div></div><div class='respDivL'><div class='vertical-center'>(E)</div></div><div class='respDivR'><div class='vertical-center'>(I)</div></div></div>","I","$58","$69","1","58","69","SURE"
"html-keyboard-response","99","55161","0.0-5.0-3.31","63d12f8c48b235842187c959","bdp_rd","Mon Mar 27 2023 20:06:08 GMT-0500 (Central Daylight Time)","81546","","null","","","","offerFB","","<div class='trialBorder'><div class='vertical-center'><img style='vertical-align:center; align:center' src=img/fixation3.jpg></div><div class='cl'><div class='vertical-center'>$69<br>with a<br>50% chance</div></div><div class='cr'><div class='vertical-center'><font style='color:orange'>$58<br>for<br>sure</font></div></div><div class='respDivL'><div class='vertical-center'>(E)</div></div><div class='respDivR'><div class='vertical-center'><font style='color:orange'>(I)</font></div></div></div>","null","$58","$69","1","58","69",""
"html-keyboard-response","100","55669","0.0-5.0-1.32","63d12f8c48b235842187c959","bdp_rd","Mon Mar 27 2023 20:06:08 GMT-0500 (Central Daylight Time)","81546","","null","","","","FIX","","<div class='trialBorder'><div class='vertical-center'><img style='vertical-align:center; align:center' src=img/fixation3.jpg></div></div>","null","","","","","",""
"html-keyboard-response","101","55742","0.0-5.0-2.32","63d12f8c48b235842187c959","bdp_rd","Mon Mar 27 2023 20:06:08 GMT-0500 (Central Daylight Time)","81546","","71","","","","offer","","<div class='trialBorder'><div class='vertical-center'><img style='vertical-align:center; align:center' src=img/fixation3.jpg></div><div class='cl'><div class='vertical-center'>$17<br>for<br>sure</div></div><div class='cr'><div class='vertical-center'>$43<br>with a<br>50% chance</div></div><div class='respDivL'><div class='vertical-center'>(E)</div></div><div class='respDivR'><div class='vertical-center'>(I)</div></div></div>","E","$17","$43","0","17","43","SURE"
"html-keyboard-response","102","55997","0.0-5.0-3.32","63d12f8c48b235842187c959","bdp_rd","Mon Mar 27 2023 20:06:08 GMT-0500 (Central Daylight Time)","81546","","null","","","","offerFB","","<div class='trialBorder'><div class='vertical-center'><img style='vertical-align:center; align:center' src=img/fixation3.jpg></div><div class='cl'><div class='vertical-center'><font style='color:orange'>$17<br>for<br>sure</font></div></div><div class='cr'><div class='vertical-center'>$43<br>with a<br>50% chance</div></div><div class='respDivL'><div class='vertical-center'><font style='color:orange'>(E)</font></div></div><div class='respDivR'><div class='vertical-center'>(I)</div></div></div>","null","$17","$43","0","17","43",""
"html-keyboard-response","103","56502","0.0-5.0-1.33","63d12f8c48b235842187c959","bdp_rd","Mon Mar 27 2023 20:06:08 GMT-0500 (Central Daylight Time)","81546","","null","","","","FIX","","<div class='trialBorder'><div class='vertical-center'><img style='vertical-align:center; align:center' src=img/fixation3.jpg></div></div>","null","","","","","",""
"html-keyboard-response","104","56516","0.0-5.0-2.33","63d12f8c48b235842187c959","bdp_rd","Mon Mar 27 2023 20:06:08 GMT-0500 (Central Daylight Time)","81546","","12","","","","offer","","<div class='trialBorder'><div class='vertical-center'><img style='vertical-align:center; align:center' src=img/fixation3.jpg></div><div class='cl'><div class='vertical-center'>$81<br>with a<br>50% chance</div></div><div class='cr'><div class='vertical-center'>$39<br>for<br>sure</div></div><div class='respDivL'><div class='vertical-center'>(E)</div></div><div class='respDivR'><div class='vertical-center'>(I)</div></div></div>","E","$39","$81","1","39","81","RISKY"
"html-keyboard-response","105","56775","0.0-5.0-3.33","63d12f8c48b235842187c959","bdp_rd","Mon Mar 27 2023 20:06:08 GMT-0500 (Central Daylight Time)","81546","","null","","","","offerFB","","<div class='trialBorder'><div class='vertical-center'><img style='vertical-align:center; align:center' src=img/fixation3.jpg></div><div class='cl'><div class='vertical-center'><font style='color:orange'>$81<br>with a<br>50% chance</font></div></div><div class='cr'><div class='vertical-center'>$39<br>for<br>sure</div></div><div class='respDivL'><div class='vertical-center'><font style='color:orange'>(E)</font></div></div><div class='respDivR'><div class='vertical-center'>(I)</div></div></div>","null","$39","$81","1","39","81",""
"html-keyboard-response","106","57277","0.0-5.0-1.34","63d12f8c48b235842187c959","bdp_rd","Mon Mar 27 2023 20:06:08 GMT-0500 (Central Daylight Time)","81546","","null","","","","FIX","","<div class='trialBorder'><div class='vertical-center'><img style='vertical-align:center; align:center' src=img/fixation3.jpg></div></div>","null","","","","","",""
"html-keyboard-response","107","57653","0.0-5.0-2.34","63d12f8c48b235842187c959","bdp_rd","Mon Mar 27 2023 20:06:08 GMT-0500 (Central Daylight Time)","81546","","374","","","","offer","","<div class='trialBorder'><div class='vertical-center'><img style='vertical-align:center; align:center' src=img/fixation3.jpg></div><div class='cl'><div class='vertical-center'>$13<br>for<br>sure</div></div><div class='cr'><div class='vertical-center'>$41<br>with a<br>50% chance</div></div><div class='respDivL'><div class='vertical-center'>(E)</div></div><div class='respDivR'><div class='vertical-center'>(I)</div></div></div>","I","$13","$41","0","13","41","RISKY"
"html-keyboard-response","108","57911","0.0-5.0-3.34","63d12f8c48b235842187c959","bdp_rd","Mon Mar 27 2023 20:06:08 GMT-0500 (Central Daylight Time)","81546","","null","","","","offerFB","","<div class='trialBorder'><div class='vertical-center'><img style='vertical-align:center; align:center' src=img/fixation3.jpg></div><div class='cl'><div class='vertical-center'>$13<br>for<br>sure</div></div><div class='cr'><div class='vertical-center'><font style='color:orange'>$41<br>with a<br>50% chance</font></div></div><div class='respDivL'><div class='vertical-center'>(E)</div></div><div class='respDivR'><div class='vertical-center'><font style='color:orange'>(I)</font></div></div></div>","null","$13","$41","0","13","41",""
"html-keyboard-response","109","58415","0.0-5.0-1.35","63d12f8c48b235842187c959","bdp_rd","Mon Mar 27 2023 20:06:08 GMT-0500 (Central Daylight Time)","81546","","null","","","","FIX","","<div class='trialBorder'><div class='vertical-center'><img style='vertical-align:center; align:center' src=img/fixation3.jpg></div></div>","null","","","","","",""
"html-keyboard-response","110","58442","0.0-5.0-2.35","63d12f8c48b235842187c959","bdp_rd","Mon Mar 27 2023 20:06:08 GMT-0500 (Central Daylight Time)","81546","","27","","","","offer","","<div class='trialBorder'><div class='vertical-center'><img style='vertical-align:center; align:center' src=img/fixation3.jpg></div><div class='cl'><div class='vertical-center'>$17<br>with a<br>50% chance</div></div><div class='cr'><div class='vertical-center'>$3<br>for<br>sure</div></div><div class='respDivL'><div class='vertical-center'>(E)</div></div><div class='respDivR'><div class='vertical-center'>(I)</div></div></div>","E","$3","$17","1","3","17","RISKY"
"html-keyboard-response","111","58694","0.0-5.0-3.35","63d12f8c48b235842187c959","bdp_rd","Mon Mar 27 2023 20:06:08 GMT-0500 (Central Daylight Time)","81546","","null","","","","offerFB","","<div class='trialBorder'><div class='vertical-center'><img style='vertical-align:center; align:center' src=img/fixation3.jpg></div><div class='cl'><div class='vertical-center'><font style='color:orange'>$17<br>with a<br>50% chance</font></div></div><div class='cr'><div class='vertical-center'>$3<br>for<br>sure</div></div><div class='respDivL'><div class='vertical-center'><font style='color:orange'>(E)</font></div></div><div class='respDivR'><div class='vertical-center'>(I)</div></div></div>","null","$3","$17","1","3","17",""
"html-keyboard-response","112","59197","0.0-5.0-1.36","63d12f8c48b235842187c959","bdp_rd","Mon Mar 27 2023 20:06:08 GMT-0500 (Central Daylight Time)","81546","","null","","","","FIX","","<div class='trialBorder'><div class='vertical-center'><img style='vertical-align:center; align:center' src=img/fixation3.jpg></div></div>","null","","","","","",""
"html-keyboard-response","113","59205","0.0-5.0-2.36","63d12f8c48b235842187c959","bdp_rd","Mon Mar 27 2023 20:06:08 GMT-0500 (Central Daylight Time)","81546","","6","","","","offer","","<div class='trialBorder'><div class='vertical-center'><img style='vertical-align:center; align:center' src=img/fixation3.jpg></div><div class='cl'><div class='vertical-center'>$16<br>with a<br>50% chance</div></div><div class='cr'><div class='vertical-center'>$5<br>for<br>sure</div></div><div class='respDivL'><div class='vertical-center'>(E)</div></div><div class='respDivR'><div class='vertical-center'>(I)</div></div></div>","I","$5","$16","1","5","16","SURE"
"html-keyboard-response","114","59460","0.0-5.0-3.36","63d12f8c48b235842187c959","bdp_rd","Mon Mar 27 2023 20:06:08 GMT-0500 (Central Daylight Time)","81546","","null","","","","offerFB","","<div class='trialBorder'><div class='vertical-center'><img style='vertical-align:center; align:center' src=img/fixation3.jpg></div><div class='cl'><div class='vertical-center'>$16<br>with a<br>50% chance</div></div><div class='cr'><div class='vertical-center'><font style='color:orange'>$5<br>for<br>sure</font></div></div><div class='respDivL'><div class='vertical-center'>(E)</div></div><div class='respDivR'><div class='vertical-center'><font style='color:orange'>(I)</font></div></div></div>","null","$5","$16","1","5","16",""
"html-keyboard-response","115","59964","0.0-5.0-1.37","63d12f8c48b235842187c959","bdp_rd","Mon Mar 27 2023 20:06:08 GMT-0500 (Central Daylight Time)","81546","","null","","","","FIX","","<div class='trialBorder'><div class='vertical-center'><img style='vertical-align:center; align:center' src=img/fixation3.jpg></div></div>","null","","","","","",""
"html-keyboard-response","116","60041","0.0-5.0-2.37","63d12f8c48b235842187c959","bdp_rd","Mon Mar 27 2023 20:06:08 GMT-0500 (Central Daylight Time)","81546","","75","","","","offer","","<div class='trialBorder'><div class='vertical-center'><img style='vertical-align:center; align:center' src=img/fixation3.jpg></div><div class='cl'><div class='vertical-center'>$31<br>for<br>sure</div></div><div class='cr'><div class='vertical-center'>$78<br>with a<br>50% chance</div></div><div class='respDivL'><div class='vertical-center'>(E)</div></div><div class='respDivR'><div class='vertical-center'>(I)</div></div></div>","I","$31","$78","0","31","78","RISKY"
"html-keyboard-response","117","60300","0.0-5.0-3.37","63d12f8c48b235842187c959","bdp_rd","Mon Mar 27 2023 20:06:08 GMT-0500 (Central Daylight Time)","81546","","null","","","","offerFB","","<div class='trialBorder'><div class='vertical-center'><img style='vertical-align:center; align:center' src=img/fixation3.jpg></div><div class='cl'><div class='vertical-center'>$31<br>for<br>sure</div></div><div class='cr'><div class='vertical-center'><font style='color:orange'>$78<br>with a<br>50% chance</font></div></div><div class='respDivL'><div class='vertical-center'>(E)</div></div><div class='respDivR'><div class='vertical-center'><font style='color:orange'>(I)</font></div></div></div>","null","$31","$78","0","31","78",""
"html-keyboard-response","118","60802","0.0-5.0-1.38","63d12f8c48b235842187c959","bdp_rd","Mon Mar 27 2023 20:06:08 GMT-0500 (Central Daylight Time)","81546","","null","","","","FIX","","<div class='trialBorder'><div class='vertical-center'><img style='vertical-align:center; align:center' src=img/fixation3.jpg></div></div>","null","","","","","",""
"html-keyboard-response","119","61178","0.0-5.0-2.38","63d12f8c48b235842187c959","bdp_rd","Mon Mar 27 2023 20:06:08 GMT-0500 (Central Daylight Time)","81546","","375","","","","offer","","<div class='trialBorder'><div class='vertical-center'><img style='vertical-align:center; align:center' src=img/fixation3.jpg></div><div class='cl'><div class='vertical-center'>$21<br>with a<br>50% chance</div></div><div class='cr'><div class='vertical-center'>$2<br>for<br>sure</div></div><div class='respDivL'><div class='vertical-center'>(E)</div></div><div class='respDivR'><div class='vertical-center'>(I)</div></div></div>","E","$2","$21","1","2","21","RISKY"
"html-keyboard-response","120","61438","0.0-5.0-3.38","63d12f8c48b235842187c959","bdp_rd","Mon Mar 27 2023 20:06:08 GMT-0500 (Central Daylight Time)","81546","","null","","","","offerFB","","<div class='trialBorder'><div class='vertical-center'><img style='vertical-align:center; align:center' src=img/fixation3.jpg></div><div class='cl'><div class='vertical-center'><font style='color:orange'>$21<br>with a<br>50% chance</font></div></div><div class='cr'><div class='vertical-center'>$2<br>for<br>sure</div></div><div class='respDivL'><div class='vertical-center'><font style='color:orange'>(E)</font></div></div><div class='respDivR'><div class='vertical-center'>(I)</div></div></div>","null","$2","$21","1","2","21",""
"html-keyboard-response","121","61946","0.0-5.0-1.39","63d12f8c48b235842187c959","bdp_rd","Mon Mar 27 2023 20:06:08 GMT-0500 (Central Daylight Time)","81546","","null","","","","FIX","","<div class='trialBorder'><div class='vertical-center'><img style='vertical-align:center; align:center' src=img/fixation3.jpg></div></div>","null","","","","","",""
"html-keyboard-response","122","62129","0.0-5.0-2.39","63d12f8c48b235842187c959","bdp_rd","Mon Mar 27 2023 20:06:08 GMT-0500 (Central Daylight Time)","81546","","182","","","","offer","","<div class='trialBorder'><div class='vertical-center'><img style='vertical-align:center; align:center' src=img/fixation3.jpg></div><div class='cl'><div class='vertical-center'>$27<br>with a<br>50% chance</div></div><div class='cr'><div class='vertical-center'>$12<br>for<br>sure</div></div><div class='respDivL'><div class='vertical-center'>(E)</div></div><div class='respDivR'><div class='vertical-center'>(I)</div></div></div>","E","$12","$27","1","12","27","RISKY"
"html-keyboard-response","123","62383","0.0-5.0-3.39","63d12f8c48b235842187c959","bdp_rd","Mon Mar 27 2023 20:06:08 GMT-0500 (Central Daylight Time)","81546","","null","","","","offerFB","","<div class='trialBorder'><div class='vertical-center'><img style='vertical-align:center; align:center' src=img/fixation3.jpg></div><div class='cl'><div class='vertical-center'><font style='color:orange'>$27<br>with a<br>50% chance</font></div></div><div class='cr'><div class='vertical-center'>$12<br>for<br>sure</div></div><div class='respDivL'><div class='vertical-center'><font style='color:orange'>(E)</font></div></div><div class='respDivR'><div class='vertical-center'>(I)</div></div></div>","null","$12","$27","1","12","27",""
"html-keyboard-response","124","62886","0.0-5.0-1.40","63d12f8c48b235842187c959","bdp_rd","Mon Mar 27 2023 20:06:08 GMT-0500 (Central Daylight Time)","81546","","null","","","","FIX","","<div class='trialBorder'><div class='vertical-center'><img style='vertical-align:center; align:center' src=img/fixation3.jpg></div></div>","null","","","","","",""
"html-keyboard-response","125","63242","0.0-5.0-2.40","63d12f8c48b235842187c959","bdp_rd","Mon Mar 27 2023 20:06:08 GMT-0500 (Central Daylight Time)","81546","","354","","","","offer","","<div class='trialBorder'><div class='vertical-center'><img style='vertical-align:center; align:center' src=img/fixation3.jpg></div><div class='cl'><div class='vertical-center'>$38<br>with a<br>50% chance</div></div><div class='cr'><div class='vertical-center'>$16<br>for<br>sure</div></div><div class='respDivL'><div class='vertical-center'>(E)</div></div><div class='respDivR'><div class='vertical-center'>(I)</div></div></div>","I","$16","$38","1","16","38","SURE"
"html-keyboard-response","126","63498","0.0-5.0-3.40","63d12f8c48b235842187c959","bdp_rd","Mon Mar 27 2023 20:06:08 GMT-0500 (Central Daylight Time)","81546","","null","","","","offerFB","","<div class='trialBorder'><div class='vertical-center'><img style='vertical-align:center; align:center' src=img/fixation3.jpg></div><div class='cl'><div class='vertical-center'>$38<br>with a<br>50% chance</div></div><div class='cr'><div class='vertical-center'><font style='color:orange'>$16<br>for<br>sure</font></div></div><div class='respDivL'><div class='vertical-center'>(E)</div></div><div class='respDivR'><div class='vertical-center'><font style='color:orange'>(I)</font></div></div></div>","null","$16","$38","1","16","38",""
"html-keyboard-response","127","64002","0.0-5.0-1.41","63d12f8c48b235842187c959","bdp_rd","Mon Mar 27 2023 20:06:08 GMT-0500 (Central Daylight Time)","81546","","null","","","","FIX","","<div class='trialBorder'><div class='vertical-center'><img style='vertical-align:center; align:center' src=img/fixation3.jpg></div></div>","null","","","","","",""
"html-keyboard-response","128","64128","0.0-5.0-2.41","63d12f8c48b235842187c959","bdp_rd","Mon Mar 27 2023 20:06:08 GMT-0500 (Central Daylight Time)","81546","","124","","","","offer","","<div class='trialBorder'><div class='vertical-center'><img style='vertical-align:center; align:center' src=img/fixation3.jpg></div><div class='cl'><div class='vertical-center'>$22<br>with a<br>50% chance</div></div><div class='cr'><div class='vertical-center'>$14<br>for<br>sure</div></div><div class='respDivL'><div class='vertical-center'>(E)</div></div><div class='respDivR'><div class='vertical-center'>(I)</div></div></div>","I","$14","$22","1","14","22","SURE"
"html-keyboard-response","129","64381","0.0-5.0-3.41","63d12f8c48b235842187c959","bdp_rd","Mon Mar 27 2023 20:06:08 GMT-0500 (Central Daylight Time)","81546","","null","","","","offerFB","","<div class='trialBorder'><div class='vertical-center'><img style='vertical-align:center; align:center' src=img/fixation3.jpg></div><div class='cl'><div class='vertical-center'>$22<br>with a<br>50% chance</div></div><div class='cr'><div class='vertical-center'><font style='color:orange'>$14<br>for<br>sure</font></div></div><div class='respDivL'><div class='vertical-center'>(E)</div></div><div class='respDivR'><div class='vertical-center'><font style='color:orange'>(I)</font></div></div></div>","null","$14","$22","1","14","22",""
"html-keyboard-response","130","64889","0.0-5.0-1.42","63d12f8c48b235842187c959","bdp_rd","Mon Mar 27 2023 20:06:08 GMT-0500 (Central Daylight Time)","81546","","null","","","","FIX","","<div class='trialBorder'><div class='vertical-center'><img style='vertical-align:center; align:center' src=img/fixation3.jpg></div></div>","null","","","","","",""
"html-keyboard-response","131","64891","0.0-5.0-2.42","63d12f8c48b235842187c959","bdp_rd","Mon Mar 27 2023 20:06:08 GMT-0500 (Central Daylight Time)","81546","","1","","","","offer","","<div class='trialBorder'><div class='vertical-center'><img style='vertical-align:center; align:center' src=img/fixation3.jpg></div><div class='cl'><div class='vertical-center'>$47<br>with a<br>50% chance</div></div><div class='cr'><div class='vertical-center'>$27<br>for<br>sure</div></div><div class='respDivL'><div class='vertical-center'>(E)</div></div><div class='respDivR'><div class='vertical-center'>(I)</div></div></div>","E","$27","$47","1","27","47","RISKY"
"html-keyboard-response","132","65144","0.0-5.0-3.42","63d12f8c48b235842187c959","bdp_rd","Mon Mar 27 2023 20:06:08 GMT-0500 (Central Daylight Time)","81546","","null","","","","offerFB","","<div class='trialBorder'><div class='vertical-center'><img style='vertical-align:center; align:center' src=img/fixation3.jpg></div><div class='cl'><div class='vertical-center'><font style='color:orange'>$47<br>with a<br>50% chance</font></div></div><div class='cr'><div class='vertical-center'>$27<br>for<br>sure</div></div><div class='respDivL'><div class='vertical-center'><font style='color:orange'>(E)</font></div></div><div class='respDivR'><div class='vertical-center'>(I)</div></div></div>","null","$27","$47","1","27","47",""
"html-keyboard-response","133","65646","0.0-5.0-1.43","63d12f8c48b235842187c959","bdp_rd","Mon Mar 27 2023 20:06:08 GMT-0500 (Central Daylight Time)","81546","","null","","","","FIX","","<div class='trialBorder'><div class='vertical-center'><img style='vertical-align:center; align:center' src=img/fixation3.jpg></div></div>","null","","","","","",""
"html-keyboard-response","134","65835","0.0-5.0-2.43","63d12f8c48b235842187c959","bdp_rd","Mon Mar 27 2023 20:06:08 GMT-0500 (Central Daylight Time)","81546","","188","","","","offer","","<div class='trialBorder'><div class='vertical-center'><img style='vertical-align:center; align:center' src=img/fixation3.jpg></div><div class='cl'><div class='vertical-center'>$18<br>for<br>sure</div></div><div class='cr'><div class='vertical-center'>$36<br>with a<br>50% chance</div></div><div class='respDivL'><div class='vertical-center'>(E)</div></div><div class='respDivR'><div class='vertical-center'>(I)</div></div></div>","E","$18","$36","0","18","36","SURE"
"html-keyboard-response","135","66090","0.0-5.0-3.43","63d12f8c48b235842187c959","bdp_rd","Mon Mar 27 2023 20:06:08 GMT-0500 (Central Daylight Time)","81546","","null","","","","offerFB","","<div class='trialBorder'><div class='vertical-center'><img style='vertical-align:center; align:center' src=img/fixation3.jpg></div><div class='cl'><div class='vertical-center'><font style='color:orange'>$18<br>for<br>sure</font></div></div><div class='cr'><div class='vertical-center'>$36<br>with a<br>50% chance</div></div><div class='respDivL'><div class='vertical-center'><font style='color:orange'>(E)</font></div></div><div class='respDivR'><div class='vertical-center'>(I)</div></div></div>","null","$18","$36","0","18","36",""
"html-keyboard-response","136","66595","0.0-5.0-1.44","63d12f8c48b235842187c959","bdp_rd","Mon Mar 27 2023 20:06:08 GMT-0500 (Central Daylight Time)","81546","","null","","","","FIX","","<div class='trialBorder'><div class='vertical-center'><img style='vertical-align:center; align:center' src=img/fixation3.jpg></div></div>","null","","","","","",""
"html-keyboard-response","137","66684","0.0-5.0-2.44","63d12f8c48b235842187c959","bdp_rd","Mon Mar 27 2023 20:06:08 GMT-0500 (Central Daylight Time)","81546","","87","","","","offer","","<div class='trialBorder'><div class='vertical-center'><img style='vertical-align:center; align:center' src=img/fixation3.jpg></div><div class='cl'><div class='vertical-center'>$25<br>for<br>sure</div></div><div class='cr'><div class='vertical-center'>$54<br>with a<br>50% chance</div></div><div class='respDivL'><div class='vertical-center'>(E)</div></div><div class='respDivR'><div class='vertical-center'>(I)</div></div></div>","E","$25","$54","0","25","54","SURE"
"html-keyboard-response","138","66940","0.0-5.0-3.44","63d12f8c48b235842187c959","bdp_rd","Mon Mar 27 2023 20:06:08 GMT-0500 (Central Daylight Time)","81546","","null","","","","offerFB","","<div class='trialBorder'><div class='vertical-center'><img style='vertical-align:center; align:center' src=img/fixation3.jpg></div><div class='cl'><div class='vertical-center'><font style='color:orange'>$25<br>for<br>sure</font></div></div><div class='cr'><div class='vertical-center'>$54<br>with a<br>50% chance</div></div><div class='respDivL'><div class='vertical-center'><font style='color:orange'>(E)</font></div></div><div class='respDivR'><div class='vertical-center'>(I)</div></div></div>","null","$25","$54","0","25","54",""
"html-keyboard-response","139","67446","0.0-5.0-1.45","63d12f8c48b235842187c959","bdp_rd","Mon Mar 27 2023 20:06:08 GMT-0500 (Central Daylight Time)","81546","","null","","","","FIX","","<div class='trialBorder'><div class='vertical-center'><img style='vertical-align:center; align:center' src=img/fixation3.jpg></div></div>","null","","","","","",""
"html-keyboard-response","140","67485","0.0-5.0-2.45","63d12f8c48b235842187c959","bdp_rd","Mon Mar 27 2023 20:06:08 GMT-0500 (Central Daylight Time)","81546","","36","","","","offer","","<div class='trialBorder'><div class='vertical-center'><img style='vertical-align:center; align:center' src=img/fixation3.jpg></div><div class='cl'><div class='vertical-center'>$42<br>with a<br>50% chance</div></div><div class='cr'><div class='vertical-center'>$22<br>for<br>sure</div></div><div class='respDivL'><div class='vertical-center'>(E)</div></div><div class='respDivR'><div class='vertical-center'>(I)</div></div></div>","I","$22","$42","1","22","42","SURE"
"html-keyboard-response","141","67742","0.0-5.0-3.45","63d12f8c48b235842187c959","bdp_rd","Mon Mar 27 2023 20:06:08 GMT-0500 (Central Daylight Time)","81546","","null","","","","offerFB","","<div class='trialBorder'><div class='vertical-center'><img style='vertical-align:center; align:center' src=img/fixation3.jpg></div><div class='cl'><div class='vertical-center'>$42<br>with a<br>50% chance</div></div><div class='cr'><div class='vertical-center'><font style='color:orange'>$22<br>for<br>sure</font></div></div><div class='respDivL'><div class='vertical-center'>(E)</div></div><div class='respDivR'><div class='vertical-center'><font style='color:orange'>(I)</font></div></div></div>","null","$22","$42","1","22","42",""
"html-keyboard-response","142","68245","0.0-5.0-1.46","63d12f8c48b235842187c959","bdp_rd","Mon Mar 27 2023 20:06:08 GMT-0500 (Central Daylight Time)","81546","","null","","","","FIX","","<div class='trialBorder'><div class='vertical-center'><img style='vertical-align:center; align:center' src=img/fixation3.jpg></div></div>","null","","","","","",""
"html-keyboard-response","143","68390","0.0-5.0-2.46","63d12f8c48b235842187c959","bdp_rd","Mon Mar 27 2023 20:06:08 GMT-0500 (Central Daylight Time)","81546","","143","","","","offer","","<div class='trialBorder'><div class='vertical-center'><img style='vertical-align:center; align:center' src=img/fixation3.jpg></div><div class='cl'><div class='vertical-center'>$34<br>with a<br>50% chance</div></div><div class='cr'><div class='vertical-center'>$15<br>for<br>sure</div></div><div class='respDivL'><div class='vertical-center'>(E)</div></div><div class='respDivR'><div class='vertical-center'>(I)</div></div></div>","I","$15","$34","1","15","34","SURE"
"html-keyboard-response","144","68647","0.0-5.0-3.46","63d12f8c48b235842187c959","bdp_rd","Mon Mar 27 2023 20:06:08 GMT-0500 (Central Daylight Time)","81546","","null","","","","offerFB","","<div class='trialBorder'><div class='vertical-center'><img style='vertical-align:center; align:center' src=img/fixation3.jpg></div><div class='cl'><div class='vertical-center'>$34<br>with a<br>50% chance</div></div><div class='cr'><div class='vertical-center'><font style='color:orange'>$15<br>for<br>sure</font></div></div><div class='respDivL'><div class='vertical-center'>(E)</div></div><div class='respDivR'><div class='vertical-center'><font style='color:orange'>(I)</font></div></div></div>","null","$15","$34","1","15","34",""
"html-keyboard-response","145","69151","0.0-5.0-1.47","63d12f8c48b235842187c959","bdp_rd","Mon Mar 27 2023 20:06:08 GMT-0500 (Central Daylight Time)","81546","","null","","","","FIX","","<div class='trialBorder'><div class='vertical-center'><img style='vertical-align:center; align:center' src=img/fixation3.jpg></div></div>","null","","","","","",""
"html-keyboard-response","146","69521","0.0-5.0-2.47","63d12f8c48b235842187c959","bdp_rd","Mon Mar 27 2023 20:06:08 GMT-0500 (Central Daylight Time)","81546","","367","","","","offer","","<div class='trialBorder'><div class='vertical-center'><img style='vertical-align:center; align:center' src=img/fixation3.jpg></div><div class='cl'><div class='vertical-center'>$73<br>with a<br>50% chance</div></div><div class='cr'><div class='vertical-center'>$42<br>for<br>sure</div></div><div class='respDivL'><div class='vertical-center'>(E)</div></div><div class='respDivR'><div class='vertical-center'>(I)</div></div></div>","E","$42","$73","1","42","73","RISKY"
"html-keyboard-response","147","69776","0.0-5.0-3.47","63d12f8c48b235842187c959","bdp_rd","Mon Mar 27 2023 20:06:08 GMT-0500 (Central Daylight Time)","81546","","null","","","","offerFB","","<div class='trialBorder'><div class='vertical-center'><img style='vertical-align:center; align:center' src=img/fixation3.jpg></div><div class='cl'><div class='vertical-center'><font style='color:orange'>$73<br>with a<br>50% chance</font></div></div><div class='cr'><div class='vertical-center'>$42<br>for<br>sure</div></div><div class='respDivL'><div class='vertical-center'><font style='color:orange'>(E)</font></div></div><div class='respDivR'><div class='vertical-center'>(I)</div></div></div>","null","$42","$73","1","42","73",""
"html-keyboard-response","148","70280","0.0-5.0-1.48","63d12f8c48b235842187c959","bdp_rd","Mon Mar 27 2023 20:06:08 GMT-0500 (Central Daylight Time)","81546","","null","","","","FIX","","<div class='trialBorder'><div class='vertical-center'><img style='vertical-align:center; align:center' src=img/fixation3.jpg></div></div>","null","","","","","",""
"html-keyboard-response","149","70417","0.0-5.0-2.48","63d12f8c48b235842187c959","bdp_rd","Mon Mar 27 2023 20:06:08 GMT-0500 (Central Daylight Time)","81546","","135","","","","offer","","<div class='trialBorder'><div class='vertical-center'><img style='vertical-align:center; align:center' src=img/fixation3.jpg></div><div class='cl'><div class='vertical-center'>$45<br>for<br>sure</div></div><div class='cr'><div class='vertical-center'>$86<br>with a<br>50% chance</div></div><div class='respDivL'><div class='vertical-center'>(E)</div></div><div class='respDivR'><div class='vertical-center'>(I)</div></div></div>","E","$45","$86","0","45","86","SURE"
"html-keyboard-response","150","70675","0.0-5.0-3.48","63d12f8c48b235842187c959","bdp_rd","Mon Mar 27 2023 20:06:08 GMT-0500 (Central Daylight Time)","81546","","null","","","","offerFB","","<div class='trialBorder'><div class='vertical-center'><img style='vertical-align:center; align:center' src=img/fixation3.jpg></div><div class='cl'><div class='vertical-center'><font style='color:orange'>$45<br>for<br>sure</font></div></div><div class='cr'><div class='vertical-center'>$86<br>with a<br>50% chance</div></div><div class='respDivL'><div class='vertical-center'><font style='color:orange'>(E)</font></div></div><div class='respDivR'><div class='vertical-center'>(I)</div></div></div>","null","$45","$86","0","45","86",""
"html-keyboard-response","151","71179","0.0-5.0-1.49","63d12f8c48b235842187c959","bdp_rd","Mon Mar 27 2023 20:06:08 GMT-0500 (Central Daylight Time)","81546","","null","","","","FIX","","<div class='trialBorder'><div class='vertical-center'><img style='vertical-align:center; align:center' src=img/fixation3.jpg></div></div>","null","","","","","",""
"html-keyboard-response","152","71228","0.0-5.0-2.49","63d12f8c48b235842187c959","bdp_rd","Mon Mar 27 2023 20:06:08 GMT-0500 (Central Daylight Time)","81546","","47","","","","offer","","<div class='trialBorder'><div class='vertical-center'><img style='vertical-align:center; align:center' src=img/fixation3.jpg></div><div class='cl'><div class='vertical-center'>$19<br>for<br>sure</div></div><div class='cr'><div class='vertical-center'>$51<br>with a<br>50% chance</div></div><div class='respDivL'><div class='vertical-center'>(E)</div></div><div class='respDivR'><div class='vertical-center'>(I)</div></div></div>","E","$19","$51","0","19","51","SURE"
"html-keyboard-response","153","71488","0.0-5.0-3.49","63d12f8c48b235842187c959","bdp_rd","Mon Mar 27 2023 20:06:08 GMT-0500 (Central Daylight Time)","81546","","null","","","","offerFB","","<div class='trialBorder'><div class='vertical-center'><img style='vertical-align:center; align:center' src=img/fixation3.jpg></div><div class='cl'><div class='vertical-center'><font style='color:orange'>$19<br>for<br>sure</font></div></div><div class='cr'><div class='vertical-center'>$51<br>with a<br>50% chance</div></div><div class='respDivL'><div class='vertical-center'><font style='color:orange'>(E)</font></div></div><div class='respDivR'><div class='vertical-center'>(I)</div></div></div>","null","$19","$51","0","19","51",""
"html-keyboard-response","154","71996","0.0-5.0-1.50","63d12f8c48b235842187c959","bdp_rd","Mon Mar 27 2023 20:06:08 GMT-0500 (Central Daylight Time)","81546","","null","","","","FIX","","<div class='trialBorder'><div class='vertical-center'><img style='vertical-align:center; align:center' src=img/fixation3.jpg></div></div>","null","","","","","",""
"html-keyboard-response","155","72065","0.0-5.0-2.50","63d12f8c48b235842187c959","bdp_rd","Mon Mar 27 2023 20:06:08 GMT-0500 (Central Daylight Time)","81546","","67","","","","offer","","<div class='trialBorder'><div class='vertical-center'><img style='vertical-align:center; align:center' src=img/fixation3.jpg></div><div class='cl'><div class='vertical-center'>$28<br>with a<br>50% chance</div></div><div class='cr'><div class='vertical-center'>$16<br>for<br>sure</div></div><div class='respDivL'><div class='vertical-center'>(E)</div></div><div class='respDivR'><div class='vertical-center'>(I)</div></div></div>","I","$16","$28","1","16","28","SURE"
"html-keyboard-response","156","72324","0.0-5.0-3.50","63d12f8c48b235842187c959","bdp_rd","Mon Mar 27 2023 20:06:08 GMT-0500 (Central Daylight Time)","81546","","null","","","","offerFB","","<div class='trialBorder'><div class='vertical-center'><img style='vertical-align:center; align:center' src=img/fixation3.jpg></div><div class='cl'><div class='vertical-center'>$28<br>with a<br>50% chance</div></div><div class='cr'><div class='vertical-center'><font style='color:orange'>$16<br>for<br>sure</font></div></div><div class='respDivL'><div class='vertical-center'>(E)</div></div><div class='respDivR'><div class='vertical-center'><font style='color:orange'>(I)</font></div></div></div>","null","$16","$28","1","16","28",""
"html-keyboard-response","157","72828","0.0-5.0-1.51","63d12f8c48b235842187c959","bdp_rd","Mon Mar 27 2023 20:06:08 GMT-0500 (Central Daylight Time)","81546","","null","","","","FIX","","<div class='trialBorder'><div class='vertical-center'><img style='vertical-align:center; align:center' src=img/fixation3.jpg></div></div>","null","","","","","",""
"html-keyboard-response","158","72958","0.0-5.0-2.51","63d12f8c48b235842187c959","bdp_rd","Mon Mar 27 2023 20:06:08 GMT-0500 (Central Daylight Time)","81546","","129","","","","offer","","<div class='trialBorder'><div class='vertical-center'><img style='vertical-align:center; align:center' src=img/fixation3.jpg></div><div class='cl'><div class='vertical-center'>$37<br>for<br>sure</div></div><div class='cr'><div class='vertical-center'>$44<br>with a<br>50% chance</div></div><div class='respDivL'><div class='vertical-center'>(E)</div></div><div class='respDivR'><div class='vertical-center'>(I)</div></div></div>","I","$37","$44","0","37","44","RISKY"
"html-keyboard-response","159","73214","0.0-5.0-3.51","63d12f8c48b235842187c959","bdp_rd","Mon Mar 27 2023 20:06:08 GMT-0500 (Central Daylight Time)","81546","","null","","","","offerFB","","<div class='trialBorder'><div class='vertical-center'><img style='vertical-align:center; align:center' src=img/fixation3.jpg></div><div class='cl'><div class='vertical-center'>$37<br>for<br>sure</div></div><div class='cr'><div class='vertical-center'><font style='color:orange'>$44<br>with a<br>50% chance</font></div></div><div class='respDivL'><div class='vertical-center'>(E)</div></div><div class='respDivR'><div class='vertical-center'><font style='color:orange'>(I)</font></div></div></div>","null","$37","$44","0","37","44",""
"html-keyboard-response","160","73717","0.0-5.0-1.52","63d12f8c48b235842187c959","bdp_rd","Mon Mar 27 2023 20:06:08 GMT-0500 (Central Daylight Time)","81546","","null","","","","FIX","","<div class='trialBorder'><div class='vertical-center'><img style='vertical-align:center; align:center' src=img/fixation3.jpg></div></div>","null","","","","","",""
"html-keyboard-response","161","73729","0.0-5.0-2.52","63d12f8c48b235842187c959","bdp_rd","Mon Mar 27 2023 20:06:08 GMT-0500 (Central Daylight Time)","81546","","11","","","","offer","","<div class='trialBorder'><div class='vertical-center'><img style='vertical-align:center; align:center' src=img/fixation3.jpg></div><div class='cl'><div class='vertical-center'>$40<br>with a<br>50% chance</div></div><div class='cr'><div class='vertical-center'>$10<br>for<br>sure</div></div><div class='respDivL'><div class='vertical-center'>(E)</div></div><div class='respDivR'><div class='vertical-center'>(I)</div></div></div>","E","$10","$40","1","10","40","RISKY"
"html-keyboard-response","162","73997","0.0-5.0-3.52","63d12f8c48b235842187c959","bdp_rd","Mon Mar 27 2023 20:06:08 GMT-0500 (Central Daylight Time)","81546","","null","","","","offerFB","","<div class='trialBorder'><div class='vertical-center'><img style='vertical-align:center; align:center' src=img/fixation3.jpg></div><div class='cl'><div class='vertical-center'><font style='color:orange'>$40<br>with a<br>50% chance</font></div></div><div class='cr'><div class='vertical-center'>$10<br>for<br>sure</div></div><div class='respDivL'><div class='vertical-center'><font style='color:orange'>(E)</font></div></div><div class='respDivR'><div class='vertical-center'>(I)</div></div></div>","null","$10","$40","1","10","40",""
"html-keyboard-response","163","74500","0.0-5.0-1.53","63d12f8c48b235842187c959","bdp_rd","Mon Mar 27 2023 20:06:08 GMT-0500 (Central Daylight Time)","81546","","null","","","","FIX","","<div class='trialBorder'><div class='vertical-center'><img style='vertical-align:center; align:center' src=img/fixation3.jpg></div></div>","null","","","","","",""
"html-keyboard-response","164","74583","0.0-5.0-2.53","63d12f8c48b235842187c959","bdp_rd","Mon Mar 27 2023 20:06:08 GMT-0500 (Central Daylight Time)","81546","","79","","","","offer","","<div class='trialBorder'><div class='vertical-center'><img style='vertical-align:center; align:center' src=img/fixation3.jpg></div><div class='cl'><div class='vertical-center'>$15<br>for<br>sure</div></div><div class='cr'><div class='vertical-center'>$31<br>with a<br>50% chance</div></div><div class='respDivL'><div class='vertical-center'>(E)</div></div><div class='respDivR'><div class='vertical-center'>(I)</div></div></div>","E","$15","$31","0","15","31","SURE"
"html-keyboard-response","165","74841","0.0-5.0-3.53","63d12f8c48b235842187c959","bdp_rd","Mon Mar 27 2023 20:06:08 GMT-0500 (Central Daylight Time)","81546","","null","","","","offerFB","","<div class='trialBorder'><div class='vertical-center'><img style='vertical-align:center; align:center' src=img/fixation3.jpg></div><div class='cl'><div class='vertical-center'><font style='color:orange'>$15<br>for<br>sure</font></div></div><div class='cr'><div class='vertical-center'>$31<br>with a<br>50% chance</div></div><div class='respDivL'><div class='vertical-center'><font style='color:orange'>(E)</font></div></div><div class='respDivR'><div class='vertical-center'>(I)</div></div></div>","null","$15","$31","0","15","31",""
"html-keyboard-response","166","75345","0.0-5.0-1.54","63d12f8c48b235842187c959","bdp_rd","Mon Mar 27 2023 20:06:08 GMT-0500 (Central Daylight Time)","81546","","null","","","","FIX","","<div class='trialBorder'><div class='vertical-center'><img style='vertical-align:center; align:center' src=img/fixation3.jpg></div></div>","null","","","","","",""
"html-keyboard-response","167","75395","0.0-5.0-2.54","63d12f8c48b235842187c959","bdp_rd","Mon Mar 27 2023 20:06:08 GMT-0500 (Central Daylight Time)","81546","","46","","","","offer","","<div class='trialBorder'><div class='vertical-center'><img style='vertical-align:center; align:center' src=img/fixation3.jpg></div><div class='cl'><div class='vertical-center'>$30<br>for<br>sure</div></div><div class='cr'><div class='vertical-center'>$68<br>with a<br>50% chance</div></div><div class='respDivL'><div class='vertical-center'>(E)</div></div><div class='respDivR'><div class='vertical-center'>(I)</div></div></div>","I","$30","$68","0","30","68","RISKY"
"html-keyboard-response","168","75649","0.0-5.0-3.54","63d12f8c48b235842187c959","bdp_rd","Mon Mar 27 2023 20:06:08 GMT-0500 (Central Daylight Time)","81546","","null","","","","offerFB","","<div class='trialBorder'><div class='vertical-center'><img style='vertical-align:center; align:center' src=img/fixation3.jpg></div><div class='cl'><div class='vertical-center'>$30<br>for<br>sure</div></div><div class='cr'><div class='vertical-center'><font style='color:orange'>$68<br>with a<br>50% chance</font></div></div><div class='respDivL'><div class='vertical-center'>(E)</div></div><div class='respDivR'><div class='vertical-center'><font style='color:orange'>(I)</font></div></div></div>","null","$30","$68","0","30","68",""
"html-keyboard-response","169","76153","0.0-5.0-1.55","63d12f8c48b235842187c959","bdp_rd","Mon Mar 27 2023 20:06:08 GMT-0500 (Central Daylight Time)","81546","","null","","","","FIX","","<div class='trialBorder'><div class='vertical-center'><img style='vertical-align:center; align:center' src=img/fixation3.jpg></div></div>","null","","","","","",""
"html-keyboard-response","170","76288","0.0-5.0-2.55","63d12f8c48b235842187c959","bdp_rd","Mon Mar 27 2023 20:06:08 GMT-0500 (Central Daylight Time)","81546","","133","","","","offer","","<div class='trialBorder'><div class='vertical-center'><img style='vertical-align:center; align:center' src=img/fixation3.jpg></div><div class='cl'><div class='vertical-center'>$9<br>for<br>sure</div></div><div class='cr'><div class='vertical-center'>$32<br>with a<br>50% chance</div></div><div class='respDivL'><div class='vertical-center'>(E)</div></div><div class='respDivR'><div class='vertical-center'>(I)</div></div></div>","I","$9","$32","0","9","32","RISKY"
"html-keyboard-response","171","76545","0.0-5.0-3.55","63d12f8c48b235842187c959","bdp_rd","Mon Mar 27 2023 20:06:08 GMT-0500 (Central Daylight Time)","81546","","null","","","","offerFB","","<div class='trialBorder'><div class='vertical-center'><img style='vertical-align:center; align:center' src=img/fixation3.jpg></div><div class='cl'><div class='vertical-center'>$9<br>for<br>sure</div></div><div class='cr'><div class='vertical-center'><font style='color:orange'>$32<br>with a<br>50% chance</font></div></div><div class='respDivL'><div class='vertical-center'>(E)</div></div><div class='respDivR'><div class='vertical-center'><font style='color:orange'>(I)</font></div></div></div>","null","$9","$32","0","9","32",""
"html-keyboard-response","172","77048","0.0-5.0-1.56","63d12f8c48b235842187c959","bdp_rd","Mon Mar 27 2023 20:06:08 GMT-0500 (Central Daylight Time)","81546","","null","","","","FIX","","<div class='trialBorder'><div class='vertical-center'><img style='vertical-align:center; align:center' src=img/fixation3.jpg></div></div>","null","","","","","",""
"html-keyboard-response","173","77458","0.0-5.0-2.56","63d12f8c48b235842187c959","bdp_rd","Mon Mar 27 2023 20:06:08 GMT-0500 (Central Daylight Time)","81546","","407","","","","offer","","<div class='trialBorder'><div class='vertical-center'><img style='vertical-align:center; align:center' src=img/fixation3.jpg></div><div class='cl'><div class='vertical-center'>$92<br>with a<br>50% chance</div></div><div class='cr'><div class='vertical-center'>$26<br>for<br>sure</div></div><div class='respDivL'><div class='vertical-center'>(E)</div></div><div class='respDivR'><div class='vertical-center'>(I)</div></div></div>","E","$26","$92","1","26","92","RISKY"
"html-keyboard-response","174","77717","0.0-5.0-3.56","63d12f8c48b235842187c959","bdp_rd","Mon Mar 27 2023 20:06:08 GMT-0500 (Central Daylight Time)","81546","","null","","","","offerFB","","<div class='trialBorder'><div class='vertical-center'><img style='vertical-align:center; align:center' src=img/fixation3.jpg></div><div class='cl'><div class='vertical-center'><font style='color:orange'>$92<br>with a<br>50% chance</font></div></div><div class='cr'><div class='vertical-center'>$26<br>for<br>sure</div></div><div class='respDivL'><div class='vertical-center'><font style='color:orange'>(E)</font></div></div><div class='respDivR'><div class='vertical-center'>(I)</div></div></div>","null","$26","$92","1","26","92",""
