"trial_type","trial_index","time_elapsed","internal_node_id","subject_id","task","startTime","totalTime","view_history","rt","event","trial","time","trialtype","success","stimulus","key_press","sureOffer","riskyOffer","riskyLeft","sureAmt","riskyAmt","chosen"
"pavlovia","0","3","0.0-0.0","63daf5a89c63648ec34664fb","bdp_rd","Sun Mar 26 2023 20:33:05 GMT-0400 (Eastern Daylight Time)","156560","","","","","","","","","","","","","","",""
"instructions","1","1157","0.0-1.0","63daf5a89c63648ec34664fb","bdp_rd","Sun Mar 26 2023 20:33:05 GMT-0400 (Eastern Daylight Time)","156560","[{""page_index"":0,""viewing_time"":1153}]","1153","","","","","","","","","","","","",""
"","","","","63daf5a89c63648ec34664fb","bdp_rd","Sun Mar 26 2023 20:33:05 GMT-0400 (Eastern Daylight Time)","156560","","","fullscreenenter","2","2882","fullscreenenter","","","","","","","","",""
"fullscreen","2","3865","0.0-2.0","63daf5a89c63648ec34664fb","bdp_rd","Sun Mar 26 2023 20:33:05 GMT-0400 (Eastern Daylight Time)","156560","","","","","","","true","","","","","","","",""
"instructions","3","29469","0.0-4.0","63daf5a89c63648ec34664fb","bdp_rd","Sun Mar 26 2023 20:33:05 GMT-0400 (Eastern Daylight Time)","156560","[{""page_index"":0,""viewing_time"":21091},{""page_index"":1,""viewing_time"":1137},{""page_index"":2,""viewing_time"":3374}]","25603","","","","","","","","","","","","",""
"html-keyboard-response","4","29970","0.0-5.0-1.0","63daf5a89c63648ec34664fb","bdp_rd","Sun Mar 26 2023 20:33:05 GMT-0400 (Eastern Daylight Time)","156560","","null","","","","FIX","","<div class='trialBorder'><div class='vertical-center'><img style='vertical-align:center; align:center' src=img/fixation3.jpg></div></div>","null","","","","","",""
"html-keyboard-response","5","32269","0.0-5.0-2.0","63daf5a89c63648ec34664fb","bdp_rd","Sun Mar 26 2023 20:33:05 GMT-0400 (Eastern Daylight Time)","156560","","2298","","","","offer","","<div class='trialBorder'><div class='vertical-center'><img style='vertical-align:center; align:center' src=img/fixation3.jpg></div><div class='cl'><div class='vertical-center'>$27<br>with a<br>50% chance</div></div><div class='cr'><div class='vertical-center'>$12<br>for<br>sure</div></div><div class='respDivL'><div class='vertical-center'>(E)</div></div><div class='respDivR'><div class='vertical-center'>(I)</div></div></div>","I","$12","$27","1","12","27","SURE"
"html-keyboard-response","6","32530","0.0-5.0-3.0","63daf5a89c63648ec34664fb","bdp_rd","Sun Mar 26 2023 20:33:05 GMT-0400 (Eastern Daylight Time)","156560","","null","","","","offerFB","","<div class='trialBorder'><div class='vertical-center'><img style='vertical-align:center; align:center' src=img/fixation3.jpg></div><div class='cl'><div class='vertical-center'>$27<br>with a<br>50% chance</div></div><div class='cr'><div class='vertical-center'><font style='color:orange'>$12<br>for<br>sure</font></div></div><div class='respDivL'><div class='vertical-center'>(E)</div></div><div class='respDivR'><div class='vertical-center'><font style='color:orange'>(I)</font></div></div></div>","null","$12","$27","1","12","27",""
"html-keyboard-response","7","33035","0.0-5.0-1.1","63daf5a89c63648ec34664fb","bdp_rd","Sun Mar 26 2023 20:33:05 GMT-0400 (Eastern Daylight Time)","156560","","null","","","","FIX","","<div class='trialBorder'><div class='vertical-center'><img style='vertical-align:center; align:center' src=img/fixation3.jpg></div></div>","null","","","","","",""
"html-keyboard-response","8","35205","0.0-5.0-2.1","63daf5a89c63648ec34664fb","bdp_rd","Sun Mar 26 2023 20:33:05 GMT-0400 (Eastern Daylight Time)","156560","","2168","","","","offer","","<div class='trialBorder'><div class='vertical-center'><img style='vertical-align:center; align:center' src=img/fixation3.jpg></div><div class='cl'><div class='vertical-center'>$9<br>for<br>sure</div></div><div class='cr'><div class='vertical-center'>$18<br>with a<br>50% chance</div></div><div class='respDivL'><div class='vertical-center'>(E)</div></div><div class='respDivR'><div class='vertical-center'>(I)</div></div></div>","E","$9","$18","0","9","18","SURE"
"html-keyboard-response","9","35467","0.0-5.0-3.1","63daf5a89c63648ec34664fb","bdp_rd","Sun Mar 26 2023 20:33:05 GMT-0400 (Eastern Daylight Time)","156560","","null","","","","offerFB","","<div class='trialBorder'><div class='vertical-center'><img style='vertical-align:center; align:center' src=img/fixation3.jpg></div><div class='cl'><div class='vertical-center'><font style='color:orange'>$9<br>for<br>sure</font></div></div><div class='cr'><div class='vertical-center'>$18<br>with a<br>50% chance</div></div><div class='respDivL'><div class='vertical-center'><font style='color:orange'>(E)</font></div></div><div class='respDivR'><div class='vertical-center'>(I)</div></div></div>","null","$9","$18","0","9","18",""
"html-keyboard-response","10","35978","0.0-5.0-1.2","63daf5a89c63648ec34664fb","bdp_rd","Sun Mar 26 2023 20:33:05 GMT-0400 (Eastern Daylight Time)","156560","","null","","","","FIX","","<div class='trialBorder'><div class='vertical-center'><img style='vertical-align:center; align:center' src=img/fixation3.jpg></div></div>","null","","","","","",""
"html-keyboard-response","11","38022","0.0-5.0-2.2","63daf5a89c63648ec34664fb","bdp_rd","Sun Mar 26 2023 20:33:05 GMT-0400 (Eastern Daylight Time)","156560","","2043","","","","offer","","<div class='trialBorder'><div class='vertical-center'><img style='vertical-align:center; align:center' src=img/fixation3.jpg></div><div class='cl'><div class='vertical-center'>$16<br>for<br>sure</div></div><div class='cr'><div class='vertical-center'>$28<br>with a<br>50% chance</div></div><div class='respDivL'><div class='vertical-center'>(E)</div></div><div class='respDivR'><div class='vertical-center'>(I)</div></div></div>","E","$16","$28","0","16","28","SURE"
"html-keyboard-response","12","38283","0.0-5.0-3.2","63daf5a89c63648ec34664fb","bdp_rd","Sun Mar 26 2023 20:33:05 GMT-0400 (Eastern Daylight Time)","156560","","null","","","","offerFB","","<div class='trialBorder'><div class='vertical-center'><img style='vertical-align:center; align:center' src=img/fixation3.jpg></div><div class='cl'><div class='vertical-center'><font style='color:orange'>$16<br>for<br>sure</font></div></div><div class='cr'><div class='vertical-center'>$28<br>with a<br>50% chance</div></div><div class='respDivL'><div class='vertical-center'><font style='color:orange'>(E)</font></div></div><div class='respDivR'><div class='vertical-center'>(I)</div></div></div>","null","$16","$28","0","16","28",""
"html-keyboard-response","13","38793","0.0-5.0-1.3","63daf5a89c63648ec34664fb","bdp_rd","Sun Mar 26 2023 20:33:05 GMT-0400 (Eastern Daylight Time)","156560","","null","","","","FIX","","<div class='trialBorder'><div class='vertical-center'><img style='vertical-align:center; align:center' src=img/fixation3.jpg></div></div>","null","","","","","",""
"html-keyboard-response","14","40140","0.0-5.0-2.3","63daf5a89c63648ec34664fb","bdp_rd","Sun Mar 26 2023 20:33:05 GMT-0400 (Eastern Daylight Time)","156560","","1346","","","","offer","","<div class='trialBorder'><div class='vertical-center'><img style='vertical-align:center; align:center' src=img/fixation3.jpg></div><div class='cl'><div class='vertical-center'>$54<br>with a<br>50% chance</div></div><div class='cr'><div class='vertical-center'>$25<br>for<br>sure</div></div><div class='respDivL'><div class='vertical-center'>(E)</div></div><div class='respDivR'><div class='vertical-center'>(I)</div></div></div>","I","$25","$54","1","25","54","SURE"
"html-keyboard-response","15","40401","0.0-5.0-3.3","63daf5a89c63648ec34664fb","bdp_rd","Sun Mar 26 2023 20:33:05 GMT-0400 (Eastern Daylight Time)","156560","","null","","","","offerFB","","<div class='trialBorder'><div class='vertical-center'><img style='vertical-align:center; align:center' src=img/fixation3.jpg></div><div class='cl'><div class='vertical-center'>$54<br>with a<br>50% chance</div></div><div class='cr'><div class='vertical-center'><font style='color:orange'>$25<br>for<br>sure</font></div></div><div class='respDivL'><div class='vertical-center'>(E)</div></div><div class='respDivR'><div class='vertical-center'><font style='color:orange'>(I)</font></div></div></div>","null","$25","$54","1","25","54",""
"html-keyboard-response","16","40906","0.0-5.0-1.4","63daf5a89c63648ec34664fb","bdp_rd","Sun Mar 26 2023 20:33:05 GMT-0400 (Eastern Daylight Time)","156560","","null","","","","FIX","","<div class='trialBorder'><div class='vertical-center'><img style='vertical-align:center; align:center' src=img/fixation3.jpg></div></div>","null","","","","","",""
"html-keyboard-response","17","42325","0.0-5.0-2.4","63daf5a89c63648ec34664fb","bdp_rd","Sun Mar 26 2023 20:33:05 GMT-0400 (Eastern Daylight Time)","156560","","1417","","","","offer","","<div class='trialBorder'><div class='vertical-center'><img style='vertical-align:center; align:center' src=img/fixation3.jpg></div><div class='cl'><div class='vertical-center'>$8<br>for<br>sure</div></div><div class='cr'><div class='vertical-center'>$23<br>with a<br>50% chance</div></div><div class='respDivL'><div class='vertical-center'>(E)</div></div><div class='respDivR'><div class='vertical-center'>(I)</div></div></div>","E","$8","$23","0","8","23","SURE"
"html-keyboard-response","18","42584","0.0-5.0-3.4","63daf5a89c63648ec34664fb","bdp_rd","Sun Mar 26 2023 20:33:05 GMT-0400 (Eastern Daylight Time)","156560","","null","","","","offerFB","","<div class='trialBorder'><div class='vertical-center'><img style='vertical-align:center; align:center' src=img/fixation3.jpg></div><div class='cl'><div class='vertical-center'><font style='color:orange'>$8<br>for<br>sure</font></div></div><div class='cr'><div class='vertical-center'>$23<br>with a<br>50% chance</div></div><div class='respDivL'><div class='vertical-center'><font style='color:orange'>(E)</font></div></div><div class='respDivR'><div class='vertical-center'>(I)</div></div></div>","null","$8","$23","0","8","23",""
"html-keyboard-response","19","43089","0.0-5.0-1.5","63daf5a89c63648ec34664fb","bdp_rd","Sun Mar 26 2023 20:33:05 GMT-0400 (Eastern Daylight Time)","156560","","null","","","","FIX","","<div class='trialBorder'><div class='vertical-center'><img style='vertical-align:center; align:center' src=img/fixation3.jpg></div></div>","null","","","","","",""
"html-keyboard-response","20","44508","0.0-5.0-2.5","63daf5a89c63648ec34664fb","bdp_rd","Sun Mar 26 2023 20:33:05 GMT-0400 (Eastern Daylight Time)","156560","","1418","","","","offer","","<div class='trialBorder'><div class='vertical-center'><img style='vertical-align:center; align:center' src=img/fixation3.jpg></div><div class='cl'><div class='vertical-center'>$30<br>with a<br>50% chance</div></div><div class='cr'><div class='vertical-center'>$1<br>for<br>sure</div></div><div class='respDivL'><div class='vertical-center'>(E)</div></div><div class='respDivR'><div class='vertical-center'>(I)</div></div></div>","I","$1","$30","1","1","30","SURE"
"html-keyboard-response","21","44771","0.0-5.0-3.5","63daf5a89c63648ec34664fb","bdp_rd","Sun Mar 26 2023 20:33:05 GMT-0400 (Eastern Daylight Time)","156560","","null","","","","offerFB","","<div class='trialBorder'><div class='vertical-center'><img style='vertical-align:center; align:center' src=img/fixation3.jpg></div><div class='cl'><div class='vertical-center'>$30<br>with a<br>50% chance</div></div><div class='cr'><div class='vertical-center'><font style='color:orange'>$1<br>for<br>sure</font></div></div><div class='respDivL'><div class='vertical-center'>(E)</div></div><div class='respDivR'><div class='vertical-center'><font style='color:orange'>(I)</font></div></div></div>","null","$1","$30","1","1","30",""
"html-keyboard-response","22","45283","0.0-5.0-1.6","63daf5a89c63648ec34664fb","bdp_rd","Sun Mar 26 2023 20:33:05 GMT-0400 (Eastern Daylight Time)","156560","","null","","","","FIX","","<div class='trialBorder'><div class='vertical-center'><img style='vertical-align:center; align:center' src=img/fixation3.jpg></div></div>","null","","","","","",""
"html-keyboard-response","23","46870","0.0-5.0-2.6","63daf5a89c63648ec34664fb","bdp_rd","Sun Mar 26 2023 20:33:05 GMT-0400 (Eastern Daylight Time)","156560","","1586","","","","offer","","<div class='trialBorder'><div class='vertical-center'><img style='vertical-align:center; align:center' src=img/fixation3.jpg></div><div class='cl'><div class='vertical-center'>$68<br>with a<br>50% chance</div></div><div class='cr'><div class='vertical-center'>$30<br>for<br>sure</div></div><div class='respDivL'><div class='vertical-center'>(E)</div></div><div class='respDivR'><div class='vertical-center'>(I)</div></div></div>","I","$30","$68","1","30","68","SURE"
"html-keyboard-response","24","47129","0.0-5.0-3.6","63daf5a89c63648ec34664fb","bdp_rd","Sun Mar 26 2023 20:33:05 GMT-0400 (Eastern Daylight Time)","156560","","null","","","","offerFB","","<div class='trialBorder'><div class='vertical-center'><img style='vertical-align:center; align:center' src=img/fixation3.jpg></div><div class='cl'><div class='vertical-center'>$68<br>with a<br>50% chance</div></div><div class='cr'><div class='vertical-center'><font style='color:orange'>$30<br>for<br>sure</font></div></div><div class='respDivL'><div class='vertical-center'>(E)</div></div><div class='respDivR'><div class='vertical-center'><font style='color:orange'>(I)</font></div></div></div>","null","$30","$68","1","30","68",""
"html-keyboard-response","25","47634","0.0-5.0-1.7","63daf5a89c63648ec34664fb","bdp_rd","Sun Mar 26 2023 20:33:05 GMT-0400 (Eastern Daylight Time)","156560","","null","","","","FIX","","<div class='trialBorder'><div class='vertical-center'><img style='vertical-align:center; align:center' src=img/fixation3.jpg></div></div>","null","","","","","",""
"html-keyboard-response","26","48972","0.0-5.0-2.7","63daf5a89c63648ec34664fb","bdp_rd","Sun Mar 26 2023 20:33:05 GMT-0400 (Eastern Daylight Time)","156560","","1337","","","","offer","","<div class='trialBorder'><div class='vertical-center'><img style='vertical-align:center; align:center' src=img/fixation3.jpg></div><div class='cl'><div class='vertical-center'>$48<br>with a<br>50% chance</div></div><div class='cr'><div class='vertical-center'>$34<br>for<br>sure</div></div><div class='respDivL'><div class='vertical-center'>(E)</div></div><div class='respDivR'><div class='vertical-center'>(I)</div></div></div>","I","$34","$48","1","34","48","SURE"
"html-keyboard-response","27","49235","0.0-5.0-3.7","63daf5a89c63648ec34664fb","bdp_rd","Sun Mar 26 2023 20:33:05 GMT-0400 (Eastern Daylight Time)","156560","","null","","","","offerFB","","<div class='trialBorder'><div class='vertical-center'><img style='vertical-align:center; align:center' src=img/fixation3.jpg></div><div class='cl'><div class='vertical-center'>$48<br>with a<br>50% chance</div></div><div class='cr'><div class='vertical-center'><font style='color:orange'>$34<br>for<br>sure</font></div></div><div class='respDivL'><div class='vertical-center'>(E)</div></div><div class='respDivR'><div class='vertical-center'><font style='color:orange'>(I)</font></div></div></div>","null","$34","$48","1","34","48",""
"html-keyboard-response","28","49747","0.0-5.0-1.8","63daf5a89c63648ec34664fb","bdp_rd","Sun Mar 26 2023 20:33:05 GMT-0400 (Eastern Daylight Time)","156560","","null","","","","FIX","","<div class='trialBorder'><div class='vertical-center'><img style='vertical-align:center; align:center' src=img/fixation3.jpg></div></div>","null","","","","","",""
"html-keyboard-response","29","52174","0.0-5.0-2.8","63daf5a89c63648ec34664fb","bdp_rd","Sun Mar 26 2023 20:33:05 GMT-0400 (Eastern Daylight Time)","156560","","2427","","","","offer","","<div class='trialBorder'><div class='vertical-center'><img style='vertical-align:center; align:center' src=img/fixation3.jpg></div><div class='cl'><div class='vertical-center'>$33<br>with a<br>50% chance</div></div><div class='cr'><div class='vertical-center'>$1<br>for<br>sure</div></div><div class='respDivL'><div class='vertical-center'>(E)</div></div><div class='respDivR'><div class='vertical-center'>(I)</div></div></div>","I","$1","$33","1","1","33","SURE"
"html-keyboard-response","30","52433","0.0-5.0-3.8","63daf5a89c63648ec34664fb","bdp_rd","Sun Mar 26 2023 20:33:05 GMT-0400 (Eastern Daylight Time)","156560","","null","","","","offerFB","","<div class='trialBorder'><div class='vertical-center'><img style='vertical-align:center; align:center' src=img/fixation3.jpg></div><div class='cl'><div class='vertical-center'>$33<br>with a<br>50% chance</div></div><div class='cr'><div class='vertical-center'><font style='color:orange'>$1<br>for<br>sure</font></div></div><div class='respDivL'><div class='vertical-center'>(E)</div></div><div class='respDivR'><div class='vertical-center'><font style='color:orange'>(I)</font></div></div></div>","null","$1","$33","1","1","33",""
"html-keyboard-response","31","52939","0.0-5.0-1.9","63daf5a89c63648ec34664fb","bdp_rd","Sun Mar 26 2023 20:33:05 GMT-0400 (Eastern Daylight Time)","156560","","null","","","","FIX","","<div class='trialBorder'><div class='vertical-center'><img style='vertical-align:center; align:center' src=img/fixation3.jpg></div></div>","null","","","","","",""
"html-keyboard-response","32","54348","0.0-5.0-2.9","63daf5a89c63648ec34664fb","bdp_rd","Sun Mar 26 2023 20:33:05 GMT-0400 (Eastern Daylight Time)","156560","","1408","","","","offer","","<div class='trialBorder'><div class='vertical-center'><img style='vertical-align:center; align:center' src=img/fixation3.jpg></div><div class='cl'><div class='vertical-center'>$80<br>with a<br>50% chance</div></div><div class='cr'><div class='vertical-center'>$20<br>for<br>sure</div></div><div class='respDivL'><div class='vertical-center'>(E)</div></div><div class='respDivR'><div class='vertical-center'>(I)</div></div></div>","I","$20","$80","1","20","80","SURE"
"html-keyboard-response","33","54611","0.0-5.0-3.9","63daf5a89c63648ec34664fb","bdp_rd","Sun Mar 26 2023 20:33:05 GMT-0400 (Eastern Daylight Time)","156560","","null","","","","offerFB","","<div class='trialBorder'><div class='vertical-center'><img style='vertical-align:center; align:center' src=img/fixation3.jpg></div><div class='cl'><div class='vertical-center'>$80<br>with a<br>50% chance</div></div><div class='cr'><div class='vertical-center'><font style='color:orange'>$20<br>for<br>sure</font></div></div><div class='respDivL'><div class='vertical-center'>(E)</div></div><div class='respDivR'><div class='vertical-center'><font style='color:orange'>(I)</font></div></div></div>","null","$20","$80","1","20","80",""
"html-keyboard-response","34","55122","0.0-5.0-1.10","63daf5a89c63648ec34664fb","bdp_rd","Sun Mar 26 2023 20:33:05 GMT-0400 (Eastern Daylight Time)","156560","","null","","","","FIX","","<div class='trialBorder'><div class='vertical-center'><img style='vertical-align:center; align:center' src=img/fixation3.jpg></div></div>","null","","","","","",""
"html-keyboard-response","35","57692","0.0-5.0-2.10","63daf5a89c63648ec34664fb","bdp_rd","Sun Mar 26 2023 20:33:05 GMT-0400 (Eastern Daylight Time)","156560","","2569","","","","offer","","<div class='trialBorder'><div class='vertical-center'><img style='vertical-align:center; align:center' src=img/fixation3.jpg></div><div class='cl'><div class='vertical-center'>$10<br>for<br>sure</div></div><div class='cr'><div class='vertical-center'>$40<br>with a<br>50% chance</div></div><div class='respDivL'><div class='vertical-center'>(E)</div></div><div class='respDivR'><div class='vertical-center'>(I)</div></div></div>","E","$10","$40","0","10","40","SURE"
"html-keyboard-response","36","57952","0.0-5.0-3.10","63daf5a89c63648ec34664fb","bdp_rd","Sun Mar 26 2023 20:33:05 GMT-0400 (Eastern Daylight Time)","156560","","null","","","","offerFB","","<div class='trialBorder'><div class='vertical-center'><img style='vertical-align:center; align:center' src=img/fixation3.jpg></div><div class='cl'><div class='vertical-center'><font style='color:orange'>$10<br>for<br>sure</font></div></div><div class='cr'><div class='vertical-center'>$40<br>with a<br>50% chance</div></div><div class='respDivL'><div class='vertical-center'><font style='color:orange'>(E)</font></div></div><div class='respDivR'><div class='vertical-center'>(I)</div></div></div>","null","$10","$40","0","10","40",""
"html-keyboard-response","37","58459","0.0-5.0-1.11","63daf5a89c63648ec34664fb","bdp_rd","Sun Mar 26 2023 20:33:05 GMT-0400 (Eastern Daylight Time)","156560","","null","","","","FIX","","<div class='trialBorder'><div class='vertical-center'><img style='vertical-align:center; align:center' src=img/fixation3.jpg></div></div>","null","","","","","",""
"html-keyboard-response","38","60980","0.0-5.0-2.11","63daf5a89c63648ec34664fb","bdp_rd","Sun Mar 26 2023 20:33:05 GMT-0400 (Eastern Daylight Time)","156560","","2521","","","","offer","","<div class='trialBorder'><div class='vertical-center'><img style='vertical-align:center; align:center' src=img/fixation3.jpg></div><div class='cl'><div class='vertical-center'>$73<br>with a<br>50% chance</div></div><div class='cr'><div class='vertical-center'>$42<br>for<br>sure</div></div><div class='respDivL'><div class='vertical-center'>(E)</div></div><div class='respDivR'><div class='vertical-center'>(I)</div></div></div>","I","$42","$73","1","42","73","SURE"
"html-keyboard-response","39","61235","0.0-5.0-3.11","63daf5a89c63648ec34664fb","bdp_rd","Sun Mar 26 2023 20:33:05 GMT-0400 (Eastern Daylight Time)","156560","","null","","","","offerFB","","<div class='trialBorder'><div class='vertical-center'><img style='vertical-align:center; align:center' src=img/fixation3.jpg></div><div class='cl'><div class='vertical-center'>$73<br>with a<br>50% chance</div></div><div class='cr'><div class='vertical-center'><font style='color:orange'>$42<br>for<br>sure</font></div></div><div class='respDivL'><div class='vertical-center'>(E)</div></div><div class='respDivR'><div class='vertical-center'><font style='color:orange'>(I)</font></div></div></div>","null","$42","$73","1","42","73",""
"html-keyboard-response","40","61745","0.0-5.0-1.12","63daf5a89c63648ec34664fb","bdp_rd","Sun Mar 26 2023 20:33:05 GMT-0400 (Eastern Daylight Time)","156560","","null","","","","FIX","","<div class='trialBorder'><div class='vertical-center'><img style='vertical-align:center; align:center' src=img/fixation3.jpg></div></div>","null","","","","","",""
"html-keyboard-response","41","63276","0.0-5.0-2.12","63daf5a89c63648ec34664fb","bdp_rd","Sun Mar 26 2023 20:33:05 GMT-0400 (Eastern Daylight Time)","156560","","1530","","","","offer","","<div class='trialBorder'><div class='vertical-center'><img style='vertical-align:center; align:center' src=img/fixation3.jpg></div><div class='cl'><div class='vertical-center'>$33<br>for<br>sure</div></div><div class='cr'><div class='vertical-center'>$66<br>with a<br>50% chance</div></div><div class='respDivL'><div class='vertical-center'>(E)</div></div><div class='respDivR'><div class='vertical-center'>(I)</div></div></div>","E","$33","$66","0","33","66","SURE"
"html-keyboard-response","42","63539","0.0-5.0-3.12","63daf5a89c63648ec34664fb","bdp_rd","Sun Mar 26 2023 20:33:05 GMT-0400 (Eastern Daylight Time)","156560","","null","","","","offerFB","","<div class='trialBorder'><div class='vertical-center'><img style='vertical-align:center; align:center' src=img/fixation3.jpg></div><div class='cl'><div class='vertical-center'><font style='color:orange'>$33<br>for<br>sure</font></div></div><div class='cr'><div class='vertical-center'>$66<br>with a<br>50% chance</div></div><div class='respDivL'><div class='vertical-center'><font style='color:orange'>(E)</font></div></div><div class='respDivR'><div class='vertical-center'>(I)</div></div></div>","null","$33","$66","0","33","66",""
"html-keyboard-response","43","64050","0.0-5.0-1.13","63daf5a89c63648ec34664fb","bdp_rd","Sun Mar 26 2023 20:33:05 GMT-0400 (Eastern Daylight Time)","156560","","null","","","","FIX","","<div class='trialBorder'><div class='vertical-center'><img style='vertical-align:center; align:center' src=img/fixation3.jpg></div></div>","null","","","","","",""
"html-keyboard-response","44","65388","0.0-5.0-2.13","63daf5a89c63648ec34664fb","bdp_rd","Sun Mar 26 2023 20:33:05 GMT-0400 (Eastern Daylight Time)","156560","","1337","","","","offer","","<div class='trialBorder'><div class='vertical-center'><img style='vertical-align:center; align:center' src=img/fixation3.jpg></div><div class='cl'><div class='vertical-center'>$46<br>with a<br>50% chance</div></div><div class='cr'><div class='vertical-center'>$29<br>for<br>sure</div></div><div class='respDivL'><div class='vertical-center'>(E)</div></div><div class='respDivR'><div class='vertical-center'>(I)</div></div></div>","I","$29","$46","1","29","46","SURE"
"html-keyboard-response","45","65651","0.0-5.0-3.13","63daf5a89c63648ec34664fb","bdp_rd","Sun Mar 26 2023 20:33:05 GMT-0400 (Eastern Daylight Time)","156560","","null","","","","offerFB","","<div class='trialBorder'><div class='vertical-center'><img style='vertical-align:center; align:center' src=img/fixation3.jpg></div><div class='cl'><div class='vertical-center'>$46<br>with a<br>50% chance</div></div><div class='cr'><div class='vertical-center'><font style='color:orange'>$29<br>for<br>sure</font></div></div><div class='respDivL'><div class='vertical-center'>(E)</div></div><div class='respDivR'><div class='vertical-center'><font style='color:orange'>(I)</font></div></div></div>","null","$29","$46","1","29","46",""
"html-keyboard-response","46","66163","0.0-5.0-1.14","63daf5a89c63648ec34664fb","bdp_rd","Sun Mar 26 2023 20:33:05 GMT-0400 (Eastern Daylight Time)","156560","","null","","","","FIX","","<div class='trialBorder'><div class='vertical-center'><img style='vertical-align:center; align:center' src=img/fixation3.jpg></div></div>","null","","","","","",""
"html-keyboard-response","47","67405","0.0-5.0-2.14","63daf5a89c63648ec34664fb","bdp_rd","Sun Mar 26 2023 20:33:05 GMT-0400 (Eastern Daylight Time)","156560","","1241","","","","offer","","<div class='trialBorder'><div class='vertical-center'><img style='vertical-align:center; align:center' src=img/fixation3.jpg></div><div class='cl'><div class='vertical-center'>$95<br>with a<br>50% chance</div></div><div class='cr'><div class='vertical-center'>$40<br>for<br>sure</div></div><div class='respDivL'><div class='vertical-center'>(E)</div></div><div class='respDivR'><div class='vertical-center'>(I)</div></div></div>","I","$40","$95","1","40","95","SURE"
"html-keyboard-response","48","67666","0.0-5.0-3.14","63daf5a89c63648ec34664fb","bdp_rd","Sun Mar 26 2023 20:33:05 GMT-0400 (Eastern Daylight Time)","156560","","null","","","","offerFB","","<div class='trialBorder'><div class='vertical-center'><img style='vertical-align:center; align:center' src=img/fixation3.jpg></div><div class='cl'><div class='vertical-center'>$95<br>with a<br>50% chance</div></div><div class='cr'><div class='vertical-center'><font style='color:orange'>$40<br>for<br>sure</font></div></div><div class='respDivL'><div class='vertical-center'>(E)</div></div><div class='respDivR'><div class='vertical-center'><font style='color:orange'>(I)</font></div></div></div>","null","$40","$95","1","40","95",""
"html-keyboard-response","49","68177","0.0-5.0-1.15","63daf5a89c63648ec34664fb","bdp_rd","Sun Mar 26 2023 20:33:05 GMT-0400 (Eastern Daylight Time)","156560","","null","","","","FIX","","<div class='trialBorder'><div class='vertical-center'><img style='vertical-align:center; align:center' src=img/fixation3.jpg></div></div>","null","","","","","",""
"html-keyboard-response","50","69764","0.0-5.0-2.15","63daf5a89c63648ec34664fb","bdp_rd","Sun Mar 26 2023 20:33:05 GMT-0400 (Eastern Daylight Time)","156560","","1586","","","","offer","","<div class='trialBorder'><div class='vertical-center'><img style='vertical-align:center; align:center' src=img/fixation3.jpg></div><div class='cl'><div class='vertical-center'>$12<br>for<br>sure</div></div><div class='cr'><div class='vertical-center'>$35<br>with a<br>50% chance</div></div><div class='respDivL'><div class='vertical-center'>(E)</div></div><div class='respDivR'><div class='vertical-center'>(I)</div></div></div>","E","$12","$35","0","12","35","SURE"
"html-keyboard-response","51","70023","0.0-5.0-3.15","63daf5a89c63648ec34664fb","bdp_rd","Sun Mar 26 2023 20:33:05 GMT-0400 (Eastern Daylight Time)","156560","","null","","","","offerFB","","<div class='trialBorder'><div class='vertical-center'><img style='vertical-align:center; align:center' src=img/fixation3.jpg></div><div class='cl'><div class='vertical-center'><font style='color:orange'>$12<br>for<br>sure</font></div></div><div class='cr'><div class='vertical-center'>$35<br>with a<br>50% chance</div></div><div class='respDivL'><div class='vertical-center'><font style='color:orange'>(E)</font></div></div><div class='respDivR'><div class='vertical-center'>(I)</div></div></div>","null","$12","$35","0","12","35",""
"html-keyboard-response","52","70528","0.0-5.0-1.16","63daf5a89c63648ec34664fb","bdp_rd","Sun Mar 26 2023 20:33:05 GMT-0400 (Eastern Daylight Time)","156560","","null","","","","FIX","","<div class='trialBorder'><div class='vertical-center'><img style='vertical-align:center; align:center' src=img/fixation3.jpg></div></div>","null","","","","","",""
"html-keyboard-response","53","72740","0.0-5.0-2.16","63daf5a89c63648ec34664fb","bdp_rd","Sun Mar 26 2023 20:33:05 GMT-0400 (Eastern Daylight Time)","156560","","2211","","","","offer","","<div class='trialBorder'><div class='vertical-center'><img style='vertical-align:center; align:center' src=img/fixation3.jpg></div><div class='cl'><div class='vertical-center'>$39<br>with a<br>50% chance</div></div><div class='cr'><div class='vertical-center'>$18<br>for<br>sure</div></div><div class='respDivL'><div class='vertical-center'>(E)</div></div><div class='respDivR'><div class='vertical-center'>(I)</div></div></div>","I","$18","$39","1","18","39","SURE"
"html-keyboard-response","54","72995","0.0-5.0-3.16","63daf5a89c63648ec34664fb","bdp_rd","Sun Mar 26 2023 20:33:05 GMT-0400 (Eastern Daylight Time)","156560","","null","","","","offerFB","","<div class='trialBorder'><div class='vertical-center'><img style='vertical-align:center; align:center' src=img/fixation3.jpg></div><div class='cl'><div class='vertical-center'>$39<br>with a<br>50% chance</div></div><div class='cr'><div class='vertical-center'><font style='color:orange'>$18<br>for<br>sure</font></div></div><div class='respDivL'><div class='vertical-center'>(E)</div></div><div class='respDivR'><div class='vertical-center'><font style='color:orange'>(I)</font></div></div></div>","null","$18","$39","1","18","39",""
"html-keyboard-response","55","73506","0.0-5.0-1.17","63daf5a89c63648ec34664fb","bdp_rd","Sun Mar 26 2023 20:33:05 GMT-0400 (Eastern Daylight Time)","156560","","null","","","","FIX","","<div class='trialBorder'><div class='vertical-center'><img style='vertical-align:center; align:center' src=img/fixation3.jpg></div></div>","null","","","","","",""
"html-keyboard-response","56","75219","0.0-5.0-2.17","63daf5a89c63648ec34664fb","bdp_rd","Sun Mar 26 2023 20:33:05 GMT-0400 (Eastern Daylight Time)","156560","","1712","","","","offer","","<div class='trialBorder'><div class='vertical-center'><img style='vertical-align:center; align:center' src=img/fixation3.jpg></div><div class='cl'><div class='vertical-center'>$11<br>for<br>sure</div></div><div class='cr'><div class='vertical-center'>$26<br>with a<br>50% chance</div></div><div class='respDivL'><div class='vertical-center'>(E)</div></div><div class='respDivR'><div class='vertical-center'>(I)</div></div></div>","E","$11","$26","0","11","26","SURE"
"html-keyboard-response","57","75480","0.0-5.0-3.17","63daf5a89c63648ec34664fb","bdp_rd","Sun Mar 26 2023 20:33:05 GMT-0400 (Eastern Daylight Time)","156560","","null","","","","offerFB","","<div class='trialBorder'><div class='vertical-center'><img style='vertical-align:center; align:center' src=img/fixation3.jpg></div><div class='cl'><div class='vertical-center'><font style='color:orange'>$11<br>for<br>sure</font></div></div><div class='cr'><div class='vertical-center'>$26<br>with a<br>50% chance</div></div><div class='respDivL'><div class='vertical-center'><font style='color:orange'>(E)</font></div></div><div class='respDivR'><div class='vertical-center'>(I)</div></div></div>","null","$11","$26","0","11","26",""
"html-keyboard-response","58","75985","0.0-5.0-1.18","63daf5a89c63648ec34664fb","bdp_rd","Sun Mar 26 2023 20:33:05 GMT-0400 (Eastern Daylight Time)","156560","","null","","","","FIX","","<div class='trialBorder'><div class='vertical-center'><img style='vertical-align:center; align:center' src=img/fixation3.jpg></div></div>","null","","","","","",""
"html-keyboard-response","59","77095","0.0-5.0-2.18","63daf5a89c63648ec34664fb","bdp_rd","Sun Mar 26 2023 20:33:05 GMT-0400 (Eastern Daylight Time)","156560","","1109","","","","offer","","<div class='trialBorder'><div class='vertical-center'><img style='vertical-align:center; align:center' src=img/fixation3.jpg></div><div class='cl'><div class='vertical-center'>$13<br>for<br>sure</div></div><div class='cr'><div class='vertical-center'>$24<br>with a<br>50% chance</div></div><div class='respDivL'><div class='vertical-center'>(E)</div></div><div class='respDivR'><div class='vertical-center'>(I)</div></div></div>","E","$13","$24","0","13","24","SURE"
"html-keyboard-response","60","77355","0.0-5.0-3.18","63daf5a89c63648ec34664fb","bdp_rd","Sun Mar 26 2023 20:33:05 GMT-0400 (Eastern Daylight Time)","156560","","null","","","","offerFB","","<div class='trialBorder'><div class='vertical-center'><img style='vertical-align:center; align:center' src=img/fixation3.jpg></div><div class='cl'><div class='vertical-center'><font style='color:orange'>$13<br>for<br>sure</font></div></div><div class='cr'><div class='vertical-center'>$24<br>with a<br>50% chance</div></div><div class='respDivL'><div class='vertical-center'><font style='color:orange'>(E)</font></div></div><div class='respDivR'><div class='vertical-center'>(I)</div></div></div>","null","$13","$24","0","13","24",""
"html-keyboard-response","61","77865","0.0-5.0-1.19","63daf5a89c63648ec34664fb","bdp_rd","Sun Mar 26 2023 20:33:05 GMT-0400 (Eastern Daylight Time)","156560","","null","","","","FIX","","<div class='trialBorder'><div class='vertical-center'><img style='vertical-align:center; align:center' src=img/fixation3.jpg></div></div>","null","","","","","",""
"html-keyboard-response","62","79188","0.0-5.0-2.19","63daf5a89c63648ec34664fb","bdp_rd","Sun Mar 26 2023 20:33:05 GMT-0400 (Eastern Daylight Time)","156560","","1321","","","","offer","","<div class='trialBorder'><div class='vertical-center'><img style='vertical-align:center; align:center' src=img/fixation3.jpg></div><div class='cl'><div class='vertical-center'>$69<br>with a<br>50% chance</div></div><div class='cr'><div class='vertical-center'>$58<br>for<br>sure</div></div><div class='respDivL'><div class='vertical-center'>(E)</div></div><div class='respDivR'><div class='vertical-center'>(I)</div></div></div>","I","$58","$69","1","58","69","SURE"
"html-keyboard-response","63","79447","0.0-5.0-3.19","63daf5a89c63648ec34664fb","bdp_rd","Sun Mar 26 2023 20:33:05 GMT-0400 (Eastern Daylight Time)","156560","","null","","","","offerFB","","<div class='trialBorder'><div class='vertical-center'><img style='vertical-align:center; align:center' src=img/fixation3.jpg></div><div class='cl'><div class='vertical-center'>$69<br>with a<br>50% chance</div></div><div class='cr'><div class='vertical-center'><font style='color:orange'>$58<br>for<br>sure</font></div></div><div class='respDivL'><div class='vertical-center'>(E)</div></div><div class='respDivR'><div class='vertical-center'><font style='color:orange'>(I)</font></div></div></div>","null","$58","$69","1","58","69",""
"html-keyboard-response","64","79954","0.0-5.0-1.20","63daf5a89c63648ec34664fb","bdp_rd","Sun Mar 26 2023 20:33:05 GMT-0400 (Eastern Daylight Time)","156560","","null","","","","FIX","","<div class='trialBorder'><div class='vertical-center'><img style='vertical-align:center; align:center' src=img/fixation3.jpg></div></div>","null","","","","","",""
"html-keyboard-response","65","82224","0.0-5.0-2.20","63daf5a89c63648ec34664fb","bdp_rd","Sun Mar 26 2023 20:33:05 GMT-0400 (Eastern Daylight Time)","156560","","2269","","","","offer","","<div class='trialBorder'><div class='vertical-center'><img style='vertical-align:center; align:center' src=img/fixation3.jpg></div><div class='cl'><div class='vertical-center'>$51<br>with a<br>50% chance</div></div><div class='cr'><div class='vertical-center'>$19<br>for<br>sure</div></div><div class='respDivL'><div class='vertical-center'>(E)</div></div><div class='respDivR'><div class='vertical-center'>(I)</div></div></div>","I","$19","$51","1","19","51","SURE"
"html-keyboard-response","66","82480","0.0-5.0-3.20","63daf5a89c63648ec34664fb","bdp_rd","Sun Mar 26 2023 20:33:05 GMT-0400 (Eastern Daylight Time)","156560","","null","","","","offerFB","","<div class='trialBorder'><div class='vertical-center'><img style='vertical-align:center; align:center' src=img/fixation3.jpg></div><div class='cl'><div class='vertical-center'>$51<br>with a<br>50% chance</div></div><div class='cr'><div class='vertical-center'><font style='color:orange'>$19<br>for<br>sure</font></div></div><div class='respDivL'><div class='vertical-center'>(E)</div></div><div class='respDivR'><div class='vertical-center'><font style='color:orange'>(I)</font></div></div></div>","null","$19","$51","1","19","51",""
"html-keyboard-response","67","82986","0.0-5.0-1.21","63daf5a89c63648ec34664fb","bdp_rd","Sun Mar 26 2023 20:33:05 GMT-0400 (Eastern Daylight Time)","156560","","null","","","","FIX","","<div class='trialBorder'><div class='vertical-center'><img style='vertical-align:center; align:center' src=img/fixation3.jpg></div></div>","null","","","","","",""
"html-keyboard-response","68","84028","0.0-5.0-2.21","63daf5a89c63648ec34664fb","bdp_rd","Sun Mar 26 2023 20:33:05 GMT-0400 (Eastern Daylight Time)","156560","","1042","","","","offer","","<div class='trialBorder'><div class='vertical-center'><img style='vertical-align:center; align:center' src=img/fixation3.jpg></div><div class='cl'><div class='vertical-center'>$25<br>with a<br>50% chance</div></div><div class='cr'><div class='vertical-center'>$21<br>for<br>sure</div></div><div class='respDivL'><div class='vertical-center'>(E)</div></div><div class='respDivR'><div class='vertical-center'>(I)</div></div></div>","I","$21","$25","1","21","25","SURE"
"html-keyboard-response","69","84291","0.0-5.0-3.21","63daf5a89c63648ec34664fb","bdp_rd","Sun Mar 26 2023 20:33:05 GMT-0400 (Eastern Daylight Time)","156560","","null","","","","offerFB","","<div class='trialBorder'><div class='vertical-center'><img style='vertical-align:center; align:center' src=img/fixation3.jpg></div><div class='cl'><div class='vertical-center'>$25<br>with a<br>50% chance</div></div><div class='cr'><div class='vertical-center'><font style='color:orange'>$21<br>for<br>sure</font></div></div><div class='respDivL'><div class='vertical-center'>(E)</div></div><div class='respDivR'><div class='vertical-center'><font style='color:orange'>(I)</font></div></div></div>","null","$21","$25","1","21","25",""
"html-keyboard-response","70","84803","0.0-5.0-1.22","63daf5a89c63648ec34664fb","bdp_rd","Sun Mar 26 2023 20:33:05 GMT-0400 (Eastern Daylight Time)","156560","","null","","","","FIX","","<div class='trialBorder'><div class='vertical-center'><img style='vertical-align:center; align:center' src=img/fixation3.jpg></div></div>","null","","","","","",""
"html-keyboard-response","71","86164","0.0-5.0-2.22","63daf5a89c63648ec34664fb","bdp_rd","Sun Mar 26 2023 20:33:05 GMT-0400 (Eastern Daylight Time)","156560","","1361","","","","offer","","<div class='trialBorder'><div class='vertical-center'><img style='vertical-align:center; align:center' src=img/fixation3.jpg></div><div class='cl'><div class='vertical-center'>$24<br>for<br>sure</div></div><div class='cr'><div class='vertical-center'>$70<br>with a<br>50% chance</div></div><div class='respDivL'><div class='vertical-center'>(E)</div></div><div class='respDivR'><div class='vertical-center'>(I)</div></div></div>","E","$24","$70","0","24","70","SURE"
"html-keyboard-response","72","86427","0.0-5.0-3.22","63daf5a89c63648ec34664fb","bdp_rd","Sun Mar 26 2023 20:33:05 GMT-0400 (Eastern Daylight Time)","156560","","null","","","","offerFB","","<div class='trialBorder'><div class='vertical-center'><img style='vertical-align:center; align:center' src=img/fixation3.jpg></div><div class='cl'><div class='vertical-center'><font style='color:orange'>$24<br>for<br>sure</font></div></div><div class='cr'><div class='vertical-center'>$70<br>with a<br>50% chance</div></div><div class='respDivL'><div class='vertical-center'><font style='color:orange'>(E)</font></div></div><div class='respDivR'><div class='vertical-center'>(I)</div></div></div>","null","$24","$70","0","24","70",""
"html-keyboard-response","73","86939","0.0-5.0-1.23","63daf5a89c63648ec34664fb","bdp_rd","Sun Mar 26 2023 20:33:05 GMT-0400 (Eastern Daylight Time)","156560","","null","","","","FIX","","<div class='trialBorder'><div class='vertical-center'><img style='vertical-align:center; align:center' src=img/fixation3.jpg></div></div>","null","","","","","",""
"html-keyboard-response","74","88157","0.0-5.0-2.23","63daf5a89c63648ec34664fb","bdp_rd","Sun Mar 26 2023 20:33:05 GMT-0400 (Eastern Daylight Time)","156560","","1218","","","","offer","","<div class='trialBorder'><div class='vertical-center'><img style='vertical-align:center; align:center' src=img/fixation3.jpg></div><div class='cl'><div class='vertical-center'>$6<br>for<br>sure</div></div><div class='cr'><div class='vertical-center'>$13<br>with a<br>50% chance</div></div><div class='respDivL'><div class='vertical-center'>(E)</div></div><div class='respDivR'><div class='vertical-center'>(I)</div></div></div>","E","$6","$13","0","6","13","SURE"
"html-keyboard-response","75","88419","0.0-5.0-3.23","63daf5a89c63648ec34664fb","bdp_rd","Sun Mar 26 2023 20:33:05 GMT-0400 (Eastern Daylight Time)","156560","","null","","","","offerFB","","<div class='trialBorder'><div class='vertical-center'><img style='vertical-align:center; align:center' src=img/fixation3.jpg></div><div class='cl'><div class='vertical-center'><font style='color:orange'>$6<br>for<br>sure</font></div></div><div class='cr'><div class='vertical-center'>$13<br>with a<br>50% chance</div></div><div class='respDivL'><div class='vertical-center'><font style='color:orange'>(E)</font></div></div><div class='respDivR'><div class='vertical-center'>(I)</div></div></div>","null","$6","$13","0","6","13",""
"html-keyboard-response","76","88930","0.0-5.0-1.24","63daf5a89c63648ec34664fb","bdp_rd","Sun Mar 26 2023 20:33:05 GMT-0400 (Eastern Daylight Time)","156560","","null","","","","FIX","","<div class='trialBorder'><div class='vertical-center'><img style='vertical-align:center; align:center' src=img/fixation3.jpg></div></div>","null","","","","","",""
"html-keyboard-response","77","89980","0.0-5.0-2.24","63daf5a89c63648ec34664fb","bdp_rd","Sun Mar 26 2023 20:33:05 GMT-0400 (Eastern Daylight Time)","156560","","1048","","","","offer","","<div class='trialBorder'><div class='vertical-center'><img style='vertical-align:center; align:center' src=img/fixation3.jpg></div><div class='cl'><div class='vertical-center'>$6<br>for<br>sure</div></div><div class='cr'><div class='vertical-center'>$15<br>with a<br>50% chance</div></div><div class='respDivL'><div class='vertical-center'>(E)</div></div><div class='respDivR'><div class='vertical-center'>(I)</div></div></div>","E","$6","$15","0","6","15","SURE"
"html-keyboard-response","78","90242","0.0-5.0-3.24","63daf5a89c63648ec34664fb","bdp_rd","Sun Mar 26 2023 20:33:05 GMT-0400 (Eastern Daylight Time)","156560","","null","","","","offerFB","","<div class='trialBorder'><div class='vertical-center'><img style='vertical-align:center; align:center' src=img/fixation3.jpg></div><div class='cl'><div class='vertical-center'><font style='color:orange'>$6<br>for<br>sure</font></div></div><div class='cr'><div class='vertical-center'>$15<br>with a<br>50% chance</div></div><div class='respDivL'><div class='vertical-center'><font style='color:orange'>(E)</font></div></div><div class='respDivR'><div class='vertical-center'>(I)</div></div></div>","null","$6","$15","0","6","15",""
"html-keyboard-response","79","90753","0.0-5.0-1.25","63daf5a89c63648ec34664fb","bdp_rd","Sun Mar 26 2023 20:33:05 GMT-0400 (Eastern Daylight Time)","156560","","null","","","","FIX","","<div class='trialBorder'><div class='vertical-center'><img style='vertical-align:center; align:center' src=img/fixation3.jpg></div></div>","null","","","","","",""
"html-keyboard-response","80","91653","0.0-5.0-2.25","63daf5a89c63648ec34664fb","bdp_rd","Sun Mar 26 2023 20:33:05 GMT-0400 (Eastern Daylight Time)","156560","","899","","","","offer","","<div class='trialBorder'><div class='vertical-center'><img style='vertical-align:center; align:center' src=img/fixation3.jpg></div><div class='cl'><div class='vertical-center'>$17<br>for<br>sure</div></div><div class='cr'><div class='vertical-center'>$43<br>with a<br>50% chance</div></div><div class='respDivL'><div class='vertical-center'>(E)</div></div><div class='respDivR'><div class='vertical-center'>(I)</div></div></div>","E","$17","$43","0","17","43","SURE"
"html-keyboard-response","81","91914","0.0-5.0-3.25","63daf5a89c63648ec34664fb","bdp_rd","Sun Mar 26 2023 20:33:05 GMT-0400 (Eastern Daylight Time)","156560","","null","","","","offerFB","","<div class='trialBorder'><div class='vertical-center'><img style='vertical-align:center; align:center' src=img/fixation3.jpg></div><div class='cl'><div class='vertical-center'><font style='color:orange'>$17<br>for<br>sure</font></div></div><div class='cr'><div class='vertical-center'>$43<br>with a<br>50% chance</div></div><div class='respDivL'><div class='vertical-center'><font style='color:orange'>(E)</font></div></div><div class='respDivR'><div class='vertical-center'>(I)</div></div></div>","null","$17","$43","0","17","43",""
"html-keyboard-response","82","92425","0.0-5.0-1.26","63daf5a89c63648ec34664fb","bdp_rd","Sun Mar 26 2023 20:33:05 GMT-0400 (Eastern Daylight Time)","156560","","null","","","","FIX","","<div class='trialBorder'><div class='vertical-center'><img style='vertical-align:center; align:center' src=img/fixation3.jpg></div></div>","null","","","","","",""
"html-keyboard-response","83","94181","0.0-5.0-2.26","63daf5a89c63648ec34664fb","bdp_rd","Sun Mar 26 2023 20:33:05 GMT-0400 (Eastern Daylight Time)","156560","","1755","","","","offer","","<div class='trialBorder'><div class='vertical-center'><img style='vertical-align:center; align:center' src=img/fixation3.jpg></div><div class='cl'><div class='vertical-center'>$11<br>with a<br>50% chance</div></div><div class='cr'><div class='vertical-center'>$4<br>for<br>sure</div></div><div class='respDivL'><div class='vertical-center'>(E)</div></div><div class='respDivR'><div class='vertical-center'>(I)</div></div></div>","I","$4","$11","1","4","11","SURE"
"html-keyboard-response","84","94439","0.0-5.0-3.26","63daf5a89c63648ec34664fb","bdp_rd","Sun Mar 26 2023 20:33:05 GMT-0400 (Eastern Daylight Time)","156560","","null","","","","offerFB","","<div class='trialBorder'><div class='vertical-center'><img style='vertical-align:center; align:center' src=img/fixation3.jpg></div><div class='cl'><div class='vertical-center'>$11<br>with a<br>50% chance</div></div><div class='cr'><div class='vertical-center'><font style='color:orange'>$4<br>for<br>sure</font></div></div><div class='respDivL'><div class='vertical-center'>(E)</div></div><div class='respDivR'><div class='vertical-center'><font style='color:orange'>(I)</font></div></div></div>","null","$4","$11","1","4","11",""
"html-keyboard-response","85","94944","0.0-5.0-1.27","63daf5a89c63648ec34664fb","bdp_rd","Sun Mar 26 2023 20:33:05 GMT-0400 (Eastern Daylight Time)","156560","","null","","","","FIX","","<div class='trialBorder'><div class='vertical-center'><img style='vertical-align:center; align:center' src=img/fixation3.jpg></div></div>","null","","","","","",""
"html-keyboard-response","86","96075","0.0-5.0-2.27","63daf5a89c63648ec34664fb","bdp_rd","Sun Mar 26 2023 20:33:05 GMT-0400 (Eastern Daylight Time)","156560","","1130","","","","offer","","<div class='trialBorder'><div class='vertical-center'><img style='vertical-align:center; align:center' src=img/fixation3.jpg></div><div class='cl'><div class='vertical-center'>$14<br>for<br>sure</div></div><div class='cr'><div class='vertical-center'>$29<br>with a<br>50% chance</div></div><div class='respDivL'><div class='vertical-center'>(E)</div></div><div class='respDivR'><div class='vertical-center'>(I)</div></div></div>","E","$14","$29","0","14","29","SURE"
"html-keyboard-response","87","96337","0.0-5.0-3.27","63daf5a89c63648ec34664fb","bdp_rd","Sun Mar 26 2023 20:33:05 GMT-0400 (Eastern Daylight Time)","156560","","null","","","","offerFB","","<div class='trialBorder'><div class='vertical-center'><img style='vertical-align:center; align:center' src=img/fixation3.jpg></div><div class='cl'><div class='vertical-center'><font style='color:orange'>$14<br>for<br>sure</font></div></div><div class='cr'><div class='vertical-center'>$29<br>with a<br>50% chance</div></div><div class='respDivL'><div class='vertical-center'><font style='color:orange'>(E)</font></div></div><div class='respDivR'><div class='vertical-center'>(I)</div></div></div>","null","$14","$29","0","14","29",""
"html-keyboard-response","88","96848","0.0-5.0-1.28","63daf5a89c63648ec34664fb","bdp_rd","Sun Mar 26 2023 20:33:05 GMT-0400 (Eastern Daylight Time)","156560","","null","","","","FIX","","<div class='trialBorder'><div class='vertical-center'><img style='vertical-align:center; align:center' src=img/fixation3.jpg></div></div>","null","","","","","",""
"html-keyboard-response","89","97846","0.0-5.0-2.28","63daf5a89c63648ec34664fb","bdp_rd","Sun Mar 26 2023 20:33:05 GMT-0400 (Eastern Daylight Time)","156560","","997","","","","offer","","<div class='trialBorder'><div class='vertical-center'><img style='vertical-align:center; align:center' src=img/fixation3.jpg></div><div class='cl'><div class='vertical-center'>$38<br>with a<br>50% chance</div></div><div class='cr'><div class='vertical-center'>$16<br>for<br>sure</div></div><div class='respDivL'><div class='vertical-center'>(E)</div></div><div class='respDivR'><div class='vertical-center'>(I)</div></div></div>","E","$16","$38","1","16","38","RISKY"
"html-keyboard-response","90","98107","0.0-5.0-3.28","63daf5a89c63648ec34664fb","bdp_rd","Sun Mar 26 2023 20:33:05 GMT-0400 (Eastern Daylight Time)","156560","","null","","","","offerFB","","<div class='trialBorder'><div class='vertical-center'><img style='vertical-align:center; align:center' src=img/fixation3.jpg></div><div class='cl'><div class='vertical-center'><font style='color:orange'>$38<br>with a<br>50% chance</font></div></div><div class='cr'><div class='vertical-center'>$16<br>for<br>sure</div></div><div class='respDivL'><div class='vertical-center'><font style='color:orange'>(E)</font></div></div><div class='respDivR'><div class='vertical-center'>(I)</div></div></div>","null","$16","$38","1","16","38",""
"html-keyboard-response","91","98618","0.0-5.0-1.29","63daf5a89c63648ec34664fb","bdp_rd","Sun Mar 26 2023 20:33:05 GMT-0400 (Eastern Daylight Time)","156560","","null","","","","FIX","","<div class='trialBorder'><div class='vertical-center'><img style='vertical-align:center; align:center' src=img/fixation3.jpg></div></div>","null","","","","","",""
"html-keyboard-response","92","100548","0.0-5.0-2.29","63daf5a89c63648ec34664fb","bdp_rd","Sun Mar 26 2023 20:33:05 GMT-0400 (Eastern Daylight Time)","156560","","1928","","","","offer","","<div class='trialBorder'><div class='vertical-center'><img style='vertical-align:center; align:center' src=img/fixation3.jpg></div><div class='cl'><div class='vertical-center'>$5<br>for<br>sure</div></div><div class='cr'><div class='vertical-center'>$16<br>with a<br>50% chance</div></div><div class='respDivL'><div class='vertical-center'>(E)</div></div><div class='respDivR'><div class='vertical-center'>(I)</div></div></div>","E","$5","$16","0","5","16","SURE"
"html-keyboard-response","93","100807","0.0-5.0-3.29","63daf5a89c63648ec34664fb","bdp_rd","Sun Mar 26 2023 20:33:05 GMT-0400 (Eastern Daylight Time)","156560","","null","","","","offerFB","","<div class='trialBorder'><div class='vertical-center'><img style='vertical-align:center; align:center' src=img/fixation3.jpg></div><div class='cl'><div class='vertical-center'><font style='color:orange'>$5<br>for<br>sure</font></div></div><div class='cr'><div class='vertical-center'>$16<br>with a<br>50% chance</div></div><div class='respDivL'><div class='vertical-center'><font style='color:orange'>(E)</font></div></div><div class='respDivR'><div class='vertical-center'>(I)</div></div></div>","null","$5","$16","0","5","16",""
"html-keyboard-response","94","101312","0.0-5.0-1.30","63daf5a89c63648ec34664fb","bdp_rd","Sun Mar 26 2023 20:33:05 GMT-0400 (Eastern Daylight Time)","156560","","null","","","","FIX","","<div class='trialBorder'><div class='vertical-center'><img style='vertical-align:center; align:center' src=img/fixation3.jpg></div></div>","null","","","","","",""
"html-keyboard-response","95","102292","0.0-5.0-2.30","63daf5a89c63648ec34664fb","bdp_rd","Sun Mar 26 2023 20:33:05 GMT-0400 (Eastern Daylight Time)","156560","","979","","","","offer","","<div class='trialBorder'><div class='vertical-center'><img style='vertical-align:center; align:center' src=img/fixation3.jpg></div><div class='cl'><div class='vertical-center'>$21<br>with a<br>50% chance</div></div><div class='cr'><div class='vertical-center'>$2<br>for<br>sure</div></div><div class='respDivL'><div class='vertical-center'>(E)</div></div><div class='respDivR'><div class='vertical-center'>(I)</div></div></div>","I","$2","$21","1","2","21","SURE"
"html-keyboard-response","96","102551","0.0-5.0-3.30","63daf5a89c63648ec34664fb","bdp_rd","Sun Mar 26 2023 20:33:05 GMT-0400 (Eastern Daylight Time)","156560","","null","","","","offerFB","","<div class='trialBorder'><div class='vertical-center'><img style='vertical-align:center; align:center' src=img/fixation3.jpg></div><div class='cl'><div class='vertical-center'>$21<br>with a<br>50% chance</div></div><div class='cr'><div class='vertical-center'><font style='color:orange'>$2<br>for<br>sure</font></div></div><div class='respDivL'><div class='vertical-center'>(E)</div></div><div class='respDivR'><div class='vertical-center'><font style='color:orange'>(I)</font></div></div></div>","null","$2","$21","1","2","21",""
"html-keyboard-response","97","103058","0.0-5.0-1.31","63daf5a89c63648ec34664fb","bdp_rd","Sun Mar 26 2023 20:33:05 GMT-0400 (Eastern Daylight Time)","156560","","null","","","","FIX","","<div class='trialBorder'><div class='vertical-center'><img style='vertical-align:center; align:center' src=img/fixation3.jpg></div></div>","null","","","","","",""
"html-keyboard-response","98","103955","0.0-5.0-2.31","63daf5a89c63648ec34664fb","bdp_rd","Sun Mar 26 2023 20:33:05 GMT-0400 (Eastern Daylight Time)","156560","","896","","","","offer","","<div class='trialBorder'><div class='vertical-center'><img style='vertical-align:center; align:center' src=img/fixation3.jpg></div><div class='cl'><div class='vertical-center'>$37<br>for<br>sure</div></div><div class='cr'><div class='vertical-center'>$44<br>with a<br>50% chance</div></div><div class='respDivL'><div class='vertical-center'>(E)</div></div><div class='respDivR'><div class='vertical-center'>(I)</div></div></div>","E","$37","$44","0","37","44","SURE"
"html-keyboard-response","99","104215","0.0-5.0-3.31","63daf5a89c63648ec34664fb","bdp_rd","Sun Mar 26 2023 20:33:05 GMT-0400 (Eastern Daylight Time)","156560","","null","","","","offerFB","","<div class='trialBorder'><div class='vertical-center'><img style='vertical-align:center; align:center' src=img/fixation3.jpg></div><div class='cl'><div class='vertical-center'><font style='color:orange'>$37<br>for<br>sure</font></div></div><div class='cr'><div class='vertical-center'>$44<br>with a<br>50% chance</div></div><div class='respDivL'><div class='vertical-center'><font style='color:orange'>(E)</font></div></div><div class='respDivR'><div class='vertical-center'>(I)</div></div></div>","null","$37","$44","0","37","44",""
"html-keyboard-response","100","104720","0.0-5.0-1.32","63daf5a89c63648ec34664fb","bdp_rd","Sun Mar 26 2023 20:33:05 GMT-0400 (Eastern Daylight Time)","156560","","null","","","","FIX","","<div class='trialBorder'><div class='vertical-center'><img style='vertical-align:center; align:center' src=img/fixation3.jpg></div></div>","null","","","","","",""
"html-keyboard-response","101","105750","0.0-5.0-2.32","63daf5a89c63648ec34664fb","bdp_rd","Sun Mar 26 2023 20:33:05 GMT-0400 (Eastern Daylight Time)","156560","","1030","","","","offer","","<div class='trialBorder'><div class='vertical-center'><img style='vertical-align:center; align:center' src=img/fixation3.jpg></div><div class='cl'><div class='vertical-center'>$11<br>for<br>sure</div></div><div class='cr'><div class='vertical-center'>$62<br>with a<br>50% chance</div></div><div class='respDivL'><div class='vertical-center'>(E)</div></div><div class='respDivR'><div class='vertical-center'>(I)</div></div></div>","E","$11","$62","0","11","62","SURE"
"html-keyboard-response","102","106008","0.0-5.0-3.32","63daf5a89c63648ec34664fb","bdp_rd","Sun Mar 26 2023 20:33:05 GMT-0400 (Eastern Daylight Time)","156560","","null","","","","offerFB","","<div class='trialBorder'><div class='vertical-center'><img style='vertical-align:center; align:center' src=img/fixation3.jpg></div><div class='cl'><div class='vertical-center'><font style='color:orange'>$11<br>for<br>sure</font></div></div><div class='cr'><div class='vertical-center'>$62<br>with a<br>50% chance</div></div><div class='respDivL'><div class='vertical-center'><font style='color:orange'>(E)</font></div></div><div class='respDivR'><div class='vertical-center'>(I)</div></div></div>","null","$11","$62","0","11","62",""
"html-keyboard-response","103","106511","0.0-5.0-1.33","63daf5a89c63648ec34664fb","bdp_rd","Sun Mar 26 2023 20:33:05 GMT-0400 (Eastern Daylight Time)","156560","","null","","","","FIX","","<div class='trialBorder'><div class='vertical-center'><img style='vertical-align:center; align:center' src=img/fixation3.jpg></div></div>","null","","","","","",""
"html-keyboard-response","104","107476","0.0-5.0-2.33","63daf5a89c63648ec34664fb","bdp_rd","Sun Mar 26 2023 20:33:05 GMT-0400 (Eastern Daylight Time)","156560","","965","","","","offer","","<div class='trialBorder'><div class='vertical-center'><img style='vertical-align:center; align:center' src=img/fixation3.jpg></div><div class='cl'><div class='vertical-center'>$22<br>for<br>sure</div></div><div class='cr'><div class='vertical-center'>$42<br>with a<br>50% chance</div></div><div class='respDivL'><div class='vertical-center'>(E)</div></div><div class='respDivR'><div class='vertical-center'>(I)</div></div></div>","E","$22","$42","0","22","42","SURE"
"html-keyboard-response","105","107738","0.0-5.0-3.33","63daf5a89c63648ec34664fb","bdp_rd","Sun Mar 26 2023 20:33:05 GMT-0400 (Eastern Daylight Time)","156560","","null","","","","offerFB","","<div class='trialBorder'><div class='vertical-center'><img style='vertical-align:center; align:center' src=img/fixation3.jpg></div><div class='cl'><div class='vertical-center'><font style='color:orange'>$22<br>for<br>sure</font></div></div><div class='cr'><div class='vertical-center'>$42<br>with a<br>50% chance</div></div><div class='respDivL'><div class='vertical-center'><font style='color:orange'>(E)</font></div></div><div class='respDivR'><div class='vertical-center'>(I)</div></div></div>","null","$22","$42","0","22","42",""
"html-keyboard-response","106","108249","0.0-5.0-1.34","63daf5a89c63648ec34664fb","bdp_rd","Sun Mar 26 2023 20:33:05 GMT-0400 (Eastern Daylight Time)","156560","","null","","","","FIX","","<div class='trialBorder'><div class='vertical-center'><img style='vertical-align:center; align:center' src=img/fixation3.jpg></div></div>","null","","","","","",""
"html-keyboard-response","107","109027","0.0-5.0-2.34","63daf5a89c63648ec34664fb","bdp_rd","Sun Mar 26 2023 20:33:05 GMT-0400 (Eastern Daylight Time)","156560","","778","","","","offer","","<div class='trialBorder'><div class='vertical-center'><img style='vertical-align:center; align:center' src=img/fixation3.jpg></div><div class='cl'><div class='vertical-center'>$64<br>with a<br>50% chance</div></div><div class='cr'><div class='vertical-center'>$2<br>for<br>sure</div></div><div class='respDivL'><div class='vertical-center'>(E)</div></div><div class='respDivR'><div class='vertical-center'>(I)</div></div></div>","I","$2","$64","1","2","64","SURE"
"html-keyboard-response","108","109288","0.0-5.0-3.34","63daf5a89c63648ec34664fb","bdp_rd","Sun Mar 26 2023 20:33:05 GMT-0400 (Eastern Daylight Time)","156560","","null","","","","offerFB","","<div class='trialBorder'><div class='vertical-center'><img style='vertical-align:center; align:center' src=img/fixation3.jpg></div><div class='cl'><div class='vertical-center'>$64<br>with a<br>50% chance</div></div><div class='cr'><div class='vertical-center'><font style='color:orange'>$2<br>for<br>sure</font></div></div><div class='respDivL'><div class='vertical-center'>(E)</div></div><div class='respDivR'><div class='vertical-center'><font style='color:orange'>(I)</font></div></div></div>","null","$2","$64","1","2","64",""
"html-keyboard-response","109","109793","0.0-5.0-1.35","63daf5a89c63648ec34664fb","bdp_rd","Sun Mar 26 2023 20:33:05 GMT-0400 (Eastern Daylight Time)","156560","","null","","","","FIX","","<div class='trialBorder'><div class='vertical-center'><img style='vertical-align:center; align:center' src=img/fixation3.jpg></div></div>","null","","","","","",""
"html-keyboard-response","110","110501","0.0-5.0-2.35","63daf5a89c63648ec34664fb","bdp_rd","Sun Mar 26 2023 20:33:05 GMT-0400 (Eastern Daylight Time)","156560","","707","","","","offer","","<div class='trialBorder'><div class='vertical-center'><img style='vertical-align:center; align:center' src=img/fixation3.jpg></div><div class='cl'><div class='vertical-center'>$81<br>with a<br>50% chance</div></div><div class='cr'><div class='vertical-center'>$39<br>for<br>sure</div></div><div class='respDivL'><div class='vertical-center'>(E)</div></div><div class='respDivR'><div class='vertical-center'>(I)</div></div></div>","I","$39","$81","1","39","81","SURE"
"html-keyboard-response","111","110762","0.0-5.0-3.35","63daf5a89c63648ec34664fb","bdp_rd","Sun Mar 26 2023 20:33:05 GMT-0400 (Eastern Daylight Time)","156560","","null","","","","offerFB","","<div class='trialBorder'><div class='vertical-center'><img style='vertical-align:center; align:center' src=img/fixation3.jpg></div><div class='cl'><div class='vertical-center'>$81<br>with a<br>50% chance</div></div><div class='cr'><div class='vertical-center'><font style='color:orange'>$39<br>for<br>sure</font></div></div><div class='respDivL'><div class='vertical-center'>(E)</div></div><div class='respDivR'><div class='vertical-center'><font style='color:orange'>(I)</font></div></div></div>","null","$39","$81","1","39","81",""
"html-keyboard-response","112","111273","0.0-5.0-1.36","63daf5a89c63648ec34664fb","bdp_rd","Sun Mar 26 2023 20:33:05 GMT-0400 (Eastern Daylight Time)","156560","","null","","","","FIX","","<div class='trialBorder'><div class='vertical-center'><img style='vertical-align:center; align:center' src=img/fixation3.jpg></div></div>","null","","","","","",""
"html-keyboard-response","113","112228","0.0-5.0-2.36","63daf5a89c63648ec34664fb","bdp_rd","Sun Mar 26 2023 20:33:05 GMT-0400 (Eastern Daylight Time)","156560","","953","","","","offer","","<div class='trialBorder'><div class='vertical-center'><img style='vertical-align:center; align:center' src=img/fixation3.jpg></div><div class='cl'><div class='vertical-center'>$15<br>for<br>sure</div></div><div class='cr'><div class='vertical-center'>$34<br>with a<br>50% chance</div></div><div class='respDivL'><div class='vertical-center'>(E)</div></div><div class='respDivR'><div class='vertical-center'>(I)</div></div></div>","E","$15","$34","0","15","34","SURE"
"html-keyboard-response","114","112487","0.0-5.0-3.36","63daf5a89c63648ec34664fb","bdp_rd","Sun Mar 26 2023 20:33:05 GMT-0400 (Eastern Daylight Time)","156560","","null","","","","offerFB","","<div class='trialBorder'><div class='vertical-center'><img style='vertical-align:center; align:center' src=img/fixation3.jpg></div><div class='cl'><div class='vertical-center'><font style='color:orange'>$15<br>for<br>sure</font></div></div><div class='cr'><div class='vertical-center'>$34<br>with a<br>50% chance</div></div><div class='respDivL'><div class='vertical-center'><font style='color:orange'>(E)</font></div></div><div class='respDivR'><div class='vertical-center'>(I)</div></div></div>","null","$15","$34","0","15","34",""
"html-keyboard-response","115","112992","0.0-5.0-1.37","63daf5a89c63648ec34664fb","bdp_rd","Sun Mar 26 2023 20:33:05 GMT-0400 (Eastern Daylight Time)","156560","","null","","","","FIX","","<div class='trialBorder'><div class='vertical-center'><img style='vertical-align:center; align:center' src=img/fixation3.jpg></div></div>","null","","","","","",""
"html-keyboard-response","116","114076","0.0-5.0-2.37","63daf5a89c63648ec34664fb","bdp_rd","Sun Mar 26 2023 20:33:05 GMT-0400 (Eastern Daylight Time)","156560","","1084","","","","offer","","<div class='trialBorder'><div class='vertical-center'><img style='vertical-align:center; align:center' src=img/fixation3.jpg></div><div class='cl'><div class='vertical-center'>$65<br>with a<br>50% chance</div></div><div class='cr'><div class='vertical-center'>$46<br>for<br>sure</div></div><div class='respDivL'><div class='vertical-center'>(E)</div></div><div class='respDivR'><div class='vertical-center'>(I)</div></div></div>","I","$46","$65","1","46","65","SURE"
"html-keyboard-response","117","114338","0.0-5.0-3.37","63daf5a89c63648ec34664fb","bdp_rd","Sun Mar 26 2023 20:33:05 GMT-0400 (Eastern Daylight Time)","156560","","null","","","","offerFB","","<div class='trialBorder'><div class='vertical-center'><img style='vertical-align:center; align:center' src=img/fixation3.jpg></div><div class='cl'><div class='vertical-center'>$65<br>with a<br>50% chance</div></div><div class='cr'><div class='vertical-center'><font style='color:orange'>$46<br>for<br>sure</font></div></div><div class='respDivL'><div class='vertical-center'>(E)</div></div><div class='respDivR'><div class='vertical-center'><font style='color:orange'>(I)</font></div></div></div>","null","$46","$65","1","46","65",""
"html-keyboard-response","118","114849","0.0-5.0-1.38","63daf5a89c63648ec34664fb","bdp_rd","Sun Mar 26 2023 20:33:05 GMT-0400 (Eastern Daylight Time)","156560","","null","","","","FIX","","<div class='trialBorder'><div class='vertical-center'><img style='vertical-align:center; align:center' src=img/fixation3.jpg></div></div>","null","","","","","",""
"html-keyboard-response","119","115739","0.0-5.0-2.38","63daf5a89c63648ec34664fb","bdp_rd","Sun Mar 26 2023 20:33:05 GMT-0400 (Eastern Daylight Time)","156560","","889","","","","offer","","<div class='trialBorder'><div class='vertical-center'><img style='vertical-align:center; align:center' src=img/fixation3.jpg></div><div class='cl'><div class='vertical-center'>$13<br>for<br>sure</div></div><div class='cr'><div class='vertical-center'>$41<br>with a<br>50% chance</div></div><div class='respDivL'><div class='vertical-center'>(E)</div></div><div class='respDivR'><div class='vertical-center'>(I)</div></div></div>","E","$13","$41","0","13","41","SURE"
"html-keyboard-response","120","116001","0.0-5.0-3.38","63daf5a89c63648ec34664fb","bdp_rd","Sun Mar 26 2023 20:33:05 GMT-0400 (Eastern Daylight Time)","156560","","null","","","","offerFB","","<div class='trialBorder'><div class='vertical-center'><img style='vertical-align:center; align:center' src=img/fixation3.jpg></div><div class='cl'><div class='vertical-center'><font style='color:orange'>$13<br>for<br>sure</font></div></div><div class='cr'><div class='vertical-center'>$41<br>with a<br>50% chance</div></div><div class='respDivL'><div class='vertical-center'><font style='color:orange'>(E)</font></div></div><div class='respDivR'><div class='vertical-center'>(I)</div></div></div>","null","$13","$41","0","13","41",""
"html-keyboard-response","121","116504","0.0-5.0-1.39","63daf5a89c63648ec34664fb","bdp_rd","Sun Mar 26 2023 20:33:05 GMT-0400 (Eastern Daylight Time)","156560","","null","","","","FIX","","<div class='trialBorder'><div class='vertical-center'><img style='vertical-align:center; align:center' src=img/fixation3.jpg></div></div>","null","","","","","",""
"html-keyboard-response","122","117582","0.0-5.0-2.39","63daf5a89c63648ec34664fb","bdp_rd","Sun Mar 26 2023 20:33:05 GMT-0400 (Eastern Daylight Time)","156560","","1078","","","","offer","","<div class='trialBorder'><div class='vertical-center'><img style='vertical-align:center; align:center' src=img/fixation3.jpg></div><div class='cl'><div class='vertical-center'>$53<br>for<br>sure</div></div><div class='cr'><div class='vertical-center'>$98<br>with a<br>50% chance</div></div><div class='respDivL'><div class='vertical-center'>(E)</div></div><div class='respDivR'><div class='vertical-center'>(I)</div></div></div>","E","$53","$98","0","53","98","SURE"
"html-keyboard-response","123","117839","0.0-5.0-3.39","63daf5a89c63648ec34664fb","bdp_rd","Sun Mar 26 2023 20:33:05 GMT-0400 (Eastern Daylight Time)","156560","","null","","","","offerFB","","<div class='trialBorder'><div class='vertical-center'><img style='vertical-align:center; align:center' src=img/fixation3.jpg></div><div class='cl'><div class='vertical-center'><font style='color:orange'>$53<br>for<br>sure</font></div></div><div class='cr'><div class='vertical-center'>$98<br>with a<br>50% chance</div></div><div class='respDivL'><div class='vertical-center'><font style='color:orange'>(E)</font></div></div><div class='respDivR'><div class='vertical-center'>(I)</div></div></div>","null","$53","$98","0","53","98",""
"html-keyboard-response","124","118344","0.0-5.0-1.40","63daf5a89c63648ec34664fb","bdp_rd","Sun Mar 26 2023 20:33:05 GMT-0400 (Eastern Daylight Time)","156560","","null","","","","FIX","","<div class='trialBorder'><div class='vertical-center'><img style='vertical-align:center; align:center' src=img/fixation3.jpg></div></div>","null","","","","","",""
"html-keyboard-response","125","119595","0.0-5.0-2.40","63daf5a89c63648ec34664fb","bdp_rd","Sun Mar 26 2023 20:33:05 GMT-0400 (Eastern Daylight Time)","156560","","1251","","","","offer","","<div class='trialBorder'><div class='vertical-center'><img style='vertical-align:center; align:center' src=img/fixation3.jpg></div><div class='cl'><div class='vertical-center'>$27<br>for<br>sure</div></div><div class='cr'><div class='vertical-center'>$47<br>with a<br>50% chance</div></div><div class='respDivL'><div class='vertical-center'>(E)</div></div><div class='respDivR'><div class='vertical-center'>(I)</div></div></div>","E","$27","$47","0","27","47","SURE"
"html-keyboard-response","126","119859","0.0-5.0-3.40","63daf5a89c63648ec34664fb","bdp_rd","Sun Mar 26 2023 20:33:05 GMT-0400 (Eastern Daylight Time)","156560","","null","","","","offerFB","","<div class='trialBorder'><div class='vertical-center'><img style='vertical-align:center; align:center' src=img/fixation3.jpg></div><div class='cl'><div class='vertical-center'><font style='color:orange'>$27<br>for<br>sure</font></div></div><div class='cr'><div class='vertical-center'>$47<br>with a<br>50% chance</div></div><div class='respDivL'><div class='vertical-center'><font style='color:orange'>(E)</font></div></div><div class='respDivR'><div class='vertical-center'>(I)</div></div></div>","null","$27","$47","0","27","47",""
"html-keyboard-response","127","120370","0.0-5.0-1.41","63daf5a89c63648ec34664fb","bdp_rd","Sun Mar 26 2023 20:33:05 GMT-0400 (Eastern Daylight Time)","156560","","null","","","","FIX","","<div class='trialBorder'><div class='vertical-center'><img style='vertical-align:center; align:center' src=img/fixation3.jpg></div></div>","null","","","","","",""
"html-keyboard-response","128","121733","0.0-5.0-2.41","63daf5a89c63648ec34664fb","bdp_rd","Sun Mar 26 2023 20:33:05 GMT-0400 (Eastern Daylight Time)","156560","","1363","","","","offer","","<div class='trialBorder'><div class='vertical-center'><img style='vertical-align:center; align:center' src=img/fixation3.jpg></div><div class='cl'><div class='vertical-center'>$15<br>for<br>sure</div></div><div class='cr'><div class='vertical-center'>$31<br>with a<br>50% chance</div></div><div class='respDivL'><div class='vertical-center'>(E)</div></div><div class='respDivR'><div class='vertical-center'>(I)</div></div></div>","E","$15","$31","0","15","31","SURE"
"html-keyboard-response","129","121995","0.0-5.0-3.41","63daf5a89c63648ec34664fb","bdp_rd","Sun Mar 26 2023 20:33:05 GMT-0400 (Eastern Daylight Time)","156560","","null","","","","offerFB","","<div class='trialBorder'><div class='vertical-center'><img style='vertical-align:center; align:center' src=img/fixation3.jpg></div><div class='cl'><div class='vertical-center'><font style='color:orange'>$15<br>for<br>sure</font></div></div><div class='cr'><div class='vertical-center'>$31<br>with a<br>50% chance</div></div><div class='respDivL'><div class='vertical-center'><font style='color:orange'>(E)</font></div></div><div class='respDivR'><div class='vertical-center'>(I)</div></div></div>","null","$15","$31","0","15","31",""
"html-keyboard-response","130","122506","0.0-5.0-1.42","63daf5a89c63648ec34664fb","bdp_rd","Sun Mar 26 2023 20:33:05 GMT-0400 (Eastern Daylight Time)","156560","","null","","","","FIX","","<div class='trialBorder'><div class='vertical-center'><img style='vertical-align:center; align:center' src=img/fixation3.jpg></div></div>","null","","","","","",""
"html-keyboard-response","131","123860","0.0-5.0-2.42","63daf5a89c63648ec34664fb","bdp_rd","Sun Mar 26 2023 20:33:05 GMT-0400 (Eastern Daylight Time)","156560","","1353","","","","offer","","<div class='trialBorder'><div class='vertical-center'><img style='vertical-align:center; align:center' src=img/fixation3.jpg></div><div class='cl'><div class='vertical-center'>$28<br>for<br>sure</div></div><div class='cr'><div class='vertical-center'>$89<br>with a<br>50% chance</div></div><div class='respDivL'><div class='vertical-center'>(E)</div></div><div class='respDivR'><div class='vertical-center'>(I)</div></div></div>","E","$28","$89","0","28","89","SURE"
"html-keyboard-response","132","124114","0.0-5.0-3.42","63daf5a89c63648ec34664fb","bdp_rd","Sun Mar 26 2023 20:33:05 GMT-0400 (Eastern Daylight Time)","156560","","null","","","","offerFB","","<div class='trialBorder'><div class='vertical-center'><img style='vertical-align:center; align:center' src=img/fixation3.jpg></div><div class='cl'><div class='vertical-center'><font style='color:orange'>$28<br>for<br>sure</font></div></div><div class='cr'><div class='vertical-center'>$89<br>with a<br>50% chance</div></div><div class='respDivL'><div class='vertical-center'><font style='color:orange'>(E)</font></div></div><div class='respDivR'><div class='vertical-center'>(I)</div></div></div>","null","$28","$89","0","28","89",""
"html-keyboard-response","133","124625","0.0-5.0-1.43","63daf5a89c63648ec34664fb","bdp_rd","Sun Mar 26 2023 20:33:05 GMT-0400 (Eastern Daylight Time)","156560","","null","","","","FIX","","<div class='trialBorder'><div class='vertical-center'><img style='vertical-align:center; align:center' src=img/fixation3.jpg></div></div>","null","","","","","",""
"html-keyboard-response","134","125687","0.0-5.0-2.43","63daf5a89c63648ec34664fb","bdp_rd","Sun Mar 26 2023 20:33:05 GMT-0400 (Eastern Daylight Time)","156560","","1062","","","","offer","","<div class='trialBorder'><div class='vertical-center'><img style='vertical-align:center; align:center' src=img/fixation3.jpg></div><div class='cl'><div class='vertical-center'>$14<br>for<br>sure</div></div><div class='cr'><div class='vertical-center'>$22<br>with a<br>50% chance</div></div><div class='respDivL'><div class='vertical-center'>(E)</div></div><div class='respDivR'><div class='vertical-center'>(I)</div></div></div>","E","$14","$22","0","14","22","SURE"
"html-keyboard-response","135","125942","0.0-5.0-3.43","63daf5a89c63648ec34664fb","bdp_rd","Sun Mar 26 2023 20:33:05 GMT-0400 (Eastern Daylight Time)","156560","","null","","","","offerFB","","<div class='trialBorder'><div class='vertical-center'><img style='vertical-align:center; align:center' src=img/fixation3.jpg></div><div class='cl'><div class='vertical-center'><font style='color:orange'>$14<br>for<br>sure</font></div></div><div class='cr'><div class='vertical-center'>$22<br>with a<br>50% chance</div></div><div class='respDivL'><div class='vertical-center'><font style='color:orange'>(E)</font></div></div><div class='respDivR'><div class='vertical-center'>(I)</div></div></div>","null","$14","$22","0","14","22",""
"html-keyboard-response","136","126450","0.0-5.0-1.44","63daf5a89c63648ec34664fb","bdp_rd","Sun Mar 26 2023 20:33:05 GMT-0400 (Eastern Daylight Time)","156560","","null","","","","FIX","","<div class='trialBorder'><div class='vertical-center'><img style='vertical-align:center; align:center' src=img/fixation3.jpg></div></div>","null","","","","","",""
"html-keyboard-response","137","127187","0.0-5.0-2.44","63daf5a89c63648ec34664fb","bdp_rd","Sun Mar 26 2023 20:33:05 GMT-0400 (Eastern Daylight Time)","156560","","736","","","","offer","","<div class='trialBorder'><div class='vertical-center'><img style='vertical-align:center; align:center' src=img/fixation3.jpg></div><div class='cl'><div class='vertical-center'>$5<br>for<br>sure</div></div><div class='cr'><div class='vertical-center'>$50<br>with a<br>50% chance</div></div><div class='respDivL'><div class='vertical-center'>(E)</div></div><div class='respDivR'><div class='vertical-center'>(I)</div></div></div>","E","$5","$50","0","5","50","SURE"
"html-keyboard-response","138","127451","0.0-5.0-3.44","63daf5a89c63648ec34664fb","bdp_rd","Sun Mar 26 2023 20:33:05 GMT-0400 (Eastern Daylight Time)","156560","","null","","","","offerFB","","<div class='trialBorder'><div class='vertical-center'><img style='vertical-align:center; align:center' src=img/fixation3.jpg></div><div class='cl'><div class='vertical-center'><font style='color:orange'>$5<br>for<br>sure</font></div></div><div class='cr'><div class='vertical-center'>$50<br>with a<br>50% chance</div></div><div class='respDivL'><div class='vertical-center'><font style='color:orange'>(E)</font></div></div><div class='respDivR'><div class='vertical-center'>(I)</div></div></div>","null","$5","$50","0","5","50",""
"html-keyboard-response","139","127962","0.0-5.0-1.45","63daf5a89c63648ec34664fb","bdp_rd","Sun Mar 26 2023 20:33:05 GMT-0400 (Eastern Daylight Time)","156560","","null","","","","FIX","","<div class='trialBorder'><div class='vertical-center'><img style='vertical-align:center; align:center' src=img/fixation3.jpg></div></div>","null","","","","","",""
"html-keyboard-response","140","129006","0.0-5.0-2.45","63daf5a89c63648ec34664fb","bdp_rd","Sun Mar 26 2023 20:33:05 GMT-0400 (Eastern Daylight Time)","156560","","1043","","","","offer","","<div class='trialBorder'><div class='vertical-center'><img style='vertical-align:center; align:center' src=img/fixation3.jpg></div><div class='cl'><div class='vertical-center'>$22<br>for<br>sure</div></div><div class='cr'><div class='vertical-center'>$59<br>with a<br>50% chance</div></div><div class='respDivL'><div class='vertical-center'>(E)</div></div><div class='respDivR'><div class='vertical-center'>(I)</div></div></div>","E","$22","$59","0","22","59","SURE"
"html-keyboard-response","141","129263","0.0-5.0-3.45","63daf5a89c63648ec34664fb","bdp_rd","Sun Mar 26 2023 20:33:05 GMT-0400 (Eastern Daylight Time)","156560","","null","","","","offerFB","","<div class='trialBorder'><div class='vertical-center'><img style='vertical-align:center; align:center' src=img/fixation3.jpg></div><div class='cl'><div class='vertical-center'><font style='color:orange'>$22<br>for<br>sure</font></div></div><div class='cr'><div class='vertical-center'>$59<br>with a<br>50% chance</div></div><div class='respDivL'><div class='vertical-center'><font style='color:orange'>(E)</font></div></div><div class='respDivR'><div class='vertical-center'>(I)</div></div></div>","null","$22","$59","0","22","59",""
"html-keyboard-response","142","129767","0.0-5.0-1.46","63daf5a89c63648ec34664fb","bdp_rd","Sun Mar 26 2023 20:33:05 GMT-0400 (Eastern Daylight Time)","156560","","null","","","","FIX","","<div class='trialBorder'><div class='vertical-center'><img style='vertical-align:center; align:center' src=img/fixation3.jpg></div></div>","null","","","","","",""
"html-keyboard-response","143","131371","0.0-5.0-2.46","63daf5a89c63648ec34664fb","bdp_rd","Sun Mar 26 2023 20:33:05 GMT-0400 (Eastern Daylight Time)","156560","","1603","","","","offer","","<div class='trialBorder'><div class='vertical-center'><img style='vertical-align:center; align:center' src=img/fixation3.jpg></div><div class='cl'><div class='vertical-center'>$45<br>with a<br>50% chance</div></div><div class='cr'><div class='vertical-center'>$8<br>for<br>sure</div></div><div class='respDivL'><div class='vertical-center'>(E)</div></div><div class='respDivR'><div class='vertical-center'>(I)</div></div></div>","I","$8","$45","1","8","45","SURE"
"html-keyboard-response","144","131631","0.0-5.0-3.46","63daf5a89c63648ec34664fb","bdp_rd","Sun Mar 26 2023 20:33:05 GMT-0400 (Eastern Daylight Time)","156560","","null","","","","offerFB","","<div class='trialBorder'><div class='vertical-center'><img style='vertical-align:center; align:center' src=img/fixation3.jpg></div><div class='cl'><div class='vertical-center'>$45<br>with a<br>50% chance</div></div><div class='cr'><div class='vertical-center'><font style='color:orange'>$8<br>for<br>sure</font></div></div><div class='respDivL'><div class='vertical-center'>(E)</div></div><div class='respDivR'><div class='vertical-center'><font style='color:orange'>(I)</font></div></div></div>","null","$8","$45","1","8","45",""
"html-keyboard-response","145","132136","0.0-5.0-1.47","63daf5a89c63648ec34664fb","bdp_rd","Sun Mar 26 2023 20:33:05 GMT-0400 (Eastern Daylight Time)","156560","","null","","","","FIX","","<div class='trialBorder'><div class='vertical-center'><img style='vertical-align:center; align:center' src=img/fixation3.jpg></div></div>","null","","","","","",""
"html-keyboard-response","146","133307","0.0-5.0-2.47","63daf5a89c63648ec34664fb","bdp_rd","Sun Mar 26 2023 20:33:05 GMT-0400 (Eastern Daylight Time)","156560","","1169","","","","offer","","<div class='trialBorder'><div class='vertical-center'><img style='vertical-align:center; align:center' src=img/fixation3.jpg></div><div class='cl'><div class='vertical-center'>$26<br>for<br>sure</div></div><div class='cr'><div class='vertical-center'>$92<br>with a<br>50% chance</div></div><div class='respDivL'><div class='vertical-center'>(E)</div></div><div class='respDivR'><div class='vertical-center'>(I)</div></div></div>","E","$26","$92","0","26","92","SURE"
"html-keyboard-response","147","133570","0.0-5.0-3.47","63daf5a89c63648ec34664fb","bdp_rd","Sun Mar 26 2023 20:33:05 GMT-0400 (Eastern Daylight Time)","156560","","null","","","","offerFB","","<div class='trialBorder'><div class='vertical-center'><img style='vertical-align:center; align:center' src=img/fixation3.jpg></div><div class='cl'><div class='vertical-center'><font style='color:orange'>$26<br>for<br>sure</font></div></div><div class='cr'><div class='vertical-center'>$92<br>with a<br>50% chance</div></div><div class='respDivL'><div class='vertical-center'><font style='color:orange'>(E)</font></div></div><div class='respDivR'><div class='vertical-center'>(I)</div></div></div>","null","$26","$92","0","26","92",""
"html-keyboard-response","148","134081","0.0-5.0-1.48","63daf5a89c63648ec34664fb","bdp_rd","Sun Mar 26 2023 20:33:05 GMT-0400 (Eastern Daylight Time)","156560","","null","","","","FIX","","<div class='trialBorder'><div class='vertical-center'><img style='vertical-align:center; align:center' src=img/fixation3.jpg></div></div>","null","","","","","",""
"html-keyboard-response","149","135315","0.0-5.0-2.48","63daf5a89c63648ec34664fb","bdp_rd","Sun Mar 26 2023 20:33:05 GMT-0400 (Eastern Daylight Time)","156560","","1234","","","","offer","","<div class='trialBorder'><div class='vertical-center'><img style='vertical-align:center; align:center' src=img/fixation3.jpg></div><div class='cl'><div class='vertical-center'>$86<br>with a<br>50% chance</div></div><div class='cr'><div class='vertical-center'>$45<br>for<br>sure</div></div><div class='respDivL'><div class='vertical-center'>(E)</div></div><div class='respDivR'><div class='vertical-center'>(I)</div></div></div>","I","$45","$86","1","45","86","SURE"
"html-keyboard-response","150","135578","0.0-5.0-3.48","63daf5a89c63648ec34664fb","bdp_rd","Sun Mar 26 2023 20:33:05 GMT-0400 (Eastern Daylight Time)","156560","","null","","","","offerFB","","<div class='trialBorder'><div class='vertical-center'><img style='vertical-align:center; align:center' src=img/fixation3.jpg></div><div class='cl'><div class='vertical-center'>$86<br>with a<br>50% chance</div></div><div class='cr'><div class='vertical-center'><font style='color:orange'>$45<br>for<br>sure</font></div></div><div class='respDivL'><div class='vertical-center'>(E)</div></div><div class='respDivR'><div class='vertical-center'><font style='color:orange'>(I)</font></div></div></div>","null","$45","$86","1","45","86",""
"html-keyboard-response","151","136089","0.0-5.0-1.49","63daf5a89c63648ec34664fb","bdp_rd","Sun Mar 26 2023 20:33:05 GMT-0400 (Eastern Daylight Time)","156560","","null","","","","FIX","","<div class='trialBorder'><div class='vertical-center'><img style='vertical-align:center; align:center' src=img/fixation3.jpg></div></div>","null","","","","","",""
"html-keyboard-response","152","137413","0.0-5.0-2.49","63daf5a89c63648ec34664fb","bdp_rd","Sun Mar 26 2023 20:33:05 GMT-0400 (Eastern Daylight Time)","156560","","1323","","","","offer","","<div class='trialBorder'><div class='vertical-center'><img style='vertical-align:center; align:center' src=img/fixation3.jpg></div><div class='cl'><div class='vertical-center'>$36<br>with a<br>50% chance</div></div><div class='cr'><div class='vertical-center'>$18<br>for<br>sure</div></div><div class='respDivL'><div class='vertical-center'>(E)</div></div><div class='respDivR'><div class='vertical-center'>(I)</div></div></div>","I","$18","$36","1","18","36","SURE"
"html-keyboard-response","153","137674","0.0-5.0-3.49","63daf5a89c63648ec34664fb","bdp_rd","Sun Mar 26 2023 20:33:05 GMT-0400 (Eastern Daylight Time)","156560","","null","","","","offerFB","","<div class='trialBorder'><div class='vertical-center'><img style='vertical-align:center; align:center' src=img/fixation3.jpg></div><div class='cl'><div class='vertical-center'>$36<br>with a<br>50% chance</div></div><div class='cr'><div class='vertical-center'><font style='color:orange'>$18<br>for<br>sure</font></div></div><div class='respDivL'><div class='vertical-center'>(E)</div></div><div class='respDivR'><div class='vertical-center'><font style='color:orange'>(I)</font></div></div></div>","null","$18","$36","1","18","36",""
"html-keyboard-response","154","138184","0.0-5.0-1.50","63daf5a89c63648ec34664fb","bdp_rd","Sun Mar 26 2023 20:33:05 GMT-0400 (Eastern Daylight Time)","156560","","null","","","","FIX","","<div class='trialBorder'><div class='vertical-center'><img style='vertical-align:center; align:center' src=img/fixation3.jpg></div></div>","null","","","","","",""
"html-keyboard-response","155","139300","0.0-5.0-2.50","63daf5a89c63648ec34664fb","bdp_rd","Sun Mar 26 2023 20:33:05 GMT-0400 (Eastern Daylight Time)","156560","","1115","","","","offer","","<div class='trialBorder'><div class='vertical-center'><img style='vertical-align:center; align:center' src=img/fixation3.jpg></div><div class='cl'><div class='vertical-center'>$78<br>with a<br>50% chance</div></div><div class='cr'><div class='vertical-center'>$31<br>for<br>sure</div></div><div class='respDivL'><div class='vertical-center'>(E)</div></div><div class='respDivR'><div class='vertical-center'>(I)</div></div></div>","I","$31","$78","1","31","78","SURE"
"html-keyboard-response","156","139560","0.0-5.0-3.50","63daf5a89c63648ec34664fb","bdp_rd","Sun Mar 26 2023 20:33:05 GMT-0400 (Eastern Daylight Time)","156560","","null","","","","offerFB","","<div class='trialBorder'><div class='vertical-center'><img style='vertical-align:center; align:center' src=img/fixation3.jpg></div><div class='cl'><div class='vertical-center'>$78<br>with a<br>50% chance</div></div><div class='cr'><div class='vertical-center'><font style='color:orange'>$31<br>for<br>sure</font></div></div><div class='respDivL'><div class='vertical-center'>(E)</div></div><div class='respDivR'><div class='vertical-center'><font style='color:orange'>(I)</font></div></div></div>","null","$31","$78","1","31","78",""
"html-keyboard-response","157","140065","0.0-5.0-1.51","63daf5a89c63648ec34664fb","bdp_rd","Sun Mar 26 2023 20:33:05 GMT-0400 (Eastern Daylight Time)","156560","","null","","","","FIX","","<div class='trialBorder'><div class='vertical-center'><img style='vertical-align:center; align:center' src=img/fixation3.jpg></div></div>","null","","","","","",""
"html-keyboard-response","158","140987","0.0-5.0-2.51","63daf5a89c63648ec34664fb","bdp_rd","Sun Mar 26 2023 20:33:05 GMT-0400 (Eastern Daylight Time)","156560","","920","","","","offer","","<div class='trialBorder'><div class='vertical-center'><img style='vertical-align:center; align:center' src=img/fixation3.jpg></div><div class='cl'><div class='vertical-center'>$9<br>for<br>sure</div></div><div class='cr'><div class='vertical-center'>$32<br>with a<br>50% chance</div></div><div class='respDivL'><div class='vertical-center'>(E)</div></div><div class='respDivR'><div class='vertical-center'>(I)</div></div></div>","E","$9","$32","0","9","32","SURE"
"html-keyboard-response","159","141250","0.0-5.0-3.51","63daf5a89c63648ec34664fb","bdp_rd","Sun Mar 26 2023 20:33:05 GMT-0400 (Eastern Daylight Time)","156560","","null","","","","offerFB","","<div class='trialBorder'><div class='vertical-center'><img style='vertical-align:center; align:center' src=img/fixation3.jpg></div><div class='cl'><div class='vertical-center'><font style='color:orange'>$9<br>for<br>sure</font></div></div><div class='cr'><div class='vertical-center'>$32<br>with a<br>50% chance</div></div><div class='respDivL'><div class='vertical-center'><font style='color:orange'>(E)</font></div></div><div class='respDivR'><div class='vertical-center'>(I)</div></div></div>","null","$9","$32","0","9","32",""
"html-keyboard-response","160","141760","0.0-5.0-1.52","63daf5a89c63648ec34664fb","bdp_rd","Sun Mar 26 2023 20:33:05 GMT-0400 (Eastern Daylight Time)","156560","","null","","","","FIX","","<div class='trialBorder'><div class='vertical-center'><img style='vertical-align:center; align:center' src=img/fixation3.jpg></div></div>","null","","","","","",""
"html-keyboard-response","161","142787","0.0-5.0-2.52","63daf5a89c63648ec34664fb","bdp_rd","Sun Mar 26 2023 20:33:05 GMT-0400 (Eastern Daylight Time)","156560","","1026","","","","offer","","<div class='trialBorder'><div class='vertical-center'><img style='vertical-align:center; align:center' src=img/fixation3.jpg></div><div class='cl'><div class='vertical-center'>$37<br>with a<br>50% chance</div></div><div class='cr'><div class='vertical-center'>$20<br>for<br>sure</div></div><div class='respDivL'><div class='vertical-center'>(E)</div></div><div class='respDivR'><div class='vertical-center'>(I)</div></div></div>","I","$20","$37","1","20","37","SURE"
"html-keyboard-response","162","143049","0.0-5.0-3.52","63daf5a89c63648ec34664fb","bdp_rd","Sun Mar 26 2023 20:33:05 GMT-0400 (Eastern Daylight Time)","156560","","null","","","","offerFB","","<div class='trialBorder'><div class='vertical-center'><img style='vertical-align:center; align:center' src=img/fixation3.jpg></div><div class='cl'><div class='vertical-center'>$37<br>with a<br>50% chance</div></div><div class='cr'><div class='vertical-center'><font style='color:orange'>$20<br>for<br>sure</font></div></div><div class='respDivL'><div class='vertical-center'>(E)</div></div><div class='respDivR'><div class='vertical-center'><font style='color:orange'>(I)</font></div></div></div>","null","$20","$37","1","20","37",""
"html-keyboard-response","163","143560","0.0-5.0-1.53","63daf5a89c63648ec34664fb","bdp_rd","Sun Mar 26 2023 20:33:05 GMT-0400 (Eastern Daylight Time)","156560","","null","","","","FIX","","<div class='trialBorder'><div class='vertical-center'><img style='vertical-align:center; align:center' src=img/fixation3.jpg></div></div>","null","","","","","",""
"html-keyboard-response","164","144589","0.0-5.0-2.53","63daf5a89c63648ec34664fb","bdp_rd","Sun Mar 26 2023 20:33:05 GMT-0400 (Eastern Daylight Time)","156560","","1028","","","","offer","","<div class='trialBorder'><div class='vertical-center'><img style='vertical-align:center; align:center' src=img/fixation3.jpg></div><div class='cl'><div class='vertical-center'>$100<br>with a<br>50% chance</div></div><div class='cr'><div class='vertical-center'>$63<br>for<br>sure</div></div><div class='respDivL'><div class='vertical-center'>(E)</div></div><div class='respDivR'><div class='vertical-center'>(I)</div></div></div>","I","$63","$100","1","63","10","SURE"
"html-keyboard-response","165","144848","0.0-5.0-3.53","63daf5a89c63648ec34664fb","bdp_rd","Sun Mar 26 2023 20:33:05 GMT-0400 (Eastern Daylight Time)","156560","","null","","","","offerFB","","<div class='trialBorder'><div class='vertical-center'><img style='vertical-align:center; align:center' src=img/fixation3.jpg></div><div class='cl'><div class='vertical-center'>$100<br>with a<br>50% chance</div></div><div class='cr'><div class='vertical-center'><font style='color:orange'>$63<br>for<br>sure</font></div></div><div class='respDivL'><div class='vertical-center'>(E)</div></div><div class='respDivR'><div class='vertical-center'><font style='color:orange'>(I)</font></div></div></div>","null","$63","$100","1","63","10",""
"html-keyboard-response","166","145353","0.0-5.0-1.54","63daf5a89c63648ec34664fb","bdp_rd","Sun Mar 26 2023 20:33:05 GMT-0400 (Eastern Daylight Time)","156560","","null","","","","FIX","","<div class='trialBorder'><div class='vertical-center'><img style='vertical-align:center; align:center' src=img/fixation3.jpg></div></div>","null","","","","","",""
"html-keyboard-response","167","146939","0.0-5.0-2.54","63daf5a89c63648ec34664fb","bdp_rd","Sun Mar 26 2023 20:33:05 GMT-0400 (Eastern Daylight Time)","156560","","1585","","","","offer","","<div class='trialBorder'><div class='vertical-center'><img style='vertical-align:center; align:center' src=img/fixation3.jpg></div><div class='cl'><div class='vertical-center'>$12<br>with a<br>50% chance</div></div><div class='cr'><div class='vertical-center'>$3<br>for<br>sure</div></div><div class='respDivL'><div class='vertical-center'>(E)</div></div><div class='respDivR'><div class='vertical-center'>(I)</div></div></div>","I","$3","$12","1","3","12","SURE"
"html-keyboard-response","168","147200","0.0-5.0-3.54","63daf5a89c63648ec34664fb","bdp_rd","Sun Mar 26 2023 20:33:05 GMT-0400 (Eastern Daylight Time)","156560","","null","","","","offerFB","","<div class='trialBorder'><div class='vertical-center'><img style='vertical-align:center; align:center' src=img/fixation3.jpg></div><div class='cl'><div class='vertical-center'>$12<br>with a<br>50% chance</div></div><div class='cr'><div class='vertical-center'><font style='color:orange'>$3<br>for<br>sure</font></div></div><div class='respDivL'><div class='vertical-center'>(E)</div></div><div class='respDivR'><div class='vertical-center'><font style='color:orange'>(I)</font></div></div></div>","null","$3","$12","1","3","12",""
"html-keyboard-response","169","147704","0.0-5.0-1.55","63daf5a89c63648ec34664fb","bdp_rd","Sun Mar 26 2023 20:33:05 GMT-0400 (Eastern Daylight Time)","156560","","null","","","","FIX","","<div class='trialBorder'><div class='vertical-center'><img style='vertical-align:center; align:center' src=img/fixation3.jpg></div></div>","null","","","","","",""
"html-keyboard-response","170","149035","0.0-5.0-2.55","63daf5a89c63648ec34664fb","bdp_rd","Sun Mar 26 2023 20:33:05 GMT-0400 (Eastern Daylight Time)","156560","","1329","","","","offer","","<div class='trialBorder'><div class='vertical-center'><img style='vertical-align:center; align:center' src=img/fixation3.jpg></div><div class='cl'><div class='vertical-center'>$10<br>for<br>sure</div></div><div class='cr'><div class='vertical-center'>$19<br>with a<br>50% chance</div></div><div class='respDivL'><div class='vertical-center'>(E)</div></div><div class='respDivR'><div class='vertical-center'>(I)</div></div></div>","E","$10","$19","0","10","19","SURE"
"html-keyboard-response","171","149295","0.0-5.0-3.55","63daf5a89c63648ec34664fb","bdp_rd","Sun Mar 26 2023 20:33:05 GMT-0400 (Eastern Daylight Time)","156560","","null","","","","offerFB","","<div class='trialBorder'><div class='vertical-center'><img style='vertical-align:center; align:center' src=img/fixation3.jpg></div><div class='cl'><div class='vertical-center'><font style='color:orange'>$10<br>for<br>sure</font></div></div><div class='cr'><div class='vertical-center'>$19<br>with a<br>50% chance</div></div><div class='respDivL'><div class='vertical-center'><font style='color:orange'>(E)</font></div></div><div class='respDivR'><div class='vertical-center'>(I)</div></div></div>","null","$10","$19","0","10","19",""
"html-keyboard-response","172","149800","0.0-5.0-1.56","63daf5a89c63648ec34664fb","bdp_rd","Sun Mar 26 2023 20:33:05 GMT-0400 (Eastern Daylight Time)","156560","","null","","","","FIX","","<div class='trialBorder'><div class='vertical-center'><img style='vertical-align:center; align:center' src=img/fixation3.jpg></div></div>","null","","","","","",""
"html-keyboard-response","173","150771","0.0-5.0-2.56","63daf5a89c63648ec34664fb","bdp_rd","Sun Mar 26 2023 20:33:05 GMT-0400 (Eastern Daylight Time)","156560","","970","","","","offer","","<div class='trialBorder'><div class='vertical-center'><img style='vertical-align:center; align:center' src=img/fixation3.jpg></div><div class='cl'><div class='vertical-center'>$71<br>with a<br>50% chance</div></div><div class='cr'><div class='vertical-center'>$7<br>for<br>sure</div></div><div class='respDivL'><div class='vertical-center'>(E)</div></div><div class='respDivR'><div class='vertical-center'>(I)</div></div></div>","I","$7","$71","1","7","71","SURE"
