"trial_type","trial_index","time_elapsed","internal_node_id","subject_id","task","startTime","totalTime","view_history","rt","event","trial","time","trialtype","success","stimulus","key_press","sureOffer","riskyOffer","riskyLeft","sureAmt","riskyAmt","chosen","numBlurs"
"pavlovia","0","2","0.0-0.0","63fe38bfab28b75385783fba","bdp_rd","Mon Mar 27 2023 18:23:56 GMT-0400 (Eastern Daylight Time)","167190","","","","","","","","","","","","","","","",""
"instructions","1","1759","0.0-1.0","63fe38bfab28b75385783fba","bdp_rd","Mon Mar 27 2023 18:23:56 GMT-0400 (Eastern Daylight Time)","167190","[{""page_index"":0,""viewing_time"":1756}]","1757","","","","","","","","","","","","","",""
"","","","","63fe38bfab28b75385783fba","bdp_rd","Mon Mar 27 2023 18:23:56 GMT-0400 (Eastern Daylight Time)","167190","","","fullscreenenter","2","3445","fullscreenenter","","","","","","","","","",""
"fullscreen","2","4393","0.0-2.0","63fe38bfab28b75385783fba","bdp_rd","Mon Mar 27 2023 18:23:56 GMT-0400 (Eastern Daylight Time)","167190","","","","","","","true","","","","","","","","",""
"instructions","3","25197","0.0-4.0","63fe38bfab28b75385783fba","bdp_rd","Mon Mar 27 2023 18:23:56 GMT-0400 (Eastern Daylight Time)","167190","[{""page_index"":0,""viewing_time"":5314},{""page_index"":1,""viewing_time"":5266},{""page_index"":2,""viewing_time"":10223}]","20803","","","","","","","","","","","","","",""
"html-keyboard-response","4","25698","0.0-5.0-1.0","63fe38bfab28b75385783fba","bdp_rd","Mon Mar 27 2023 18:23:56 GMT-0400 (Eastern Daylight Time)","167190","","null","","","","FIX","","<div class='trialBorder'><div class='vertical-center'><img style='vertical-align:center; align:center' src=img/fixation3.jpg></div></div>","null","","","","","","",""
"html-keyboard-response","5","28231","0.0-5.0-2.0","63fe38bfab28b75385783fba","bdp_rd","Mon Mar 27 2023 18:23:56 GMT-0400 (Eastern Daylight Time)","167190","","2533","","","","offer","","<div class='trialBorder'><div class='vertical-center'><img style='vertical-align:center; align:center' src=img/fixation3.jpg></div><div class='cl'><div class='vertical-center'>$26<br>for<br>sure</div></div><div class='cr'><div class='vertical-center'>$92<br>with a<br>50% chance</div></div><div class='respDivL'><div class='vertical-center'>(E)</div></div><div class='respDivR'><div class='vertical-center'>(I)</div></div></div>","E","$26","$92","0","26","92","SURE",""
"html-keyboard-response","6","28482","0.0-5.0-3.0","63fe38bfab28b75385783fba","bdp_rd","Mon Mar 27 2023 18:23:56 GMT-0400 (Eastern Daylight Time)","167190","","null","","","","offerFB","","<div class='trialBorder'><div class='vertical-center'><img style='vertical-align:center; align:center' src=img/fixation3.jpg></div><div class='cl'><div class='vertical-center'><font style='color:orange'>$26<br>for<br>sure</font></div></div><div class='cr'><div class='vertical-center'>$92<br>with a<br>50% chance</div></div><div class='respDivL'><div class='vertical-center'><font style='color:orange'>(E)</font></div></div><div class='respDivR'><div class='vertical-center'>(I)</div></div></div>","null","$26","$92","0","26","92","",""
"html-keyboard-response","7","28982","0.0-5.0-1.1","63fe38bfab28b75385783fba","bdp_rd","Mon Mar 27 2023 18:23:56 GMT-0400 (Eastern Daylight Time)","167190","","null","","","","FIX","","<div class='trialBorder'><div class='vertical-center'><img style='vertical-align:center; align:center' src=img/fixation3.jpg></div></div>","null","","","","","","",""
"html-keyboard-response","8","30643","0.0-5.0-2.1","63fe38bfab28b75385783fba","bdp_rd","Mon Mar 27 2023 18:23:56 GMT-0400 (Eastern Daylight Time)","167190","","1660","","","","offer","","<div class='trialBorder'><div class='vertical-center'><img style='vertical-align:center; align:center' src=img/fixation3.jpg></div><div class='cl'><div class='vertical-center'>$37<br>for<br>sure</div></div><div class='cr'><div class='vertical-center'>$44<br>with a<br>50% chance</div></div><div class='respDivL'><div class='vertical-center'>(E)</div></div><div class='respDivR'><div class='vertical-center'>(I)</div></div></div>","E","$37","$44","0","37","44","SURE",""
"html-keyboard-response","9","30895","0.0-5.0-3.1","63fe38bfab28b75385783fba","bdp_rd","Mon Mar 27 2023 18:23:56 GMT-0400 (Eastern Daylight Time)","167190","","null","","","","offerFB","","<div class='trialBorder'><div class='vertical-center'><img style='vertical-align:center; align:center' src=img/fixation3.jpg></div><div class='cl'><div class='vertical-center'><font style='color:orange'>$37<br>for<br>sure</font></div></div><div class='cr'><div class='vertical-center'>$44<br>with a<br>50% chance</div></div><div class='respDivL'><div class='vertical-center'><font style='color:orange'>(E)</font></div></div><div class='respDivR'><div class='vertical-center'>(I)</div></div></div>","null","$37","$44","0","37","44","",""
"html-keyboard-response","10","31396","0.0-5.0-1.2","63fe38bfab28b75385783fba","bdp_rd","Mon Mar 27 2023 18:23:56 GMT-0400 (Eastern Daylight Time)","167190","","null","","","","FIX","","<div class='trialBorder'><div class='vertical-center'><img style='vertical-align:center; align:center' src=img/fixation3.jpg></div></div>","null","","","","","","",""
"html-keyboard-response","11","32787","0.0-5.0-2.2","63fe38bfab28b75385783fba","bdp_rd","Mon Mar 27 2023 18:23:56 GMT-0400 (Eastern Daylight Time)","167190","","1391","","","","offer","","<div class='trialBorder'><div class='vertical-center'><img style='vertical-align:center; align:center' src=img/fixation3.jpg></div><div class='cl'><div class='vertical-center'>$36<br>with a<br>50% chance</div></div><div class='cr'><div class='vertical-center'>$18<br>for<br>sure</div></div><div class='respDivL'><div class='vertical-center'>(E)</div></div><div class='respDivR'><div class='vertical-center'>(I)</div></div></div>","I","$18","$36","1","18","36","SURE",""
"html-keyboard-response","12","33038","0.0-5.0-3.2","63fe38bfab28b75385783fba","bdp_rd","Mon Mar 27 2023 18:23:56 GMT-0400 (Eastern Daylight Time)","167190","","null","","","","offerFB","","<div class='trialBorder'><div class='vertical-center'><img style='vertical-align:center; align:center' src=img/fixation3.jpg></div><div class='cl'><div class='vertical-center'>$36<br>with a<br>50% chance</div></div><div class='cr'><div class='vertical-center'><font style='color:orange'>$18<br>for<br>sure</font></div></div><div class='respDivL'><div class='vertical-center'>(E)</div></div><div class='respDivR'><div class='vertical-center'><font style='color:orange'>(I)</font></div></div></div>","null","$18","$36","1","18","36","",""
"html-keyboard-response","13","33539","0.0-5.0-1.3","63fe38bfab28b75385783fba","bdp_rd","Mon Mar 27 2023 18:23:56 GMT-0400 (Eastern Daylight Time)","167190","","null","","","","FIX","","<div class='trialBorder'><div class='vertical-center'><img style='vertical-align:center; align:center' src=img/fixation3.jpg></div></div>","null","","","","","","",""
"html-keyboard-response","14","35639","0.0-5.0-2.3","63fe38bfab28b75385783fba","bdp_rd","Mon Mar 27 2023 18:23:56 GMT-0400 (Eastern Daylight Time)","167190","","2099","","","","offer","","<div class='trialBorder'><div class='vertical-center'><img style='vertical-align:center; align:center' src=img/fixation3.jpg></div><div class='cl'><div class='vertical-center'>$71<br>with a<br>50% chance</div></div><div class='cr'><div class='vertical-center'>$7<br>for<br>sure</div></div><div class='respDivL'><div class='vertical-center'>(E)</div></div><div class='respDivR'><div class='vertical-center'>(I)</div></div></div>","I","$7","$71","1","7","71","SURE",""
"html-keyboard-response","15","35891","0.0-5.0-3.3","63fe38bfab28b75385783fba","bdp_rd","Mon Mar 27 2023 18:23:56 GMT-0400 (Eastern Daylight Time)","167190","","null","","","","offerFB","","<div class='trialBorder'><div class='vertical-center'><img style='vertical-align:center; align:center' src=img/fixation3.jpg></div><div class='cl'><div class='vertical-center'>$71<br>with a<br>50% chance</div></div><div class='cr'><div class='vertical-center'><font style='color:orange'>$7<br>for<br>sure</font></div></div><div class='respDivL'><div class='vertical-center'>(E)</div></div><div class='respDivR'><div class='vertical-center'><font style='color:orange'>(I)</font></div></div></div>","null","$7","$71","1","7","71","",""
"html-keyboard-response","16","36391","0.0-5.0-1.4","63fe38bfab28b75385783fba","bdp_rd","Mon Mar 27 2023 18:23:56 GMT-0400 (Eastern Daylight Time)","167190","","null","","","","FIX","","<div class='trialBorder'><div class='vertical-center'><img style='vertical-align:center; align:center' src=img/fixation3.jpg></div></div>","null","","","","","","",""
"html-keyboard-response","17","38036","0.0-5.0-2.4","63fe38bfab28b75385783fba","bdp_rd","Mon Mar 27 2023 18:23:56 GMT-0400 (Eastern Daylight Time)","167190","","1644","","","","offer","","<div class='trialBorder'><div class='vertical-center'><img style='vertical-align:center; align:center' src=img/fixation3.jpg></div><div class='cl'><div class='vertical-center'>$16<br>for<br>sure</div></div><div class='cr'><div class='vertical-center'>$28<br>with a<br>50% chance</div></div><div class='respDivL'><div class='vertical-center'>(E)</div></div><div class='respDivR'><div class='vertical-center'>(I)</div></div></div>","E","$16","$28","0","16","28","SURE",""
"html-keyboard-response","18","38287","0.0-5.0-3.4","63fe38bfab28b75385783fba","bdp_rd","Mon Mar 27 2023 18:23:56 GMT-0400 (Eastern Daylight Time)","167190","","null","","","","offerFB","","<div class='trialBorder'><div class='vertical-center'><img style='vertical-align:center; align:center' src=img/fixation3.jpg></div><div class='cl'><div class='vertical-center'><font style='color:orange'>$16<br>for<br>sure</font></div></div><div class='cr'><div class='vertical-center'>$28<br>with a<br>50% chance</div></div><div class='respDivL'><div class='vertical-center'><font style='color:orange'>(E)</font></div></div><div class='respDivR'><div class='vertical-center'>(I)</div></div></div>","null","$16","$28","0","16","28","",""
"html-keyboard-response","19","38788","0.0-5.0-1.5","63fe38bfab28b75385783fba","bdp_rd","Mon Mar 27 2023 18:23:56 GMT-0400 (Eastern Daylight Time)","167190","","null","","","","FIX","","<div class='trialBorder'><div class='vertical-center'><img style='vertical-align:center; align:center' src=img/fixation3.jpg></div></div>","null","","","","","","",""
"html-keyboard-response","20","41800","0.0-5.0-2.5","63fe38bfab28b75385783fba","bdp_rd","Mon Mar 27 2023 18:23:56 GMT-0400 (Eastern Daylight Time)","167190","","3012","","","","offer","","<div class='trialBorder'><div class='vertical-center'><img style='vertical-align:center; align:center' src=img/fixation3.jpg></div><div class='cl'><div class='vertical-center'>$14<br>with a<br>50% chance</div></div><div class='cr'><div class='vertical-center'>$4<br>for<br>sure</div></div><div class='respDivL'><div class='vertical-center'>(E)</div></div><div class='respDivR'><div class='vertical-center'>(I)</div></div></div>","E","$4","$14","1","4","14","RISKY",""
"html-keyboard-response","21","42052","0.0-5.0-3.5","63fe38bfab28b75385783fba","bdp_rd","Mon Mar 27 2023 18:23:56 GMT-0400 (Eastern Daylight Time)","167190","","null","","","","offerFB","","<div class='trialBorder'><div class='vertical-center'><img style='vertical-align:center; align:center' src=img/fixation3.jpg></div><div class='cl'><div class='vertical-center'><font style='color:orange'>$14<br>with a<br>50% chance</font></div></div><div class='cr'><div class='vertical-center'>$4<br>for<br>sure</div></div><div class='respDivL'><div class='vertical-center'><font style='color:orange'>(E)</font></div></div><div class='respDivR'><div class='vertical-center'>(I)</div></div></div>","null","$4","$14","1","4","14","",""
"html-keyboard-response","22","42553","0.0-5.0-1.6","63fe38bfab28b75385783fba","bdp_rd","Mon Mar 27 2023 18:23:56 GMT-0400 (Eastern Daylight Time)","167190","","null","","","","FIX","","<div class='trialBorder'><div class='vertical-center'><img style='vertical-align:center; align:center' src=img/fixation3.jpg></div></div>","null","","","","","","",""
"html-keyboard-response","23","44300","0.0-5.0-2.6","63fe38bfab28b75385783fba","bdp_rd","Mon Mar 27 2023 18:23:56 GMT-0400 (Eastern Daylight Time)","167190","","1746","","","","offer","","<div class='trialBorder'><div class='vertical-center'><img style='vertical-align:center; align:center' src=img/fixation3.jpg></div><div class='cl'><div class='vertical-center'>$42<br>for<br>sure</div></div><div class='cr'><div class='vertical-center'>$73<br>with a<br>50% chance</div></div><div class='respDivL'><div class='vertical-center'>(E)</div></div><div class='respDivR'><div class='vertical-center'>(I)</div></div></div>","E","$42","$73","0","42","73","SURE",""
"html-keyboard-response","24","44551","0.0-5.0-3.6","63fe38bfab28b75385783fba","bdp_rd","Mon Mar 27 2023 18:23:56 GMT-0400 (Eastern Daylight Time)","167190","","null","","","","offerFB","","<div class='trialBorder'><div class='vertical-center'><img style='vertical-align:center; align:center' src=img/fixation3.jpg></div><div class='cl'><div class='vertical-center'><font style='color:orange'>$42<br>for<br>sure</font></div></div><div class='cr'><div class='vertical-center'>$73<br>with a<br>50% chance</div></div><div class='respDivL'><div class='vertical-center'><font style='color:orange'>(E)</font></div></div><div class='respDivR'><div class='vertical-center'>(I)</div></div></div>","null","$42","$73","0","42","73","",""
"html-keyboard-response","25","45052","0.0-5.0-1.7","63fe38bfab28b75385783fba","bdp_rd","Mon Mar 27 2023 18:23:56 GMT-0400 (Eastern Daylight Time)","167190","","null","","","","FIX","","<div class='trialBorder'><div class='vertical-center'><img style='vertical-align:center; align:center' src=img/fixation3.jpg></div></div>","null","","","","","","",""
"html-keyboard-response","26","46626","0.0-5.0-2.7","63fe38bfab28b75385783fba","bdp_rd","Mon Mar 27 2023 18:23:56 GMT-0400 (Eastern Daylight Time)","167190","","1574","","","","offer","","<div class='trialBorder'><div class='vertical-center'><img style='vertical-align:center; align:center' src=img/fixation3.jpg></div><div class='cl'><div class='vertical-center'>$7<br>for<br>sure</div></div><div class='cr'><div class='vertical-center'>$10<br>with a<br>50% chance</div></div><div class='respDivL'><div class='vertical-center'>(E)</div></div><div class='respDivR'><div class='vertical-center'>(I)</div></div></div>","I","$7","$10","0","7","10","RISKY",""
"html-keyboard-response","27","46878","0.0-5.0-3.7","63fe38bfab28b75385783fba","bdp_rd","Mon Mar 27 2023 18:23:56 GMT-0400 (Eastern Daylight Time)","167190","","null","","","","offerFB","","<div class='trialBorder'><div class='vertical-center'><img style='vertical-align:center; align:center' src=img/fixation3.jpg></div><div class='cl'><div class='vertical-center'>$7<br>for<br>sure</div></div><div class='cr'><div class='vertical-center'><font style='color:orange'>$10<br>with a<br>50% chance</font></div></div><div class='respDivL'><div class='vertical-center'>(E)</div></div><div class='respDivR'><div class='vertical-center'><font style='color:orange'>(I)</font></div></div></div>","null","$7","$10","0","7","10","",""
"html-keyboard-response","28","47379","0.0-5.0-1.8","63fe38bfab28b75385783fba","bdp_rd","Mon Mar 27 2023 18:23:56 GMT-0400 (Eastern Daylight Time)","167190","","null","","","","FIX","","<div class='trialBorder'><div class='vertical-center'><img style='vertical-align:center; align:center' src=img/fixation3.jpg></div></div>","null","","","","","","",""
"html-keyboard-response","29","53045","0.0-5.0-2.8","63fe38bfab28b75385783fba","bdp_rd","Mon Mar 27 2023 18:23:56 GMT-0400 (Eastern Daylight Time)","167190","","5665","","","","offer","","<div class='trialBorder'><div class='vertical-center'><img style='vertical-align:center; align:center' src=img/fixation3.jpg></div><div class='cl'><div class='vertical-center'>$24<br>for<br>sure</div></div><div class='cr'><div class='vertical-center'>$70<br>with a<br>50% chance</div></div><div class='respDivL'><div class='vertical-center'>(E)</div></div><div class='respDivR'><div class='vertical-center'>(I)</div></div></div>","I","$24","$70","0","24","70","RISKY",""
"html-keyboard-response","30","53296","0.0-5.0-3.8","63fe38bfab28b75385783fba","bdp_rd","Mon Mar 27 2023 18:23:56 GMT-0400 (Eastern Daylight Time)","167190","","null","","","","offerFB","","<div class='trialBorder'><div class='vertical-center'><img style='vertical-align:center; align:center' src=img/fixation3.jpg></div><div class='cl'><div class='vertical-center'>$24<br>for<br>sure</div></div><div class='cr'><div class='vertical-center'><font style='color:orange'>$70<br>with a<br>50% chance</font></div></div><div class='respDivL'><div class='vertical-center'>(E)</div></div><div class='respDivR'><div class='vertical-center'><font style='color:orange'>(I)</font></div></div></div>","null","$24","$70","0","24","70","",""
"html-keyboard-response","31","53797","0.0-5.0-1.9","63fe38bfab28b75385783fba","bdp_rd","Mon Mar 27 2023 18:23:56 GMT-0400 (Eastern Daylight Time)","167190","","null","","","","FIX","","<div class='trialBorder'><div class='vertical-center'><img style='vertical-align:center; align:center' src=img/fixation3.jpg></div></div>","null","","","","","","",""
"html-keyboard-response","32","54704","0.0-5.0-2.9","63fe38bfab28b75385783fba","bdp_rd","Mon Mar 27 2023 18:23:56 GMT-0400 (Eastern Daylight Time)","167190","","906","","","","offer","","<div class='trialBorder'><div class='vertical-center'><img style='vertical-align:center; align:center' src=img/fixation3.jpg></div><div class='cl'><div class='vertical-center'>$53<br>for<br>sure</div></div><div class='cr'><div class='vertical-center'>$98<br>with a<br>50% chance</div></div><div class='respDivL'><div class='vertical-center'>(E)</div></div><div class='respDivR'><div class='vertical-center'>(I)</div></div></div>","E","$53","$98","0","53","98","SURE",""
"html-keyboard-response","33","54955","0.0-5.0-3.9","63fe38bfab28b75385783fba","bdp_rd","Mon Mar 27 2023 18:23:56 GMT-0400 (Eastern Daylight Time)","167190","","null","","","","offerFB","","<div class='trialBorder'><div class='vertical-center'><img style='vertical-align:center; align:center' src=img/fixation3.jpg></div><div class='cl'><div class='vertical-center'><font style='color:orange'>$53<br>for<br>sure</font></div></div><div class='cr'><div class='vertical-center'>$98<br>with a<br>50% chance</div></div><div class='respDivL'><div class='vertical-center'><font style='color:orange'>(E)</font></div></div><div class='respDivR'><div class='vertical-center'>(I)</div></div></div>","null","$53","$98","0","53","98","",""
"html-keyboard-response","34","55457","0.0-5.0-1.10","63fe38bfab28b75385783fba","bdp_rd","Mon Mar 27 2023 18:23:56 GMT-0400 (Eastern Daylight Time)","167190","","null","","","","FIX","","<div class='trialBorder'><div class='vertical-center'><img style='vertical-align:center; align:center' src=img/fixation3.jpg></div></div>","null","","","","","","",""
"html-keyboard-response","35","56948","0.0-5.0-2.10","63fe38bfab28b75385783fba","bdp_rd","Mon Mar 27 2023 18:23:56 GMT-0400 (Eastern Daylight Time)","167190","","1491","","","","offer","","<div class='trialBorder'><div class='vertical-center'><img style='vertical-align:center; align:center' src=img/fixation3.jpg></div><div class='cl'><div class='vertical-center'>$17<br>with a<br>50% chance</div></div><div class='cr'><div class='vertical-center'>$3<br>for<br>sure</div></div><div class='respDivL'><div class='vertical-center'>(E)</div></div><div class='respDivR'><div class='vertical-center'>(I)</div></div></div>","E","$3","$17","1","3","17","RISKY",""
"html-keyboard-response","36","57199","0.0-5.0-3.10","63fe38bfab28b75385783fba","bdp_rd","Mon Mar 27 2023 18:23:56 GMT-0400 (Eastern Daylight Time)","167190","","null","","","","offerFB","","<div class='trialBorder'><div class='vertical-center'><img style='vertical-align:center; align:center' src=img/fixation3.jpg></div><div class='cl'><div class='vertical-center'><font style='color:orange'>$17<br>with a<br>50% chance</font></div></div><div class='cr'><div class='vertical-center'>$3<br>for<br>sure</div></div><div class='respDivL'><div class='vertical-center'><font style='color:orange'>(E)</font></div></div><div class='respDivR'><div class='vertical-center'>(I)</div></div></div>","null","$3","$17","1","3","17","",""
"html-keyboard-response","37","57700","0.0-5.0-1.11","63fe38bfab28b75385783fba","bdp_rd","Mon Mar 27 2023 18:23:56 GMT-0400 (Eastern Daylight Time)","167190","","null","","","","FIX","","<div class='trialBorder'><div class='vertical-center'><img style='vertical-align:center; align:center' src=img/fixation3.jpg></div></div>","null","","","","","","",""
"html-keyboard-response","38","60356","0.0-5.0-2.11","63fe38bfab28b75385783fba","bdp_rd","Mon Mar 27 2023 18:23:56 GMT-0400 (Eastern Daylight Time)","167190","","2655","","","","offer","","<div class='trialBorder'><div class='vertical-center'><img style='vertical-align:center; align:center' src=img/fixation3.jpg></div><div class='cl'><div class='vertical-center'>$33<br>for<br>sure</div></div><div class='cr'><div class='vertical-center'>$66<br>with a<br>50% chance</div></div><div class='respDivL'><div class='vertical-center'>(E)</div></div><div class='respDivR'><div class='vertical-center'>(I)</div></div></div>","E","$33","$66","0","33","66","SURE",""
"html-keyboard-response","39","60608","0.0-5.0-3.11","63fe38bfab28b75385783fba","bdp_rd","Mon Mar 27 2023 18:23:56 GMT-0400 (Eastern Daylight Time)","167190","","null","","","","offerFB","","<div class='trialBorder'><div class='vertical-center'><img style='vertical-align:center; align:center' src=img/fixation3.jpg></div><div class='cl'><div class='vertical-center'><font style='color:orange'>$33<br>for<br>sure</font></div></div><div class='cr'><div class='vertical-center'>$66<br>with a<br>50% chance</div></div><div class='respDivL'><div class='vertical-center'><font style='color:orange'>(E)</font></div></div><div class='respDivR'><div class='vertical-center'>(I)</div></div></div>","null","$33","$66","0","33","66","",""
"html-keyboard-response","40","61109","0.0-5.0-1.12","63fe38bfab28b75385783fba","bdp_rd","Mon Mar 27 2023 18:23:56 GMT-0400 (Eastern Daylight Time)","167190","","null","","","","FIX","","<div class='trialBorder'><div class='vertical-center'><img style='vertical-align:center; align:center' src=img/fixation3.jpg></div></div>","null","","","","","","",""
"html-keyboard-response","41","62272","0.0-5.0-2.12","63fe38bfab28b75385783fba","bdp_rd","Mon Mar 27 2023 18:23:56 GMT-0400 (Eastern Daylight Time)","167190","","1163","","","","offer","","<div class='trialBorder'><div class='vertical-center'><img style='vertical-align:center; align:center' src=img/fixation3.jpg></div><div class='cl'><div class='vertical-center'>$30<br>with a<br>50% chance</div></div><div class='cr'><div class='vertical-center'>$1<br>for<br>sure</div></div><div class='respDivL'><div class='vertical-center'>(E)</div></div><div class='respDivR'><div class='vertical-center'>(I)</div></div></div>","E","$1","$30","1","1","30","RISKY",""
"html-keyboard-response","42","62524","0.0-5.0-3.12","63fe38bfab28b75385783fba","bdp_rd","Mon Mar 27 2023 18:23:56 GMT-0400 (Eastern Daylight Time)","167190","","null","","","","offerFB","","<div class='trialBorder'><div class='vertical-center'><img style='vertical-align:center; align:center' src=img/fixation3.jpg></div><div class='cl'><div class='vertical-center'><font style='color:orange'>$30<br>with a<br>50% chance</font></div></div><div class='cr'><div class='vertical-center'>$1<br>for<br>sure</div></div><div class='respDivL'><div class='vertical-center'><font style='color:orange'>(E)</font></div></div><div class='respDivR'><div class='vertical-center'>(I)</div></div></div>","null","$1","$30","1","1","30","",""
"html-keyboard-response","43","63024","0.0-5.0-1.13","63fe38bfab28b75385783fba","bdp_rd","Mon Mar 27 2023 18:23:56 GMT-0400 (Eastern Daylight Time)","167190","","null","","","","FIX","","<div class='trialBorder'><div class='vertical-center'><img style='vertical-align:center; align:center' src=img/fixation3.jpg></div></div>","null","","","","","","",""
"html-keyboard-response","44","64687","0.0-5.0-2.13","63fe38bfab28b75385783fba","bdp_rd","Mon Mar 27 2023 18:23:56 GMT-0400 (Eastern Daylight Time)","167190","","1662","","","","offer","","<div class='trialBorder'><div class='vertical-center'><img style='vertical-align:center; align:center' src=img/fixation3.jpg></div><div class='cl'><div class='vertical-center'>$68<br>with a<br>50% chance</div></div><div class='cr'><div class='vertical-center'>$30<br>for<br>sure</div></div><div class='respDivL'><div class='vertical-center'>(E)</div></div><div class='respDivR'><div class='vertical-center'>(I)</div></div></div>","I","$30","$68","1","30","68","SURE",""
"html-keyboard-response","45","64938","0.0-5.0-3.13","63fe38bfab28b75385783fba","bdp_rd","Mon Mar 27 2023 18:23:56 GMT-0400 (Eastern Daylight Time)","167190","","null","","","","offerFB","","<div class='trialBorder'><div class='vertical-center'><img style='vertical-align:center; align:center' src=img/fixation3.jpg></div><div class='cl'><div class='vertical-center'>$68<br>with a<br>50% chance</div></div><div class='cr'><div class='vertical-center'><font style='color:orange'>$30<br>for<br>sure</font></div></div><div class='respDivL'><div class='vertical-center'>(E)</div></div><div class='respDivR'><div class='vertical-center'><font style='color:orange'>(I)</font></div></div></div>","null","$30","$68","1","30","68","",""
"html-keyboard-response","46","65439","0.0-5.0-1.14","63fe38bfab28b75385783fba","bdp_rd","Mon Mar 27 2023 18:23:56 GMT-0400 (Eastern Daylight Time)","167190","","null","","","","FIX","","<div class='trialBorder'><div class='vertical-center'><img style='vertical-align:center; align:center' src=img/fixation3.jpg></div></div>","null","","","","","","",""
"html-keyboard-response","47","66499","0.0-5.0-2.14","63fe38bfab28b75385783fba","bdp_rd","Mon Mar 27 2023 18:23:56 GMT-0400 (Eastern Daylight Time)","167190","","1060","","","","offer","","<div class='trialBorder'><div class='vertical-center'><img style='vertical-align:center; align:center' src=img/fixation3.jpg></div><div class='cl'><div class='vertical-center'>$63<br>for<br>sure</div></div><div class='cr'><div class='vertical-center'>$100<br>with a<br>50% chance</div></div><div class='respDivL'><div class='vertical-center'>(E)</div></div><div class='respDivR'><div class='vertical-center'>(I)</div></div></div>","E","$63","$100","0","63","10","SURE",""
"html-keyboard-response","48","66750","0.0-5.0-3.14","63fe38bfab28b75385783fba","bdp_rd","Mon Mar 27 2023 18:23:56 GMT-0400 (Eastern Daylight Time)","167190","","null","","","","offerFB","","<div class='trialBorder'><div class='vertical-center'><img style='vertical-align:center; align:center' src=img/fixation3.jpg></div><div class='cl'><div class='vertical-center'><font style='color:orange'>$63<br>for<br>sure</font></div></div><div class='cr'><div class='vertical-center'>$100<br>with a<br>50% chance</div></div><div class='respDivL'><div class='vertical-center'><font style='color:orange'>(E)</font></div></div><div class='respDivR'><div class='vertical-center'>(I)</div></div></div>","null","$63","$100","0","63","10","",""
"html-keyboard-response","49","67251","0.0-5.0-1.15","63fe38bfab28b75385783fba","bdp_rd","Mon Mar 27 2023 18:23:56 GMT-0400 (Eastern Daylight Time)","167190","","null","","","","FIX","","<div class='trialBorder'><div class='vertical-center'><img style='vertical-align:center; align:center' src=img/fixation3.jpg></div></div>","null","","","","","","",""
"html-keyboard-response","50","70010","0.0-5.0-2.15","63fe38bfab28b75385783fba","bdp_rd","Mon Mar 27 2023 18:23:56 GMT-0400 (Eastern Daylight Time)","167190","","2758","","","","offer","","<div class='trialBorder'><div class='vertical-center'><img style='vertical-align:center; align:center' src=img/fixation3.jpg></div><div class='cl'><div class='vertical-center'>$22<br>with a<br>50% chance</div></div><div class='cr'><div class='vertical-center'>$14<br>for<br>sure</div></div><div class='respDivL'><div class='vertical-center'>(E)</div></div><div class='respDivR'><div class='vertical-center'>(I)</div></div></div>","E","$14","$22","1","14","22","RISKY",""
"html-keyboard-response","51","70262","0.0-5.0-3.15","63fe38bfab28b75385783fba","bdp_rd","Mon Mar 27 2023 18:23:56 GMT-0400 (Eastern Daylight Time)","167190","","null","","","","offerFB","","<div class='trialBorder'><div class='vertical-center'><img style='vertical-align:center; align:center' src=img/fixation3.jpg></div><div class='cl'><div class='vertical-center'><font style='color:orange'>$22<br>with a<br>50% chance</font></div></div><div class='cr'><div class='vertical-center'>$14<br>for<br>sure</div></div><div class='respDivL'><div class='vertical-center'><font style='color:orange'>(E)</font></div></div><div class='respDivR'><div class='vertical-center'>(I)</div></div></div>","null","$14","$22","1","14","22","",""
"html-keyboard-response","52","70763","0.0-5.0-1.16","63fe38bfab28b75385783fba","bdp_rd","Mon Mar 27 2023 18:23:56 GMT-0400 (Eastern Daylight Time)","167190","","null","","","","FIX","","<div class='trialBorder'><div class='vertical-center'><img style='vertical-align:center; align:center' src=img/fixation3.jpg></div></div>","null","","","","","","",""
"html-keyboard-response","53","71758","0.0-5.0-2.16","63fe38bfab28b75385783fba","bdp_rd","Mon Mar 27 2023 18:23:56 GMT-0400 (Eastern Daylight Time)","167190","","994","","","","offer","","<div class='trialBorder'><div class='vertical-center'><img style='vertical-align:center; align:center' src=img/fixation3.jpg></div><div class='cl'><div class='vertical-center'>$15<br>for<br>sure</div></div><div class='cr'><div class='vertical-center'>$34<br>with a<br>50% chance</div></div><div class='respDivL'><div class='vertical-center'>(E)</div></div><div class='respDivR'><div class='vertical-center'>(I)</div></div></div>","E","$15","$34","0","15","34","SURE",""
"html-keyboard-response","54","72009","0.0-5.0-3.16","63fe38bfab28b75385783fba","bdp_rd","Mon Mar 27 2023 18:23:56 GMT-0400 (Eastern Daylight Time)","167190","","null","","","","offerFB","","<div class='trialBorder'><div class='vertical-center'><img style='vertical-align:center; align:center' src=img/fixation3.jpg></div><div class='cl'><div class='vertical-center'><font style='color:orange'>$15<br>for<br>sure</font></div></div><div class='cr'><div class='vertical-center'>$34<br>with a<br>50% chance</div></div><div class='respDivL'><div class='vertical-center'><font style='color:orange'>(E)</font></div></div><div class='respDivR'><div class='vertical-center'>(I)</div></div></div>","null","$15","$34","0","15","34","",""
"html-keyboard-response","55","72510","0.0-5.0-1.17","63fe38bfab28b75385783fba","bdp_rd","Mon Mar 27 2023 18:23:56 GMT-0400 (Eastern Daylight Time)","167190","","null","","","","FIX","","<div class='trialBorder'><div class='vertical-center'><img style='vertical-align:center; align:center' src=img/fixation3.jpg></div></div>","null","","","","","","",""
"html-keyboard-response","56","73917","0.0-5.0-2.17","63fe38bfab28b75385783fba","bdp_rd","Mon Mar 27 2023 18:23:56 GMT-0400 (Eastern Daylight Time)","167190","","1407","","","","offer","","<div class='trialBorder'><div class='vertical-center'><img style='vertical-align:center; align:center' src=img/fixation3.jpg></div><div class='cl'><div class='vertical-center'>$29<br>with a<br>50% chance</div></div><div class='cr'><div class='vertical-center'>$14<br>for<br>sure</div></div><div class='respDivL'><div class='vertical-center'>(E)</div></div><div class='respDivR'><div class='vertical-center'>(I)</div></div></div>","I","$14","$29","1","14","29","SURE",""
"html-keyboard-response","57","74168","0.0-5.0-3.17","63fe38bfab28b75385783fba","bdp_rd","Mon Mar 27 2023 18:23:56 GMT-0400 (Eastern Daylight Time)","167190","","null","","","","offerFB","","<div class='trialBorder'><div class='vertical-center'><img style='vertical-align:center; align:center' src=img/fixation3.jpg></div><div class='cl'><div class='vertical-center'>$29<br>with a<br>50% chance</div></div><div class='cr'><div class='vertical-center'><font style='color:orange'>$14<br>for<br>sure</font></div></div><div class='respDivL'><div class='vertical-center'>(E)</div></div><div class='respDivR'><div class='vertical-center'><font style='color:orange'>(I)</font></div></div></div>","null","$14","$29","1","14","29","",""
"html-keyboard-response","58","74668","0.0-5.0-1.18","63fe38bfab28b75385783fba","bdp_rd","Mon Mar 27 2023 18:23:56 GMT-0400 (Eastern Daylight Time)","167190","","null","","","","FIX","","<div class='trialBorder'><div class='vertical-center'><img style='vertical-align:center; align:center' src=img/fixation3.jpg></div></div>","null","","","","","","",""
"html-keyboard-response","59","76029","0.0-5.0-2.18","63fe38bfab28b75385783fba","bdp_rd","Mon Mar 27 2023 18:23:56 GMT-0400 (Eastern Daylight Time)","167190","","1360","","","","offer","","<div class='trialBorder'><div class='vertical-center'><img style='vertical-align:center; align:center' src=img/fixation3.jpg></div><div class='cl'><div class='vertical-center'>$31<br>for<br>sure</div></div><div class='cr'><div class='vertical-center'>$78<br>with a<br>50% chance</div></div><div class='respDivL'><div class='vertical-center'>(E)</div></div><div class='respDivR'><div class='vertical-center'>(I)</div></div></div>","E","$31","$78","0","31","78","SURE",""
"html-keyboard-response","60","76280","0.0-5.0-3.18","63fe38bfab28b75385783fba","bdp_rd","Mon Mar 27 2023 18:23:56 GMT-0400 (Eastern Daylight Time)","167190","","null","","","","offerFB","","<div class='trialBorder'><div class='vertical-center'><img style='vertical-align:center; align:center' src=img/fixation3.jpg></div><div class='cl'><div class='vertical-center'><font style='color:orange'>$31<br>for<br>sure</font></div></div><div class='cr'><div class='vertical-center'>$78<br>with a<br>50% chance</div></div><div class='respDivL'><div class='vertical-center'><font style='color:orange'>(E)</font></div></div><div class='respDivR'><div class='vertical-center'>(I)</div></div></div>","null","$31","$78","0","31","78","",""
"html-keyboard-response","61","76782","0.0-5.0-1.19","63fe38bfab28b75385783fba","bdp_rd","Mon Mar 27 2023 18:23:56 GMT-0400 (Eastern Daylight Time)","167190","","null","","","","FIX","","<div class='trialBorder'><div class='vertical-center'><img style='vertical-align:center; align:center' src=img/fixation3.jpg></div></div>","null","","","","","","",""
"html-keyboard-response","62","78693","0.0-5.0-2.19","63fe38bfab28b75385783fba","bdp_rd","Mon Mar 27 2023 18:23:56 GMT-0400 (Eastern Daylight Time)","167190","","1910","","","","offer","","<div class='trialBorder'><div class='vertical-center'><img style='vertical-align:center; align:center' src=img/fixation3.jpg></div><div class='cl'><div class='vertical-center'>$64<br>with a<br>50% chance</div></div><div class='cr'><div class='vertical-center'>$2<br>for<br>sure</div></div><div class='respDivL'><div class='vertical-center'>(E)</div></div><div class='respDivR'><div class='vertical-center'>(I)</div></div></div>","E","$2","$64","1","2","64","RISKY",""
"html-keyboard-response","63","78944","0.0-5.0-3.19","63fe38bfab28b75385783fba","bdp_rd","Mon Mar 27 2023 18:23:56 GMT-0400 (Eastern Daylight Time)","167190","","null","","","","offerFB","","<div class='trialBorder'><div class='vertical-center'><img style='vertical-align:center; align:center' src=img/fixation3.jpg></div><div class='cl'><div class='vertical-center'><font style='color:orange'>$64<br>with a<br>50% chance</font></div></div><div class='cr'><div class='vertical-center'>$2<br>for<br>sure</div></div><div class='respDivL'><div class='vertical-center'><font style='color:orange'>(E)</font></div></div><div class='respDivR'><div class='vertical-center'>(I)</div></div></div>","null","$2","$64","1","2","64","",""
"html-keyboard-response","64","79445","0.0-5.0-1.20","63fe38bfab28b75385783fba","bdp_rd","Mon Mar 27 2023 18:23:56 GMT-0400 (Eastern Daylight Time)","167190","","null","","","","FIX","","<div class='trialBorder'><div class='vertical-center'><img style='vertical-align:center; align:center' src=img/fixation3.jpg></div></div>","null","","","","","","",""
"html-keyboard-response","65","80449","0.0-5.0-2.20","63fe38bfab28b75385783fba","bdp_rd","Mon Mar 27 2023 18:23:56 GMT-0400 (Eastern Daylight Time)","167190","","1004","","","","offer","","<div class='trialBorder'><div class='vertical-center'><img style='vertical-align:center; align:center' src=img/fixation3.jpg></div><div class='cl'><div class='vertical-center'>$50<br>with a<br>50% chance</div></div><div class='cr'><div class='vertical-center'>$5<br>for<br>sure</div></div><div class='respDivL'><div class='vertical-center'>(E)</div></div><div class='respDivR'><div class='vertical-center'>(I)</div></div></div>","E","$5","$50","1","5","50","RISKY",""
"html-keyboard-response","66","80701","0.0-5.0-3.20","63fe38bfab28b75385783fba","bdp_rd","Mon Mar 27 2023 18:23:56 GMT-0400 (Eastern Daylight Time)","167190","","null","","","","offerFB","","<div class='trialBorder'><div class='vertical-center'><img style='vertical-align:center; align:center' src=img/fixation3.jpg></div><div class='cl'><div class='vertical-center'><font style='color:orange'>$50<br>with a<br>50% chance</font></div></div><div class='cr'><div class='vertical-center'>$5<br>for<br>sure</div></div><div class='respDivL'><div class='vertical-center'><font style='color:orange'>(E)</font></div></div><div class='respDivR'><div class='vertical-center'>(I)</div></div></div>","null","$5","$50","1","5","50","",""
"html-keyboard-response","67","81202","0.0-5.0-1.21","63fe38bfab28b75385783fba","bdp_rd","Mon Mar 27 2023 18:23:56 GMT-0400 (Eastern Daylight Time)","167190","","null","","","","FIX","","<div class='trialBorder'><div class='vertical-center'><img style='vertical-align:center; align:center' src=img/fixation3.jpg></div></div>","null","","","","","","",""
"html-keyboard-response","68","82390","0.0-5.0-2.21","63fe38bfab28b75385783fba","bdp_rd","Mon Mar 27 2023 18:23:56 GMT-0400 (Eastern Daylight Time)","167190","","1186","","","","offer","","<div class='trialBorder'><div class='vertical-center'><img style='vertical-align:center; align:center' src=img/fixation3.jpg></div><div class='cl'><div class='vertical-center'>$80<br>with a<br>50% chance</div></div><div class='cr'><div class='vertical-center'>$20<br>for<br>sure</div></div><div class='respDivL'><div class='vertical-center'>(E)</div></div><div class='respDivR'><div class='vertical-center'>(I)</div></div></div>","E","$20","$80","1","20","80","RISKY",""
"html-keyboard-response","69","82640","0.0-5.0-3.21","63fe38bfab28b75385783fba","bdp_rd","Mon Mar 27 2023 18:23:56 GMT-0400 (Eastern Daylight Time)","167190","","null","","","","offerFB","","<div class='trialBorder'><div class='vertical-center'><img style='vertical-align:center; align:center' src=img/fixation3.jpg></div><div class='cl'><div class='vertical-center'><font style='color:orange'>$80<br>with a<br>50% chance</font></div></div><div class='cr'><div class='vertical-center'>$20<br>for<br>sure</div></div><div class='respDivL'><div class='vertical-center'><font style='color:orange'>(E)</font></div></div><div class='respDivR'><div class='vertical-center'>(I)</div></div></div>","null","$20","$80","1","20","80","",""
"html-keyboard-response","70","83142","0.0-5.0-1.22","63fe38bfab28b75385783fba","bdp_rd","Mon Mar 27 2023 18:23:56 GMT-0400 (Eastern Daylight Time)","167190","","null","","","","FIX","","<div class='trialBorder'><div class='vertical-center'><img style='vertical-align:center; align:center' src=img/fixation3.jpg></div></div>","null","","","","","","",""
"html-keyboard-response","71","84644","0.0-5.0-2.22","63fe38bfab28b75385783fba","bdp_rd","Mon Mar 27 2023 18:23:56 GMT-0400 (Eastern Daylight Time)","167190","","1502","","","","offer","","<div class='trialBorder'><div class='vertical-center'><img style='vertical-align:center; align:center' src=img/fixation3.jpg></div><div class='cl'><div class='vertical-center'>$5<br>for<br>sure</div></div><div class='cr'><div class='vertical-center'>$16<br>with a<br>50% chance</div></div><div class='respDivL'><div class='vertical-center'>(E)</div></div><div class='respDivR'><div class='vertical-center'>(I)</div></div></div>","I","$5","$16","0","5","16","RISKY",""
"html-keyboard-response","72","84896","0.0-5.0-3.22","63fe38bfab28b75385783fba","bdp_rd","Mon Mar 27 2023 18:23:56 GMT-0400 (Eastern Daylight Time)","167190","","null","","","","offerFB","","<div class='trialBorder'><div class='vertical-center'><img style='vertical-align:center; align:center' src=img/fixation3.jpg></div><div class='cl'><div class='vertical-center'>$5<br>for<br>sure</div></div><div class='cr'><div class='vertical-center'><font style='color:orange'>$16<br>with a<br>50% chance</font></div></div><div class='respDivL'><div class='vertical-center'>(E)</div></div><div class='respDivR'><div class='vertical-center'><font style='color:orange'>(I)</font></div></div></div>","null","$5","$16","0","5","16","",""
"html-keyboard-response","73","85396","0.0-5.0-1.23","63fe38bfab28b75385783fba","bdp_rd","Mon Mar 27 2023 18:23:56 GMT-0400 (Eastern Daylight Time)","167190","","null","","","","FIX","","<div class='trialBorder'><div class='vertical-center'><img style='vertical-align:center; align:center' src=img/fixation3.jpg></div></div>","null","","","","","","",""
"html-keyboard-response","74","87951","0.0-5.0-2.23","63fe38bfab28b75385783fba","bdp_rd","Mon Mar 27 2023 18:23:56 GMT-0400 (Eastern Daylight Time)","167190","","2554","","","","offer","","<div class='trialBorder'><div class='vertical-center'><img style='vertical-align:center; align:center' src=img/fixation3.jpg></div><div class='cl'><div class='vertical-center'>$31<br>with a<br>50% chance</div></div><div class='cr'><div class='vertical-center'>$15<br>for<br>sure</div></div><div class='respDivL'><div class='vertical-center'>(E)</div></div><div class='respDivR'><div class='vertical-center'>(I)</div></div></div>","I","$15","$31","1","15","31","SURE",""
"html-keyboard-response","75","88202","0.0-5.0-3.23","63fe38bfab28b75385783fba","bdp_rd","Mon Mar 27 2023 18:23:56 GMT-0400 (Eastern Daylight Time)","167190","","null","","","","offerFB","","<div class='trialBorder'><div class='vertical-center'><img style='vertical-align:center; align:center' src=img/fixation3.jpg></div><div class='cl'><div class='vertical-center'>$31<br>with a<br>50% chance</div></div><div class='cr'><div class='vertical-center'><font style='color:orange'>$15<br>for<br>sure</font></div></div><div class='respDivL'><div class='vertical-center'>(E)</div></div><div class='respDivR'><div class='vertical-center'><font style='color:orange'>(I)</font></div></div></div>","null","$15","$31","1","15","31","",""
"html-keyboard-response","76","88703","0.0-5.0-1.24","63fe38bfab28b75385783fba","bdp_rd","Mon Mar 27 2023 18:23:56 GMT-0400 (Eastern Daylight Time)","167190","","null","","","","FIX","","<div class='trialBorder'><div class='vertical-center'><img style='vertical-align:center; align:center' src=img/fixation3.jpg></div></div>","null","","","","","","",""
"html-keyboard-response","77","90677","0.0-5.0-2.24","63fe38bfab28b75385783fba","bdp_rd","Mon Mar 27 2023 18:23:56 GMT-0400 (Eastern Daylight Time)","167190","","1974","","","","offer","","<div class='trialBorder'><div class='vertical-center'><img style='vertical-align:center; align:center' src=img/fixation3.jpg></div><div class='cl'><div class='vertical-center'>$19<br>for<br>sure</div></div><div class='cr'><div class='vertical-center'>$51<br>with a<br>50% chance</div></div><div class='respDivL'><div class='vertical-center'>(E)</div></div><div class='respDivR'><div class='vertical-center'>(I)</div></div></div>","E","$19","$51","0","19","51","SURE",""
"html-keyboard-response","78","90929","0.0-5.0-3.24","63fe38bfab28b75385783fba","bdp_rd","Mon Mar 27 2023 18:23:56 GMT-0400 (Eastern Daylight Time)","167190","","null","","","","offerFB","","<div class='trialBorder'><div class='vertical-center'><img style='vertical-align:center; align:center' src=img/fixation3.jpg></div><div class='cl'><div class='vertical-center'><font style='color:orange'>$19<br>for<br>sure</font></div></div><div class='cr'><div class='vertical-center'>$51<br>with a<br>50% chance</div></div><div class='respDivL'><div class='vertical-center'><font style='color:orange'>(E)</font></div></div><div class='respDivR'><div class='vertical-center'>(I)</div></div></div>","null","$19","$51","0","19","51","",""
"html-keyboard-response","79","91430","0.0-5.0-1.25","63fe38bfab28b75385783fba","bdp_rd","Mon Mar 27 2023 18:23:56 GMT-0400 (Eastern Daylight Time)","167190","","null","","","","FIX","","<div class='trialBorder'><div class='vertical-center'><img style='vertical-align:center; align:center' src=img/fixation3.jpg></div></div>","null","","","","","","",""
"html-keyboard-response","80","93828","0.0-5.0-2.25","63fe38bfab28b75385783fba","bdp_rd","Mon Mar 27 2023 18:23:56 GMT-0400 (Eastern Daylight Time)","167190","","2398","","","","offer","","<div class='trialBorder'><div class='vertical-center'><img style='vertical-align:center; align:center' src=img/fixation3.jpg></div><div class='cl'><div class='vertical-center'>$39<br>with a<br>50% chance</div></div><div class='cr'><div class='vertical-center'>$18<br>for<br>sure</div></div><div class='respDivL'><div class='vertical-center'>(E)</div></div><div class='respDivR'><div class='vertical-center'>(I)</div></div></div>","I","$18","$39","1","18","39","SURE",""
"html-keyboard-response","81","94080","0.0-5.0-3.25","63fe38bfab28b75385783fba","bdp_rd","Mon Mar 27 2023 18:23:56 GMT-0400 (Eastern Daylight Time)","167190","","null","","","","offerFB","","<div class='trialBorder'><div class='vertical-center'><img style='vertical-align:center; align:center' src=img/fixation3.jpg></div><div class='cl'><div class='vertical-center'>$39<br>with a<br>50% chance</div></div><div class='cr'><div class='vertical-center'><font style='color:orange'>$18<br>for<br>sure</font></div></div><div class='respDivL'><div class='vertical-center'>(E)</div></div><div class='respDivR'><div class='vertical-center'><font style='color:orange'>(I)</font></div></div></div>","null","$18","$39","1","18","39","",""
"html-keyboard-response","82","94581","0.0-5.0-1.26","63fe38bfab28b75385783fba","bdp_rd","Mon Mar 27 2023 18:23:56 GMT-0400 (Eastern Daylight Time)","167190","","null","","","","FIX","","<div class='trialBorder'><div class='vertical-center'><img style='vertical-align:center; align:center' src=img/fixation3.jpg></div></div>","null","","","","","","",""
"html-keyboard-response","83","97391","0.0-5.0-2.26","63fe38bfab28b75385783fba","bdp_rd","Mon Mar 27 2023 18:23:56 GMT-0400 (Eastern Daylight Time)","167190","","2810","","","","offer","","<div class='trialBorder'><div class='vertical-center'><img style='vertical-align:center; align:center' src=img/fixation3.jpg></div><div class='cl'><div class='vertical-center'>$43<br>with a<br>50% chance</div></div><div class='cr'><div class='vertical-center'>$17<br>for<br>sure</div></div><div class='respDivL'><div class='vertical-center'>(E)</div></div><div class='respDivR'><div class='vertical-center'>(I)</div></div></div>","E","$17","$43","1","17","43","RISKY",""
"html-keyboard-response","84","97643","0.0-5.0-3.26","63fe38bfab28b75385783fba","bdp_rd","Mon Mar 27 2023 18:23:56 GMT-0400 (Eastern Daylight Time)","167190","","null","","","","offerFB","","<div class='trialBorder'><div class='vertical-center'><img style='vertical-align:center; align:center' src=img/fixation3.jpg></div><div class='cl'><div class='vertical-center'><font style='color:orange'>$43<br>with a<br>50% chance</font></div></div><div class='cr'><div class='vertical-center'>$17<br>for<br>sure</div></div><div class='respDivL'><div class='vertical-center'><font style='color:orange'>(E)</font></div></div><div class='respDivR'><div class='vertical-center'>(I)</div></div></div>","null","$17","$43","1","17","43","",""
"html-keyboard-response","85","98143","0.0-5.0-1.27","63fe38bfab28b75385783fba","bdp_rd","Mon Mar 27 2023 18:23:56 GMT-0400 (Eastern Daylight Time)","167190","","null","","","","FIX","","<div class='trialBorder'><div class='vertical-center'><img style='vertical-align:center; align:center' src=img/fixation3.jpg></div></div>","null","","","","","","",""
"html-keyboard-response","86","99554","0.0-5.0-2.27","63fe38bfab28b75385783fba","bdp_rd","Mon Mar 27 2023 18:23:56 GMT-0400 (Eastern Daylight Time)","167190","","1410","","","","offer","","<div class='trialBorder'><div class='vertical-center'><img style='vertical-align:center; align:center' src=img/fixation3.jpg></div><div class='cl'><div class='vertical-center'>$39<br>for<br>sure</div></div><div class='cr'><div class='vertical-center'>$81<br>with a<br>50% chance</div></div><div class='respDivL'><div class='vertical-center'>(E)</div></div><div class='respDivR'><div class='vertical-center'>(I)</div></div></div>","I","$39","$81","0","39","81","RISKY",""
"html-keyboard-response","87","99804","0.0-5.0-3.27","63fe38bfab28b75385783fba","bdp_rd","Mon Mar 27 2023 18:23:56 GMT-0400 (Eastern Daylight Time)","167190","","null","","","","offerFB","","<div class='trialBorder'><div class='vertical-center'><img style='vertical-align:center; align:center' src=img/fixation3.jpg></div><div class='cl'><div class='vertical-center'>$39<br>for<br>sure</div></div><div class='cr'><div class='vertical-center'><font style='color:orange'>$81<br>with a<br>50% chance</font></div></div><div class='respDivL'><div class='vertical-center'>(E)</div></div><div class='respDivR'><div class='vertical-center'><font style='color:orange'>(I)</font></div></div></div>","null","$39","$81","0","39","81","",""
"html-keyboard-response","88","100305","0.0-5.0-1.28","63fe38bfab28b75385783fba","bdp_rd","Mon Mar 27 2023 18:23:56 GMT-0400 (Eastern Daylight Time)","167190","","null","","","","FIX","","<div class='trialBorder'><div class='vertical-center'><img style='vertical-align:center; align:center' src=img/fixation3.jpg></div></div>","null","","","","","","",""
"html-keyboard-response","89","102217","0.0-5.0-2.28","63fe38bfab28b75385783fba","bdp_rd","Mon Mar 27 2023 18:23:56 GMT-0400 (Eastern Daylight Time)","167190","","1912","","","","offer","","<div class='trialBorder'><div class='vertical-center'><img style='vertical-align:center; align:center' src=img/fixation3.jpg></div><div class='cl'><div class='vertical-center'>$40<br>with a<br>50% chance</div></div><div class='cr'><div class='vertical-center'>$10<br>for<br>sure</div></div><div class='respDivL'><div class='vertical-center'>(E)</div></div><div class='respDivR'><div class='vertical-center'>(I)</div></div></div>","E","$10","$40","1","10","40","RISKY",""
"html-keyboard-response","90","102468","0.0-5.0-3.28","63fe38bfab28b75385783fba","bdp_rd","Mon Mar 27 2023 18:23:56 GMT-0400 (Eastern Daylight Time)","167190","","null","","","","offerFB","","<div class='trialBorder'><div class='vertical-center'><img style='vertical-align:center; align:center' src=img/fixation3.jpg></div><div class='cl'><div class='vertical-center'><font style='color:orange'>$40<br>with a<br>50% chance</font></div></div><div class='cr'><div class='vertical-center'>$10<br>for<br>sure</div></div><div class='respDivL'><div class='vertical-center'><font style='color:orange'>(E)</font></div></div><div class='respDivR'><div class='vertical-center'>(I)</div></div></div>","null","$10","$40","1","10","40","",""
"html-keyboard-response","91","102970","0.0-5.0-1.29","63fe38bfab28b75385783fba","bdp_rd","Mon Mar 27 2023 18:23:56 GMT-0400 (Eastern Daylight Time)","167190","","null","","","","FIX","","<div class='trialBorder'><div class='vertical-center'><img style='vertical-align:center; align:center' src=img/fixation3.jpg></div></div>","null","","","","","","",""
"html-keyboard-response","92","104154","0.0-5.0-2.29","63fe38bfab28b75385783fba","bdp_rd","Mon Mar 27 2023 18:23:56 GMT-0400 (Eastern Daylight Time)","167190","","1184","","","","offer","","<div class='trialBorder'><div class='vertical-center'><img style='vertical-align:center; align:center' src=img/fixation3.jpg></div><div class='cl'><div class='vertical-center'>$59<br>with a<br>50% chance</div></div><div class='cr'><div class='vertical-center'>$22<br>for<br>sure</div></div><div class='respDivL'><div class='vertical-center'>(E)</div></div><div class='respDivR'><div class='vertical-center'>(I)</div></div></div>","E","$22","$59","1","22","59","RISKY",""
"html-keyboard-response","93","104406","0.0-5.0-3.29","63fe38bfab28b75385783fba","bdp_rd","Mon Mar 27 2023 18:23:56 GMT-0400 (Eastern Daylight Time)","167190","","null","","","","offerFB","","<div class='trialBorder'><div class='vertical-center'><img style='vertical-align:center; align:center' src=img/fixation3.jpg></div><div class='cl'><div class='vertical-center'><font style='color:orange'>$59<br>with a<br>50% chance</font></div></div><div class='cr'><div class='vertical-center'>$22<br>for<br>sure</div></div><div class='respDivL'><div class='vertical-center'><font style='color:orange'>(E)</font></div></div><div class='respDivR'><div class='vertical-center'>(I)</div></div></div>","null","$22","$59","1","22","59","",""
"html-keyboard-response","94","104907","0.0-5.0-1.30","63fe38bfab28b75385783fba","bdp_rd","Mon Mar 27 2023 18:23:56 GMT-0400 (Eastern Daylight Time)","167190","","null","","","","FIX","","<div class='trialBorder'><div class='vertical-center'><img style='vertical-align:center; align:center' src=img/fixation3.jpg></div></div>","null","","","","","","",""
"html-keyboard-response","95","106305","0.0-5.0-2.30","63fe38bfab28b75385783fba","bdp_rd","Mon Mar 27 2023 18:23:56 GMT-0400 (Eastern Daylight Time)","167190","","1398","","","","offer","","<div class='trialBorder'><div class='vertical-center'><img style='vertical-align:center; align:center' src=img/fixation3.jpg></div><div class='cl'><div class='vertical-center'>$33<br>with a<br>50% chance</div></div><div class='cr'><div class='vertical-center'>$1<br>for<br>sure</div></div><div class='respDivL'><div class='vertical-center'>(E)</div></div><div class='respDivR'><div class='vertical-center'>(I)</div></div></div>","E","$1","$33","1","1","33","RISKY",""
"html-keyboard-response","96","106556","0.0-5.0-3.30","63fe38bfab28b75385783fba","bdp_rd","Mon Mar 27 2023 18:23:56 GMT-0400 (Eastern Daylight Time)","167190","","null","","","","offerFB","","<div class='trialBorder'><div class='vertical-center'><img style='vertical-align:center; align:center' src=img/fixation3.jpg></div><div class='cl'><div class='vertical-center'><font style='color:orange'>$33<br>with a<br>50% chance</font></div></div><div class='cr'><div class='vertical-center'>$1<br>for<br>sure</div></div><div class='respDivL'><div class='vertical-center'><font style='color:orange'>(E)</font></div></div><div class='respDivR'><div class='vertical-center'>(I)</div></div></div>","null","$1","$33","1","1","33","",""
"html-keyboard-response","97","107056","0.0-5.0-1.31","63fe38bfab28b75385783fba","bdp_rd","Mon Mar 27 2023 18:23:56 GMT-0400 (Eastern Daylight Time)","167190","","null","","","","FIX","","<div class='trialBorder'><div class='vertical-center'><img style='vertical-align:center; align:center' src=img/fixation3.jpg></div></div>","null","","","","","","",""
"html-keyboard-response","98","107973","0.0-5.0-2.31","63fe38bfab28b75385783fba","bdp_rd","Mon Mar 27 2023 18:23:56 GMT-0400 (Eastern Daylight Time)","167190","","917","","","","offer","","<div class='trialBorder'><div class='vertical-center'><img style='vertical-align:center; align:center' src=img/fixation3.jpg></div><div class='cl'><div class='vertical-center'>$8<br>for<br>sure</div></div><div class='cr'><div class='vertical-center'>$23<br>with a<br>50% chance</div></div><div class='respDivL'><div class='vertical-center'>(E)</div></div><div class='respDivR'><div class='vertical-center'>(I)</div></div></div>","I","$8","$23","0","8","23","RISKY",""
"html-keyboard-response","99","108225","0.0-5.0-3.31","63fe38bfab28b75385783fba","bdp_rd","Mon Mar 27 2023 18:23:56 GMT-0400 (Eastern Daylight Time)","167190","","null","","","","offerFB","","<div class='trialBorder'><div class='vertical-center'><img style='vertical-align:center; align:center' src=img/fixation3.jpg></div><div class='cl'><div class='vertical-center'>$8<br>for<br>sure</div></div><div class='cr'><div class='vertical-center'><font style='color:orange'>$23<br>with a<br>50% chance</font></div></div><div class='respDivL'><div class='vertical-center'>(E)</div></div><div class='respDivR'><div class='vertical-center'><font style='color:orange'>(I)</font></div></div></div>","null","$8","$23","0","8","23","",""
"html-keyboard-response","100","108725","0.0-5.0-1.32","63fe38bfab28b75385783fba","bdp_rd","Mon Mar 27 2023 18:23:56 GMT-0400 (Eastern Daylight Time)","167190","","null","","","","FIX","","<div class='trialBorder'><div class='vertical-center'><img style='vertical-align:center; align:center' src=img/fixation3.jpg></div></div>","null","","","","","","",""
"html-keyboard-response","101","109948","0.0-5.0-2.32","63fe38bfab28b75385783fba","bdp_rd","Mon Mar 27 2023 18:23:56 GMT-0400 (Eastern Daylight Time)","167190","","1223","","","","offer","","<div class='trialBorder'><div class='vertical-center'><img style='vertical-align:center; align:center' src=img/fixation3.jpg></div><div class='cl'><div class='vertical-center'>$9<br>for<br>sure</div></div><div class='cr'><div class='vertical-center'>$18<br>with a<br>50% chance</div></div><div class='respDivL'><div class='vertical-center'>(E)</div></div><div class='respDivR'><div class='vertical-center'>(I)</div></div></div>","E","$9","$18","0","9","18","SURE",""
"html-keyboard-response","102","110199","0.0-5.0-3.32","63fe38bfab28b75385783fba","bdp_rd","Mon Mar 27 2023 18:23:56 GMT-0400 (Eastern Daylight Time)","167190","","null","","","","offerFB","","<div class='trialBorder'><div class='vertical-center'><img style='vertical-align:center; align:center' src=img/fixation3.jpg></div><div class='cl'><div class='vertical-center'><font style='color:orange'>$9<br>for<br>sure</font></div></div><div class='cr'><div class='vertical-center'>$18<br>with a<br>50% chance</div></div><div class='respDivL'><div class='vertical-center'><font style='color:orange'>(E)</font></div></div><div class='respDivR'><div class='vertical-center'>(I)</div></div></div>","null","$9","$18","0","9","18","",""
"html-keyboard-response","103","110700","0.0-5.0-1.33","63fe38bfab28b75385783fba","bdp_rd","Mon Mar 27 2023 18:23:56 GMT-0400 (Eastern Daylight Time)","167190","","null","","","","FIX","","<div class='trialBorder'><div class='vertical-center'><img style='vertical-align:center; align:center' src=img/fixation3.jpg></div></div>","null","","","","","","",""
"html-keyboard-response","104","111657","0.0-5.0-2.33","63fe38bfab28b75385783fba","bdp_rd","Mon Mar 27 2023 18:23:56 GMT-0400 (Eastern Daylight Time)","167190","","957","","","","offer","","<div class='trialBorder'><div class='vertical-center'><img style='vertical-align:center; align:center' src=img/fixation3.jpg></div><div class='cl'><div class='vertical-center'>$13<br>for<br>sure</div></div><div class='cr'><div class='vertical-center'>$24<br>with a<br>50% chance</div></div><div class='respDivL'><div class='vertical-center'>(E)</div></div><div class='respDivR'><div class='vertical-center'>(I)</div></div></div>","E","$13","$24","0","13","24","SURE",""
"html-keyboard-response","105","111908","0.0-5.0-3.33","63fe38bfab28b75385783fba","bdp_rd","Mon Mar 27 2023 18:23:56 GMT-0400 (Eastern Daylight Time)","167190","","null","","","","offerFB","","<div class='trialBorder'><div class='vertical-center'><img style='vertical-align:center; align:center' src=img/fixation3.jpg></div><div class='cl'><div class='vertical-center'><font style='color:orange'>$13<br>for<br>sure</font></div></div><div class='cr'><div class='vertical-center'>$24<br>with a<br>50% chance</div></div><div class='respDivL'><div class='vertical-center'><font style='color:orange'>(E)</font></div></div><div class='respDivR'><div class='vertical-center'>(I)</div></div></div>","null","$13","$24","0","13","24","",""
"html-keyboard-response","106","112410","0.0-5.0-1.34","63fe38bfab28b75385783fba","bdp_rd","Mon Mar 27 2023 18:23:56 GMT-0400 (Eastern Daylight Time)","167190","","null","","","","FIX","","<div class='trialBorder'><div class='vertical-center'><img style='vertical-align:center; align:center' src=img/fixation3.jpg></div></div>","null","","","","","","",""
"html-keyboard-response","107","114308","0.0-5.0-2.34","63fe38bfab28b75385783fba","bdp_rd","Mon Mar 27 2023 18:23:56 GMT-0400 (Eastern Daylight Time)","167190","","1897","","","","offer","","<div class='trialBorder'><div class='vertical-center'><img style='vertical-align:center; align:center' src=img/fixation3.jpg></div><div class='cl'><div class='vertical-center'>$32<br>with a<br>50% chance</div></div><div class='cr'><div class='vertical-center'>$9<br>for<br>sure</div></div><div class='respDivL'><div class='vertical-center'>(E)</div></div><div class='respDivR'><div class='vertical-center'>(I)</div></div></div>","I","$9","$32","1","9","32","SURE",""
"html-keyboard-response","108","114559","0.0-5.0-3.34","63fe38bfab28b75385783fba","bdp_rd","Mon Mar 27 2023 18:23:56 GMT-0400 (Eastern Daylight Time)","167190","","null","","","","offerFB","","<div class='trialBorder'><div class='vertical-center'><img style='vertical-align:center; align:center' src=img/fixation3.jpg></div><div class='cl'><div class='vertical-center'>$32<br>with a<br>50% chance</div></div><div class='cr'><div class='vertical-center'><font style='color:orange'>$9<br>for<br>sure</font></div></div><div class='respDivL'><div class='vertical-center'>(E)</div></div><div class='respDivR'><div class='vertical-center'><font style='color:orange'>(I)</font></div></div></div>","null","$9","$32","1","9","32","",""
"html-keyboard-response","109","115060","0.0-5.0-1.35","63fe38bfab28b75385783fba","bdp_rd","Mon Mar 27 2023 18:23:56 GMT-0400 (Eastern Daylight Time)","167190","","null","","","","FIX","","<div class='trialBorder'><div class='vertical-center'><img style='vertical-align:center; align:center' src=img/fixation3.jpg></div></div>","null","","","","","","",""
"html-keyboard-response","110","116268","0.0-5.0-2.35","63fe38bfab28b75385783fba","bdp_rd","Mon Mar 27 2023 18:23:56 GMT-0400 (Eastern Daylight Time)","167190","","1208","","","","offer","","<div class='trialBorder'><div class='vertical-center'><img style='vertical-align:center; align:center' src=img/fixation3.jpg></div><div class='cl'><div class='vertical-center'>$89<br>with a<br>50% chance</div></div><div class='cr'><div class='vertical-center'>$28<br>for<br>sure</div></div><div class='respDivL'><div class='vertical-center'>(E)</div></div><div class='respDivR'><div class='vertical-center'>(I)</div></div></div>","E","$28","$89","1","28","89","RISKY",""
"html-keyboard-response","111","116520","0.0-5.0-3.35","63fe38bfab28b75385783fba","bdp_rd","Mon Mar 27 2023 18:23:56 GMT-0400 (Eastern Daylight Time)","167190","","null","","","","offerFB","","<div class='trialBorder'><div class='vertical-center'><img style='vertical-align:center; align:center' src=img/fixation3.jpg></div><div class='cl'><div class='vertical-center'><font style='color:orange'>$89<br>with a<br>50% chance</font></div></div><div class='cr'><div class='vertical-center'>$28<br>for<br>sure</div></div><div class='respDivL'><div class='vertical-center'><font style='color:orange'>(E)</font></div></div><div class='respDivR'><div class='vertical-center'>(I)</div></div></div>","null","$28","$89","1","28","89","",""
"html-keyboard-response","112","117021","0.0-5.0-1.36","63fe38bfab28b75385783fba","bdp_rd","Mon Mar 27 2023 18:23:56 GMT-0400 (Eastern Daylight Time)","167190","","null","","","","FIX","","<div class='trialBorder'><div class='vertical-center'><img style='vertical-align:center; align:center' src=img/fixation3.jpg></div></div>","null","","","","","","",""
"html-keyboard-response","113","118419","0.0-5.0-2.36","63fe38bfab28b75385783fba","bdp_rd","Mon Mar 27 2023 18:23:56 GMT-0400 (Eastern Daylight Time)","167190","","1398","","","","offer","","<div class='trialBorder'><div class='vertical-center'><img style='vertical-align:center; align:center' src=img/fixation3.jpg></div><div class='cl'><div class='vertical-center'>$25<br>for<br>sure</div></div><div class='cr'><div class='vertical-center'>$54<br>with a<br>50% chance</div></div><div class='respDivL'><div class='vertical-center'>(E)</div></div><div class='respDivR'><div class='vertical-center'>(I)</div></div></div>","E","$25","$54","0","25","54","SURE",""
"html-keyboard-response","114","118669","0.0-5.0-3.36","63fe38bfab28b75385783fba","bdp_rd","Mon Mar 27 2023 18:23:56 GMT-0400 (Eastern Daylight Time)","167190","","null","","","","offerFB","","<div class='trialBorder'><div class='vertical-center'><img style='vertical-align:center; align:center' src=img/fixation3.jpg></div><div class='cl'><div class='vertical-center'><font style='color:orange'>$25<br>for<br>sure</font></div></div><div class='cr'><div class='vertical-center'>$54<br>with a<br>50% chance</div></div><div class='respDivL'><div class='vertical-center'><font style='color:orange'>(E)</font></div></div><div class='respDivR'><div class='vertical-center'>(I)</div></div></div>","null","$25","$54","0","25","54","",""
"html-keyboard-response","115","119170","0.0-5.0-1.37","63fe38bfab28b75385783fba","bdp_rd","Mon Mar 27 2023 18:23:56 GMT-0400 (Eastern Daylight Time)","167190","","null","","","","FIX","","<div class='trialBorder'><div class='vertical-center'><img style='vertical-align:center; align:center' src=img/fixation3.jpg></div></div>","null","","","","","","",""
"html-keyboard-response","116","120229","0.0-5.0-2.37","63fe38bfab28b75385783fba","bdp_rd","Mon Mar 27 2023 18:23:56 GMT-0400 (Eastern Daylight Time)","167190","","1059","","","","offer","","<div class='trialBorder'><div class='vertical-center'><img style='vertical-align:center; align:center' src=img/fixation3.jpg></div><div class='cl'><div class='vertical-center'>$58<br>for<br>sure</div></div><div class='cr'><div class='vertical-center'>$69<br>with a<br>50% chance</div></div><div class='respDivL'><div class='vertical-center'>(E)</div></div><div class='respDivR'><div class='vertical-center'>(I)</div></div></div>","E","$58","$69","0","58","69","SURE",""
"html-keyboard-response","117","120481","0.0-5.0-3.37","63fe38bfab28b75385783fba","bdp_rd","Mon Mar 27 2023 18:23:56 GMT-0400 (Eastern Daylight Time)","167190","","null","","","","offerFB","","<div class='trialBorder'><div class='vertical-center'><img style='vertical-align:center; align:center' src=img/fixation3.jpg></div><div class='cl'><div class='vertical-center'><font style='color:orange'>$58<br>for<br>sure</font></div></div><div class='cr'><div class='vertical-center'>$69<br>with a<br>50% chance</div></div><div class='respDivL'><div class='vertical-center'><font style='color:orange'>(E)</font></div></div><div class='respDivR'><div class='vertical-center'>(I)</div></div></div>","null","$58","$69","0","58","69","",""
"html-keyboard-response","118","120982","0.0-5.0-1.38","63fe38bfab28b75385783fba","bdp_rd","Mon Mar 27 2023 18:23:56 GMT-0400 (Eastern Daylight Time)","167190","","null","","","","FIX","","<div class='trialBorder'><div class='vertical-center'><img style='vertical-align:center; align:center' src=img/fixation3.jpg></div></div>","null","","","","","","",""
"html-keyboard-response","119","121878","0.0-5.0-2.38","63fe38bfab28b75385783fba","bdp_rd","Mon Mar 27 2023 18:23:56 GMT-0400 (Eastern Daylight Time)","167190","","896","","","","offer","","<div class='trialBorder'><div class='vertical-center'><img style='vertical-align:center; align:center' src=img/fixation3.jpg></div><div class='cl'><div class='vertical-center'>$8<br>for<br>sure</div></div><div class='cr'><div class='vertical-center'>$45<br>with a<br>50% chance</div></div><div class='respDivL'><div class='vertical-center'>(E)</div></div><div class='respDivR'><div class='vertical-center'>(I)</div></div></div>","I","$8","$45","0","8","45","RISKY",""
"html-keyboard-response","120","122129","0.0-5.0-3.38","63fe38bfab28b75385783fba","bdp_rd","Mon Mar 27 2023 18:23:56 GMT-0400 (Eastern Daylight Time)","167190","","null","","","","offerFB","","<div class='trialBorder'><div class='vertical-center'><img style='vertical-align:center; align:center' src=img/fixation3.jpg></div><div class='cl'><div class='vertical-center'>$8<br>for<br>sure</div></div><div class='cr'><div class='vertical-center'><font style='color:orange'>$45<br>with a<br>50% chance</font></div></div><div class='respDivL'><div class='vertical-center'>(E)</div></div><div class='respDivR'><div class='vertical-center'><font style='color:orange'>(I)</font></div></div></div>","null","$8","$45","0","8","45","",""
"html-keyboard-response","121","122631","0.0-5.0-1.39","63fe38bfab28b75385783fba","bdp_rd","Mon Mar 27 2023 18:23:56 GMT-0400 (Eastern Daylight Time)","167190","","null","","","","FIX","","<div class='trialBorder'><div class='vertical-center'><img style='vertical-align:center; align:center' src=img/fixation3.jpg></div></div>","null","","","","","","",""
"html-keyboard-response","122","123837","0.0-5.0-2.39","63fe38bfab28b75385783fba","bdp_rd","Mon Mar 27 2023 18:23:56 GMT-0400 (Eastern Daylight Time)","167190","","1206","","","","offer","","<div class='trialBorder'><div class='vertical-center'><img style='vertical-align:center; align:center' src=img/fixation3.jpg></div><div class='cl'><div class='vertical-center'>$11<br>for<br>sure</div></div><div class='cr'><div class='vertical-center'>$26<br>with a<br>50% chance</div></div><div class='respDivL'><div class='vertical-center'>(E)</div></div><div class='respDivR'><div class='vertical-center'>(I)</div></div></div>","E","$11","$26","0","11","26","SURE",""
"html-keyboard-response","123","124088","0.0-5.0-3.39","63fe38bfab28b75385783fba","bdp_rd","Mon Mar 27 2023 18:23:56 GMT-0400 (Eastern Daylight Time)","167190","","null","","","","offerFB","","<div class='trialBorder'><div class='vertical-center'><img style='vertical-align:center; align:center' src=img/fixation3.jpg></div><div class='cl'><div class='vertical-center'><font style='color:orange'>$11<br>for<br>sure</font></div></div><div class='cr'><div class='vertical-center'>$26<br>with a<br>50% chance</div></div><div class='respDivL'><div class='vertical-center'><font style='color:orange'>(E)</font></div></div><div class='respDivR'><div class='vertical-center'>(I)</div></div></div>","null","$11","$26","0","11","26","",""
"html-keyboard-response","124","124588","0.0-5.0-1.40","63fe38bfab28b75385783fba","bdp_rd","Mon Mar 27 2023 18:23:56 GMT-0400 (Eastern Daylight Time)","167190","","null","","","","FIX","","<div class='trialBorder'><div class='vertical-center'><img style='vertical-align:center; align:center' src=img/fixation3.jpg></div></div>","null","","","","","","",""
"html-keyboard-response","125","126535","0.0-5.0-2.40","63fe38bfab28b75385783fba","bdp_rd","Mon Mar 27 2023 18:23:56 GMT-0400 (Eastern Daylight Time)","167190","","1946","","","","offer","","<div class='trialBorder'><div class='vertical-center'><img style='vertical-align:center; align:center' src=img/fixation3.jpg></div><div class='cl'><div class='vertical-center'>$37<br>with a<br>50% chance</div></div><div class='cr'><div class='vertical-center'>$20<br>for<br>sure</div></div><div class='respDivL'><div class='vertical-center'>(E)</div></div><div class='respDivR'><div class='vertical-center'>(I)</div></div></div>","I","$20","$37","1","20","37","SURE",""
"html-keyboard-response","126","126787","0.0-5.0-3.40","63fe38bfab28b75385783fba","bdp_rd","Mon Mar 27 2023 18:23:56 GMT-0400 (Eastern Daylight Time)","167190","","null","","","","offerFB","","<div class='trialBorder'><div class='vertical-center'><img style='vertical-align:center; align:center' src=img/fixation3.jpg></div><div class='cl'><div class='vertical-center'>$37<br>with a<br>50% chance</div></div><div class='cr'><div class='vertical-center'><font style='color:orange'>$20<br>for<br>sure</font></div></div><div class='respDivL'><div class='vertical-center'>(E)</div></div><div class='respDivR'><div class='vertical-center'><font style='color:orange'>(I)</font></div></div></div>","null","$20","$37","1","20","37","",""
"html-keyboard-response","127","127288","0.0-5.0-1.41","63fe38bfab28b75385783fba","bdp_rd","Mon Mar 27 2023 18:23:56 GMT-0400 (Eastern Daylight Time)","167190","","null","","","","FIX","","<div class='trialBorder'><div class='vertical-center'><img style='vertical-align:center; align:center' src=img/fixation3.jpg></div></div>","null","","","","","","",""
"html-keyboard-response","128","128319","0.0-5.0-2.41","63fe38bfab28b75385783fba","bdp_rd","Mon Mar 27 2023 18:23:56 GMT-0400 (Eastern Daylight Time)","167190","","1031","","","","offer","","<div class='trialBorder'><div class='vertical-center'><img style='vertical-align:center; align:center' src=img/fixation3.jpg></div><div class='cl'><div class='vertical-center'>$12<br>for<br>sure</div></div><div class='cr'><div class='vertical-center'>$27<br>with a<br>50% chance</div></div><div class='respDivL'><div class='vertical-center'>(E)</div></div><div class='respDivR'><div class='vertical-center'>(I)</div></div></div>","E","$12","$27","0","12","27","SURE",""
"html-keyboard-response","129","128571","0.0-5.0-3.41","63fe38bfab28b75385783fba","bdp_rd","Mon Mar 27 2023 18:23:56 GMT-0400 (Eastern Daylight Time)","167190","","null","","","","offerFB","","<div class='trialBorder'><div class='vertical-center'><img style='vertical-align:center; align:center' src=img/fixation3.jpg></div><div class='cl'><div class='vertical-center'><font style='color:orange'>$12<br>for<br>sure</font></div></div><div class='cr'><div class='vertical-center'>$27<br>with a<br>50% chance</div></div><div class='respDivL'><div class='vertical-center'><font style='color:orange'>(E)</font></div></div><div class='respDivR'><div class='vertical-center'>(I)</div></div></div>","null","$12","$27","0","12","27","",""
"html-keyboard-response","130","129072","0.0-5.0-1.42","63fe38bfab28b75385783fba","bdp_rd","Mon Mar 27 2023 18:23:56 GMT-0400 (Eastern Daylight Time)","167190","","null","","","","FIX","","<div class='trialBorder'><div class='vertical-center'><img style='vertical-align:center; align:center' src=img/fixation3.jpg></div></div>","null","","","","","","",""
"html-keyboard-response","131","130663","0.0-5.0-2.42","63fe38bfab28b75385783fba","bdp_rd","Mon Mar 27 2023 18:23:56 GMT-0400 (Eastern Daylight Time)","167190","","1591","","","","offer","","<div class='trialBorder'><div class='vertical-center'><img style='vertical-align:center; align:center' src=img/fixation3.jpg></div><div class='cl'><div class='vertical-center'>$25<br>with a<br>50% chance</div></div><div class='cr'><div class='vertical-center'>$21<br>for<br>sure</div></div><div class='respDivL'><div class='vertical-center'>(E)</div></div><div class='respDivR'><div class='vertical-center'>(I)</div></div></div>","I","$21","$25","1","21","25","SURE",""
"html-keyboard-response","132","130915","0.0-5.0-3.42","63fe38bfab28b75385783fba","bdp_rd","Mon Mar 27 2023 18:23:56 GMT-0400 (Eastern Daylight Time)","167190","","null","","","","offerFB","","<div class='trialBorder'><div class='vertical-center'><img style='vertical-align:center; align:center' src=img/fixation3.jpg></div><div class='cl'><div class='vertical-center'>$25<br>with a<br>50% chance</div></div><div class='cr'><div class='vertical-center'><font style='color:orange'>$21<br>for<br>sure</font></div></div><div class='respDivL'><div class='vertical-center'>(E)</div></div><div class='respDivR'><div class='vertical-center'><font style='color:orange'>(I)</font></div></div></div>","null","$21","$25","1","21","25","",""
"html-keyboard-response","133","131416","0.0-5.0-1.43","63fe38bfab28b75385783fba","bdp_rd","Mon Mar 27 2023 18:23:56 GMT-0400 (Eastern Daylight Time)","167190","","null","","","","FIX","","<div class='trialBorder'><div class='vertical-center'><img style='vertical-align:center; align:center' src=img/fixation3.jpg></div></div>","null","","","","","","",""
"html-keyboard-response","134","132918","0.0-5.0-2.43","63fe38bfab28b75385783fba","bdp_rd","Mon Mar 27 2023 18:23:56 GMT-0400 (Eastern Daylight Time)","167190","","1502","","","","offer","","<div class='trialBorder'><div class='vertical-center'><img style='vertical-align:center; align:center' src=img/fixation3.jpg></div><div class='cl'><div class='vertical-center'>$38<br>with a<br>50% chance</div></div><div class='cr'><div class='vertical-center'>$16<br>for<br>sure</div></div><div class='respDivL'><div class='vertical-center'>(E)</div></div><div class='respDivR'><div class='vertical-center'>(I)</div></div></div>","I","$16","$38","1","16","38","SURE",""
"html-keyboard-response","135","133169","0.0-5.0-3.43","63fe38bfab28b75385783fba","bdp_rd","Mon Mar 27 2023 18:23:56 GMT-0400 (Eastern Daylight Time)","167190","","null","","","","offerFB","","<div class='trialBorder'><div class='vertical-center'><img style='vertical-align:center; align:center' src=img/fixation3.jpg></div><div class='cl'><div class='vertical-center'>$38<br>with a<br>50% chance</div></div><div class='cr'><div class='vertical-center'><font style='color:orange'>$16<br>for<br>sure</font></div></div><div class='respDivL'><div class='vertical-center'>(E)</div></div><div class='respDivR'><div class='vertical-center'><font style='color:orange'>(I)</font></div></div></div>","null","$16","$38","1","16","38","",""
"html-keyboard-response","136","133670","0.0-5.0-1.44","63fe38bfab28b75385783fba","bdp_rd","Mon Mar 27 2023 18:23:56 GMT-0400 (Eastern Daylight Time)","167190","","null","","","","FIX","","<div class='trialBorder'><div class='vertical-center'><img style='vertical-align:center; align:center' src=img/fixation3.jpg></div></div>","null","","","","","","",""
"html-keyboard-response","137","135196","0.0-5.0-2.44","63fe38bfab28b75385783fba","bdp_rd","Mon Mar 27 2023 18:23:56 GMT-0400 (Eastern Daylight Time)","167190","","1526","","","","offer","","<div class='trialBorder'><div class='vertical-center'><img style='vertical-align:center; align:center' src=img/fixation3.jpg></div><div class='cl'><div class='vertical-center'>$48<br>with a<br>50% chance</div></div><div class='cr'><div class='vertical-center'>$34<br>for<br>sure</div></div><div class='respDivL'><div class='vertical-center'>(E)</div></div><div class='respDivR'><div class='vertical-center'>(I)</div></div></div>","I","$34","$48","1","34","48","SURE",""
"html-keyboard-response","138","135448","0.0-5.0-3.44","63fe38bfab28b75385783fba","bdp_rd","Mon Mar 27 2023 18:23:56 GMT-0400 (Eastern Daylight Time)","167190","","null","","","","offerFB","","<div class='trialBorder'><div class='vertical-center'><img style='vertical-align:center; align:center' src=img/fixation3.jpg></div><div class='cl'><div class='vertical-center'>$48<br>with a<br>50% chance</div></div><div class='cr'><div class='vertical-center'><font style='color:orange'>$34<br>for<br>sure</font></div></div><div class='respDivL'><div class='vertical-center'>(E)</div></div><div class='respDivR'><div class='vertical-center'><font style='color:orange'>(I)</font></div></div></div>","null","$34","$48","1","34","48","",""
"html-keyboard-response","139","135949","0.0-5.0-1.45","63fe38bfab28b75385783fba","bdp_rd","Mon Mar 27 2023 18:23:56 GMT-0400 (Eastern Daylight Time)","167190","","null","","","","FIX","","<div class='trialBorder'><div class='vertical-center'><img style='vertical-align:center; align:center' src=img/fixation3.jpg></div></div>","null","","","","","","",""
"html-keyboard-response","140","136902","0.0-5.0-2.45","63fe38bfab28b75385783fba","bdp_rd","Mon Mar 27 2023 18:23:56 GMT-0400 (Eastern Daylight Time)","167190","","952","","","","offer","","<div class='trialBorder'><div class='vertical-center'><img style='vertical-align:center; align:center' src=img/fixation3.jpg></div><div class='cl'><div class='vertical-center'>$27<br>for<br>sure</div></div><div class='cr'><div class='vertical-center'>$47<br>with a<br>50% chance</div></div><div class='respDivL'><div class='vertical-center'>(E)</div></div><div class='respDivR'><div class='vertical-center'>(I)</div></div></div>","E","$27","$47","0","27","47","SURE",""
"html-keyboard-response","141","137154","0.0-5.0-3.45","63fe38bfab28b75385783fba","bdp_rd","Mon Mar 27 2023 18:23:56 GMT-0400 (Eastern Daylight Time)","167190","","null","","","","offerFB","","<div class='trialBorder'><div class='vertical-center'><img style='vertical-align:center; align:center' src=img/fixation3.jpg></div><div class='cl'><div class='vertical-center'><font style='color:orange'>$27<br>for<br>sure</font></div></div><div class='cr'><div class='vertical-center'>$47<br>with a<br>50% chance</div></div><div class='respDivL'><div class='vertical-center'><font style='color:orange'>(E)</font></div></div><div class='respDivR'><div class='vertical-center'>(I)</div></div></div>","null","$27","$47","0","27","47","",""
"html-keyboard-response","142","137655","0.0-5.0-1.46","63fe38bfab28b75385783fba","bdp_rd","Mon Mar 27 2023 18:23:56 GMT-0400 (Eastern Daylight Time)","167190","","null","","","","FIX","","<div class='trialBorder'><div class='vertical-center'><img style='vertical-align:center; align:center' src=img/fixation3.jpg></div></div>","null","","","","","","",""
"html-keyboard-response","143","139631","0.0-5.0-2.46","63fe38bfab28b75385783fba","bdp_rd","Mon Mar 27 2023 18:23:56 GMT-0400 (Eastern Daylight Time)","167190","","1975","","","","offer","","<div class='trialBorder'><div class='vertical-center'><img style='vertical-align:center; align:center' src=img/fixation3.jpg></div><div class='cl'><div class='vertical-center'>$15<br>with a<br>50% chance</div></div><div class='cr'><div class='vertical-center'>$6<br>for<br>sure</div></div><div class='respDivL'><div class='vertical-center'>(E)</div></div><div class='respDivR'><div class='vertical-center'>(I)</div></div></div>","I","$6","$15","1","6","15","SURE",""
"html-keyboard-response","144","139882","0.0-5.0-3.46","63fe38bfab28b75385783fba","bdp_rd","Mon Mar 27 2023 18:23:56 GMT-0400 (Eastern Daylight Time)","167190","","null","","","","offerFB","","<div class='trialBorder'><div class='vertical-center'><img style='vertical-align:center; align:center' src=img/fixation3.jpg></div><div class='cl'><div class='vertical-center'>$15<br>with a<br>50% chance</div></div><div class='cr'><div class='vertical-center'><font style='color:orange'>$6<br>for<br>sure</font></div></div><div class='respDivL'><div class='vertical-center'>(E)</div></div><div class='respDivR'><div class='vertical-center'><font style='color:orange'>(I)</font></div></div></div>","null","$6","$15","1","6","15","",""
"html-keyboard-response","145","140382","0.0-5.0-1.47","63fe38bfab28b75385783fba","bdp_rd","Mon Mar 27 2023 18:23:56 GMT-0400 (Eastern Daylight Time)","167190","","null","","","","FIX","","<div class='trialBorder'><div class='vertical-center'><img style='vertical-align:center; align:center' src=img/fixation3.jpg></div></div>","null","","","","","","",""
"html-keyboard-response","146","142222","0.0-5.0-2.47","63fe38bfab28b75385783fba","bdp_rd","Mon Mar 27 2023 18:23:56 GMT-0400 (Eastern Daylight Time)","167190","","1839","","","","offer","","<div class='trialBorder'><div class='vertical-center'><img style='vertical-align:center; align:center' src=img/fixation3.jpg></div><div class='cl'><div class='vertical-center'>$41<br>with a<br>50% chance</div></div><div class='cr'><div class='vertical-center'>$13<br>for<br>sure</div></div><div class='respDivL'><div class='vertical-center'>(E)</div></div><div class='respDivR'><div class='vertical-center'>(I)</div></div></div>","E","$13","$41","1","13","41","RISKY",""
"html-keyboard-response","147","142474","0.0-5.0-3.47","63fe38bfab28b75385783fba","bdp_rd","Mon Mar 27 2023 18:23:56 GMT-0400 (Eastern Daylight Time)","167190","","null","","","","offerFB","","<div class='trialBorder'><div class='vertical-center'><img style='vertical-align:center; align:center' src=img/fixation3.jpg></div><div class='cl'><div class='vertical-center'><font style='color:orange'>$41<br>with a<br>50% chance</font></div></div><div class='cr'><div class='vertical-center'>$13<br>for<br>sure</div></div><div class='respDivL'><div class='vertical-center'><font style='color:orange'>(E)</font></div></div><div class='respDivR'><div class='vertical-center'>(I)</div></div></div>","null","$13","$41","1","13","41","",""
"html-keyboard-response","148","142975","0.0-5.0-1.48","63fe38bfab28b75385783fba","bdp_rd","Mon Mar 27 2023 18:23:56 GMT-0400 (Eastern Daylight Time)","167190","","null","","","","FIX","","<div class='trialBorder'><div class='vertical-center'><img style='vertical-align:center; align:center' src=img/fixation3.jpg></div></div>","null","","","","","","",""
"html-keyboard-response","149","144006","0.0-5.0-2.48","63fe38bfab28b75385783fba","bdp_rd","Mon Mar 27 2023 18:23:56 GMT-0400 (Eastern Daylight Time)","167190","","1031","","","","offer","","<div class='trialBorder'><div class='vertical-center'><img style='vertical-align:center; align:center' src=img/fixation3.jpg></div><div class='cl'><div class='vertical-center'>$10<br>for<br>sure</div></div><div class='cr'><div class='vertical-center'>$19<br>with a<br>50% chance</div></div><div class='respDivL'><div class='vertical-center'>(E)</div></div><div class='respDivR'><div class='vertical-center'>(I)</div></div></div>","E","$10","$19","0","10","19","SURE",""
"html-keyboard-response","150","144257","0.0-5.0-3.48","63fe38bfab28b75385783fba","bdp_rd","Mon Mar 27 2023 18:23:56 GMT-0400 (Eastern Daylight Time)","167190","","null","","","","offerFB","","<div class='trialBorder'><div class='vertical-center'><img style='vertical-align:center; align:center' src=img/fixation3.jpg></div><div class='cl'><div class='vertical-center'><font style='color:orange'>$10<br>for<br>sure</font></div></div><div class='cr'><div class='vertical-center'>$19<br>with a<br>50% chance</div></div><div class='respDivL'><div class='vertical-center'><font style='color:orange'>(E)</font></div></div><div class='respDivR'><div class='vertical-center'>(I)</div></div></div>","null","$10","$19","0","10","19","",""
"html-keyboard-response","151","144758","0.0-5.0-1.49","63fe38bfab28b75385783fba","bdp_rd","Mon Mar 27 2023 18:23:56 GMT-0400 (Eastern Daylight Time)","167190","","null","","","","FIX","","<div class='trialBorder'><div class='vertical-center'><img style='vertical-align:center; align:center' src=img/fixation3.jpg></div></div>","null","","","","","","",""
"html-keyboard-response","152","146615","0.0-5.0-2.49","63fe38bfab28b75385783fba","bdp_rd","Mon Mar 27 2023 18:23:56 GMT-0400 (Eastern Daylight Time)","167190","","1856","","","","offer","","<div class='trialBorder'><div class='vertical-center'><img style='vertical-align:center; align:center' src=img/fixation3.jpg></div><div class='cl'><div class='vertical-center'>$3<br>for<br>sure</div></div><div class='cr'><div class='vertical-center'>$12<br>with a<br>50% chance</div></div><div class='respDivL'><div class='vertical-center'>(E)</div></div><div class='respDivR'><div class='vertical-center'>(I)</div></div></div>","I","$3","$12","0","3","12","RISKY",""
"html-keyboard-response","153","146866","0.0-5.0-3.49","63fe38bfab28b75385783fba","bdp_rd","Mon Mar 27 2023 18:23:56 GMT-0400 (Eastern Daylight Time)","167190","","null","","","","offerFB","","<div class='trialBorder'><div class='vertical-center'><img style='vertical-align:center; align:center' src=img/fixation3.jpg></div><div class='cl'><div class='vertical-center'>$3<br>for<br>sure</div></div><div class='cr'><div class='vertical-center'><font style='color:orange'>$12<br>with a<br>50% chance</font></div></div><div class='respDivL'><div class='vertical-center'>(E)</div></div><div class='respDivR'><div class='vertical-center'><font style='color:orange'>(I)</font></div></div></div>","null","$3","$12","0","3","12","",""
"html-keyboard-response","154","147366","0.0-5.0-1.50","63fe38bfab28b75385783fba","bdp_rd","Mon Mar 27 2023 18:23:56 GMT-0400 (Eastern Daylight Time)","167190","","null","","","","FIX","","<div class='trialBorder'><div class='vertical-center'><img style='vertical-align:center; align:center' src=img/fixation3.jpg></div></div>","null","","","","","","",""
"html-keyboard-response","155","148904","0.0-5.0-2.50","63fe38bfab28b75385783fba","bdp_rd","Mon Mar 27 2023 18:23:56 GMT-0400 (Eastern Daylight Time)","167190","","1537","","","","offer","","<div class='trialBorder'><div class='vertical-center'><img style='vertical-align:center; align:center' src=img/fixation3.jpg></div><div class='cl'><div class='vertical-center'>$35<br>with a<br>50% chance</div></div><div class='cr'><div class='vertical-center'>$12<br>for<br>sure</div></div><div class='respDivL'><div class='vertical-center'>(E)</div></div><div class='respDivR'><div class='vertical-center'>(I)</div></div></div>","I","$12","$35","1","12","35","SURE",""
"html-keyboard-response","156","149154","0.0-5.0-3.50","63fe38bfab28b75385783fba","bdp_rd","Mon Mar 27 2023 18:23:56 GMT-0400 (Eastern Daylight Time)","167190","","null","","","","offerFB","","<div class='trialBorder'><div class='vertical-center'><img style='vertical-align:center; align:center' src=img/fixation3.jpg></div><div class='cl'><div class='vertical-center'>$35<br>with a<br>50% chance</div></div><div class='cr'><div class='vertical-center'><font style='color:orange'>$12<br>for<br>sure</font></div></div><div class='respDivL'><div class='vertical-center'>(E)</div></div><div class='respDivR'><div class='vertical-center'><font style='color:orange'>(I)</font></div></div></div>","null","$12","$35","1","12","35","",""
"html-keyboard-response","157","149656","0.0-5.0-1.51","63fe38bfab28b75385783fba","bdp_rd","Mon Mar 27 2023 18:23:56 GMT-0400 (Eastern Daylight Time)","167190","","null","","","","FIX","","<div class='trialBorder'><div class='vertical-center'><img style='vertical-align:center; align:center' src=img/fixation3.jpg></div></div>","null","","","","","","",""
"html-keyboard-response","158","150425","0.0-5.0-2.51","63fe38bfab28b75385783fba","bdp_rd","Mon Mar 27 2023 18:23:56 GMT-0400 (Eastern Daylight Time)","167190","","769","","","","offer","","<div class='trialBorder'><div class='vertical-center'><img style='vertical-align:center; align:center' src=img/fixation3.jpg></div><div class='cl'><div class='vertical-center'>$45<br>for<br>sure</div></div><div class='cr'><div class='vertical-center'>$86<br>with a<br>50% chance</div></div><div class='respDivL'><div class='vertical-center'>(E)</div></div><div class='respDivR'><div class='vertical-center'>(I)</div></div></div>","E","$45","$86","0","45","86","SURE",""
"html-keyboard-response","159","150676","0.0-5.0-3.51","63fe38bfab28b75385783fba","bdp_rd","Mon Mar 27 2023 18:23:56 GMT-0400 (Eastern Daylight Time)","167190","","null","","","","offerFB","","<div class='trialBorder'><div class='vertical-center'><img style='vertical-align:center; align:center' src=img/fixation3.jpg></div><div class='cl'><div class='vertical-center'><font style='color:orange'>$45<br>for<br>sure</font></div></div><div class='cr'><div class='vertical-center'>$86<br>with a<br>50% chance</div></div><div class='respDivL'><div class='vertical-center'><font style='color:orange'>(E)</font></div></div><div class='respDivR'><div class='vertical-center'>(I)</div></div></div>","null","$45","$86","0","45","86","",""
"html-keyboard-response","160","151178","0.0-5.0-1.52","63fe38bfab28b75385783fba","bdp_rd","Mon Mar 27 2023 18:23:56 GMT-0400 (Eastern Daylight Time)","167190","","null","","","","FIX","","<div class='trialBorder'><div class='vertical-center'><img style='vertical-align:center; align:center' src=img/fixation3.jpg></div></div>","null","","","","","","",""
"html-keyboard-response","161","152249","0.0-5.0-2.52","63fe38bfab28b75385783fba","bdp_rd","Mon Mar 27 2023 18:23:56 GMT-0400 (Eastern Daylight Time)","167190","","1070","","","","offer","","<div class='trialBorder'><div class='vertical-center'><img style='vertical-align:center; align:center' src=img/fixation3.jpg></div><div class='cl'><div class='vertical-center'>$4<br>for<br>sure</div></div><div class='cr'><div class='vertical-center'>$11<br>with a<br>50% chance</div></div><div class='respDivL'><div class='vertical-center'>(E)</div></div><div class='respDivR'><div class='vertical-center'>(I)</div></div></div>","I","$4","$11","0","4","11","RISKY",""
"html-keyboard-response","162","152500","0.0-5.0-3.52","63fe38bfab28b75385783fba","bdp_rd","Mon Mar 27 2023 18:23:56 GMT-0400 (Eastern Daylight Time)","167190","","null","","","","offerFB","","<div class='trialBorder'><div class='vertical-center'><img style='vertical-align:center; align:center' src=img/fixation3.jpg></div><div class='cl'><div class='vertical-center'>$4<br>for<br>sure</div></div><div class='cr'><div class='vertical-center'><font style='color:orange'>$11<br>with a<br>50% chance</font></div></div><div class='respDivL'><div class='vertical-center'>(E)</div></div><div class='respDivR'><div class='vertical-center'><font style='color:orange'>(I)</font></div></div></div>","null","$4","$11","0","4","11","",""
"html-keyboard-response","163","153002","0.0-5.0-1.53","63fe38bfab28b75385783fba","bdp_rd","Mon Mar 27 2023 18:23:56 GMT-0400 (Eastern Daylight Time)","167190","","null","","","","FIX","","<div class='trialBorder'><div class='vertical-center'><img style='vertical-align:center; align:center' src=img/fixation3.jpg></div></div>","null","","","","","","",""
"html-keyboard-response","164","153842","0.0-5.0-2.53","63fe38bfab28b75385783fba","bdp_rd","Mon Mar 27 2023 18:23:56 GMT-0400 (Eastern Daylight Time)","167190","","840","","","","offer","","<div class='trialBorder'><div class='vertical-center'><img style='vertical-align:center; align:center' src=img/fixation3.jpg></div><div class='cl'><div class='vertical-center'>$46<br>with a<br>50% chance</div></div><div class='cr'><div class='vertical-center'>$29<br>for<br>sure</div></div><div class='respDivL'><div class='vertical-center'>(E)</div></div><div class='respDivR'><div class='vertical-center'>(I)</div></div></div>","E","$29","$46","1","29","46","RISKY",""
"html-keyboard-response","165","154093","0.0-5.0-3.53","63fe38bfab28b75385783fba","bdp_rd","Mon Mar 27 2023 18:23:56 GMT-0400 (Eastern Daylight Time)","167190","","null","","","","offerFB","","<div class='trialBorder'><div class='vertical-center'><img style='vertical-align:center; align:center' src=img/fixation3.jpg></div><div class='cl'><div class='vertical-center'><font style='color:orange'>$46<br>with a<br>50% chance</font></div></div><div class='cr'><div class='vertical-center'>$29<br>for<br>sure</div></div><div class='respDivL'><div class='vertical-center'><font style='color:orange'>(E)</font></div></div><div class='respDivR'><div class='vertical-center'>(I)</div></div></div>","null","$29","$46","1","29","46","",""
"html-keyboard-response","166","154594","0.0-5.0-1.54","63fe38bfab28b75385783fba","bdp_rd","Mon Mar 27 2023 18:23:56 GMT-0400 (Eastern Daylight Time)","167190","","null","","","","FIX","","<div class='trialBorder'><div class='vertical-center'><img style='vertical-align:center; align:center' src=img/fixation3.jpg></div></div>","null","","","","","","",""
"html-keyboard-response","167","155977","0.0-5.0-2.54","63fe38bfab28b75385783fba","bdp_rd","Mon Mar 27 2023 18:23:56 GMT-0400 (Eastern Daylight Time)","167190","","1381","","","","offer","","<div class='trialBorder'><div class='vertical-center'><img style='vertical-align:center; align:center' src=img/fixation3.jpg></div><div class='cl'><div class='vertical-center'>$40<br>for<br>sure</div></div><div class='cr'><div class='vertical-center'>$95<br>with a<br>50% chance</div></div><div class='respDivL'><div class='vertical-center'>(E)</div></div><div class='respDivR'><div class='vertical-center'>(I)</div></div></div>","I","$40","$95","0","40","95","RISKY",""
"html-keyboard-response","168","156227","0.0-5.0-3.54","63fe38bfab28b75385783fba","bdp_rd","Mon Mar 27 2023 18:23:56 GMT-0400 (Eastern Daylight Time)","167190","","null","","","","offerFB","","<div class='trialBorder'><div class='vertical-center'><img style='vertical-align:center; align:center' src=img/fixation3.jpg></div><div class='cl'><div class='vertical-center'>$40<br>for<br>sure</div></div><div class='cr'><div class='vertical-center'><font style='color:orange'>$95<br>with a<br>50% chance</font></div></div><div class='respDivL'><div class='vertical-center'>(E)</div></div><div class='respDivR'><div class='vertical-center'><font style='color:orange'>(I)</font></div></div></div>","null","$40","$95","0","40","95","",""
"html-keyboard-response","169","156729","0.0-5.0-1.55","63fe38bfab28b75385783fba","bdp_rd","Mon Mar 27 2023 18:23:56 GMT-0400 (Eastern Daylight Time)","167190","","null","","","","FIX","","<div class='trialBorder'><div class='vertical-center'><img style='vertical-align:center; align:center' src=img/fixation3.jpg></div></div>","null","","","","","","",""
"html-keyboard-response","170","157690","0.0-5.0-2.55","63fe38bfab28b75385783fba","bdp_rd","Mon Mar 27 2023 18:23:56 GMT-0400 (Eastern Daylight Time)","167190","","960","","","","offer","","<div class='trialBorder'><div class='vertical-center'><img style='vertical-align:center; align:center' src=img/fixation3.jpg></div><div class='cl'><div class='vertical-center'>$2<br>for<br>sure</div></div><div class='cr'><div class='vertical-center'>$21<br>with a<br>50% chance</div></div><div class='respDivL'><div class='vertical-center'>(E)</div></div><div class='respDivR'><div class='vertical-center'>(I)</div></div></div>","I","$2","$21","0","2","21","RISKY",""
"html-keyboard-response","171","157941","0.0-5.0-3.55","63fe38bfab28b75385783fba","bdp_rd","Mon Mar 27 2023 18:23:56 GMT-0400 (Eastern Daylight Time)","167190","","null","","","","offerFB","","<div class='trialBorder'><div class='vertical-center'><img style='vertical-align:center; align:center' src=img/fixation3.jpg></div><div class='cl'><div class='vertical-center'>$2<br>for<br>sure</div></div><div class='cr'><div class='vertical-center'><font style='color:orange'>$21<br>with a<br>50% chance</font></div></div><div class='respDivL'><div class='vertical-center'>(E)</div></div><div class='respDivR'><div class='vertical-center'><font style='color:orange'>(I)</font></div></div></div>","null","$2","$21","0","2","21","",""
"html-keyboard-response","172","158442","0.0-5.0-1.56","63fe38bfab28b75385783fba","bdp_rd","Mon Mar 27 2023 18:23:56 GMT-0400 (Eastern Daylight Time)","167190","","null","","","","FIX","","<div class='trialBorder'><div class='vertical-center'><img style='vertical-align:center; align:center' src=img/fixation3.jpg></div></div>","null","","","","","","",""
"html-keyboard-response","173","161172","0.0-5.0-2.56","63fe38bfab28b75385783fba","bdp_rd","Mon Mar 27 2023 18:23:56 GMT-0400 (Eastern Daylight Time)","167190","","2729","","","","offer","","<div class='trialBorder'><div class='vertical-center'><img style='vertical-align:center; align:center' src=img/fixation3.jpg></div><div class='cl'><div class='vertical-center'>$42<br>with a<br>50% chance</div></div><div class='cr'><div class='vertical-center'>$22<br>for<br>sure</div></div><div class='respDivL'><div class='vertical-center'>(E)</div></div><div class='respDivR'><div class='vertical-center'>(I)</div></div></div>","I","$22","$42","1","22","42","SURE",""
