"trial_type","trial_index","time_elapsed","internal_node_id","subject_id","task","startTime","totalTime","view_history","rt","event","trial","time","trialtype","success","stimulus","key_press","sureOffer","riskyOffer","riskyLeft","sureAmt","riskyAmt","chosen"
"pavlovia","0","2","0.0-0.0","6352b3c968388ef86f3556db","bdp_rd","Mon Mar 27 2023 11:41:42 GMT-0400 (Eastern Daylight Time)","179851","","","","","","","","","","","","","","",""
"instructions","1","2677","0.0-1.0","6352b3c968388ef86f3556db","bdp_rd","Mon Mar 27 2023 11:41:42 GMT-0400 (Eastern Daylight Time)","179851","[{""page_index"":0,""viewing_time"":2674}]","2674","","","","","","","","","","","","",""
"","","","","6352b3c968388ef86f3556db","bdp_rd","Mon Mar 27 2023 11:41:42 GMT-0400 (Eastern Daylight Time)","179851","","","fullscreenenter","2","5088","fullscreenenter","","","","","","","","",""
"fullscreen","2","6079","0.0-2.0","6352b3c968388ef86f3556db","bdp_rd","Mon Mar 27 2023 11:41:42 GMT-0400 (Eastern Daylight Time)","179851","","","","","","","true","","","","","","","",""
"instructions","3","23884","0.0-4.0","6352b3c968388ef86f3556db","bdp_rd","Mon Mar 27 2023 11:41:42 GMT-0400 (Eastern Daylight Time)","179851","[{""page_index"":0,""viewing_time"":10837},{""page_index"":1,""viewing_time"":4056},{""page_index"":2,""viewing_time"":2909}]","17803","","","","","","","","","","","","",""
"html-keyboard-response","4","24390","0.0-5.0-1.0","6352b3c968388ef86f3556db","bdp_rd","Mon Mar 27 2023 11:41:42 GMT-0400 (Eastern Daylight Time)","179851","","null","","","","FIX","","<div class='trialBorder'><div class='vertical-center'><img style='vertical-align:center; align:center' src=img/fixation3.jpg></div></div>","null","","","","","",""
"html-keyboard-response","5","26435","0.0-5.0-2.0","6352b3c968388ef86f3556db","bdp_rd","Mon Mar 27 2023 11:41:42 GMT-0400 (Eastern Daylight Time)","179851","","2043","","","","offer","","<div class='trialBorder'><div class='vertical-center'><img style='vertical-align:center; align:center' src=img/fixation3.jpg></div><div class='cl'><div class='vertical-center'>$4<br>for<br>sure</div></div><div class='cr'><div class='vertical-center'>$14<br>with a<br>50% chance</div></div><div class='respDivL'><div class='vertical-center'>(E)</div></div><div class='respDivR'><div class='vertical-center'>(I)</div></div></div>","I","$4","$14","0","4","14","RISKY"
"html-keyboard-response","6","26693","0.0-5.0-3.0","6352b3c968388ef86f3556db","bdp_rd","Mon Mar 27 2023 11:41:42 GMT-0400 (Eastern Daylight Time)","179851","","null","","","","offerFB","","<div class='trialBorder'><div class='vertical-center'><img style='vertical-align:center; align:center' src=img/fixation3.jpg></div><div class='cl'><div class='vertical-center'>$4<br>for<br>sure</div></div><div class='cr'><div class='vertical-center'><font style='color:orange'>$14<br>with a<br>50% chance</font></div></div><div class='respDivL'><div class='vertical-center'>(E)</div></div><div class='respDivR'><div class='vertical-center'><font style='color:orange'>(I)</font></div></div></div>","null","$4","$14","0","4","14",""
"html-keyboard-response","7","27198","0.0-5.0-1.1","6352b3c968388ef86f3556db","bdp_rd","Mon Mar 27 2023 11:41:42 GMT-0400 (Eastern Daylight Time)","179851","","null","","","","FIX","","<div class='trialBorder'><div class='vertical-center'><img style='vertical-align:center; align:center' src=img/fixation3.jpg></div></div>","null","","","","","",""
"html-keyboard-response","8","28726","0.0-5.0-2.1","6352b3c968388ef86f3556db","bdp_rd","Mon Mar 27 2023 11:41:42 GMT-0400 (Eastern Daylight Time)","179851","","1525","","","","offer","","<div class='trialBorder'><div class='vertical-center'><img style='vertical-align:center; align:center' src=img/fixation3.jpg></div><div class='cl'><div class='vertical-center'>$14<br>for<br>sure</div></div><div class='cr'><div class='vertical-center'>$29<br>with a<br>50% chance</div></div><div class='respDivL'><div class='vertical-center'>(E)</div></div><div class='respDivR'><div class='vertical-center'>(I)</div></div></div>","I","$14","$29","0","14","29","RISKY"
"html-keyboard-response","9","28981","0.0-5.0-3.1","6352b3c968388ef86f3556db","bdp_rd","Mon Mar 27 2023 11:41:42 GMT-0400 (Eastern Daylight Time)","179851","","null","","","","offerFB","","<div class='trialBorder'><div class='vertical-center'><img style='vertical-align:center; align:center' src=img/fixation3.jpg></div><div class='cl'><div class='vertical-center'>$14<br>for<br>sure</div></div><div class='cr'><div class='vertical-center'><font style='color:orange'>$29<br>with a<br>50% chance</font></div></div><div class='respDivL'><div class='vertical-center'>(E)</div></div><div class='respDivR'><div class='vertical-center'><font style='color:orange'>(I)</font></div></div></div>","null","$14","$29","0","14","29",""
"html-keyboard-response","10","29486","0.0-5.0-1.2","6352b3c968388ef86f3556db","bdp_rd","Mon Mar 27 2023 11:41:42 GMT-0400 (Eastern Daylight Time)","179851","","null","","","","FIX","","<div class='trialBorder'><div class='vertical-center'><img style='vertical-align:center; align:center' src=img/fixation3.jpg></div></div>","null","","","","","",""
"html-keyboard-response","11","31050","0.0-5.0-2.2","6352b3c968388ef86f3556db","bdp_rd","Mon Mar 27 2023 11:41:42 GMT-0400 (Eastern Daylight Time)","179851","","1561","","","","offer","","<div class='trialBorder'><div class='vertical-center'><img style='vertical-align:center; align:center' src=img/fixation3.jpg></div><div class='cl'><div class='vertical-center'>$4<br>for<br>sure</div></div><div class='cr'><div class='vertical-center'>$11<br>with a<br>50% chance</div></div><div class='respDivL'><div class='vertical-center'>(E)</div></div><div class='respDivR'><div class='vertical-center'>(I)</div></div></div>","I","$4","$11","0","4","11","RISKY"
"html-keyboard-response","12","31311","0.0-5.0-3.2","6352b3c968388ef86f3556db","bdp_rd","Mon Mar 27 2023 11:41:42 GMT-0400 (Eastern Daylight Time)","179851","","null","","","","offerFB","","<div class='trialBorder'><div class='vertical-center'><img style='vertical-align:center; align:center' src=img/fixation3.jpg></div><div class='cl'><div class='vertical-center'>$4<br>for<br>sure</div></div><div class='cr'><div class='vertical-center'><font style='color:orange'>$11<br>with a<br>50% chance</font></div></div><div class='respDivL'><div class='vertical-center'>(E)</div></div><div class='respDivR'><div class='vertical-center'><font style='color:orange'>(I)</font></div></div></div>","null","$4","$11","0","4","11",""
"html-keyboard-response","13","31822","0.0-5.0-1.3","6352b3c968388ef86f3556db","bdp_rd","Mon Mar 27 2023 11:41:42 GMT-0400 (Eastern Daylight Time)","179851","","null","","","","FIX","","<div class='trialBorder'><div class='vertical-center'><img style='vertical-align:center; align:center' src=img/fixation3.jpg></div></div>","null","","","","","",""
"html-keyboard-response","14","33421","0.0-5.0-2.3","6352b3c968388ef86f3556db","bdp_rd","Mon Mar 27 2023 11:41:42 GMT-0400 (Eastern Daylight Time)","179851","","1596","","","","offer","","<div class='trialBorder'><div class='vertical-center'><img style='vertical-align:center; align:center' src=img/fixation3.jpg></div><div class='cl'><div class='vertical-center'>$54<br>with a<br>50% chance</div></div><div class='cr'><div class='vertical-center'>$25<br>for<br>sure</div></div><div class='respDivL'><div class='vertical-center'>(E)</div></div><div class='respDivR'><div class='vertical-center'>(I)</div></div></div>","I","$25","$54","1","25","54","SURE"
"html-keyboard-response","15","33678","0.0-5.0-3.3","6352b3c968388ef86f3556db","bdp_rd","Mon Mar 27 2023 11:41:42 GMT-0400 (Eastern Daylight Time)","179851","","null","","","","offerFB","","<div class='trialBorder'><div class='vertical-center'><img style='vertical-align:center; align:center' src=img/fixation3.jpg></div><div class='cl'><div class='vertical-center'>$54<br>with a<br>50% chance</div></div><div class='cr'><div class='vertical-center'><font style='color:orange'>$25<br>for<br>sure</font></div></div><div class='respDivL'><div class='vertical-center'>(E)</div></div><div class='respDivR'><div class='vertical-center'><font style='color:orange'>(I)</font></div></div></div>","null","$25","$54","1","25","54",""
"html-keyboard-response","16","34190","0.0-5.0-1.4","6352b3c968388ef86f3556db","bdp_rd","Mon Mar 27 2023 11:41:42 GMT-0400 (Eastern Daylight Time)","179851","","null","","","","FIX","","<div class='trialBorder'><div class='vertical-center'><img style='vertical-align:center; align:center' src=img/fixation3.jpg></div></div>","null","","","","","",""
"html-keyboard-response","17","35882","0.0-5.0-2.4","6352b3c968388ef86f3556db","bdp_rd","Mon Mar 27 2023 11:41:42 GMT-0400 (Eastern Daylight Time)","179851","","1690","","","","offer","","<div class='trialBorder'><div class='vertical-center'><img style='vertical-align:center; align:center' src=img/fixation3.jpg></div><div class='cl'><div class='vertical-center'>$38<br>with a<br>50% chance</div></div><div class='cr'><div class='vertical-center'>$16<br>for<br>sure</div></div><div class='respDivL'><div class='vertical-center'>(E)</div></div><div class='respDivR'><div class='vertical-center'>(I)</div></div></div>","E","$16","$38","1","16","38","RISKY"
"html-keyboard-response","18","36142","0.0-5.0-3.4","6352b3c968388ef86f3556db","bdp_rd","Mon Mar 27 2023 11:41:42 GMT-0400 (Eastern Daylight Time)","179851","","null","","","","offerFB","","<div class='trialBorder'><div class='vertical-center'><img style='vertical-align:center; align:center' src=img/fixation3.jpg></div><div class='cl'><div class='vertical-center'><font style='color:orange'>$38<br>with a<br>50% chance</font></div></div><div class='cr'><div class='vertical-center'>$16<br>for<br>sure</div></div><div class='respDivL'><div class='vertical-center'><font style='color:orange'>(E)</font></div></div><div class='respDivR'><div class='vertical-center'>(I)</div></div></div>","null","$16","$38","1","16","38",""
"html-keyboard-response","19","36654","0.0-5.0-1.5","6352b3c968388ef86f3556db","bdp_rd","Mon Mar 27 2023 11:41:42 GMT-0400 (Eastern Daylight Time)","179851","","null","","","","FIX","","<div class='trialBorder'><div class='vertical-center'><img style='vertical-align:center; align:center' src=img/fixation3.jpg></div></div>","null","","","","","",""
"html-keyboard-response","20","38281","0.0-5.0-2.5","6352b3c968388ef86f3556db","bdp_rd","Mon Mar 27 2023 11:41:42 GMT-0400 (Eastern Daylight Time)","179851","","1624","","","","offer","","<div class='trialBorder'><div class='vertical-center'><img style='vertical-align:center; align:center' src=img/fixation3.jpg></div><div class='cl'><div class='vertical-center'>$10<br>for<br>sure</div></div><div class='cr'><div class='vertical-center'>$40<br>with a<br>50% chance</div></div><div class='respDivL'><div class='vertical-center'>(E)</div></div><div class='respDivR'><div class='vertical-center'>(I)</div></div></div>","I","$10","$40","0","10","40","RISKY"
"html-keyboard-response","21","38542","0.0-5.0-3.5","6352b3c968388ef86f3556db","bdp_rd","Mon Mar 27 2023 11:41:42 GMT-0400 (Eastern Daylight Time)","179851","","null","","","","offerFB","","<div class='trialBorder'><div class='vertical-center'><img style='vertical-align:center; align:center' src=img/fixation3.jpg></div><div class='cl'><div class='vertical-center'>$10<br>for<br>sure</div></div><div class='cr'><div class='vertical-center'><font style='color:orange'>$40<br>with a<br>50% chance</font></div></div><div class='respDivL'><div class='vertical-center'>(E)</div></div><div class='respDivR'><div class='vertical-center'><font style='color:orange'>(I)</font></div></div></div>","null","$10","$40","0","10","40",""
"html-keyboard-response","22","39045","0.0-5.0-1.6","6352b3c968388ef86f3556db","bdp_rd","Mon Mar 27 2023 11:41:42 GMT-0400 (Eastern Daylight Time)","179851","","null","","","","FIX","","<div class='trialBorder'><div class='vertical-center'><img style='vertical-align:center; align:center' src=img/fixation3.jpg></div></div>","null","","","","","",""
"html-keyboard-response","23","45147","0.0-5.0-2.6","6352b3c968388ef86f3556db","bdp_rd","Mon Mar 27 2023 11:41:42 GMT-0400 (Eastern Daylight Time)","179851","","6101","","","","offer","","<div class='trialBorder'><div class='vertical-center'><img style='vertical-align:center; align:center' src=img/fixation3.jpg></div><div class='cl'><div class='vertical-center'>$15<br>for<br>sure</div></div><div class='cr'><div class='vertical-center'>$31<br>with a<br>50% chance</div></div><div class='respDivL'><div class='vertical-center'>(E)</div></div><div class='respDivR'><div class='vertical-center'>(I)</div></div></div>","E","$15","$31","0","15","31","SURE"
"html-keyboard-response","24","45406","0.0-5.0-3.6","6352b3c968388ef86f3556db","bdp_rd","Mon Mar 27 2023 11:41:42 GMT-0400 (Eastern Daylight Time)","179851","","null","","","","offerFB","","<div class='trialBorder'><div class='vertical-center'><img style='vertical-align:center; align:center' src=img/fixation3.jpg></div><div class='cl'><div class='vertical-center'><font style='color:orange'>$15<br>for<br>sure</font></div></div><div class='cr'><div class='vertical-center'>$31<br>with a<br>50% chance</div></div><div class='respDivL'><div class='vertical-center'><font style='color:orange'>(E)</font></div></div><div class='respDivR'><div class='vertical-center'>(I)</div></div></div>","null","$15","$31","0","15","31",""
"html-keyboard-response","25","45908","0.0-5.0-1.7","6352b3c968388ef86f3556db","bdp_rd","Mon Mar 27 2023 11:41:42 GMT-0400 (Eastern Daylight Time)","179851","","null","","","","FIX","","<div class='trialBorder'><div class='vertical-center'><img style='vertical-align:center; align:center' src=img/fixation3.jpg></div></div>","null","","","","","",""
"html-keyboard-response","26","48409","0.0-5.0-2.7","6352b3c968388ef86f3556db","bdp_rd","Mon Mar 27 2023 11:41:42 GMT-0400 (Eastern Daylight Time)","179851","","2499","","","","offer","","<div class='trialBorder'><div class='vertical-center'><img style='vertical-align:center; align:center' src=img/fixation3.jpg></div><div class='cl'><div class='vertical-center'>$18<br>with a<br>50% chance</div></div><div class='cr'><div class='vertical-center'>$9<br>for<br>sure</div></div><div class='respDivL'><div class='vertical-center'>(E)</div></div><div class='respDivR'><div class='vertical-center'>(I)</div></div></div>","I","$9","$18","1","9","18","SURE"
"html-keyboard-response","27","48670","0.0-5.0-3.7","6352b3c968388ef86f3556db","bdp_rd","Mon Mar 27 2023 11:41:42 GMT-0400 (Eastern Daylight Time)","179851","","null","","","","offerFB","","<div class='trialBorder'><div class='vertical-center'><img style='vertical-align:center; align:center' src=img/fixation3.jpg></div><div class='cl'><div class='vertical-center'>$18<br>with a<br>50% chance</div></div><div class='cr'><div class='vertical-center'><font style='color:orange'>$9<br>for<br>sure</font></div></div><div class='respDivL'><div class='vertical-center'>(E)</div></div><div class='respDivR'><div class='vertical-center'><font style='color:orange'>(I)</font></div></div></div>","null","$9","$18","1","9","18",""
"html-keyboard-response","28","49172","0.0-5.0-1.8","6352b3c968388ef86f3556db","bdp_rd","Mon Mar 27 2023 11:41:42 GMT-0400 (Eastern Daylight Time)","179851","","null","","","","FIX","","<div class='trialBorder'><div class='vertical-center'><img style='vertical-align:center; align:center' src=img/fixation3.jpg></div></div>","null","","","","","",""
"html-keyboard-response","29","52020","0.0-5.0-2.8","6352b3c968388ef86f3556db","bdp_rd","Mon Mar 27 2023 11:41:42 GMT-0400 (Eastern Daylight Time)","179851","","2845","","","","offer","","<div class='trialBorder'><div class='vertical-center'><img style='vertical-align:center; align:center' src=img/fixation3.jpg></div><div class='cl'><div class='vertical-center'>$7<br>for<br>sure</div></div><div class='cr'><div class='vertical-center'>$71<br>with a<br>50% chance</div></div><div class='respDivL'><div class='vertical-center'>(E)</div></div><div class='respDivR'><div class='vertical-center'>(I)</div></div></div>","I","$7","$71","0","7","71","RISKY"
"html-keyboard-response","30","52276","0.0-5.0-3.8","6352b3c968388ef86f3556db","bdp_rd","Mon Mar 27 2023 11:41:42 GMT-0400 (Eastern Daylight Time)","179851","","null","","","","offerFB","","<div class='trialBorder'><div class='vertical-center'><img style='vertical-align:center; align:center' src=img/fixation3.jpg></div><div class='cl'><div class='vertical-center'>$7<br>for<br>sure</div></div><div class='cr'><div class='vertical-center'><font style='color:orange'>$71<br>with a<br>50% chance</font></div></div><div class='respDivL'><div class='vertical-center'>(E)</div></div><div class='respDivR'><div class='vertical-center'><font style='color:orange'>(I)</font></div></div></div>","null","$7","$71","0","7","71",""
"html-keyboard-response","31","52782","0.0-5.0-1.9","6352b3c968388ef86f3556db","bdp_rd","Mon Mar 27 2023 11:41:42 GMT-0400 (Eastern Daylight Time)","179851","","null","","","","FIX","","<div class='trialBorder'><div class='vertical-center'><img style='vertical-align:center; align:center' src=img/fixation3.jpg></div></div>","null","","","","","",""
"html-keyboard-response","32","53901","0.0-5.0-2.9","6352b3c968388ef86f3556db","bdp_rd","Mon Mar 27 2023 11:41:42 GMT-0400 (Eastern Daylight Time)","179851","","1118","","","","offer","","<div class='trialBorder'><div class='vertical-center'><img style='vertical-align:center; align:center' src=img/fixation3.jpg></div><div class='cl'><div class='vertical-center'>$70<br>with a<br>50% chance</div></div><div class='cr'><div class='vertical-center'>$24<br>for<br>sure</div></div><div class='respDivL'><div class='vertical-center'>(E)</div></div><div class='respDivR'><div class='vertical-center'>(I)</div></div></div>","E","$24","$70","1","24","70","RISKY"
"html-keyboard-response","33","54158","0.0-5.0-3.9","6352b3c968388ef86f3556db","bdp_rd","Mon Mar 27 2023 11:41:42 GMT-0400 (Eastern Daylight Time)","179851","","null","","","","offerFB","","<div class='trialBorder'><div class='vertical-center'><img style='vertical-align:center; align:center' src=img/fixation3.jpg></div><div class='cl'><div class='vertical-center'><font style='color:orange'>$70<br>with a<br>50% chance</font></div></div><div class='cr'><div class='vertical-center'>$24<br>for<br>sure</div></div><div class='respDivL'><div class='vertical-center'><font style='color:orange'>(E)</font></div></div><div class='respDivR'><div class='vertical-center'>(I)</div></div></div>","null","$24","$70","1","24","70",""
"html-keyboard-response","34","54660","0.0-5.0-1.10","6352b3c968388ef86f3556db","bdp_rd","Mon Mar 27 2023 11:41:42 GMT-0400 (Eastern Daylight Time)","179851","","null","","","","FIX","","<div class='trialBorder'><div class='vertical-center'><img style='vertical-align:center; align:center' src=img/fixation3.jpg></div></div>","null","","","","","",""
"html-keyboard-response","35","56429","0.0-5.0-2.10","6352b3c968388ef86f3556db","bdp_rd","Mon Mar 27 2023 11:41:42 GMT-0400 (Eastern Daylight Time)","179851","","1766","","","","offer","","<div class='trialBorder'><div class='vertical-center'><img style='vertical-align:center; align:center' src=img/fixation3.jpg></div><div class='cl'><div class='vertical-center'>$15<br>with a<br>50% chance</div></div><div class='cr'><div class='vertical-center'>$6<br>for<br>sure</div></div><div class='respDivL'><div class='vertical-center'>(E)</div></div><div class='respDivR'><div class='vertical-center'>(I)</div></div></div>","E","$6","$15","1","6","15","RISKY"
"html-keyboard-response","36","56686","0.0-5.0-3.10","6352b3c968388ef86f3556db","bdp_rd","Mon Mar 27 2023 11:41:42 GMT-0400 (Eastern Daylight Time)","179851","","null","","","","offerFB","","<div class='trialBorder'><div class='vertical-center'><img style='vertical-align:center; align:center' src=img/fixation3.jpg></div><div class='cl'><div class='vertical-center'><font style='color:orange'>$15<br>with a<br>50% chance</font></div></div><div class='cr'><div class='vertical-center'>$6<br>for<br>sure</div></div><div class='respDivL'><div class='vertical-center'><font style='color:orange'>(E)</font></div></div><div class='respDivR'><div class='vertical-center'>(I)</div></div></div>","null","$6","$15","1","6","15",""
"html-keyboard-response","37","57198","0.0-5.0-1.11","6352b3c968388ef86f3556db","bdp_rd","Mon Mar 27 2023 11:41:42 GMT-0400 (Eastern Daylight Time)","179851","","null","","","","FIX","","<div class='trialBorder'><div class='vertical-center'><img style='vertical-align:center; align:center' src=img/fixation3.jpg></div></div>","null","","","","","",""
"html-keyboard-response","38","58138","0.0-5.0-2.11","6352b3c968388ef86f3556db","bdp_rd","Mon Mar 27 2023 11:41:42 GMT-0400 (Eastern Daylight Time)","179851","","938","","","","offer","","<div class='trialBorder'><div class='vertical-center'><img style='vertical-align:center; align:center' src=img/fixation3.jpg></div><div class='cl'><div class='vertical-center'>$78<br>with a<br>50% chance</div></div><div class='cr'><div class='vertical-center'>$31<br>for<br>sure</div></div><div class='respDivL'><div class='vertical-center'>(E)</div></div><div class='respDivR'><div class='vertical-center'>(I)</div></div></div>","E","$31","$78","1","31","78","RISKY"
"html-keyboard-response","39","58398","0.0-5.0-3.11","6352b3c968388ef86f3556db","bdp_rd","Mon Mar 27 2023 11:41:42 GMT-0400 (Eastern Daylight Time)","179851","","null","","","","offerFB","","<div class='trialBorder'><div class='vertical-center'><img style='vertical-align:center; align:center' src=img/fixation3.jpg></div><div class='cl'><div class='vertical-center'><font style='color:orange'>$78<br>with a<br>50% chance</font></div></div><div class='cr'><div class='vertical-center'>$31<br>for<br>sure</div></div><div class='respDivL'><div class='vertical-center'><font style='color:orange'>(E)</font></div></div><div class='respDivR'><div class='vertical-center'>(I)</div></div></div>","null","$31","$78","1","31","78",""
"html-keyboard-response","40","58900","0.0-5.0-1.12","6352b3c968388ef86f3556db","bdp_rd","Mon Mar 27 2023 11:41:42 GMT-0400 (Eastern Daylight Time)","179851","","null","","","","FIX","","<div class='trialBorder'><div class='vertical-center'><img style='vertical-align:center; align:center' src=img/fixation3.jpg></div></div>","null","","","","","",""
"html-keyboard-response","41","60192","0.0-5.0-2.12","6352b3c968388ef86f3556db","bdp_rd","Mon Mar 27 2023 11:41:42 GMT-0400 (Eastern Daylight Time)","179851","","1290","","","","offer","","<div class='trialBorder'><div class='vertical-center'><img style='vertical-align:center; align:center' src=img/fixation3.jpg></div><div class='cl'><div class='vertical-center'>$62<br>with a<br>50% chance</div></div><div class='cr'><div class='vertical-center'>$11<br>for<br>sure</div></div><div class='respDivL'><div class='vertical-center'>(E)</div></div><div class='respDivR'><div class='vertical-center'>(I)</div></div></div>","E","$11","$62","1","11","62","RISKY"
"html-keyboard-response","42","60452","0.0-5.0-3.12","6352b3c968388ef86f3556db","bdp_rd","Mon Mar 27 2023 11:41:42 GMT-0400 (Eastern Daylight Time)","179851","","null","","","","offerFB","","<div class='trialBorder'><div class='vertical-center'><img style='vertical-align:center; align:center' src=img/fixation3.jpg></div><div class='cl'><div class='vertical-center'><font style='color:orange'>$62<br>with a<br>50% chance</font></div></div><div class='cr'><div class='vertical-center'>$11<br>for<br>sure</div></div><div class='respDivL'><div class='vertical-center'><font style='color:orange'>(E)</font></div></div><div class='respDivR'><div class='vertical-center'>(I)</div></div></div>","null","$11","$62","1","11","62",""
"html-keyboard-response","43","60957","0.0-5.0-1.13","6352b3c968388ef86f3556db","bdp_rd","Mon Mar 27 2023 11:41:42 GMT-0400 (Eastern Daylight Time)","179851","","null","","","","FIX","","<div class='trialBorder'><div class='vertical-center'><img style='vertical-align:center; align:center' src=img/fixation3.jpg></div></div>","null","","","","","",""
"html-keyboard-response","44","62279","0.0-5.0-2.13","6352b3c968388ef86f3556db","bdp_rd","Mon Mar 27 2023 11:41:42 GMT-0400 (Eastern Daylight Time)","179851","","1319","","","","offer","","<div class='trialBorder'><div class='vertical-center'><img style='vertical-align:center; align:center' src=img/fixation3.jpg></div><div class='cl'><div class='vertical-center'>$37<br>for<br>sure</div></div><div class='cr'><div class='vertical-center'>$44<br>with a<br>50% chance</div></div><div class='respDivL'><div class='vertical-center'>(E)</div></div><div class='respDivR'><div class='vertical-center'>(I)</div></div></div>","E","$37","$44","0","37","44","SURE"
"html-keyboard-response","45","62532","0.0-5.0-3.13","6352b3c968388ef86f3556db","bdp_rd","Mon Mar 27 2023 11:41:42 GMT-0400 (Eastern Daylight Time)","179851","","null","","","","offerFB","","<div class='trialBorder'><div class='vertical-center'><img style='vertical-align:center; align:center' src=img/fixation3.jpg></div><div class='cl'><div class='vertical-center'><font style='color:orange'>$37<br>for<br>sure</font></div></div><div class='cr'><div class='vertical-center'>$44<br>with a<br>50% chance</div></div><div class='respDivL'><div class='vertical-center'><font style='color:orange'>(E)</font></div></div><div class='respDivR'><div class='vertical-center'>(I)</div></div></div>","null","$37","$44","0","37","44",""
"html-keyboard-response","46","63037","0.0-5.0-1.14","6352b3c968388ef86f3556db","bdp_rd","Mon Mar 27 2023 11:41:42 GMT-0400 (Eastern Daylight Time)","179851","","null","","","","FIX","","<div class='trialBorder'><div class='vertical-center'><img style='vertical-align:center; align:center' src=img/fixation3.jpg></div></div>","null","","","","","",""
"html-keyboard-response","47","64129","0.0-5.0-2.14","6352b3c968388ef86f3556db","bdp_rd","Mon Mar 27 2023 11:41:42 GMT-0400 (Eastern Daylight Time)","179851","","1089","","","","offer","","<div class='trialBorder'><div class='vertical-center'><img style='vertical-align:center; align:center' src=img/fixation3.jpg></div><div class='cl'><div class='vertical-center'>$50<br>with a<br>50% chance</div></div><div class='cr'><div class='vertical-center'>$5<br>for<br>sure</div></div><div class='respDivL'><div class='vertical-center'>(E)</div></div><div class='respDivR'><div class='vertical-center'>(I)</div></div></div>","E","$5","$50","1","5","50","RISKY"
"html-keyboard-response","48","64388","0.0-5.0-3.14","6352b3c968388ef86f3556db","bdp_rd","Mon Mar 27 2023 11:41:42 GMT-0400 (Eastern Daylight Time)","179851","","null","","","","offerFB","","<div class='trialBorder'><div class='vertical-center'><img style='vertical-align:center; align:center' src=img/fixation3.jpg></div><div class='cl'><div class='vertical-center'><font style='color:orange'>$50<br>with a<br>50% chance</font></div></div><div class='cr'><div class='vertical-center'>$5<br>for<br>sure</div></div><div class='respDivL'><div class='vertical-center'><font style='color:orange'>(E)</font></div></div><div class='respDivR'><div class='vertical-center'>(I)</div></div></div>","null","$5","$50","1","5","50",""
"html-keyboard-response","49","64893","0.0-5.0-1.15","6352b3c968388ef86f3556db","bdp_rd","Mon Mar 27 2023 11:41:42 GMT-0400 (Eastern Daylight Time)","179851","","null","","","","FIX","","<div class='trialBorder'><div class='vertical-center'><img style='vertical-align:center; align:center' src=img/fixation3.jpg></div></div>","null","","","","","",""
"html-keyboard-response","50","66087","0.0-5.0-2.15","6352b3c968388ef86f3556db","bdp_rd","Mon Mar 27 2023 11:41:42 GMT-0400 (Eastern Daylight Time)","179851","","1192","","","","offer","","<div class='trialBorder'><div class='vertical-center'><img style='vertical-align:center; align:center' src=img/fixation3.jpg></div><div class='cl'><div class='vertical-center'>$10<br>for<br>sure</div></div><div class='cr'><div class='vertical-center'>$19<br>with a<br>50% chance</div></div><div class='respDivL'><div class='vertical-center'>(E)</div></div><div class='respDivR'><div class='vertical-center'>(I)</div></div></div>","E","$10","$19","0","10","19","SURE"
"html-keyboard-response","51","66340","0.0-5.0-3.15","6352b3c968388ef86f3556db","bdp_rd","Mon Mar 27 2023 11:41:42 GMT-0400 (Eastern Daylight Time)","179851","","null","","","","offerFB","","<div class='trialBorder'><div class='vertical-center'><img style='vertical-align:center; align:center' src=img/fixation3.jpg></div><div class='cl'><div class='vertical-center'><font style='color:orange'>$10<br>for<br>sure</font></div></div><div class='cr'><div class='vertical-center'>$19<br>with a<br>50% chance</div></div><div class='respDivL'><div class='vertical-center'><font style='color:orange'>(E)</font></div></div><div class='respDivR'><div class='vertical-center'>(I)</div></div></div>","null","$10","$19","0","10","19",""
"html-keyboard-response","52","66845","0.0-5.0-1.16","6352b3c968388ef86f3556db","bdp_rd","Mon Mar 27 2023 11:41:42 GMT-0400 (Eastern Daylight Time)","179851","","null","","","","FIX","","<div class='trialBorder'><div class='vertical-center'><img style='vertical-align:center; align:center' src=img/fixation3.jpg></div></div>","null","","","","","",""
"html-keyboard-response","53","68463","0.0-5.0-2.16","6352b3c968388ef86f3556db","bdp_rd","Mon Mar 27 2023 11:41:42 GMT-0400 (Eastern Daylight Time)","179851","","1615","","","","offer","","<div class='trialBorder'><div class='vertical-center'><img style='vertical-align:center; align:center' src=img/fixation3.jpg></div><div class='cl'><div class='vertical-center'>$98<br>with a<br>50% chance</div></div><div class='cr'><div class='vertical-center'>$53<br>for<br>sure</div></div><div class='respDivL'><div class='vertical-center'>(E)</div></div><div class='respDivR'><div class='vertical-center'>(I)</div></div></div>","I","$53","$98","1","53","98","SURE"
"html-keyboard-response","54","68717","0.0-5.0-3.16","6352b3c968388ef86f3556db","bdp_rd","Mon Mar 27 2023 11:41:42 GMT-0400 (Eastern Daylight Time)","179851","","null","","","","offerFB","","<div class='trialBorder'><div class='vertical-center'><img style='vertical-align:center; align:center' src=img/fixation3.jpg></div><div class='cl'><div class='vertical-center'>$98<br>with a<br>50% chance</div></div><div class='cr'><div class='vertical-center'><font style='color:orange'>$53<br>for<br>sure</font></div></div><div class='respDivL'><div class='vertical-center'>(E)</div></div><div class='respDivR'><div class='vertical-center'><font style='color:orange'>(I)</font></div></div></div>","null","$53","$98","1","53","98",""
"html-keyboard-response","55","69220","0.0-5.0-1.17","6352b3c968388ef86f3556db","bdp_rd","Mon Mar 27 2023 11:41:42 GMT-0400 (Eastern Daylight Time)","179851","","null","","","","FIX","","<div class='trialBorder'><div class='vertical-center'><img style='vertical-align:center; align:center' src=img/fixation3.jpg></div></div>","null","","","","","",""
"html-keyboard-response","56","71312","0.0-5.0-2.17","6352b3c968388ef86f3556db","bdp_rd","Mon Mar 27 2023 11:41:42 GMT-0400 (Eastern Daylight Time)","179851","","2090","","","","offer","","<div class='trialBorder'><div class='vertical-center'><img style='vertical-align:center; align:center' src=img/fixation3.jpg></div><div class='cl'><div class='vertical-center'>$36<br>with a<br>50% chance</div></div><div class='cr'><div class='vertical-center'>$18<br>for<br>sure</div></div><div class='respDivL'><div class='vertical-center'>(E)</div></div><div class='respDivR'><div class='vertical-center'>(I)</div></div></div>","I","$18","$36","1","18","36","SURE"
"html-keyboard-response","57","71572","0.0-5.0-3.17","6352b3c968388ef86f3556db","bdp_rd","Mon Mar 27 2023 11:41:42 GMT-0400 (Eastern Daylight Time)","179851","","null","","","","offerFB","","<div class='trialBorder'><div class='vertical-center'><img style='vertical-align:center; align:center' src=img/fixation3.jpg></div><div class='cl'><div class='vertical-center'>$36<br>with a<br>50% chance</div></div><div class='cr'><div class='vertical-center'><font style='color:orange'>$18<br>for<br>sure</font></div></div><div class='respDivL'><div class='vertical-center'>(E)</div></div><div class='respDivR'><div class='vertical-center'><font style='color:orange'>(I)</font></div></div></div>","null","$18","$36","1","18","36",""
"html-keyboard-response","58","72077","0.0-5.0-1.18","6352b3c968388ef86f3556db","bdp_rd","Mon Mar 27 2023 11:41:42 GMT-0400 (Eastern Daylight Time)","179851","","null","","","","FIX","","<div class='trialBorder'><div class='vertical-center'><img style='vertical-align:center; align:center' src=img/fixation3.jpg></div></div>","null","","","","","",""
"html-keyboard-response","59","73562","0.0-5.0-2.18","6352b3c968388ef86f3556db","bdp_rd","Mon Mar 27 2023 11:41:42 GMT-0400 (Eastern Daylight Time)","179851","","1482","","","","offer","","<div class='trialBorder'><div class='vertical-center'><img style='vertical-align:center; align:center' src=img/fixation3.jpg></div><div class='cl'><div class='vertical-center'>$33<br>for<br>sure</div></div><div class='cr'><div class='vertical-center'>$66<br>with a<br>50% chance</div></div><div class='respDivL'><div class='vertical-center'>(E)</div></div><div class='respDivR'><div class='vertical-center'>(I)</div></div></div>","I","$33","$66","0","33","66","RISKY"
"html-keyboard-response","60","73821","0.0-5.0-3.18","6352b3c968388ef86f3556db","bdp_rd","Mon Mar 27 2023 11:41:42 GMT-0400 (Eastern Daylight Time)","179851","","null","","","","offerFB","","<div class='trialBorder'><div class='vertical-center'><img style='vertical-align:center; align:center' src=img/fixation3.jpg></div><div class='cl'><div class='vertical-center'>$33<br>for<br>sure</div></div><div class='cr'><div class='vertical-center'><font style='color:orange'>$66<br>with a<br>50% chance</font></div></div><div class='respDivL'><div class='vertical-center'>(E)</div></div><div class='respDivR'><div class='vertical-center'><font style='color:orange'>(I)</font></div></div></div>","null","$33","$66","0","33","66",""
"html-keyboard-response","61","74324","0.0-5.0-1.19","6352b3c968388ef86f3556db","bdp_rd","Mon Mar 27 2023 11:41:42 GMT-0400 (Eastern Daylight Time)","179851","","null","","","","FIX","","<div class='trialBorder'><div class='vertical-center'><img style='vertical-align:center; align:center' src=img/fixation3.jpg></div></div>","null","","","","","",""
"html-keyboard-response","62","75623","0.0-5.0-2.19","6352b3c968388ef86f3556db","bdp_rd","Mon Mar 27 2023 11:41:42 GMT-0400 (Eastern Daylight Time)","179851","","1297","","","","offer","","<div class='trialBorder'><div class='vertical-center'><img style='vertical-align:center; align:center' src=img/fixation3.jpg></div><div class='cl'><div class='vertical-center'>$22<br>with a<br>50% chance</div></div><div class='cr'><div class='vertical-center'>$14<br>for<br>sure</div></div><div class='respDivL'><div class='vertical-center'>(E)</div></div><div class='respDivR'><div class='vertical-center'>(I)</div></div></div>","I","$14","$22","1","14","22","SURE"
"html-keyboard-response","63","75876","0.0-5.0-3.19","6352b3c968388ef86f3556db","bdp_rd","Mon Mar 27 2023 11:41:42 GMT-0400 (Eastern Daylight Time)","179851","","null","","","","offerFB","","<div class='trialBorder'><div class='vertical-center'><img style='vertical-align:center; align:center' src=img/fixation3.jpg></div><div class='cl'><div class='vertical-center'>$22<br>with a<br>50% chance</div></div><div class='cr'><div class='vertical-center'><font style='color:orange'>$14<br>for<br>sure</font></div></div><div class='respDivL'><div class='vertical-center'>(E)</div></div><div class='respDivR'><div class='vertical-center'><font style='color:orange'>(I)</font></div></div></div>","null","$14","$22","1","14","22",""
"html-keyboard-response","64","76381","0.0-5.0-1.20","6352b3c968388ef86f3556db","bdp_rd","Mon Mar 27 2023 11:41:42 GMT-0400 (Eastern Daylight Time)","179851","","null","","","","FIX","","<div class='trialBorder'><div class='vertical-center'><img style='vertical-align:center; align:center' src=img/fixation3.jpg></div></div>","null","","","","","",""
"html-keyboard-response","65","77537","0.0-5.0-2.20","6352b3c968388ef86f3556db","bdp_rd","Mon Mar 27 2023 11:41:42 GMT-0400 (Eastern Daylight Time)","179851","","1153","","","","offer","","<div class='trialBorder'><div class='vertical-center'><img style='vertical-align:center; align:center' src=img/fixation3.jpg></div><div class='cl'><div class='vertical-center'>$1<br>for<br>sure</div></div><div class='cr'><div class='vertical-center'>$33<br>with a<br>50% chance</div></div><div class='respDivL'><div class='vertical-center'>(E)</div></div><div class='respDivR'><div class='vertical-center'>(I)</div></div></div>","I","$1","$33","0","1","33","RISKY"
"html-keyboard-response","66","77796","0.0-5.0-3.20","6352b3c968388ef86f3556db","bdp_rd","Mon Mar 27 2023 11:41:42 GMT-0400 (Eastern Daylight Time)","179851","","null","","","","offerFB","","<div class='trialBorder'><div class='vertical-center'><img style='vertical-align:center; align:center' src=img/fixation3.jpg></div><div class='cl'><div class='vertical-center'>$1<br>for<br>sure</div></div><div class='cr'><div class='vertical-center'><font style='color:orange'>$33<br>with a<br>50% chance</font></div></div><div class='respDivL'><div class='vertical-center'>(E)</div></div><div class='respDivR'><div class='vertical-center'><font style='color:orange'>(I)</font></div></div></div>","null","$1","$33","0","1","33",""
"html-keyboard-response","67","78301","0.0-5.0-1.21","6352b3c968388ef86f3556db","bdp_rd","Mon Mar 27 2023 11:41:42 GMT-0400 (Eastern Daylight Time)","179851","","null","","","","FIX","","<div class='trialBorder'><div class='vertical-center'><img style='vertical-align:center; align:center' src=img/fixation3.jpg></div></div>","null","","","","","",""
"html-keyboard-response","68","80225","0.0-5.0-2.21","6352b3c968388ef86f3556db","bdp_rd","Mon Mar 27 2023 11:41:42 GMT-0400 (Eastern Daylight Time)","179851","","1922","","","","offer","","<div class='trialBorder'><div class='vertical-center'><img style='vertical-align:center; align:center' src=img/fixation3.jpg></div><div class='cl'><div class='vertical-center'>$8<br>for<br>sure</div></div><div class='cr'><div class='vertical-center'>$45<br>with a<br>50% chance</div></div><div class='respDivL'><div class='vertical-center'>(E)</div></div><div class='respDivR'><div class='vertical-center'>(I)</div></div></div>","I","$8","$45","0","8","45","RISKY"
"html-keyboard-response","69","80484","0.0-5.0-3.21","6352b3c968388ef86f3556db","bdp_rd","Mon Mar 27 2023 11:41:42 GMT-0400 (Eastern Daylight Time)","179851","","null","","","","offerFB","","<div class='trialBorder'><div class='vertical-center'><img style='vertical-align:center; align:center' src=img/fixation3.jpg></div><div class='cl'><div class='vertical-center'>$8<br>for<br>sure</div></div><div class='cr'><div class='vertical-center'><font style='color:orange'>$45<br>with a<br>50% chance</font></div></div><div class='respDivL'><div class='vertical-center'>(E)</div></div><div class='respDivR'><div class='vertical-center'><font style='color:orange'>(I)</font></div></div></div>","null","$8","$45","0","8","45",""
"html-keyboard-response","70","80989","0.0-5.0-1.22","6352b3c968388ef86f3556db","bdp_rd","Mon Mar 27 2023 11:41:42 GMT-0400 (Eastern Daylight Time)","179851","","null","","","","FIX","","<div class='trialBorder'><div class='vertical-center'><img style='vertical-align:center; align:center' src=img/fixation3.jpg></div></div>","null","","","","","",""
"html-keyboard-response","71","82255","0.0-5.0-2.22","6352b3c968388ef86f3556db","bdp_rd","Mon Mar 27 2023 11:41:42 GMT-0400 (Eastern Daylight Time)","179851","","1265","","","","offer","","<div class='trialBorder'><div class='vertical-center'><img style='vertical-align:center; align:center' src=img/fixation3.jpg></div><div class='cl'><div class='vertical-center'>$6<br>for<br>sure</div></div><div class='cr'><div class='vertical-center'>$13<br>with a<br>50% chance</div></div><div class='respDivL'><div class='vertical-center'>(E)</div></div><div class='respDivR'><div class='vertical-center'>(I)</div></div></div>","E","$6","$13","0","6","13","SURE"
"html-keyboard-response","72","82516","0.0-5.0-3.22","6352b3c968388ef86f3556db","bdp_rd","Mon Mar 27 2023 11:41:42 GMT-0400 (Eastern Daylight Time)","179851","","null","","","","offerFB","","<div class='trialBorder'><div class='vertical-center'><img style='vertical-align:center; align:center' src=img/fixation3.jpg></div><div class='cl'><div class='vertical-center'><font style='color:orange'>$6<br>for<br>sure</font></div></div><div class='cr'><div class='vertical-center'>$13<br>with a<br>50% chance</div></div><div class='respDivL'><div class='vertical-center'><font style='color:orange'>(E)</font></div></div><div class='respDivR'><div class='vertical-center'>(I)</div></div></div>","null","$6","$13","0","6","13",""
"html-keyboard-response","73","83020","0.0-5.0-1.23","6352b3c968388ef86f3556db","bdp_rd","Mon Mar 27 2023 11:41:42 GMT-0400 (Eastern Daylight Time)","179851","","null","","","","FIX","","<div class='trialBorder'><div class='vertical-center'><img style='vertical-align:center; align:center' src=img/fixation3.jpg></div></div>","null","","","","","",""
"html-keyboard-response","74","85198","0.0-5.0-2.23","6352b3c968388ef86f3556db","bdp_rd","Mon Mar 27 2023 11:41:42 GMT-0400 (Eastern Daylight Time)","179851","","2175","","","","offer","","<div class='trialBorder'><div class='vertical-center'><img style='vertical-align:center; align:center' src=img/fixation3.jpg></div><div class='cl'><div class='vertical-center'>$25<br>with a<br>50% chance</div></div><div class='cr'><div class='vertical-center'>$21<br>for<br>sure</div></div><div class='respDivL'><div class='vertical-center'>(E)</div></div><div class='respDivR'><div class='vertical-center'>(I)</div></div></div>","I","$21","$25","1","21","25","SURE"
"html-keyboard-response","75","85453","0.0-5.0-3.23","6352b3c968388ef86f3556db","bdp_rd","Mon Mar 27 2023 11:41:42 GMT-0400 (Eastern Daylight Time)","179851","","null","","","","offerFB","","<div class='trialBorder'><div class='vertical-center'><img style='vertical-align:center; align:center' src=img/fixation3.jpg></div><div class='cl'><div class='vertical-center'>$25<br>with a<br>50% chance</div></div><div class='cr'><div class='vertical-center'><font style='color:orange'>$21<br>for<br>sure</font></div></div><div class='respDivL'><div class='vertical-center'>(E)</div></div><div class='respDivR'><div class='vertical-center'><font style='color:orange'>(I)</font></div></div></div>","null","$21","$25","1","21","25",""
"html-keyboard-response","76","85955","0.0-5.0-1.24","6352b3c968388ef86f3556db","bdp_rd","Mon Mar 27 2023 11:41:42 GMT-0400 (Eastern Daylight Time)","179851","","null","","","","FIX","","<div class='trialBorder'><div class='vertical-center'><img style='vertical-align:center; align:center' src=img/fixation3.jpg></div></div>","null","","","","","",""
"html-keyboard-response","77","87939","0.0-5.0-2.24","6352b3c968388ef86f3556db","bdp_rd","Mon Mar 27 2023 11:41:42 GMT-0400 (Eastern Daylight Time)","179851","","1982","","","","offer","","<div class='trialBorder'><div class='vertical-center'><img style='vertical-align:center; align:center' src=img/fixation3.jpg></div><div class='cl'><div class='vertical-center'>$5<br>for<br>sure</div></div><div class='cr'><div class='vertical-center'>$16<br>with a<br>50% chance</div></div><div class='respDivL'><div class='vertical-center'>(E)</div></div><div class='respDivR'><div class='vertical-center'>(I)</div></div></div>","E","$5","$16","0","5","16","SURE"
"html-keyboard-response","78","88195","0.0-5.0-3.24","6352b3c968388ef86f3556db","bdp_rd","Mon Mar 27 2023 11:41:42 GMT-0400 (Eastern Daylight Time)","179851","","null","","","","offerFB","","<div class='trialBorder'><div class='vertical-center'><img style='vertical-align:center; align:center' src=img/fixation3.jpg></div><div class='cl'><div class='vertical-center'><font style='color:orange'>$5<br>for<br>sure</font></div></div><div class='cr'><div class='vertical-center'>$16<br>with a<br>50% chance</div></div><div class='respDivL'><div class='vertical-center'><font style='color:orange'>(E)</font></div></div><div class='respDivR'><div class='vertical-center'>(I)</div></div></div>","null","$5","$16","0","5","16",""
"html-keyboard-response","79","88701","0.0-5.0-1.25","6352b3c968388ef86f3556db","bdp_rd","Mon Mar 27 2023 11:41:42 GMT-0400 (Eastern Daylight Time)","179851","","null","","","","FIX","","<div class='trialBorder'><div class='vertical-center'><img style='vertical-align:center; align:center' src=img/fixation3.jpg></div></div>","null","","","","","",""
"html-keyboard-response","80","90085","0.0-5.0-2.25","6352b3c968388ef86f3556db","bdp_rd","Mon Mar 27 2023 11:41:42 GMT-0400 (Eastern Daylight Time)","179851","","1383","","","","offer","","<div class='trialBorder'><div class='vertical-center'><img style='vertical-align:center; align:center' src=img/fixation3.jpg></div><div class='cl'><div class='vertical-center'>$26<br>for<br>sure</div></div><div class='cr'><div class='vertical-center'>$92<br>with a<br>50% chance</div></div><div class='respDivL'><div class='vertical-center'>(E)</div></div><div class='respDivR'><div class='vertical-center'>(I)</div></div></div>","I","$26","$92","0","26","92","RISKY"
"html-keyboard-response","81","90339","0.0-5.0-3.25","6352b3c968388ef86f3556db","bdp_rd","Mon Mar 27 2023 11:41:42 GMT-0400 (Eastern Daylight Time)","179851","","null","","","","offerFB","","<div class='trialBorder'><div class='vertical-center'><img style='vertical-align:center; align:center' src=img/fixation3.jpg></div><div class='cl'><div class='vertical-center'>$26<br>for<br>sure</div></div><div class='cr'><div class='vertical-center'><font style='color:orange'>$92<br>with a<br>50% chance</font></div></div><div class='respDivL'><div class='vertical-center'>(E)</div></div><div class='respDivR'><div class='vertical-center'><font style='color:orange'>(I)</font></div></div></div>","null","$26","$92","0","26","92",""
"html-keyboard-response","82","90845","0.0-5.0-1.26","6352b3c968388ef86f3556db","bdp_rd","Mon Mar 27 2023 11:41:42 GMT-0400 (Eastern Daylight Time)","179851","","null","","","","FIX","","<div class='trialBorder'><div class='vertical-center'><img style='vertical-align:center; align:center' src=img/fixation3.jpg></div></div>","null","","","","","",""
"html-keyboard-response","83","91952","0.0-5.0-2.26","6352b3c968388ef86f3556db","bdp_rd","Mon Mar 27 2023 11:41:42 GMT-0400 (Eastern Daylight Time)","179851","","1106","","","","offer","","<div class='trialBorder'><div class='vertical-center'><img style='vertical-align:center; align:center' src=img/fixation3.jpg></div><div class='cl'><div class='vertical-center'>$3<br>for<br>sure</div></div><div class='cr'><div class='vertical-center'>$12<br>with a<br>50% chance</div></div><div class='respDivL'><div class='vertical-center'>(E)</div></div><div class='respDivR'><div class='vertical-center'>(I)</div></div></div>","E","$3","$12","0","3","12","SURE"
"html-keyboard-response","84","92211","0.0-5.0-3.26","6352b3c968388ef86f3556db","bdp_rd","Mon Mar 27 2023 11:41:42 GMT-0400 (Eastern Daylight Time)","179851","","null","","","","offerFB","","<div class='trialBorder'><div class='vertical-center'><img style='vertical-align:center; align:center' src=img/fixation3.jpg></div><div class='cl'><div class='vertical-center'><font style='color:orange'>$3<br>for<br>sure</font></div></div><div class='cr'><div class='vertical-center'>$12<br>with a<br>50% chance</div></div><div class='respDivL'><div class='vertical-center'><font style='color:orange'>(E)</font></div></div><div class='respDivR'><div class='vertical-center'>(I)</div></div></div>","null","$3","$12","0","3","12",""
"html-keyboard-response","85","92717","0.0-5.0-1.27","6352b3c968388ef86f3556db","bdp_rd","Mon Mar 27 2023 11:41:42 GMT-0400 (Eastern Daylight Time)","179851","","null","","","","FIX","","<div class='trialBorder'><div class='vertical-center'><img style='vertical-align:center; align:center' src=img/fixation3.jpg></div></div>","null","","","","","",""
"html-keyboard-response","86","94813","0.0-5.0-2.27","6352b3c968388ef86f3556db","bdp_rd","Mon Mar 27 2023 11:41:42 GMT-0400 (Eastern Daylight Time)","179851","","2095","","","","offer","","<div class='trialBorder'><div class='vertical-center'><img style='vertical-align:center; align:center' src=img/fixation3.jpg></div><div class='cl'><div class='vertical-center'>$37<br>with a<br>50% chance</div></div><div class='cr'><div class='vertical-center'>$20<br>for<br>sure</div></div><div class='respDivL'><div class='vertical-center'>(E)</div></div><div class='respDivR'><div class='vertical-center'>(I)</div></div></div>","I","$20","$37","1","20","37","SURE"
"html-keyboard-response","87","95069","0.0-5.0-3.27","6352b3c968388ef86f3556db","bdp_rd","Mon Mar 27 2023 11:41:42 GMT-0400 (Eastern Daylight Time)","179851","","null","","","","offerFB","","<div class='trialBorder'><div class='vertical-center'><img style='vertical-align:center; align:center' src=img/fixation3.jpg></div><div class='cl'><div class='vertical-center'>$37<br>with a<br>50% chance</div></div><div class='cr'><div class='vertical-center'><font style='color:orange'>$20<br>for<br>sure</font></div></div><div class='respDivL'><div class='vertical-center'>(E)</div></div><div class='respDivR'><div class='vertical-center'><font style='color:orange'>(I)</font></div></div></div>","null","$20","$37","1","20","37",""
"html-keyboard-response","88","95581","0.0-5.0-1.28","6352b3c968388ef86f3556db","bdp_rd","Mon Mar 27 2023 11:41:42 GMT-0400 (Eastern Daylight Time)","179851","","null","","","","FIX","","<div class='trialBorder'><div class='vertical-center'><img style='vertical-align:center; align:center' src=img/fixation3.jpg></div></div>","null","","","","","",""
"html-keyboard-response","89","96526","0.0-5.0-2.28","6352b3c968388ef86f3556db","bdp_rd","Mon Mar 27 2023 11:41:42 GMT-0400 (Eastern Daylight Time)","179851","","943","","","","offer","","<div class='trialBorder'><div class='vertical-center'><img style='vertical-align:center; align:center' src=img/fixation3.jpg></div><div class='cl'><div class='vertical-center'>$28<br>for<br>sure</div></div><div class='cr'><div class='vertical-center'>$89<br>with a<br>50% chance</div></div><div class='respDivL'><div class='vertical-center'>(E)</div></div><div class='respDivR'><div class='vertical-center'>(I)</div></div></div>","I","$28","$89","0","28","89","RISKY"
"html-keyboard-response","90","96780","0.0-5.0-3.28","6352b3c968388ef86f3556db","bdp_rd","Mon Mar 27 2023 11:41:42 GMT-0400 (Eastern Daylight Time)","179851","","null","","","","offerFB","","<div class='trialBorder'><div class='vertical-center'><img style='vertical-align:center; align:center' src=img/fixation3.jpg></div><div class='cl'><div class='vertical-center'>$28<br>for<br>sure</div></div><div class='cr'><div class='vertical-center'><font style='color:orange'>$89<br>with a<br>50% chance</font></div></div><div class='respDivL'><div class='vertical-center'>(E)</div></div><div class='respDivR'><div class='vertical-center'><font style='color:orange'>(I)</font></div></div></div>","null","$28","$89","0","28","89",""
"html-keyboard-response","91","97283","0.0-5.0-1.29","6352b3c968388ef86f3556db","bdp_rd","Mon Mar 27 2023 11:41:42 GMT-0400 (Eastern Daylight Time)","179851","","null","","","","FIX","","<div class='trialBorder'><div class='vertical-center'><img style='vertical-align:center; align:center' src=img/fixation3.jpg></div></div>","null","","","","","",""
"html-keyboard-response","92","98383","0.0-5.0-2.29","6352b3c968388ef86f3556db","bdp_rd","Mon Mar 27 2023 11:41:42 GMT-0400 (Eastern Daylight Time)","179851","","1098","","","","offer","","<div class='trialBorder'><div class='vertical-center'><img style='vertical-align:center; align:center' src=img/fixation3.jpg></div><div class='cl'><div class='vertical-center'>$63<br>for<br>sure</div></div><div class='cr'><div class='vertical-center'>$100<br>with a<br>50% chance</div></div><div class='respDivL'><div class='vertical-center'>(E)</div></div><div class='respDivR'><div class='vertical-center'>(I)</div></div></div>","I","$63","$100","0","63","10","RISKY"
"html-keyboard-response","93","98643","0.0-5.0-3.29","6352b3c968388ef86f3556db","bdp_rd","Mon Mar 27 2023 11:41:42 GMT-0400 (Eastern Daylight Time)","179851","","null","","","","offerFB","","<div class='trialBorder'><div class='vertical-center'><img style='vertical-align:center; align:center' src=img/fixation3.jpg></div><div class='cl'><div class='vertical-center'>$63<br>for<br>sure</div></div><div class='cr'><div class='vertical-center'><font style='color:orange'>$100<br>with a<br>50% chance</font></div></div><div class='respDivL'><div class='vertical-center'>(E)</div></div><div class='respDivR'><div class='vertical-center'><font style='color:orange'>(I)</font></div></div></div>","null","$63","$100","0","63","10",""
"html-keyboard-response","94","99148","0.0-5.0-1.30","6352b3c968388ef86f3556db","bdp_rd","Mon Mar 27 2023 11:41:42 GMT-0400 (Eastern Daylight Time)","179851","","null","","","","FIX","","<div class='trialBorder'><div class='vertical-center'><img style='vertical-align:center; align:center' src=img/fixation3.jpg></div></div>","null","","","","","",""
"html-keyboard-response","95","102212","0.0-5.0-2.30","6352b3c968388ef86f3556db","bdp_rd","Mon Mar 27 2023 11:41:42 GMT-0400 (Eastern Daylight Time)","179851","","3062","","","","offer","","<div class='trialBorder'><div class='vertical-center'><img style='vertical-align:center; align:center' src=img/fixation3.jpg></div><div class='cl'><div class='vertical-center'>$43<br>with a<br>50% chance</div></div><div class='cr'><div class='vertical-center'>$17<br>for<br>sure</div></div><div class='respDivL'><div class='vertical-center'>(E)</div></div><div class='respDivR'><div class='vertical-center'>(I)</div></div></div>","I","$17","$43","1","17","43","SURE"
"html-keyboard-response","96","102467","0.0-5.0-3.30","6352b3c968388ef86f3556db","bdp_rd","Mon Mar 27 2023 11:41:42 GMT-0400 (Eastern Daylight Time)","179851","","null","","","","offerFB","","<div class='trialBorder'><div class='vertical-center'><img style='vertical-align:center; align:center' src=img/fixation3.jpg></div><div class='cl'><div class='vertical-center'>$43<br>with a<br>50% chance</div></div><div class='cr'><div class='vertical-center'><font style='color:orange'>$17<br>for<br>sure</font></div></div><div class='respDivL'><div class='vertical-center'>(E)</div></div><div class='respDivR'><div class='vertical-center'><font style='color:orange'>(I)</font></div></div></div>","null","$17","$43","1","17","43",""
"html-keyboard-response","97","102972","0.0-5.0-1.31","6352b3c968388ef86f3556db","bdp_rd","Mon Mar 27 2023 11:41:42 GMT-0400 (Eastern Daylight Time)","179851","","null","","","","FIX","","<div class='trialBorder'><div class='vertical-center'><img style='vertical-align:center; align:center' src=img/fixation3.jpg></div></div>","null","","","","","",""
"html-keyboard-response","98","104075","0.0-5.0-2.31","6352b3c968388ef86f3556db","bdp_rd","Mon Mar 27 2023 11:41:42 GMT-0400 (Eastern Daylight Time)","179851","","1101","","","","offer","","<div class='trialBorder'><div class='vertical-center'><img style='vertical-align:center; align:center' src=img/fixation3.jpg></div><div class='cl'><div class='vertical-center'>$69<br>with a<br>50% chance</div></div><div class='cr'><div class='vertical-center'>$58<br>for<br>sure</div></div><div class='respDivL'><div class='vertical-center'>(E)</div></div><div class='respDivR'><div class='vertical-center'>(I)</div></div></div>","I","$58","$69","1","58","69","SURE"
"html-keyboard-response","99","104332","0.0-5.0-3.31","6352b3c968388ef86f3556db","bdp_rd","Mon Mar 27 2023 11:41:42 GMT-0400 (Eastern Daylight Time)","179851","","null","","","","offerFB","","<div class='trialBorder'><div class='vertical-center'><img style='vertical-align:center; align:center' src=img/fixation3.jpg></div><div class='cl'><div class='vertical-center'>$69<br>with a<br>50% chance</div></div><div class='cr'><div class='vertical-center'><font style='color:orange'>$58<br>for<br>sure</font></div></div><div class='respDivL'><div class='vertical-center'>(E)</div></div><div class='respDivR'><div class='vertical-center'><font style='color:orange'>(I)</font></div></div></div>","null","$58","$69","1","58","69",""
"html-keyboard-response","100","104835","0.0-5.0-1.32","6352b3c968388ef86f3556db","bdp_rd","Mon Mar 27 2023 11:41:42 GMT-0400 (Eastern Daylight Time)","179851","","null","","","","FIX","","<div class='trialBorder'><div class='vertical-center'><img style='vertical-align:center; align:center' src=img/fixation3.jpg></div></div>","null","","","","","",""
"html-keyboard-response","101","106042","0.0-5.0-2.32","6352b3c968388ef86f3556db","bdp_rd","Mon Mar 27 2023 11:41:42 GMT-0400 (Eastern Daylight Time)","179851","","1206","","","","offer","","<div class='trialBorder'><div class='vertical-center'><img style='vertical-align:center; align:center' src=img/fixation3.jpg></div><div class='cl'><div class='vertical-center'>$64<br>with a<br>50% chance</div></div><div class='cr'><div class='vertical-center'>$2<br>for<br>sure</div></div><div class='respDivL'><div class='vertical-center'>(E)</div></div><div class='respDivR'><div class='vertical-center'>(I)</div></div></div>","E","$2","$64","1","2","64","RISKY"
"html-keyboard-response","102","106300","0.0-5.0-3.32","6352b3c968388ef86f3556db","bdp_rd","Mon Mar 27 2023 11:41:42 GMT-0400 (Eastern Daylight Time)","179851","","null","","","","offerFB","","<div class='trialBorder'><div class='vertical-center'><img style='vertical-align:center; align:center' src=img/fixation3.jpg></div><div class='cl'><div class='vertical-center'><font style='color:orange'>$64<br>with a<br>50% chance</font></div></div><div class='cr'><div class='vertical-center'>$2<br>for<br>sure</div></div><div class='respDivL'><div class='vertical-center'><font style='color:orange'>(E)</font></div></div><div class='respDivR'><div class='vertical-center'>(I)</div></div></div>","null","$2","$64","1","2","64",""
"html-keyboard-response","103","106803","0.0-5.0-1.33","6352b3c968388ef86f3556db","bdp_rd","Mon Mar 27 2023 11:41:42 GMT-0400 (Eastern Daylight Time)","179851","","null","","","","FIX","","<div class='trialBorder'><div class='vertical-center'><img style='vertical-align:center; align:center' src=img/fixation3.jpg></div></div>","null","","","","","",""
"html-keyboard-response","104","108020","0.0-5.0-2.33","6352b3c968388ef86f3556db","bdp_rd","Mon Mar 27 2023 11:41:42 GMT-0400 (Eastern Daylight Time)","179851","","1216","","","","offer","","<div class='trialBorder'><div class='vertical-center'><img style='vertical-align:center; align:center' src=img/fixation3.jpg></div><div class='cl'><div class='vertical-center'>$30<br>with a<br>50% chance</div></div><div class='cr'><div class='vertical-center'>$1<br>for<br>sure</div></div><div class='respDivL'><div class='vertical-center'>(E)</div></div><div class='respDivR'><div class='vertical-center'>(I)</div></div></div>","E","$1","$30","1","1","30","RISKY"
"html-keyboard-response","105","108275","0.0-5.0-3.33","6352b3c968388ef86f3556db","bdp_rd","Mon Mar 27 2023 11:41:42 GMT-0400 (Eastern Daylight Time)","179851","","null","","","","offerFB","","<div class='trialBorder'><div class='vertical-center'><img style='vertical-align:center; align:center' src=img/fixation3.jpg></div><div class='cl'><div class='vertical-center'><font style='color:orange'>$30<br>with a<br>50% chance</font></div></div><div class='cr'><div class='vertical-center'>$1<br>for<br>sure</div></div><div class='respDivL'><div class='vertical-center'><font style='color:orange'>(E)</font></div></div><div class='respDivR'><div class='vertical-center'>(I)</div></div></div>","null","$1","$30","1","1","30",""
"html-keyboard-response","106","108780","0.0-5.0-1.34","6352b3c968388ef86f3556db","bdp_rd","Mon Mar 27 2023 11:41:42 GMT-0400 (Eastern Daylight Time)","179851","","null","","","","FIX","","<div class='trialBorder'><div class='vertical-center'><img style='vertical-align:center; align:center' src=img/fixation3.jpg></div></div>","null","","","","","",""
"html-keyboard-response","107","109972","0.0-5.0-2.34","6352b3c968388ef86f3556db","bdp_rd","Mon Mar 27 2023 11:41:42 GMT-0400 (Eastern Daylight Time)","179851","","1190","","","","offer","","<div class='trialBorder'><div class='vertical-center'><img style='vertical-align:center; align:center' src=img/fixation3.jpg></div><div class='cl'><div class='vertical-center'>$22<br>for<br>sure</div></div><div class='cr'><div class='vertical-center'>$59<br>with a<br>50% chance</div></div><div class='respDivL'><div class='vertical-center'>(E)</div></div><div class='respDivR'><div class='vertical-center'>(I)</div></div></div>","I","$22","$59","0","22","59","RISKY"
"html-keyboard-response","108","110227","0.0-5.0-3.34","6352b3c968388ef86f3556db","bdp_rd","Mon Mar 27 2023 11:41:42 GMT-0400 (Eastern Daylight Time)","179851","","null","","","","offerFB","","<div class='trialBorder'><div class='vertical-center'><img style='vertical-align:center; align:center' src=img/fixation3.jpg></div><div class='cl'><div class='vertical-center'>$22<br>for<br>sure</div></div><div class='cr'><div class='vertical-center'><font style='color:orange'>$59<br>with a<br>50% chance</font></div></div><div class='respDivL'><div class='vertical-center'>(E)</div></div><div class='respDivR'><div class='vertical-center'><font style='color:orange'>(I)</font></div></div></div>","null","$22","$59","0","22","59",""
"html-keyboard-response","109","110732","0.0-5.0-1.35","6352b3c968388ef86f3556db","bdp_rd","Mon Mar 27 2023 11:41:42 GMT-0400 (Eastern Daylight Time)","179851","","null","","","","FIX","","<div class='trialBorder'><div class='vertical-center'><img style='vertical-align:center; align:center' src=img/fixation3.jpg></div></div>","null","","","","","",""
"html-keyboard-response","110","112117","0.0-5.0-2.35","6352b3c968388ef86f3556db","bdp_rd","Mon Mar 27 2023 11:41:42 GMT-0400 (Eastern Daylight Time)","179851","","1383","","","","offer","","<div class='trialBorder'><div class='vertical-center'><img style='vertical-align:center; align:center' src=img/fixation3.jpg></div><div class='cl'><div class='vertical-center'>$16<br>for<br>sure</div></div><div class='cr'><div class='vertical-center'>$28<br>with a<br>50% chance</div></div><div class='respDivL'><div class='vertical-center'>(E)</div></div><div class='respDivR'><div class='vertical-center'>(I)</div></div></div>","E","$16","$28","0","16","28","SURE"
"html-keyboard-response","111","112371","0.0-5.0-3.35","6352b3c968388ef86f3556db","bdp_rd","Mon Mar 27 2023 11:41:42 GMT-0400 (Eastern Daylight Time)","179851","","null","","","","offerFB","","<div class='trialBorder'><div class='vertical-center'><img style='vertical-align:center; align:center' src=img/fixation3.jpg></div><div class='cl'><div class='vertical-center'><font style='color:orange'>$16<br>for<br>sure</font></div></div><div class='cr'><div class='vertical-center'>$28<br>with a<br>50% chance</div></div><div class='respDivL'><div class='vertical-center'><font style='color:orange'>(E)</font></div></div><div class='respDivR'><div class='vertical-center'>(I)</div></div></div>","null","$16","$28","0","16","28",""
"html-keyboard-response","112","112876","0.0-5.0-1.36","6352b3c968388ef86f3556db","bdp_rd","Mon Mar 27 2023 11:41:42 GMT-0400 (Eastern Daylight Time)","179851","","null","","","","FIX","","<div class='trialBorder'><div class='vertical-center'><img style='vertical-align:center; align:center' src=img/fixation3.jpg></div></div>","null","","","","","",""
"html-keyboard-response","113","114139","0.0-5.0-2.36","6352b3c968388ef86f3556db","bdp_rd","Mon Mar 27 2023 11:41:42 GMT-0400 (Eastern Daylight Time)","179851","","1262","","","","offer","","<div class='trialBorder'><div class='vertical-center'><img style='vertical-align:center; align:center' src=img/fixation3.jpg></div><div class='cl'><div class='vertical-center'>$41<br>with a<br>50% chance</div></div><div class='cr'><div class='vertical-center'>$13<br>for<br>sure</div></div><div class='respDivL'><div class='vertical-center'>(E)</div></div><div class='respDivR'><div class='vertical-center'>(I)</div></div></div>","E","$13","$41","1","13","41","RISKY"
"html-keyboard-response","114","114396","0.0-5.0-3.36","6352b3c968388ef86f3556db","bdp_rd","Mon Mar 27 2023 11:41:42 GMT-0400 (Eastern Daylight Time)","179851","","null","","","","offerFB","","<div class='trialBorder'><div class='vertical-center'><img style='vertical-align:center; align:center' src=img/fixation3.jpg></div><div class='cl'><div class='vertical-center'><font style='color:orange'>$41<br>with a<br>50% chance</font></div></div><div class='cr'><div class='vertical-center'>$13<br>for<br>sure</div></div><div class='respDivL'><div class='vertical-center'><font style='color:orange'>(E)</font></div></div><div class='respDivR'><div class='vertical-center'>(I)</div></div></div>","null","$13","$41","1","13","41",""
"html-keyboard-response","115","114898","0.0-5.0-1.37","6352b3c968388ef86f3556db","bdp_rd","Mon Mar 27 2023 11:41:42 GMT-0400 (Eastern Daylight Time)","179851","","null","","","","FIX","","<div class='trialBorder'><div class='vertical-center'><img style='vertical-align:center; align:center' src=img/fixation3.jpg></div></div>","null","","","","","",""
"html-keyboard-response","116","116743","0.0-5.0-2.37","6352b3c968388ef86f3556db","bdp_rd","Mon Mar 27 2023 11:41:42 GMT-0400 (Eastern Daylight Time)","179851","","1843","","","","offer","","<div class='trialBorder'><div class='vertical-center'><img style='vertical-align:center; align:center' src=img/fixation3.jpg></div><div class='cl'><div class='vertical-center'>$10<br>with a<br>50% chance</div></div><div class='cr'><div class='vertical-center'>$7<br>for<br>sure</div></div><div class='respDivL'><div class='vertical-center'>(E)</div></div><div class='respDivR'><div class='vertical-center'>(I)</div></div></div>","I","$7","$10","1","7","10","SURE"
"html-keyboard-response","117","117004","0.0-5.0-3.37","6352b3c968388ef86f3556db","bdp_rd","Mon Mar 27 2023 11:41:42 GMT-0400 (Eastern Daylight Time)","179851","","null","","","","offerFB","","<div class='trialBorder'><div class='vertical-center'><img style='vertical-align:center; align:center' src=img/fixation3.jpg></div><div class='cl'><div class='vertical-center'>$10<br>with a<br>50% chance</div></div><div class='cr'><div class='vertical-center'><font style='color:orange'>$7<br>for<br>sure</font></div></div><div class='respDivL'><div class='vertical-center'>(E)</div></div><div class='respDivR'><div class='vertical-center'><font style='color:orange'>(I)</font></div></div></div>","null","$7","$10","1","7","10",""
"html-keyboard-response","118","117506","0.0-5.0-1.38","6352b3c968388ef86f3556db","bdp_rd","Mon Mar 27 2023 11:41:42 GMT-0400 (Eastern Daylight Time)","179851","","null","","","","FIX","","<div class='trialBorder'><div class='vertical-center'><img style='vertical-align:center; align:center' src=img/fixation3.jpg></div></div>","null","","","","","",""
"html-keyboard-response","119","120517","0.0-5.0-2.38","6352b3c968388ef86f3556db","bdp_rd","Mon Mar 27 2023 11:41:42 GMT-0400 (Eastern Daylight Time)","179851","","3008","","","","offer","","<div class='trialBorder'><div class='vertical-center'><img style='vertical-align:center; align:center' src=img/fixation3.jpg></div><div class='cl'><div class='vertical-center'>$23<br>with a<br>50% chance</div></div><div class='cr'><div class='vertical-center'>$8<br>for<br>sure</div></div><div class='respDivL'><div class='vertical-center'>(E)</div></div><div class='respDivR'><div class='vertical-center'>(I)</div></div></div>","E","$8","$23","1","8","23","RISKY"
"html-keyboard-response","120","120771","0.0-5.0-3.38","6352b3c968388ef86f3556db","bdp_rd","Mon Mar 27 2023 11:41:42 GMT-0400 (Eastern Daylight Time)","179851","","null","","","","offerFB","","<div class='trialBorder'><div class='vertical-center'><img style='vertical-align:center; align:center' src=img/fixation3.jpg></div><div class='cl'><div class='vertical-center'><font style='color:orange'>$23<br>with a<br>50% chance</font></div></div><div class='cr'><div class='vertical-center'>$8<br>for<br>sure</div></div><div class='respDivL'><div class='vertical-center'><font style='color:orange'>(E)</font></div></div><div class='respDivR'><div class='vertical-center'>(I)</div></div></div>","null","$8","$23","1","8","23",""
"html-keyboard-response","121","121276","0.0-5.0-1.39","6352b3c968388ef86f3556db","bdp_rd","Mon Mar 27 2023 11:41:42 GMT-0400 (Eastern Daylight Time)","179851","","null","","","","FIX","","<div class='trialBorder'><div class='vertical-center'><img style='vertical-align:center; align:center' src=img/fixation3.jpg></div></div>","null","","","","","",""
"html-keyboard-response","122","123271","0.0-5.0-2.39","6352b3c968388ef86f3556db","bdp_rd","Mon Mar 27 2023 11:41:42 GMT-0400 (Eastern Daylight Time)","179851","","1994","","","","offer","","<div class='trialBorder'><div class='vertical-center'><img style='vertical-align:center; align:center' src=img/fixation3.jpg></div><div class='cl'><div class='vertical-center'>$35<br>with a<br>50% chance</div></div><div class='cr'><div class='vertical-center'>$12<br>for<br>sure</div></div><div class='respDivL'><div class='vertical-center'>(E)</div></div><div class='respDivR'><div class='vertical-center'>(I)</div></div></div>","E","$12","$35","1","12","35","RISKY"
"html-keyboard-response","123","123532","0.0-5.0-3.39","6352b3c968388ef86f3556db","bdp_rd","Mon Mar 27 2023 11:41:42 GMT-0400 (Eastern Daylight Time)","179851","","null","","","","offerFB","","<div class='trialBorder'><div class='vertical-center'><img style='vertical-align:center; align:center' src=img/fixation3.jpg></div><div class='cl'><div class='vertical-center'><font style='color:orange'>$35<br>with a<br>50% chance</font></div></div><div class='cr'><div class='vertical-center'>$12<br>for<br>sure</div></div><div class='respDivL'><div class='vertical-center'><font style='color:orange'>(E)</font></div></div><div class='respDivR'><div class='vertical-center'>(I)</div></div></div>","null","$12","$35","1","12","35",""
"html-keyboard-response","124","124034","0.0-5.0-1.40","6352b3c968388ef86f3556db","bdp_rd","Mon Mar 27 2023 11:41:42 GMT-0400 (Eastern Daylight Time)","179851","","null","","","","FIX","","<div class='trialBorder'><div class='vertical-center'><img style='vertical-align:center; align:center' src=img/fixation3.jpg></div></div>","null","","","","","",""
"html-keyboard-response","125","128925","0.0-5.0-2.40","6352b3c968388ef86f3556db","bdp_rd","Mon Mar 27 2023 11:41:42 GMT-0400 (Eastern Daylight Time)","179851","","4889","","","","offer","","<div class='trialBorder'><div class='vertical-center'><img style='vertical-align:center; align:center' src=img/fixation3.jpg></div><div class='cl'><div class='vertical-center'>$2<br>for<br>sure</div></div><div class='cr'><div class='vertical-center'>$21<br>with a<br>50% chance</div></div><div class='respDivL'><div class='vertical-center'>(E)</div></div><div class='respDivR'><div class='vertical-center'>(I)</div></div></div>","I","$2","$21","0","2","21","RISKY"
"html-keyboard-response","126","129180","0.0-5.0-3.40","6352b3c968388ef86f3556db","bdp_rd","Mon Mar 27 2023 11:41:42 GMT-0400 (Eastern Daylight Time)","179851","","null","","","","offerFB","","<div class='trialBorder'><div class='vertical-center'><img style='vertical-align:center; align:center' src=img/fixation3.jpg></div><div class='cl'><div class='vertical-center'>$2<br>for<br>sure</div></div><div class='cr'><div class='vertical-center'><font style='color:orange'>$21<br>with a<br>50% chance</font></div></div><div class='respDivL'><div class='vertical-center'>(E)</div></div><div class='respDivR'><div class='vertical-center'><font style='color:orange'>(I)</font></div></div></div>","null","$2","$21","0","2","21",""
"html-keyboard-response","127","129682","0.0-5.0-1.41","6352b3c968388ef86f3556db","bdp_rd","Mon Mar 27 2023 11:41:42 GMT-0400 (Eastern Daylight Time)","179851","","null","","","","FIX","","<div class='trialBorder'><div class='vertical-center'><img style='vertical-align:center; align:center' src=img/fixation3.jpg></div></div>","null","","","","","",""
"html-keyboard-response","128","131526","0.0-5.0-2.41","6352b3c968388ef86f3556db","bdp_rd","Mon Mar 27 2023 11:41:42 GMT-0400 (Eastern Daylight Time)","179851","","1842","","","","offer","","<div class='trialBorder'><div class='vertical-center'><img style='vertical-align:center; align:center' src=img/fixation3.jpg></div><div class='cl'><div class='vertical-center'>$34<br>for<br>sure</div></div><div class='cr'><div class='vertical-center'>$48<br>with a<br>50% chance</div></div><div class='respDivL'><div class='vertical-center'>(E)</div></div><div class='respDivR'><div class='vertical-center'>(I)</div></div></div>","I","$34","$48","0","34","48","RISKY"
"html-keyboard-response","129","131788","0.0-5.0-3.41","6352b3c968388ef86f3556db","bdp_rd","Mon Mar 27 2023 11:41:42 GMT-0400 (Eastern Daylight Time)","179851","","null","","","","offerFB","","<div class='trialBorder'><div class='vertical-center'><img style='vertical-align:center; align:center' src=img/fixation3.jpg></div><div class='cl'><div class='vertical-center'>$34<br>for<br>sure</div></div><div class='cr'><div class='vertical-center'><font style='color:orange'>$48<br>with a<br>50% chance</font></div></div><div class='respDivL'><div class='vertical-center'>(E)</div></div><div class='respDivR'><div class='vertical-center'><font style='color:orange'>(I)</font></div></div></div>","null","$34","$48","0","34","48",""
"html-keyboard-response","130","132290","0.0-5.0-1.42","6352b3c968388ef86f3556db","bdp_rd","Mon Mar 27 2023 11:41:42 GMT-0400 (Eastern Daylight Time)","179851","","null","","","","FIX","","<div class='trialBorder'><div class='vertical-center'><img style='vertical-align:center; align:center' src=img/fixation3.jpg></div></div>","null","","","","","",""
"html-keyboard-response","131","134678","0.0-5.0-2.42","6352b3c968388ef86f3556db","bdp_rd","Mon Mar 27 2023 11:41:42 GMT-0400 (Eastern Daylight Time)","179851","","2385","","","","offer","","<div class='trialBorder'><div class='vertical-center'><img style='vertical-align:center; align:center' src=img/fixation3.jpg></div><div class='cl'><div class='vertical-center'>$34<br>with a<br>50% chance</div></div><div class='cr'><div class='vertical-center'>$15<br>for<br>sure</div></div><div class='respDivL'><div class='vertical-center'>(E)</div></div><div class='respDivR'><div class='vertical-center'>(I)</div></div></div>","E","$15","$34","1","15","34","RISKY"
"html-keyboard-response","132","134940","0.0-5.0-3.42","6352b3c968388ef86f3556db","bdp_rd","Mon Mar 27 2023 11:41:42 GMT-0400 (Eastern Daylight Time)","179851","","null","","","","offerFB","","<div class='trialBorder'><div class='vertical-center'><img style='vertical-align:center; align:center' src=img/fixation3.jpg></div><div class='cl'><div class='vertical-center'><font style='color:orange'>$34<br>with a<br>50% chance</font></div></div><div class='cr'><div class='vertical-center'>$15<br>for<br>sure</div></div><div class='respDivL'><div class='vertical-center'><font style='color:orange'>(E)</font></div></div><div class='respDivR'><div class='vertical-center'>(I)</div></div></div>","null","$15","$34","1","15","34",""
"html-keyboard-response","133","135442","0.0-5.0-1.43","6352b3c968388ef86f3556db","bdp_rd","Mon Mar 27 2023 11:41:42 GMT-0400 (Eastern Daylight Time)","179851","","null","","","","FIX","","<div class='trialBorder'><div class='vertical-center'><img style='vertical-align:center; align:center' src=img/fixation3.jpg></div></div>","null","","","","","",""
"html-keyboard-response","134","137660","0.0-5.0-2.43","6352b3c968388ef86f3556db","bdp_rd","Mon Mar 27 2023 11:41:42 GMT-0400 (Eastern Daylight Time)","179851","","2217","","","","offer","","<div class='trialBorder'><div class='vertical-center'><img style='vertical-align:center; align:center' src=img/fixation3.jpg></div><div class='cl'><div class='vertical-center'>$11<br>for<br>sure</div></div><div class='cr'><div class='vertical-center'>$26<br>with a<br>50% chance</div></div><div class='respDivL'><div class='vertical-center'>(E)</div></div><div class='respDivR'><div class='vertical-center'>(I)</div></div></div>","I","$11","$26","0","11","26","RISKY"
"html-keyboard-response","135","137915","0.0-5.0-3.43","6352b3c968388ef86f3556db","bdp_rd","Mon Mar 27 2023 11:41:42 GMT-0400 (Eastern Daylight Time)","179851","","null","","","","offerFB","","<div class='trialBorder'><div class='vertical-center'><img style='vertical-align:center; align:center' src=img/fixation3.jpg></div><div class='cl'><div class='vertical-center'>$11<br>for<br>sure</div></div><div class='cr'><div class='vertical-center'><font style='color:orange'>$26<br>with a<br>50% chance</font></div></div><div class='respDivL'><div class='vertical-center'>(E)</div></div><div class='respDivR'><div class='vertical-center'><font style='color:orange'>(I)</font></div></div></div>","null","$11","$26","0","11","26",""
"html-keyboard-response","136","138418","0.0-5.0-1.44","6352b3c968388ef86f3556db","bdp_rd","Mon Mar 27 2023 11:41:42 GMT-0400 (Eastern Daylight Time)","179851","","null","","","","FIX","","<div class='trialBorder'><div class='vertical-center'><img style='vertical-align:center; align:center' src=img/fixation3.jpg></div></div>","null","","","","","",""
"html-keyboard-response","137","140020","0.0-5.0-2.44","6352b3c968388ef86f3556db","bdp_rd","Mon Mar 27 2023 11:41:42 GMT-0400 (Eastern Daylight Time)","179851","","1600","","","","offer","","<div class='trialBorder'><div class='vertical-center'><img style='vertical-align:center; align:center' src=img/fixation3.jpg></div><div class='cl'><div class='vertical-center'>$29<br>for<br>sure</div></div><div class='cr'><div class='vertical-center'>$46<br>with a<br>50% chance</div></div><div class='respDivL'><div class='vertical-center'>(E)</div></div><div class='respDivR'><div class='vertical-center'>(I)</div></div></div>","E","$29","$46","0","29","46","SURE"
"html-keyboard-response","138","140274","0.0-5.0-3.44","6352b3c968388ef86f3556db","bdp_rd","Mon Mar 27 2023 11:41:42 GMT-0400 (Eastern Daylight Time)","179851","","null","","","","offerFB","","<div class='trialBorder'><div class='vertical-center'><img style='vertical-align:center; align:center' src=img/fixation3.jpg></div><div class='cl'><div class='vertical-center'><font style='color:orange'>$29<br>for<br>sure</font></div></div><div class='cr'><div class='vertical-center'>$46<br>with a<br>50% chance</div></div><div class='respDivL'><div class='vertical-center'><font style='color:orange'>(E)</font></div></div><div class='respDivR'><div class='vertical-center'>(I)</div></div></div>","null","$29","$46","0","29","46",""
"html-keyboard-response","139","140779","0.0-5.0-1.45","6352b3c968388ef86f3556db","bdp_rd","Mon Mar 27 2023 11:41:42 GMT-0400 (Eastern Daylight Time)","179851","","null","","","","FIX","","<div class='trialBorder'><div class='vertical-center'><img style='vertical-align:center; align:center' src=img/fixation3.jpg></div></div>","null","","","","","",""
"html-keyboard-response","140","143388","0.0-5.0-2.45","6352b3c968388ef86f3556db","bdp_rd","Mon Mar 27 2023 11:41:42 GMT-0400 (Eastern Daylight Time)","179851","","2606","","","","offer","","<div class='trialBorder'><div class='vertical-center'><img style='vertical-align:center; align:center' src=img/fixation3.jpg></div><div class='cl'><div class='vertical-center'>$68<br>with a<br>50% chance</div></div><div class='cr'><div class='vertical-center'>$30<br>for<br>sure</div></div><div class='respDivL'><div class='vertical-center'>(E)</div></div><div class='respDivR'><div class='vertical-center'>(I)</div></div></div>","E","$30","$68","1","30","68","RISKY"
"html-keyboard-response","141","143643","0.0-5.0-3.45","6352b3c968388ef86f3556db","bdp_rd","Mon Mar 27 2023 11:41:42 GMT-0400 (Eastern Daylight Time)","179851","","null","","","","offerFB","","<div class='trialBorder'><div class='vertical-center'><img style='vertical-align:center; align:center' src=img/fixation3.jpg></div><div class='cl'><div class='vertical-center'><font style='color:orange'>$68<br>with a<br>50% chance</font></div></div><div class='cr'><div class='vertical-center'>$30<br>for<br>sure</div></div><div class='respDivL'><div class='vertical-center'><font style='color:orange'>(E)</font></div></div><div class='respDivR'><div class='vertical-center'>(I)</div></div></div>","null","$30","$68","1","30","68",""
"html-keyboard-response","142","144155","0.0-5.0-1.46","6352b3c968388ef86f3556db","bdp_rd","Mon Mar 27 2023 11:41:42 GMT-0400 (Eastern Daylight Time)","179851","","null","","","","FIX","","<div class='trialBorder'><div class='vertical-center'><img style='vertical-align:center; align:center' src=img/fixation3.jpg></div></div>","null","","","","","",""
"html-keyboard-response","143","145930","0.0-5.0-2.46","6352b3c968388ef86f3556db","bdp_rd","Mon Mar 27 2023 11:41:42 GMT-0400 (Eastern Daylight Time)","179851","","1773","","","","offer","","<div class='trialBorder'><div class='vertical-center'><img style='vertical-align:center; align:center' src=img/fixation3.jpg></div><div class='cl'><div class='vertical-center'>$47<br>with a<br>50% chance</div></div><div class='cr'><div class='vertical-center'>$27<br>for<br>sure</div></div><div class='respDivL'><div class='vertical-center'>(E)</div></div><div class='respDivR'><div class='vertical-center'>(I)</div></div></div>","I","$27","$47","1","27","47","SURE"
"html-keyboard-response","144","146187","0.0-5.0-3.46","6352b3c968388ef86f3556db","bdp_rd","Mon Mar 27 2023 11:41:42 GMT-0400 (Eastern Daylight Time)","179851","","null","","","","offerFB","","<div class='trialBorder'><div class='vertical-center'><img style='vertical-align:center; align:center' src=img/fixation3.jpg></div><div class='cl'><div class='vertical-center'>$47<br>with a<br>50% chance</div></div><div class='cr'><div class='vertical-center'><font style='color:orange'>$27<br>for<br>sure</font></div></div><div class='respDivL'><div class='vertical-center'>(E)</div></div><div class='respDivR'><div class='vertical-center'><font style='color:orange'>(I)</font></div></div></div>","null","$27","$47","1","27","47",""
"html-keyboard-response","145","146699","0.0-5.0-1.47","6352b3c968388ef86f3556db","bdp_rd","Mon Mar 27 2023 11:41:42 GMT-0400 (Eastern Daylight Time)","179851","","null","","","","FIX","","<div class='trialBorder'><div class='vertical-center'><img style='vertical-align:center; align:center' src=img/fixation3.jpg></div></div>","null","","","","","",""
"html-keyboard-response","146","148074","0.0-5.0-2.47","6352b3c968388ef86f3556db","bdp_rd","Mon Mar 27 2023 11:41:42 GMT-0400 (Eastern Daylight Time)","179851","","1373","","","","offer","","<div class='trialBorder'><div class='vertical-center'><img style='vertical-align:center; align:center' src=img/fixation3.jpg></div><div class='cl'><div class='vertical-center'>$73<br>with a<br>50% chance</div></div><div class='cr'><div class='vertical-center'>$42<br>for<br>sure</div></div><div class='respDivL'><div class='vertical-center'>(E)</div></div><div class='respDivR'><div class='vertical-center'>(I)</div></div></div>","I","$42","$73","1","42","73","SURE"
"html-keyboard-response","147","148331","0.0-5.0-3.47","6352b3c968388ef86f3556db","bdp_rd","Mon Mar 27 2023 11:41:42 GMT-0400 (Eastern Daylight Time)","179851","","null","","","","offerFB","","<div class='trialBorder'><div class='vertical-center'><img style='vertical-align:center; align:center' src=img/fixation3.jpg></div><div class='cl'><div class='vertical-center'>$73<br>with a<br>50% chance</div></div><div class='cr'><div class='vertical-center'><font style='color:orange'>$42<br>for<br>sure</font></div></div><div class='respDivL'><div class='vertical-center'>(E)</div></div><div class='respDivR'><div class='vertical-center'><font style='color:orange'>(I)</font></div></div></div>","null","$42","$73","1","42","73",""
"html-keyboard-response","148","148833","0.0-5.0-1.48","6352b3c968388ef86f3556db","bdp_rd","Mon Mar 27 2023 11:41:42 GMT-0400 (Eastern Daylight Time)","179851","","null","","","","FIX","","<div class='trialBorder'><div class='vertical-center'><img style='vertical-align:center; align:center' src=img/fixation3.jpg></div></div>","null","","","","","",""
"html-keyboard-response","149","151217","0.0-5.0-2.48","6352b3c968388ef86f3556db","bdp_rd","Mon Mar 27 2023 11:41:42 GMT-0400 (Eastern Daylight Time)","179851","","2381","","","","offer","","<div class='trialBorder'><div class='vertical-center'><img style='vertical-align:center; align:center' src=img/fixation3.jpg></div><div class='cl'><div class='vertical-center'>$12<br>for<br>sure</div></div><div class='cr'><div class='vertical-center'>$27<br>with a<br>50% chance</div></div><div class='respDivL'><div class='vertical-center'>(E)</div></div><div class='respDivR'><div class='vertical-center'>(I)</div></div></div>","I","$12","$27","0","12","27","RISKY"
"html-keyboard-response","150","151474","0.0-5.0-3.48","6352b3c968388ef86f3556db","bdp_rd","Mon Mar 27 2023 11:41:42 GMT-0400 (Eastern Daylight Time)","179851","","null","","","","offerFB","","<div class='trialBorder'><div class='vertical-center'><img style='vertical-align:center; align:center' src=img/fixation3.jpg></div><div class='cl'><div class='vertical-center'>$12<br>for<br>sure</div></div><div class='cr'><div class='vertical-center'><font style='color:orange'>$27<br>with a<br>50% chance</font></div></div><div class='respDivL'><div class='vertical-center'>(E)</div></div><div class='respDivR'><div class='vertical-center'><font style='color:orange'>(I)</font></div></div></div>","null","$12","$27","0","12","27",""
"html-keyboard-response","151","151979","0.0-5.0-1.49","6352b3c968388ef86f3556db","bdp_rd","Mon Mar 27 2023 11:41:42 GMT-0400 (Eastern Daylight Time)","179851","","null","","","","FIX","","<div class='trialBorder'><div class='vertical-center'><img style='vertical-align:center; align:center' src=img/fixation3.jpg></div></div>","null","","","","","",""
"html-keyboard-response","152","154004","0.0-5.0-2.49","6352b3c968388ef86f3556db","bdp_rd","Mon Mar 27 2023 11:41:42 GMT-0400 (Eastern Daylight Time)","179851","","2024","","","","offer","","<div class='trialBorder'><div class='vertical-center'><img style='vertical-align:center; align:center' src=img/fixation3.jpg></div><div class='cl'><div class='vertical-center'>$45<br>for<br>sure</div></div><div class='cr'><div class='vertical-center'>$86<br>with a<br>50% chance</div></div><div class='respDivL'><div class='vertical-center'>(E)</div></div><div class='respDivR'><div class='vertical-center'>(I)</div></div></div>","E","$45","$86","0","45","86","SURE"
"html-keyboard-response","153","154258","0.0-5.0-3.49","6352b3c968388ef86f3556db","bdp_rd","Mon Mar 27 2023 11:41:42 GMT-0400 (Eastern Daylight Time)","179851","","null","","","","offerFB","","<div class='trialBorder'><div class='vertical-center'><img style='vertical-align:center; align:center' src=img/fixation3.jpg></div><div class='cl'><div class='vertical-center'><font style='color:orange'>$45<br>for<br>sure</font></div></div><div class='cr'><div class='vertical-center'>$86<br>with a<br>50% chance</div></div><div class='respDivL'><div class='vertical-center'><font style='color:orange'>(E)</font></div></div><div class='respDivR'><div class='vertical-center'>(I)</div></div></div>","null","$45","$86","0","45","86",""
"html-keyboard-response","154","154763","0.0-5.0-1.50","6352b3c968388ef86f3556db","bdp_rd","Mon Mar 27 2023 11:41:42 GMT-0400 (Eastern Daylight Time)","179851","","null","","","","FIX","","<div class='trialBorder'><div class='vertical-center'><img style='vertical-align:center; align:center' src=img/fixation3.jpg></div></div>","null","","","","","",""
"html-keyboard-response","155","156385","0.0-5.0-2.50","6352b3c968388ef86f3556db","bdp_rd","Mon Mar 27 2023 11:41:42 GMT-0400 (Eastern Daylight Time)","179851","","1621","","","","offer","","<div class='trialBorder'><div class='vertical-center'><img style='vertical-align:center; align:center' src=img/fixation3.jpg></div><div class='cl'><div class='vertical-center'>$40<br>for<br>sure</div></div><div class='cr'><div class='vertical-center'>$95<br>with a<br>50% chance</div></div><div class='respDivL'><div class='vertical-center'>(E)</div></div><div class='respDivR'><div class='vertical-center'>(I)</div></div></div>","I","$40","$95","0","40","95","RISKY"
"html-keyboard-response","156","156641","0.0-5.0-3.50","6352b3c968388ef86f3556db","bdp_rd","Mon Mar 27 2023 11:41:42 GMT-0400 (Eastern Daylight Time)","179851","","null","","","","offerFB","","<div class='trialBorder'><div class='vertical-center'><img style='vertical-align:center; align:center' src=img/fixation3.jpg></div><div class='cl'><div class='vertical-center'>$40<br>for<br>sure</div></div><div class='cr'><div class='vertical-center'><font style='color:orange'>$95<br>with a<br>50% chance</font></div></div><div class='respDivL'><div class='vertical-center'>(E)</div></div><div class='respDivR'><div class='vertical-center'><font style='color:orange'>(I)</font></div></div></div>","null","$40","$95","0","40","95",""
"html-keyboard-response","157","157147","0.0-5.0-1.51","6352b3c968388ef86f3556db","bdp_rd","Mon Mar 27 2023 11:41:42 GMT-0400 (Eastern Daylight Time)","179851","","null","","","","FIX","","<div class='trialBorder'><div class='vertical-center'><img style='vertical-align:center; align:center' src=img/fixation3.jpg></div></div>","null","","","","","",""
"html-keyboard-response","158","159577","0.0-5.0-2.51","6352b3c968388ef86f3556db","bdp_rd","Mon Mar 27 2023 11:41:42 GMT-0400 (Eastern Daylight Time)","179851","","2428","","","","offer","","<div class='trialBorder'><div class='vertical-center'><img style='vertical-align:center; align:center' src=img/fixation3.jpg></div><div class='cl'><div class='vertical-center'>$39<br>with a<br>50% chance</div></div><div class='cr'><div class='vertical-center'>$18<br>for<br>sure</div></div><div class='respDivL'><div class='vertical-center'>(E)</div></div><div class='respDivR'><div class='vertical-center'>(I)</div></div></div>","E","$18","$39","1","18","39","RISKY"
"html-keyboard-response","159","159835","0.0-5.0-3.51","6352b3c968388ef86f3556db","bdp_rd","Mon Mar 27 2023 11:41:42 GMT-0400 (Eastern Daylight Time)","179851","","null","","","","offerFB","","<div class='trialBorder'><div class='vertical-center'><img style='vertical-align:center; align:center' src=img/fixation3.jpg></div><div class='cl'><div class='vertical-center'><font style='color:orange'>$39<br>with a<br>50% chance</font></div></div><div class='cr'><div class='vertical-center'>$18<br>for<br>sure</div></div><div class='respDivL'><div class='vertical-center'><font style='color:orange'>(E)</font></div></div><div class='respDivR'><div class='vertical-center'>(I)</div></div></div>","null","$18","$39","1","18","39",""
"html-keyboard-response","160","160337","0.0-5.0-1.52","6352b3c968388ef86f3556db","bdp_rd","Mon Mar 27 2023 11:41:42 GMT-0400 (Eastern Daylight Time)","179851","","null","","","","FIX","","<div class='trialBorder'><div class='vertical-center'><img style='vertical-align:center; align:center' src=img/fixation3.jpg></div></div>","null","","","","","",""
"html-keyboard-response","161","161483","0.0-5.0-2.52","6352b3c968388ef86f3556db","bdp_rd","Mon Mar 27 2023 11:41:42 GMT-0400 (Eastern Daylight Time)","179851","","1143","","","","offer","","<div class='trialBorder'><div class='vertical-center'><img style='vertical-align:center; align:center' src=img/fixation3.jpg></div><div class='cl'><div class='vertical-center'>$17<br>with a<br>50% chance</div></div><div class='cr'><div class='vertical-center'>$3<br>for<br>sure</div></div><div class='respDivL'><div class='vertical-center'>(E)</div></div><div class='respDivR'><div class='vertical-center'>(I)</div></div></div>","E","$3","$17","1","3","17","RISKY"
"html-keyboard-response","162","161738","0.0-5.0-3.52","6352b3c968388ef86f3556db","bdp_rd","Mon Mar 27 2023 11:41:42 GMT-0400 (Eastern Daylight Time)","179851","","null","","","","offerFB","","<div class='trialBorder'><div class='vertical-center'><img style='vertical-align:center; align:center' src=img/fixation3.jpg></div><div class='cl'><div class='vertical-center'><font style='color:orange'>$17<br>with a<br>50% chance</font></div></div><div class='cr'><div class='vertical-center'>$3<br>for<br>sure</div></div><div class='respDivL'><div class='vertical-center'><font style='color:orange'>(E)</font></div></div><div class='respDivR'><div class='vertical-center'>(I)</div></div></div>","null","$3","$17","1","3","17",""
"html-keyboard-response","163","162241","0.0-5.0-1.53","6352b3c968388ef86f3556db","bdp_rd","Mon Mar 27 2023 11:41:42 GMT-0400 (Eastern Daylight Time)","179851","","null","","","","FIX","","<div class='trialBorder'><div class='vertical-center'><img style='vertical-align:center; align:center' src=img/fixation3.jpg></div></div>","null","","","","","",""
"html-keyboard-response","164","163825","0.0-5.0-2.53","6352b3c968388ef86f3556db","bdp_rd","Mon Mar 27 2023 11:41:42 GMT-0400 (Eastern Daylight Time)","179851","","1582","","","","offer","","<div class='trialBorder'><div class='vertical-center'><img style='vertical-align:center; align:center' src=img/fixation3.jpg></div><div class='cl'><div class='vertical-center'>$22<br>for<br>sure</div></div><div class='cr'><div class='vertical-center'>$42<br>with a<br>50% chance</div></div><div class='respDivL'><div class='vertical-center'>(E)</div></div><div class='respDivR'><div class='vertical-center'>(I)</div></div></div>","I","$22","$42","0","22","42","RISKY"
"html-keyboard-response","165","164081","0.0-5.0-3.53","6352b3c968388ef86f3556db","bdp_rd","Mon Mar 27 2023 11:41:42 GMT-0400 (Eastern Daylight Time)","179851","","null","","","","offerFB","","<div class='trialBorder'><div class='vertical-center'><img style='vertical-align:center; align:center' src=img/fixation3.jpg></div><div class='cl'><div class='vertical-center'>$22<br>for<br>sure</div></div><div class='cr'><div class='vertical-center'><font style='color:orange'>$42<br>with a<br>50% chance</font></div></div><div class='respDivL'><div class='vertical-center'>(E)</div></div><div class='respDivR'><div class='vertical-center'><font style='color:orange'>(I)</font></div></div></div>","null","$22","$42","0","22","42",""
"html-keyboard-response","166","164587","0.0-5.0-1.54","6352b3c968388ef86f3556db","bdp_rd","Mon Mar 27 2023 11:41:42 GMT-0400 (Eastern Daylight Time)","179851","","null","","","","FIX","","<div class='trialBorder'><div class='vertical-center'><img style='vertical-align:center; align:center' src=img/fixation3.jpg></div></div>","null","","","","","",""
"html-keyboard-response","167","166332","0.0-5.0-2.54","6352b3c968388ef86f3556db","bdp_rd","Mon Mar 27 2023 11:41:42 GMT-0400 (Eastern Daylight Time)","179851","","1744","","","","offer","","<div class='trialBorder'><div class='vertical-center'><img style='vertical-align:center; align:center' src=img/fixation3.jpg></div><div class='cl'><div class='vertical-center'>$9<br>for<br>sure</div></div><div class='cr'><div class='vertical-center'>$32<br>with a<br>50% chance</div></div><div class='respDivL'><div class='vertical-center'>(E)</div></div><div class='respDivR'><div class='vertical-center'>(I)</div></div></div>","I","$9","$32","0","9","32","RISKY"
"html-keyboard-response","168","166587","0.0-5.0-3.54","6352b3c968388ef86f3556db","bdp_rd","Mon Mar 27 2023 11:41:42 GMT-0400 (Eastern Daylight Time)","179851","","null","","","","offerFB","","<div class='trialBorder'><div class='vertical-center'><img style='vertical-align:center; align:center' src=img/fixation3.jpg></div><div class='cl'><div class='vertical-center'>$9<br>for<br>sure</div></div><div class='cr'><div class='vertical-center'><font style='color:orange'>$32<br>with a<br>50% chance</font></div></div><div class='respDivL'><div class='vertical-center'>(E)</div></div><div class='respDivR'><div class='vertical-center'><font style='color:orange'>(I)</font></div></div></div>","null","$9","$32","0","9","32",""
"html-keyboard-response","169","167089","0.0-5.0-1.55","6352b3c968388ef86f3556db","bdp_rd","Mon Mar 27 2023 11:41:42 GMT-0400 (Eastern Daylight Time)","179851","","null","","","","FIX","","<div class='trialBorder'><div class='vertical-center'><img style='vertical-align:center; align:center' src=img/fixation3.jpg></div></div>","null","","","","","",""
"html-keyboard-response","170","170054","0.0-5.0-2.55","6352b3c968388ef86f3556db","bdp_rd","Mon Mar 27 2023 11:41:42 GMT-0400 (Eastern Daylight Time)","179851","","2963","","","","offer","","<div class='trialBorder'><div class='vertical-center'><img style='vertical-align:center; align:center' src=img/fixation3.jpg></div><div class='cl'><div class='vertical-center'>$80<br>with a<br>50% chance</div></div><div class='cr'><div class='vertical-center'>$20<br>for<br>sure</div></div><div class='respDivL'><div class='vertical-center'>(E)</div></div><div class='respDivR'><div class='vertical-center'>(I)</div></div></div>","E","$20","$80","1","20","80","RISKY"
"html-keyboard-response","171","170315","0.0-5.0-3.55","6352b3c968388ef86f3556db","bdp_rd","Mon Mar 27 2023 11:41:42 GMT-0400 (Eastern Daylight Time)","179851","","null","","","","offerFB","","<div class='trialBorder'><div class='vertical-center'><img style='vertical-align:center; align:center' src=img/fixation3.jpg></div><div class='cl'><div class='vertical-center'><font style='color:orange'>$80<br>with a<br>50% chance</font></div></div><div class='cr'><div class='vertical-center'>$20<br>for<br>sure</div></div><div class='respDivL'><div class='vertical-center'><font style='color:orange'>(E)</font></div></div><div class='respDivR'><div class='vertical-center'>(I)</div></div></div>","null","$20","$80","1","20","80",""
"html-keyboard-response","172","170817","0.0-5.0-1.56","6352b3c968388ef86f3556db","bdp_rd","Mon Mar 27 2023 11:41:42 GMT-0400 (Eastern Daylight Time)","179851","","null","","","","FIX","","<div class='trialBorder'><div class='vertical-center'><img style='vertical-align:center; align:center' src=img/fixation3.jpg></div></div>","null","","","","","",""
"html-keyboard-response","173","171997","0.0-5.0-2.56","6352b3c968388ef86f3556db","bdp_rd","Mon Mar 27 2023 11:41:42 GMT-0400 (Eastern Daylight Time)","179851","","1177","","","","offer","","<div class='trialBorder'><div class='vertical-center'><img style='vertical-align:center; align:center' src=img/fixation3.jpg></div><div class='cl'><div class='vertical-center'>$46<br>for<br>sure</div></div><div class='cr'><div class='vertical-center'>$65<br>with a<br>50% chance</div></div><div class='respDivL'><div class='vertical-center'>(E)</div></div><div class='respDivR'><div class='vertical-center'>(I)</div></div></div>","E","$46","$65","0","46","65","SURE"
