"trial_type","trial_index","time_elapsed","internal_node_id","subject_id","task","startTime","totalTime","view_history","rt","event","trial","time","trialtype","success","stimulus","key_press","sureOffer","riskyOffer","riskyLeft","sureAmt","riskyAmt","chosen"
"pavlovia","0","2","0.0-0.0","5bf0cb0411439b000168edda","bdp_rd","Mon Mar 27 2023 00:06:58 GMT-0400 (Eastern Daylight Time)","309975","","","","","","","","","","","","","","",""
"instructions","1","3258","0.0-1.0","5bf0cb0411439b000168edda","bdp_rd","Mon Mar 27 2023 00:06:58 GMT-0400 (Eastern Daylight Time)","309975","[{""page_index"":0,""viewing_time"":3255}]","3255","","","","","","","","","","","","",""
"","","","","5bf0cb0411439b000168edda","bdp_rd","Mon Mar 27 2023 00:06:58 GMT-0400 (Eastern Daylight Time)","309975","","","fullscreenenter","2","11053","fullscreenenter","","","","","","","","",""
"fullscreen","2","12042","0.0-2.0","5bf0cb0411439b000168edda","bdp_rd","Mon Mar 27 2023 00:06:58 GMT-0400 (Eastern Daylight Time)","309975","","","","","","","true","","","","","","","",""
"instructions","3","34169","0.0-4.0","5bf0cb0411439b000168edda","bdp_rd","Mon Mar 27 2023 00:06:58 GMT-0400 (Eastern Daylight Time)","309975","[{""page_index"":0,""viewing_time"":20983},{""page_index"":1,""viewing_time"":703},{""page_index"":2,""viewing_time"":440}]","22126","","","","","","","","","","","","",""
"html-keyboard-response","4","34671","0.0-5.0-1.0","5bf0cb0411439b000168edda","bdp_rd","Mon Mar 27 2023 00:06:58 GMT-0400 (Eastern Daylight Time)","309975","","null","","","","FIX","","<div class='trialBorder'><div class='vertical-center'><img style='vertical-align:center; align:center' src=img/fixation3.jpg></div></div>","null","","","","","",""
"html-keyboard-response","5","39690","0.0-5.0-2.0","5bf0cb0411439b000168edda","bdp_rd","Mon Mar 27 2023 00:06:58 GMT-0400 (Eastern Daylight Time)","309975","","5018","","","","offer","","<div class='trialBorder'><div class='vertical-center'><img style='vertical-align:center; align:center' src=img/fixation3.jpg></div><div class='cl'><div class='vertical-center'>$30<br>for<br>sure</div></div><div class='cr'><div class='vertical-center'>$68<br>with a<br>50% chance</div></div><div class='respDivL'><div class='vertical-center'>(E)</div></div><div class='respDivR'><div class='vertical-center'>(I)</div></div></div>","E","$30","$68","0","30","68","SURE"
"html-keyboard-response","6","39942","0.0-5.0-3.0","5bf0cb0411439b000168edda","bdp_rd","Mon Mar 27 2023 00:06:58 GMT-0400 (Eastern Daylight Time)","309975","","null","","","","offerFB","","<div class='trialBorder'><div class='vertical-center'><img style='vertical-align:center; align:center' src=img/fixation3.jpg></div><div class='cl'><div class='vertical-center'><font style='color:orange'>$30<br>for<br>sure</font></div></div><div class='cr'><div class='vertical-center'>$68<br>with a<br>50% chance</div></div><div class='respDivL'><div class='vertical-center'><font style='color:orange'>(E)</font></div></div><div class='respDivR'><div class='vertical-center'>(I)</div></div></div>","null","$30","$68","0","30","68",""
"html-keyboard-response","7","40444","0.0-5.0-1.1","5bf0cb0411439b000168edda","bdp_rd","Mon Mar 27 2023 00:06:58 GMT-0400 (Eastern Daylight Time)","309975","","null","","","","FIX","","<div class='trialBorder'><div class='vertical-center'><img style='vertical-align:center; align:center' src=img/fixation3.jpg></div></div>","null","","","","","",""
"html-keyboard-response","8","43218","0.0-5.0-2.1","5bf0cb0411439b000168edda","bdp_rd","Mon Mar 27 2023 00:06:58 GMT-0400 (Eastern Daylight Time)","309975","","2774","","","","offer","","<div class='trialBorder'><div class='vertical-center'><img style='vertical-align:center; align:center' src=img/fixation3.jpg></div><div class='cl'><div class='vertical-center'>$45<br>for<br>sure</div></div><div class='cr'><div class='vertical-center'>$86<br>with a<br>50% chance</div></div><div class='respDivL'><div class='vertical-center'>(E)</div></div><div class='respDivR'><div class='vertical-center'>(I)</div></div></div>","I","$45","$86","0","45","86","RISKY"
"html-keyboard-response","9","43470","0.0-5.0-3.1","5bf0cb0411439b000168edda","bdp_rd","Mon Mar 27 2023 00:06:58 GMT-0400 (Eastern Daylight Time)","309975","","null","","","","offerFB","","<div class='trialBorder'><div class='vertical-center'><img style='vertical-align:center; align:center' src=img/fixation3.jpg></div><div class='cl'><div class='vertical-center'>$45<br>for<br>sure</div></div><div class='cr'><div class='vertical-center'><font style='color:orange'>$86<br>with a<br>50% chance</font></div></div><div class='respDivL'><div class='vertical-center'>(E)</div></div><div class='respDivR'><div class='vertical-center'><font style='color:orange'>(I)</font></div></div></div>","null","$45","$86","0","45","86",""
"html-keyboard-response","10","43971","0.0-5.0-1.2","5bf0cb0411439b000168edda","bdp_rd","Mon Mar 27 2023 00:06:58 GMT-0400 (Eastern Daylight Time)","309975","","null","","","","FIX","","<div class='trialBorder'><div class='vertical-center'><img style='vertical-align:center; align:center' src=img/fixation3.jpg></div></div>","null","","","","","",""
"html-keyboard-response","11","45321","0.0-5.0-2.2","5bf0cb0411439b000168edda","bdp_rd","Mon Mar 27 2023 00:06:58 GMT-0400 (Eastern Daylight Time)","309975","","1350","","","","offer","","<div class='trialBorder'><div class='vertical-center'><img style='vertical-align:center; align:center' src=img/fixation3.jpg></div><div class='cl'><div class='vertical-center'>$42<br>for<br>sure</div></div><div class='cr'><div class='vertical-center'>$73<br>with a<br>50% chance</div></div><div class='respDivL'><div class='vertical-center'>(E)</div></div><div class='respDivR'><div class='vertical-center'>(I)</div></div></div>","E","$42","$73","0","42","73","SURE"
"html-keyboard-response","12","45572","0.0-5.0-3.2","5bf0cb0411439b000168edda","bdp_rd","Mon Mar 27 2023 00:06:58 GMT-0400 (Eastern Daylight Time)","309975","","null","","","","offerFB","","<div class='trialBorder'><div class='vertical-center'><img style='vertical-align:center; align:center' src=img/fixation3.jpg></div><div class='cl'><div class='vertical-center'><font style='color:orange'>$42<br>for<br>sure</font></div></div><div class='cr'><div class='vertical-center'>$73<br>with a<br>50% chance</div></div><div class='respDivL'><div class='vertical-center'><font style='color:orange'>(E)</font></div></div><div class='respDivR'><div class='vertical-center'>(I)</div></div></div>","null","$42","$73","0","42","73",""
"html-keyboard-response","13","46073","0.0-5.0-1.3","5bf0cb0411439b000168edda","bdp_rd","Mon Mar 27 2023 00:06:58 GMT-0400 (Eastern Daylight Time)","309975","","null","","","","FIX","","<div class='trialBorder'><div class='vertical-center'><img style='vertical-align:center; align:center' src=img/fixation3.jpg></div></div>","null","","","","","",""
"html-keyboard-response","14","48425","0.0-5.0-2.3","5bf0cb0411439b000168edda","bdp_rd","Mon Mar 27 2023 00:06:58 GMT-0400 (Eastern Daylight Time)","309975","","2351","","","","offer","","<div class='trialBorder'><div class='vertical-center'><img style='vertical-align:center; align:center' src=img/fixation3.jpg></div><div class='cl'><div class='vertical-center'>$27<br>with a<br>50% chance</div></div><div class='cr'><div class='vertical-center'>$12<br>for<br>sure</div></div><div class='respDivL'><div class='vertical-center'>(E)</div></div><div class='respDivR'><div class='vertical-center'>(I)</div></div></div>","I","$12","$27","1","12","27","SURE"
"html-keyboard-response","15","48677","0.0-5.0-3.3","5bf0cb0411439b000168edda","bdp_rd","Mon Mar 27 2023 00:06:58 GMT-0400 (Eastern Daylight Time)","309975","","null","","","","offerFB","","<div class='trialBorder'><div class='vertical-center'><img style='vertical-align:center; align:center' src=img/fixation3.jpg></div><div class='cl'><div class='vertical-center'>$27<br>with a<br>50% chance</div></div><div class='cr'><div class='vertical-center'><font style='color:orange'>$12<br>for<br>sure</font></div></div><div class='respDivL'><div class='vertical-center'>(E)</div></div><div class='respDivR'><div class='vertical-center'><font style='color:orange'>(I)</font></div></div></div>","null","$12","$27","1","12","27",""
"html-keyboard-response","16","49178","0.0-5.0-1.4","5bf0cb0411439b000168edda","bdp_rd","Mon Mar 27 2023 00:06:58 GMT-0400 (Eastern Daylight Time)","309975","","null","","","","FIX","","<div class='trialBorder'><div class='vertical-center'><img style='vertical-align:center; align:center' src=img/fixation3.jpg></div></div>","null","","","","","",""
"html-keyboard-response","17","51418","0.0-5.0-2.4","5bf0cb0411439b000168edda","bdp_rd","Mon Mar 27 2023 00:06:58 GMT-0400 (Eastern Daylight Time)","309975","","2240","","","","offer","","<div class='trialBorder'><div class='vertical-center'><img style='vertical-align:center; align:center' src=img/fixation3.jpg></div><div class='cl'><div class='vertical-center'>$18<br>for<br>sure</div></div><div class='cr'><div class='vertical-center'>$36<br>with a<br>50% chance</div></div><div class='respDivL'><div class='vertical-center'>(E)</div></div><div class='respDivR'><div class='vertical-center'>(I)</div></div></div>","E","$18","$36","0","18","36","SURE"
"html-keyboard-response","18","51669","0.0-5.0-3.4","5bf0cb0411439b000168edda","bdp_rd","Mon Mar 27 2023 00:06:58 GMT-0400 (Eastern Daylight Time)","309975","","null","","","","offerFB","","<div class='trialBorder'><div class='vertical-center'><img style='vertical-align:center; align:center' src=img/fixation3.jpg></div><div class='cl'><div class='vertical-center'><font style='color:orange'>$18<br>for<br>sure</font></div></div><div class='cr'><div class='vertical-center'>$36<br>with a<br>50% chance</div></div><div class='respDivL'><div class='vertical-center'><font style='color:orange'>(E)</font></div></div><div class='respDivR'><div class='vertical-center'>(I)</div></div></div>","null","$18","$36","0","18","36",""
"html-keyboard-response","19","52171","0.0-5.0-1.5","5bf0cb0411439b000168edda","bdp_rd","Mon Mar 27 2023 00:06:58 GMT-0400 (Eastern Daylight Time)","309975","","null","","","","FIX","","<div class='trialBorder'><div class='vertical-center'><img style='vertical-align:center; align:center' src=img/fixation3.jpg></div></div>","null","","","","","",""
"html-keyboard-response","20","55354","0.0-5.0-2.5","5bf0cb0411439b000168edda","bdp_rd","Mon Mar 27 2023 00:06:58 GMT-0400 (Eastern Daylight Time)","309975","","3183","","","","offer","","<div class='trialBorder'><div class='vertical-center'><img style='vertical-align:center; align:center' src=img/fixation3.jpg></div><div class='cl'><div class='vertical-center'>$25<br>for<br>sure</div></div><div class='cr'><div class='vertical-center'>$54<br>with a<br>50% chance</div></div><div class='respDivL'><div class='vertical-center'>(E)</div></div><div class='respDivR'><div class='vertical-center'>(I)</div></div></div>","I","$25","$54","0","25","54","RISKY"
"html-keyboard-response","21","55606","0.0-5.0-3.5","5bf0cb0411439b000168edda","bdp_rd","Mon Mar 27 2023 00:06:58 GMT-0400 (Eastern Daylight Time)","309975","","null","","","","offerFB","","<div class='trialBorder'><div class='vertical-center'><img style='vertical-align:center; align:center' src=img/fixation3.jpg></div><div class='cl'><div class='vertical-center'>$25<br>for<br>sure</div></div><div class='cr'><div class='vertical-center'><font style='color:orange'>$54<br>with a<br>50% chance</font></div></div><div class='respDivL'><div class='vertical-center'>(E)</div></div><div class='respDivR'><div class='vertical-center'><font style='color:orange'>(I)</font></div></div></div>","null","$25","$54","0","25","54",""
"html-keyboard-response","22","56107","0.0-5.0-1.6","5bf0cb0411439b000168edda","bdp_rd","Mon Mar 27 2023 00:06:58 GMT-0400 (Eastern Daylight Time)","309975","","null","","","","FIX","","<div class='trialBorder'><div class='vertical-center'><img style='vertical-align:center; align:center' src=img/fixation3.jpg></div></div>","null","","","","","",""
"html-keyboard-response","23","58649","0.0-5.0-2.6","5bf0cb0411439b000168edda","bdp_rd","Mon Mar 27 2023 00:06:58 GMT-0400 (Eastern Daylight Time)","309975","","2541","","","","offer","","<div class='trialBorder'><div class='vertical-center'><img style='vertical-align:center; align:center' src=img/fixation3.jpg></div><div class='cl'><div class='vertical-center'>$17<br>with a<br>50% chance</div></div><div class='cr'><div class='vertical-center'>$3<br>for<br>sure</div></div><div class='respDivL'><div class='vertical-center'>(E)</div></div><div class='respDivR'><div class='vertical-center'>(I)</div></div></div>","I","$3","$17","1","3","17","SURE"
"html-keyboard-response","24","58900","0.0-5.0-3.6","5bf0cb0411439b000168edda","bdp_rd","Mon Mar 27 2023 00:06:58 GMT-0400 (Eastern Daylight Time)","309975","","null","","","","offerFB","","<div class='trialBorder'><div class='vertical-center'><img style='vertical-align:center; align:center' src=img/fixation3.jpg></div><div class='cl'><div class='vertical-center'>$17<br>with a<br>50% chance</div></div><div class='cr'><div class='vertical-center'><font style='color:orange'>$3<br>for<br>sure</font></div></div><div class='respDivL'><div class='vertical-center'>(E)</div></div><div class='respDivR'><div class='vertical-center'><font style='color:orange'>(I)</font></div></div></div>","null","$3","$17","1","3","17",""
"html-keyboard-response","25","59401","0.0-5.0-1.7","5bf0cb0411439b000168edda","bdp_rd","Mon Mar 27 2023 00:06:58 GMT-0400 (Eastern Daylight Time)","309975","","null","","","","FIX","","<div class='trialBorder'><div class='vertical-center'><img style='vertical-align:center; align:center' src=img/fixation3.jpg></div></div>","null","","","","","",""
"html-keyboard-response","26","61450","0.0-5.0-2.7","5bf0cb0411439b000168edda","bdp_rd","Mon Mar 27 2023 00:06:58 GMT-0400 (Eastern Daylight Time)","309975","","2048","","","","offer","","<div class='trialBorder'><div class='vertical-center'><img style='vertical-align:center; align:center' src=img/fixation3.jpg></div><div class='cl'><div class='vertical-center'>$8<br>for<br>sure</div></div><div class='cr'><div class='vertical-center'>$45<br>with a<br>50% chance</div></div><div class='respDivL'><div class='vertical-center'>(E)</div></div><div class='respDivR'><div class='vertical-center'>(I)</div></div></div>","I","$8","$45","0","8","45","RISKY"
"html-keyboard-response","27","61702","0.0-5.0-3.7","5bf0cb0411439b000168edda","bdp_rd","Mon Mar 27 2023 00:06:58 GMT-0400 (Eastern Daylight Time)","309975","","null","","","","offerFB","","<div class='trialBorder'><div class='vertical-center'><img style='vertical-align:center; align:center' src=img/fixation3.jpg></div><div class='cl'><div class='vertical-center'>$8<br>for<br>sure</div></div><div class='cr'><div class='vertical-center'><font style='color:orange'>$45<br>with a<br>50% chance</font></div></div><div class='respDivL'><div class='vertical-center'>(E)</div></div><div class='respDivR'><div class='vertical-center'><font style='color:orange'>(I)</font></div></div></div>","null","$8","$45","0","8","45",""
"html-keyboard-response","28","62203","0.0-5.0-1.8","5bf0cb0411439b000168edda","bdp_rd","Mon Mar 27 2023 00:06:58 GMT-0400 (Eastern Daylight Time)","309975","","null","","","","FIX","","<div class='trialBorder'><div class='vertical-center'><img style='vertical-align:center; align:center' src=img/fixation3.jpg></div></div>","null","","","","","",""
"html-keyboard-response","29","64330","0.0-5.0-2.8","5bf0cb0411439b000168edda","bdp_rd","Mon Mar 27 2023 00:06:58 GMT-0400 (Eastern Daylight Time)","309975","","2125","","","","offer","","<div class='trialBorder'><div class='vertical-center'><img style='vertical-align:center; align:center' src=img/fixation3.jpg></div><div class='cl'><div class='vertical-center'>$71<br>with a<br>50% chance</div></div><div class='cr'><div class='vertical-center'>$7<br>for<br>sure</div></div><div class='respDivL'><div class='vertical-center'>(E)</div></div><div class='respDivR'><div class='vertical-center'>(I)</div></div></div>","E","$7","$71","1","7","71","RISKY"
"html-keyboard-response","30","64581","0.0-5.0-3.8","5bf0cb0411439b000168edda","bdp_rd","Mon Mar 27 2023 00:06:58 GMT-0400 (Eastern Daylight Time)","309975","","null","","","","offerFB","","<div class='trialBorder'><div class='vertical-center'><img style='vertical-align:center; align:center' src=img/fixation3.jpg></div><div class='cl'><div class='vertical-center'><font style='color:orange'>$71<br>with a<br>50% chance</font></div></div><div class='cr'><div class='vertical-center'>$7<br>for<br>sure</div></div><div class='respDivL'><div class='vertical-center'><font style='color:orange'>(E)</font></div></div><div class='respDivR'><div class='vertical-center'>(I)</div></div></div>","null","$7","$71","1","7","71",""
"html-keyboard-response","31","65083","0.0-5.0-1.9","5bf0cb0411439b000168edda","bdp_rd","Mon Mar 27 2023 00:06:58 GMT-0400 (Eastern Daylight Time)","309975","","null","","","","FIX","","<div class='trialBorder'><div class='vertical-center'><img style='vertical-align:center; align:center' src=img/fixation3.jpg></div></div>","null","","","","","",""
"html-keyboard-response","32","67178","0.0-5.0-2.9","5bf0cb0411439b000168edda","bdp_rd","Mon Mar 27 2023 00:06:58 GMT-0400 (Eastern Daylight Time)","309975","","2094","","","","offer","","<div class='trialBorder'><div class='vertical-center'><img style='vertical-align:center; align:center' src=img/fixation3.jpg></div><div class='cl'><div class='vertical-center'>$65<br>with a<br>50% chance</div></div><div class='cr'><div class='vertical-center'>$46<br>for<br>sure</div></div><div class='respDivL'><div class='vertical-center'>(E)</div></div><div class='respDivR'><div class='vertical-center'>(I)</div></div></div>","I","$46","$65","1","46","65","SURE"
"html-keyboard-response","33","67430","0.0-5.0-3.9","5bf0cb0411439b000168edda","bdp_rd","Mon Mar 27 2023 00:06:58 GMT-0400 (Eastern Daylight Time)","309975","","null","","","","offerFB","","<div class='trialBorder'><div class='vertical-center'><img style='vertical-align:center; align:center' src=img/fixation3.jpg></div><div class='cl'><div class='vertical-center'>$65<br>with a<br>50% chance</div></div><div class='cr'><div class='vertical-center'><font style='color:orange'>$46<br>for<br>sure</font></div></div><div class='respDivL'><div class='vertical-center'>(E)</div></div><div class='respDivR'><div class='vertical-center'><font style='color:orange'>(I)</font></div></div></div>","null","$46","$65","1","46","65",""
"html-keyboard-response","34","67931","0.0-5.0-1.10","5bf0cb0411439b000168edda","bdp_rd","Mon Mar 27 2023 00:06:58 GMT-0400 (Eastern Daylight Time)","309975","","null","","","","FIX","","<div class='trialBorder'><div class='vertical-center'><img style='vertical-align:center; align:center' src=img/fixation3.jpg></div></div>","null","","","","","",""
"html-keyboard-response","35","69570","0.0-5.0-2.10","5bf0cb0411439b000168edda","bdp_rd","Mon Mar 27 2023 00:06:58 GMT-0400 (Eastern Daylight Time)","309975","","1637","","","","offer","","<div class='trialBorder'><div class='vertical-center'><img style='vertical-align:center; align:center' src=img/fixation3.jpg></div><div class='cl'><div class='vertical-center'>$40<br>for<br>sure</div></div><div class='cr'><div class='vertical-center'>$95<br>with a<br>50% chance</div></div><div class='respDivL'><div class='vertical-center'>(E)</div></div><div class='respDivR'><div class='vertical-center'>(I)</div></div></div>","I","$40","$95","0","40","95","RISKY"
"html-keyboard-response","36","69821","0.0-5.0-3.10","5bf0cb0411439b000168edda","bdp_rd","Mon Mar 27 2023 00:06:58 GMT-0400 (Eastern Daylight Time)","309975","","null","","","","offerFB","","<div class='trialBorder'><div class='vertical-center'><img style='vertical-align:center; align:center' src=img/fixation3.jpg></div><div class='cl'><div class='vertical-center'>$40<br>for<br>sure</div></div><div class='cr'><div class='vertical-center'><font style='color:orange'>$95<br>with a<br>50% chance</font></div></div><div class='respDivL'><div class='vertical-center'>(E)</div></div><div class='respDivR'><div class='vertical-center'><font style='color:orange'>(I)</font></div></div></div>","null","$40","$95","0","40","95",""
"html-keyboard-response","37","70322","0.0-5.0-1.11","5bf0cb0411439b000168edda","bdp_rd","Mon Mar 27 2023 00:06:58 GMT-0400 (Eastern Daylight Time)","309975","","null","","","","FIX","","<div class='trialBorder'><div class='vertical-center'><img style='vertical-align:center; align:center' src=img/fixation3.jpg></div></div>","null","","","","","",""
"html-keyboard-response","38","72345","0.0-5.0-2.11","5bf0cb0411439b000168edda","bdp_rd","Mon Mar 27 2023 00:06:58 GMT-0400 (Eastern Daylight Time)","309975","","2023","","","","offer","","<div class='trialBorder'><div class='vertical-center'><img style='vertical-align:center; align:center' src=img/fixation3.jpg></div><div class='cl'><div class='vertical-center'>$32<br>with a<br>50% chance</div></div><div class='cr'><div class='vertical-center'>$9<br>for<br>sure</div></div><div class='respDivL'><div class='vertical-center'>(E)</div></div><div class='respDivR'><div class='vertical-center'>(I)</div></div></div>","E","$9","$32","1","9","32","RISKY"
"html-keyboard-response","39","72596","0.0-5.0-3.11","5bf0cb0411439b000168edda","bdp_rd","Mon Mar 27 2023 00:06:58 GMT-0400 (Eastern Daylight Time)","309975","","null","","","","offerFB","","<div class='trialBorder'><div class='vertical-center'><img style='vertical-align:center; align:center' src=img/fixation3.jpg></div><div class='cl'><div class='vertical-center'><font style='color:orange'>$32<br>with a<br>50% chance</font></div></div><div class='cr'><div class='vertical-center'>$9<br>for<br>sure</div></div><div class='respDivL'><div class='vertical-center'><font style='color:orange'>(E)</font></div></div><div class='respDivR'><div class='vertical-center'>(I)</div></div></div>","null","$9","$32","1","9","32",""
"html-keyboard-response","40","73097","0.0-5.0-1.12","5bf0cb0411439b000168edda","bdp_rd","Mon Mar 27 2023 00:06:58 GMT-0400 (Eastern Daylight Time)","309975","","null","","","","FIX","","<div class='trialBorder'><div class='vertical-center'><img style='vertical-align:center; align:center' src=img/fixation3.jpg></div></div>","null","","","","","",""
"html-keyboard-response","41","79313","0.0-5.0-2.12","5bf0cb0411439b000168edda","bdp_rd","Mon Mar 27 2023 00:06:58 GMT-0400 (Eastern Daylight Time)","309975","","6215","","","","offer","","<div class='trialBorder'><div class='vertical-center'><img style='vertical-align:center; align:center' src=img/fixation3.jpg></div><div class='cl'><div class='vertical-center'>$33<br>with a<br>50% chance</div></div><div class='cr'><div class='vertical-center'>$1<br>for<br>sure</div></div><div class='respDivL'><div class='vertical-center'>(E)</div></div><div class='respDivR'><div class='vertical-center'>(I)</div></div></div>","E","$1","$33","1","1","33","RISKY"
"html-keyboard-response","42","79565","0.0-5.0-3.12","5bf0cb0411439b000168edda","bdp_rd","Mon Mar 27 2023 00:06:58 GMT-0400 (Eastern Daylight Time)","309975","","null","","","","offerFB","","<div class='trialBorder'><div class='vertical-center'><img style='vertical-align:center; align:center' src=img/fixation3.jpg></div><div class='cl'><div class='vertical-center'><font style='color:orange'>$33<br>with a<br>50% chance</font></div></div><div class='cr'><div class='vertical-center'>$1<br>for<br>sure</div></div><div class='respDivL'><div class='vertical-center'><font style='color:orange'>(E)</font></div></div><div class='respDivR'><div class='vertical-center'>(I)</div></div></div>","null","$1","$33","1","1","33",""
"html-keyboard-response","43","80066","0.0-5.0-1.13","5bf0cb0411439b000168edda","bdp_rd","Mon Mar 27 2023 00:06:58 GMT-0400 (Eastern Daylight Time)","309975","","null","","","","FIX","","<div class='trialBorder'><div class='vertical-center'><img style='vertical-align:center; align:center' src=img/fixation3.jpg></div></div>","null","","","","","",""
"html-keyboard-response","44","80746","0.0-5.0-2.13","5bf0cb0411439b000168edda","bdp_rd","Mon Mar 27 2023 00:06:58 GMT-0400 (Eastern Daylight Time)","309975","","679","","","","offer","","<div class='trialBorder'><div class='vertical-center'><img style='vertical-align:center; align:center' src=img/fixation3.jpg></div><div class='cl'><div class='vertical-center'>$30<br>with a<br>50% chance</div></div><div class='cr'><div class='vertical-center'>$1<br>for<br>sure</div></div><div class='respDivL'><div class='vertical-center'>(E)</div></div><div class='respDivR'><div class='vertical-center'>(I)</div></div></div>","E","$1","$30","1","1","30","RISKY"
"html-keyboard-response","45","80997","0.0-5.0-3.13","5bf0cb0411439b000168edda","bdp_rd","Mon Mar 27 2023 00:06:58 GMT-0400 (Eastern Daylight Time)","309975","","null","","","","offerFB","","<div class='trialBorder'><div class='vertical-center'><img style='vertical-align:center; align:center' src=img/fixation3.jpg></div><div class='cl'><div class='vertical-center'><font style='color:orange'>$30<br>with a<br>50% chance</font></div></div><div class='cr'><div class='vertical-center'>$1<br>for<br>sure</div></div><div class='respDivL'><div class='vertical-center'><font style='color:orange'>(E)</font></div></div><div class='respDivR'><div class='vertical-center'>(I)</div></div></div>","null","$1","$30","1","1","30",""
"html-keyboard-response","46","81498","0.0-5.0-1.14","5bf0cb0411439b000168edda","bdp_rd","Mon Mar 27 2023 00:06:58 GMT-0400 (Eastern Daylight Time)","309975","","null","","","","FIX","","<div class='trialBorder'><div class='vertical-center'><img style='vertical-align:center; align:center' src=img/fixation3.jpg></div></div>","null","","","","","",""
"html-keyboard-response","47","83697","0.0-5.0-2.14","5bf0cb0411439b000168edda","bdp_rd","Mon Mar 27 2023 00:06:58 GMT-0400 (Eastern Daylight Time)","309975","","2198","","","","offer","","<div class='trialBorder'><div class='vertical-center'><img style='vertical-align:center; align:center' src=img/fixation3.jpg></div><div class='cl'><div class='vertical-center'>$39<br>for<br>sure</div></div><div class='cr'><div class='vertical-center'>$81<br>with a<br>50% chance</div></div><div class='respDivL'><div class='vertical-center'>(E)</div></div><div class='respDivR'><div class='vertical-center'>(I)</div></div></div>","I","$39","$81","0","39","81","RISKY"
"html-keyboard-response","48","83949","0.0-5.0-3.14","5bf0cb0411439b000168edda","bdp_rd","Mon Mar 27 2023 00:06:58 GMT-0400 (Eastern Daylight Time)","309975","","null","","","","offerFB","","<div class='trialBorder'><div class='vertical-center'><img style='vertical-align:center; align:center' src=img/fixation3.jpg></div><div class='cl'><div class='vertical-center'>$39<br>for<br>sure</div></div><div class='cr'><div class='vertical-center'><font style='color:orange'>$81<br>with a<br>50% chance</font></div></div><div class='respDivL'><div class='vertical-center'>(E)</div></div><div class='respDivR'><div class='vertical-center'><font style='color:orange'>(I)</font></div></div></div>","null","$39","$81","0","39","81",""
"html-keyboard-response","49","84451","0.0-5.0-1.15","5bf0cb0411439b000168edda","bdp_rd","Mon Mar 27 2023 00:06:58 GMT-0400 (Eastern Daylight Time)","309975","","null","","","","FIX","","<div class='trialBorder'><div class='vertical-center'><img style='vertical-align:center; align:center' src=img/fixation3.jpg></div></div>","null","","","","","",""
"html-keyboard-response","50","86089","0.0-5.0-2.15","5bf0cb0411439b000168edda","bdp_rd","Mon Mar 27 2023 00:06:58 GMT-0400 (Eastern Daylight Time)","309975","","1638","","","","offer","","<div class='trialBorder'><div class='vertical-center'><img style='vertical-align:center; align:center' src=img/fixation3.jpg></div><div class='cl'><div class='vertical-center'>$10<br>for<br>sure</div></div><div class='cr'><div class='vertical-center'>$40<br>with a<br>50% chance</div></div><div class='respDivL'><div class='vertical-center'>(E)</div></div><div class='respDivR'><div class='vertical-center'>(I)</div></div></div>","I","$10","$40","0","10","40","RISKY"
"html-keyboard-response","51","86341","0.0-5.0-3.15","5bf0cb0411439b000168edda","bdp_rd","Mon Mar 27 2023 00:06:58 GMT-0400 (Eastern Daylight Time)","309975","","null","","","","offerFB","","<div class='trialBorder'><div class='vertical-center'><img style='vertical-align:center; align:center' src=img/fixation3.jpg></div><div class='cl'><div class='vertical-center'>$10<br>for<br>sure</div></div><div class='cr'><div class='vertical-center'><font style='color:orange'>$40<br>with a<br>50% chance</font></div></div><div class='respDivL'><div class='vertical-center'>(E)</div></div><div class='respDivR'><div class='vertical-center'><font style='color:orange'>(I)</font></div></div></div>","null","$10","$40","0","10","40",""
"html-keyboard-response","52","86842","0.0-5.0-1.16","5bf0cb0411439b000168edda","bdp_rd","Mon Mar 27 2023 00:06:58 GMT-0400 (Eastern Daylight Time)","309975","","null","","","","FIX","","<div class='trialBorder'><div class='vertical-center'><img style='vertical-align:center; align:center' src=img/fixation3.jpg></div></div>","null","","","","","",""
"html-keyboard-response","53","104466","0.0-5.0-2.16","5bf0cb0411439b000168edda","bdp_rd","Mon Mar 27 2023 00:06:58 GMT-0400 (Eastern Daylight Time)","309975","","17623","","","","offer","","<div class='trialBorder'><div class='vertical-center'><img style='vertical-align:center; align:center' src=img/fixation3.jpg></div><div class='cl'><div class='vertical-center'>$98<br>with a<br>50% chance</div></div><div class='cr'><div class='vertical-center'>$53<br>for<br>sure</div></div><div class='respDivL'><div class='vertical-center'>(E)</div></div><div class='respDivR'><div class='vertical-center'>(I)</div></div></div>","E","$53","$98","1","53","98","RISKY"
"html-keyboard-response","54","104718","0.0-5.0-3.16","5bf0cb0411439b000168edda","bdp_rd","Mon Mar 27 2023 00:06:58 GMT-0400 (Eastern Daylight Time)","309975","","null","","","","offerFB","","<div class='trialBorder'><div class='vertical-center'><img style='vertical-align:center; align:center' src=img/fixation3.jpg></div><div class='cl'><div class='vertical-center'><font style='color:orange'>$98<br>with a<br>50% chance</font></div></div><div class='cr'><div class='vertical-center'>$53<br>for<br>sure</div></div><div class='respDivL'><div class='vertical-center'><font style='color:orange'>(E)</font></div></div><div class='respDivR'><div class='vertical-center'>(I)</div></div></div>","null","$53","$98","1","53","98",""
"html-keyboard-response","55","105219","0.0-5.0-1.17","5bf0cb0411439b000168edda","bdp_rd","Mon Mar 27 2023 00:06:58 GMT-0400 (Eastern Daylight Time)","309975","","null","","","","FIX","","<div class='trialBorder'><div class='vertical-center'><img style='vertical-align:center; align:center' src=img/fixation3.jpg></div></div>","null","","","","","",""
"html-keyboard-response","56","108170","0.0-5.0-2.17","5bf0cb0411439b000168edda","bdp_rd","Mon Mar 27 2023 00:06:58 GMT-0400 (Eastern Daylight Time)","309975","","2950","","","","offer","","<div class='trialBorder'><div class='vertical-center'><img style='vertical-align:center; align:center' src=img/fixation3.jpg></div><div class='cl'><div class='vertical-center'>$6<br>for<br>sure</div></div><div class='cr'><div class='vertical-center'>$15<br>with a<br>50% chance</div></div><div class='respDivL'><div class='vertical-center'>(E)</div></div><div class='respDivR'><div class='vertical-center'>(I)</div></div></div>","I","$6","$15","0","6","15","RISKY"
"html-keyboard-response","57","108421","0.0-5.0-3.17","5bf0cb0411439b000168edda","bdp_rd","Mon Mar 27 2023 00:06:58 GMT-0400 (Eastern Daylight Time)","309975","","null","","","","offerFB","","<div class='trialBorder'><div class='vertical-center'><img style='vertical-align:center; align:center' src=img/fixation3.jpg></div><div class='cl'><div class='vertical-center'>$6<br>for<br>sure</div></div><div class='cr'><div class='vertical-center'><font style='color:orange'>$15<br>with a<br>50% chance</font></div></div><div class='respDivL'><div class='vertical-center'>(E)</div></div><div class='respDivR'><div class='vertical-center'><font style='color:orange'>(I)</font></div></div></div>","null","$6","$15","0","6","15",""
"html-keyboard-response","58","108923","0.0-5.0-1.18","5bf0cb0411439b000168edda","bdp_rd","Mon Mar 27 2023 00:06:58 GMT-0400 (Eastern Daylight Time)","309975","","null","","","","FIX","","<div class='trialBorder'><div class='vertical-center'><img style='vertical-align:center; align:center' src=img/fixation3.jpg></div></div>","null","","","","","",""
"html-keyboard-response","59","114522","0.0-5.0-2.18","5bf0cb0411439b000168edda","bdp_rd","Mon Mar 27 2023 00:06:58 GMT-0400 (Eastern Daylight Time)","309975","","5598","","","","offer","","<div class='trialBorder'><div class='vertical-center'><img style='vertical-align:center; align:center' src=img/fixation3.jpg></div><div class='cl'><div class='vertical-center'>$92<br>with a<br>50% chance</div></div><div class='cr'><div class='vertical-center'>$26<br>for<br>sure</div></div><div class='respDivL'><div class='vertical-center'>(E)</div></div><div class='respDivR'><div class='vertical-center'>(I)</div></div></div>","E","$26","$92","1","26","92","RISKY"
"html-keyboard-response","60","114774","0.0-5.0-3.18","5bf0cb0411439b000168edda","bdp_rd","Mon Mar 27 2023 00:06:58 GMT-0400 (Eastern Daylight Time)","309975","","null","","","","offerFB","","<div class='trialBorder'><div class='vertical-center'><img style='vertical-align:center; align:center' src=img/fixation3.jpg></div><div class='cl'><div class='vertical-center'><font style='color:orange'>$92<br>with a<br>50% chance</font></div></div><div class='cr'><div class='vertical-center'>$26<br>for<br>sure</div></div><div class='respDivL'><div class='vertical-center'><font style='color:orange'>(E)</font></div></div><div class='respDivR'><div class='vertical-center'>(I)</div></div></div>","null","$26","$92","1","26","92",""
"html-keyboard-response","61","115276","0.0-5.0-1.19","5bf0cb0411439b000168edda","bdp_rd","Mon Mar 27 2023 00:06:58 GMT-0400 (Eastern Daylight Time)","309975","","null","","","","FIX","","<div class='trialBorder'><div class='vertical-center'><img style='vertical-align:center; align:center' src=img/fixation3.jpg></div></div>","null","","","","","",""
"html-keyboard-response","62","121641","0.0-5.0-2.19","5bf0cb0411439b000168edda","bdp_rd","Mon Mar 27 2023 00:06:58 GMT-0400 (Eastern Daylight Time)","309975","","6365","","","","offer","","<div class='trialBorder'><div class='vertical-center'><img style='vertical-align:center; align:center' src=img/fixation3.jpg></div><div class='cl'><div class='vertical-center'>$3<br>for<br>sure</div></div><div class='cr'><div class='vertical-center'>$12<br>with a<br>50% chance</div></div><div class='respDivL'><div class='vertical-center'>(E)</div></div><div class='respDivR'><div class='vertical-center'>(I)</div></div></div>","I","$3","$12","0","3","12","RISKY"
"html-keyboard-response","63","121892","0.0-5.0-3.19","5bf0cb0411439b000168edda","bdp_rd","Mon Mar 27 2023 00:06:58 GMT-0400 (Eastern Daylight Time)","309975","","null","","","","offerFB","","<div class='trialBorder'><div class='vertical-center'><img style='vertical-align:center; align:center' src=img/fixation3.jpg></div><div class='cl'><div class='vertical-center'>$3<br>for<br>sure</div></div><div class='cr'><div class='vertical-center'><font style='color:orange'>$12<br>with a<br>50% chance</font></div></div><div class='respDivL'><div class='vertical-center'>(E)</div></div><div class='respDivR'><div class='vertical-center'><font style='color:orange'>(I)</font></div></div></div>","null","$3","$12","0","3","12",""
"html-keyboard-response","64","122394","0.0-5.0-1.20","5bf0cb0411439b000168edda","bdp_rd","Mon Mar 27 2023 00:06:58 GMT-0400 (Eastern Daylight Time)","309975","","null","","","","FIX","","<div class='trialBorder'><div class='vertical-center'><img style='vertical-align:center; align:center' src=img/fixation3.jpg></div></div>","null","","","","","",""
"html-keyboard-response","65","126450","0.0-5.0-2.20","5bf0cb0411439b000168edda","bdp_rd","Mon Mar 27 2023 00:06:58 GMT-0400 (Eastern Daylight Time)","309975","","4055","","","","offer","","<div class='trialBorder'><div class='vertical-center'><img style='vertical-align:center; align:center' src=img/fixation3.jpg></div><div class='cl'><div class='vertical-center'>$43<br>with a<br>50% chance</div></div><div class='cr'><div class='vertical-center'>$17<br>for<br>sure</div></div><div class='respDivL'><div class='vertical-center'>(E)</div></div><div class='respDivR'><div class='vertical-center'>(I)</div></div></div>","E","$17","$43","1","17","43","RISKY"
"html-keyboard-response","66","126702","0.0-5.0-3.20","5bf0cb0411439b000168edda","bdp_rd","Mon Mar 27 2023 00:06:58 GMT-0400 (Eastern Daylight Time)","309975","","null","","","","offerFB","","<div class='trialBorder'><div class='vertical-center'><img style='vertical-align:center; align:center' src=img/fixation3.jpg></div><div class='cl'><div class='vertical-center'><font style='color:orange'>$43<br>with a<br>50% chance</font></div></div><div class='cr'><div class='vertical-center'>$17<br>for<br>sure</div></div><div class='respDivL'><div class='vertical-center'><font style='color:orange'>(E)</font></div></div><div class='respDivR'><div class='vertical-center'>(I)</div></div></div>","null","$17","$43","1","17","43",""
"html-keyboard-response","67","127204","0.0-5.0-1.21","5bf0cb0411439b000168edda","bdp_rd","Mon Mar 27 2023 00:06:58 GMT-0400 (Eastern Daylight Time)","309975","","null","","","","FIX","","<div class='trialBorder'><div class='vertical-center'><img style='vertical-align:center; align:center' src=img/fixation3.jpg></div></div>","null","","","","","",""
"html-keyboard-response","68","128314","0.0-5.0-2.21","5bf0cb0411439b000168edda","bdp_rd","Mon Mar 27 2023 00:06:58 GMT-0400 (Eastern Daylight Time)","309975","","1110","","","","offer","","<div class='trialBorder'><div class='vertical-center'><img style='vertical-align:center; align:center' src=img/fixation3.jpg></div><div class='cl'><div class='vertical-center'>$35<br>with a<br>50% chance</div></div><div class='cr'><div class='vertical-center'>$12<br>for<br>sure</div></div><div class='respDivL'><div class='vertical-center'>(E)</div></div><div class='respDivR'><div class='vertical-center'>(I)</div></div></div>","E","$12","$35","1","12","35","RISKY"
"html-keyboard-response","69","128565","0.0-5.0-3.21","5bf0cb0411439b000168edda","bdp_rd","Mon Mar 27 2023 00:06:58 GMT-0400 (Eastern Daylight Time)","309975","","null","","","","offerFB","","<div class='trialBorder'><div class='vertical-center'><img style='vertical-align:center; align:center' src=img/fixation3.jpg></div><div class='cl'><div class='vertical-center'><font style='color:orange'>$35<br>with a<br>50% chance</font></div></div><div class='cr'><div class='vertical-center'>$12<br>for<br>sure</div></div><div class='respDivL'><div class='vertical-center'><font style='color:orange'>(E)</font></div></div><div class='respDivR'><div class='vertical-center'>(I)</div></div></div>","null","$12","$35","1","12","35",""
"html-keyboard-response","70","129067","0.0-5.0-1.22","5bf0cb0411439b000168edda","bdp_rd","Mon Mar 27 2023 00:06:58 GMT-0400 (Eastern Daylight Time)","309975","","null","","","","FIX","","<div class='trialBorder'><div class='vertical-center'><img style='vertical-align:center; align:center' src=img/fixation3.jpg></div></div>","null","","","","","",""
"html-keyboard-response","71","130546","0.0-5.0-2.22","5bf0cb0411439b000168edda","bdp_rd","Mon Mar 27 2023 00:06:58 GMT-0400 (Eastern Daylight Time)","309975","","1478","","","","offer","","<div class='trialBorder'><div class='vertical-center'><img style='vertical-align:center; align:center' src=img/fixation3.jpg></div><div class='cl'><div class='vertical-center'>$63<br>for<br>sure</div></div><div class='cr'><div class='vertical-center'>$100<br>with a<br>50% chance</div></div><div class='respDivL'><div class='vertical-center'>(E)</div></div><div class='respDivR'><div class='vertical-center'>(I)</div></div></div>","I","$63","$100","0","63","10","RISKY"
"html-keyboard-response","72","130797","0.0-5.0-3.22","5bf0cb0411439b000168edda","bdp_rd","Mon Mar 27 2023 00:06:58 GMT-0400 (Eastern Daylight Time)","309975","","null","","","","offerFB","","<div class='trialBorder'><div class='vertical-center'><img style='vertical-align:center; align:center' src=img/fixation3.jpg></div><div class='cl'><div class='vertical-center'>$63<br>for<br>sure</div></div><div class='cr'><div class='vertical-center'><font style='color:orange'>$100<br>with a<br>50% chance</font></div></div><div class='respDivL'><div class='vertical-center'>(E)</div></div><div class='respDivR'><div class='vertical-center'><font style='color:orange'>(I)</font></div></div></div>","null","$63","$100","0","63","10",""
"html-keyboard-response","73","131298","0.0-5.0-1.23","5bf0cb0411439b000168edda","bdp_rd","Mon Mar 27 2023 00:06:58 GMT-0400 (Eastern Daylight Time)","309975","","null","","","","FIX","","<div class='trialBorder'><div class='vertical-center'><img style='vertical-align:center; align:center' src=img/fixation3.jpg></div></div>","null","","","","","",""
"html-keyboard-response","74","133081","0.0-5.0-2.23","5bf0cb0411439b000168edda","bdp_rd","Mon Mar 27 2023 00:06:58 GMT-0400 (Eastern Daylight Time)","309975","","1782","","","","offer","","<div class='trialBorder'><div class='vertical-center'><img style='vertical-align:center; align:center' src=img/fixation3.jpg></div><div class='cl'><div class='vertical-center'>$5<br>for<br>sure</div></div><div class='cr'><div class='vertical-center'>$50<br>with a<br>50% chance</div></div><div class='respDivL'><div class='vertical-center'>(E)</div></div><div class='respDivR'><div class='vertical-center'>(I)</div></div></div>","I","$5","$50","0","5","50","RISKY"
"html-keyboard-response","75","133332","0.0-5.0-3.23","5bf0cb0411439b000168edda","bdp_rd","Mon Mar 27 2023 00:06:58 GMT-0400 (Eastern Daylight Time)","309975","","null","","","","offerFB","","<div class='trialBorder'><div class='vertical-center'><img style='vertical-align:center; align:center' src=img/fixation3.jpg></div><div class='cl'><div class='vertical-center'>$5<br>for<br>sure</div></div><div class='cr'><div class='vertical-center'><font style='color:orange'>$50<br>with a<br>50% chance</font></div></div><div class='respDivL'><div class='vertical-center'>(E)</div></div><div class='respDivR'><div class='vertical-center'><font style='color:orange'>(I)</font></div></div></div>","null","$5","$50","0","5","50",""
"html-keyboard-response","76","133834","0.0-5.0-1.24","5bf0cb0411439b000168edda","bdp_rd","Mon Mar 27 2023 00:06:58 GMT-0400 (Eastern Daylight Time)","309975","","null","","","","FIX","","<div class='trialBorder'><div class='vertical-center'><img style='vertical-align:center; align:center' src=img/fixation3.jpg></div></div>","null","","","","","",""
"html-keyboard-response","77","134729","0.0-5.0-2.24","5bf0cb0411439b000168edda","bdp_rd","Mon Mar 27 2023 00:06:58 GMT-0400 (Eastern Daylight Time)","309975","","895","","","","offer","","<div class='trialBorder'><div class='vertical-center'><img style='vertical-align:center; align:center' src=img/fixation3.jpg></div><div class='cl'><div class='vertical-center'>$24<br>for<br>sure</div></div><div class='cr'><div class='vertical-center'>$70<br>with a<br>50% chance</div></div><div class='respDivL'><div class='vertical-center'>(E)</div></div><div class='respDivR'><div class='vertical-center'>(I)</div></div></div>","I","$24","$70","0","24","70","RISKY"
"html-keyboard-response","78","134981","0.0-5.0-3.24","5bf0cb0411439b000168edda","bdp_rd","Mon Mar 27 2023 00:06:58 GMT-0400 (Eastern Daylight Time)","309975","","null","","","","offerFB","","<div class='trialBorder'><div class='vertical-center'><img style='vertical-align:center; align:center' src=img/fixation3.jpg></div><div class='cl'><div class='vertical-center'>$24<br>for<br>sure</div></div><div class='cr'><div class='vertical-center'><font style='color:orange'>$70<br>with a<br>50% chance</font></div></div><div class='respDivL'><div class='vertical-center'>(E)</div></div><div class='respDivR'><div class='vertical-center'><font style='color:orange'>(I)</font></div></div></div>","null","$24","$70","0","24","70",""
"html-keyboard-response","79","135483","0.0-5.0-1.25","5bf0cb0411439b000168edda","bdp_rd","Mon Mar 27 2023 00:06:58 GMT-0400 (Eastern Daylight Time)","309975","","null","","","","FIX","","<div class='trialBorder'><div class='vertical-center'><img style='vertical-align:center; align:center' src=img/fixation3.jpg></div></div>","null","","","","","",""
"html-keyboard-response","80","137370","0.0-5.0-2.25","5bf0cb0411439b000168edda","bdp_rd","Mon Mar 27 2023 00:06:58 GMT-0400 (Eastern Daylight Time)","309975","","1886","","","","offer","","<div class='trialBorder'><div class='vertical-center'><img style='vertical-align:center; align:center' src=img/fixation3.jpg></div><div class='cl'><div class='vertical-center'>$46<br>with a<br>50% chance</div></div><div class='cr'><div class='vertical-center'>$29<br>for<br>sure</div></div><div class='respDivL'><div class='vertical-center'>(E)</div></div><div class='respDivR'><div class='vertical-center'>(I)</div></div></div>","I","$29","$46","1","29","46","SURE"
"html-keyboard-response","81","137622","0.0-5.0-3.25","5bf0cb0411439b000168edda","bdp_rd","Mon Mar 27 2023 00:06:58 GMT-0400 (Eastern Daylight Time)","309975","","null","","","","offerFB","","<div class='trialBorder'><div class='vertical-center'><img style='vertical-align:center; align:center' src=img/fixation3.jpg></div><div class='cl'><div class='vertical-center'>$46<br>with a<br>50% chance</div></div><div class='cr'><div class='vertical-center'><font style='color:orange'>$29<br>for<br>sure</font></div></div><div class='respDivL'><div class='vertical-center'>(E)</div></div><div class='respDivR'><div class='vertical-center'><font style='color:orange'>(I)</font></div></div></div>","null","$29","$46","1","29","46",""
"html-keyboard-response","82","138124","0.0-5.0-1.26","5bf0cb0411439b000168edda","bdp_rd","Mon Mar 27 2023 00:06:58 GMT-0400 (Eastern Daylight Time)","309975","","null","","","","FIX","","<div class='trialBorder'><div class='vertical-center'><img style='vertical-align:center; align:center' src=img/fixation3.jpg></div></div>","null","","","","","",""
"html-keyboard-response","83","140193","0.0-5.0-2.26","5bf0cb0411439b000168edda","bdp_rd","Mon Mar 27 2023 00:06:58 GMT-0400 (Eastern Daylight Time)","309975","","2069","","","","offer","","<div class='trialBorder'><div class='vertical-center'><img style='vertical-align:center; align:center' src=img/fixation3.jpg></div><div class='cl'><div class='vertical-center'>$31<br>for<br>sure</div></div><div class='cr'><div class='vertical-center'>$78<br>with a<br>50% chance</div></div><div class='respDivL'><div class='vertical-center'>(E)</div></div><div class='respDivR'><div class='vertical-center'>(I)</div></div></div>","I","$31","$78","0","31","78","RISKY"
"html-keyboard-response","84","140444","0.0-5.0-3.26","5bf0cb0411439b000168edda","bdp_rd","Mon Mar 27 2023 00:06:58 GMT-0400 (Eastern Daylight Time)","309975","","null","","","","offerFB","","<div class='trialBorder'><div class='vertical-center'><img style='vertical-align:center; align:center' src=img/fixation3.jpg></div><div class='cl'><div class='vertical-center'>$31<br>for<br>sure</div></div><div class='cr'><div class='vertical-center'><font style='color:orange'>$78<br>with a<br>50% chance</font></div></div><div class='respDivL'><div class='vertical-center'>(E)</div></div><div class='respDivR'><div class='vertical-center'><font style='color:orange'>(I)</font></div></div></div>","null","$31","$78","0","31","78",""
"html-keyboard-response","85","140945","0.0-5.0-1.27","5bf0cb0411439b000168edda","bdp_rd","Mon Mar 27 2023 00:06:58 GMT-0400 (Eastern Daylight Time)","309975","","null","","","","FIX","","<div class='trialBorder'><div class='vertical-center'><img style='vertical-align:center; align:center' src=img/fixation3.jpg></div></div>","null","","","","","",""
"html-keyboard-response","86","142922","0.0-5.0-2.27","5bf0cb0411439b000168edda","bdp_rd","Mon Mar 27 2023 00:06:58 GMT-0400 (Eastern Daylight Time)","309975","","1975","","","","offer","","<div class='trialBorder'><div class='vertical-center'><img style='vertical-align:center; align:center' src=img/fixation3.jpg></div><div class='cl'><div class='vertical-center'>$13<br>with a<br>50% chance</div></div><div class='cr'><div class='vertical-center'>$6<br>for<br>sure</div></div><div class='respDivL'><div class='vertical-center'>(E)</div></div><div class='respDivR'><div class='vertical-center'>(I)</div></div></div>","I","$6","$13","1","6","13","SURE"
"html-keyboard-response","87","143172","0.0-5.0-3.27","5bf0cb0411439b000168edda","bdp_rd","Mon Mar 27 2023 00:06:58 GMT-0400 (Eastern Daylight Time)","309975","","null","","","","offerFB","","<div class='trialBorder'><div class='vertical-center'><img style='vertical-align:center; align:center' src=img/fixation3.jpg></div><div class='cl'><div class='vertical-center'>$13<br>with a<br>50% chance</div></div><div class='cr'><div class='vertical-center'><font style='color:orange'>$6<br>for<br>sure</font></div></div><div class='respDivL'><div class='vertical-center'>(E)</div></div><div class='respDivR'><div class='vertical-center'><font style='color:orange'>(I)</font></div></div></div>","null","$6","$13","1","6","13",""
"html-keyboard-response","88","143674","0.0-5.0-1.28","5bf0cb0411439b000168edda","bdp_rd","Mon Mar 27 2023 00:06:58 GMT-0400 (Eastern Daylight Time)","309975","","null","","","","FIX","","<div class='trialBorder'><div class='vertical-center'><img style='vertical-align:center; align:center' src=img/fixation3.jpg></div></div>","null","","","","","",""
"html-keyboard-response","89","144994","0.0-5.0-2.28","5bf0cb0411439b000168edda","bdp_rd","Mon Mar 27 2023 00:06:58 GMT-0400 (Eastern Daylight Time)","309975","","1318","","","","offer","","<div class='trialBorder'><div class='vertical-center'><img style='vertical-align:center; align:center' src=img/fixation3.jpg></div><div class='cl'><div class='vertical-center'>$21<br>with a<br>50% chance</div></div><div class='cr'><div class='vertical-center'>$2<br>for<br>sure</div></div><div class='respDivL'><div class='vertical-center'>(E)</div></div><div class='respDivR'><div class='vertical-center'>(I)</div></div></div>","E","$2","$21","1","2","21","RISKY"
"html-keyboard-response","90","145245","0.0-5.0-3.28","5bf0cb0411439b000168edda","bdp_rd","Mon Mar 27 2023 00:06:58 GMT-0400 (Eastern Daylight Time)","309975","","null","","","","offerFB","","<div class='trialBorder'><div class='vertical-center'><img style='vertical-align:center; align:center' src=img/fixation3.jpg></div><div class='cl'><div class='vertical-center'><font style='color:orange'>$21<br>with a<br>50% chance</font></div></div><div class='cr'><div class='vertical-center'>$2<br>for<br>sure</div></div><div class='respDivL'><div class='vertical-center'><font style='color:orange'>(E)</font></div></div><div class='respDivR'><div class='vertical-center'>(I)</div></div></div>","null","$2","$21","1","2","21",""
"html-keyboard-response","91","145746","0.0-5.0-1.29","5bf0cb0411439b000168edda","bdp_rd","Mon Mar 27 2023 00:06:58 GMT-0400 (Eastern Daylight Time)","309975","","null","","","","FIX","","<div class='trialBorder'><div class='vertical-center'><img style='vertical-align:center; align:center' src=img/fixation3.jpg></div></div>","null","","","","","",""
"html-keyboard-response","92","147690","0.0-5.0-2.29","5bf0cb0411439b000168edda","bdp_rd","Mon Mar 27 2023 00:06:58 GMT-0400 (Eastern Daylight Time)","309975","","1943","","","","offer","","<div class='trialBorder'><div class='vertical-center'><img style='vertical-align:center; align:center' src=img/fixation3.jpg></div><div class='cl'><div class='vertical-center'>$10<br>for<br>sure</div></div><div class='cr'><div class='vertical-center'>$19<br>with a<br>50% chance</div></div><div class='respDivL'><div class='vertical-center'>(E)</div></div><div class='respDivR'><div class='vertical-center'>(I)</div></div></div>","E","$10","$19","0","10","19","SURE"
"html-keyboard-response","93","147941","0.0-5.0-3.29","5bf0cb0411439b000168edda","bdp_rd","Mon Mar 27 2023 00:06:58 GMT-0400 (Eastern Daylight Time)","309975","","null","","","","offerFB","","<div class='trialBorder'><div class='vertical-center'><img style='vertical-align:center; align:center' src=img/fixation3.jpg></div><div class='cl'><div class='vertical-center'><font style='color:orange'>$10<br>for<br>sure</font></div></div><div class='cr'><div class='vertical-center'>$19<br>with a<br>50% chance</div></div><div class='respDivL'><div class='vertical-center'><font style='color:orange'>(E)</font></div></div><div class='respDivR'><div class='vertical-center'>(I)</div></div></div>","null","$10","$19","0","10","19",""
"html-keyboard-response","94","148443","0.0-5.0-1.30","5bf0cb0411439b000168edda","bdp_rd","Mon Mar 27 2023 00:06:58 GMT-0400 (Eastern Daylight Time)","309975","","null","","","","FIX","","<div class='trialBorder'><div class='vertical-center'><img style='vertical-align:center; align:center' src=img/fixation3.jpg></div></div>","null","","","","","",""
"html-keyboard-response","95","149930","0.0-5.0-2.30","5bf0cb0411439b000168edda","bdp_rd","Mon Mar 27 2023 00:06:58 GMT-0400 (Eastern Daylight Time)","309975","","1485","","","","offer","","<div class='trialBorder'><div class='vertical-center'><img style='vertical-align:center; align:center' src=img/fixation3.jpg></div><div class='cl'><div class='vertical-center'>$28<br>with a<br>50% chance</div></div><div class='cr'><div class='vertical-center'>$16<br>for<br>sure</div></div><div class='respDivL'><div class='vertical-center'>(E)</div></div><div class='respDivR'><div class='vertical-center'>(I)</div></div></div>","I","$16","$28","1","16","28","SURE"
"html-keyboard-response","96","150181","0.0-5.0-3.30","5bf0cb0411439b000168edda","bdp_rd","Mon Mar 27 2023 00:06:58 GMT-0400 (Eastern Daylight Time)","309975","","null","","","","offerFB","","<div class='trialBorder'><div class='vertical-center'><img style='vertical-align:center; align:center' src=img/fixation3.jpg></div><div class='cl'><div class='vertical-center'>$28<br>with a<br>50% chance</div></div><div class='cr'><div class='vertical-center'><font style='color:orange'>$16<br>for<br>sure</font></div></div><div class='respDivL'><div class='vertical-center'>(E)</div></div><div class='respDivR'><div class='vertical-center'><font style='color:orange'>(I)</font></div></div></div>","null","$16","$28","1","16","28",""
"html-keyboard-response","97","150681","0.0-5.0-1.31","5bf0cb0411439b000168edda","bdp_rd","Mon Mar 27 2023 00:06:58 GMT-0400 (Eastern Daylight Time)","309975","","null","","","","FIX","","<div class='trialBorder'><div class='vertical-center'><img style='vertical-align:center; align:center' src=img/fixation3.jpg></div></div>","null","","","","","",""
"html-keyboard-response","98","152930","0.0-5.0-2.31","5bf0cb0411439b000168edda","bdp_rd","Mon Mar 27 2023 00:06:58 GMT-0400 (Eastern Daylight Time)","309975","","2248","","","","offer","","<div class='trialBorder'><div class='vertical-center'><img style='vertical-align:center; align:center' src=img/fixation3.jpg></div><div class='cl'><div class='vertical-center'>$37<br>for<br>sure</div></div><div class='cr'><div class='vertical-center'>$44<br>with a<br>50% chance</div></div><div class='respDivL'><div class='vertical-center'>(E)</div></div><div class='respDivR'><div class='vertical-center'>(I)</div></div></div>","E","$37","$44","0","37","44","SURE"
"html-keyboard-response","99","153181","0.0-5.0-3.31","5bf0cb0411439b000168edda","bdp_rd","Mon Mar 27 2023 00:06:58 GMT-0400 (Eastern Daylight Time)","309975","","null","","","","offerFB","","<div class='trialBorder'><div class='vertical-center'><img style='vertical-align:center; align:center' src=img/fixation3.jpg></div><div class='cl'><div class='vertical-center'><font style='color:orange'>$37<br>for<br>sure</font></div></div><div class='cr'><div class='vertical-center'>$44<br>with a<br>50% chance</div></div><div class='respDivL'><div class='vertical-center'><font style='color:orange'>(E)</font></div></div><div class='respDivR'><div class='vertical-center'>(I)</div></div></div>","null","$37","$44","0","37","44",""
"html-keyboard-response","100","153683","0.0-5.0-1.32","5bf0cb0411439b000168edda","bdp_rd","Mon Mar 27 2023 00:06:58 GMT-0400 (Eastern Daylight Time)","309975","","null","","","","FIX","","<div class='trialBorder'><div class='vertical-center'><img style='vertical-align:center; align:center' src=img/fixation3.jpg></div></div>","null","","","","","",""
"html-keyboard-response","101","155770","0.0-5.0-2.32","5bf0cb0411439b000168edda","bdp_rd","Mon Mar 27 2023 00:06:58 GMT-0400 (Eastern Daylight Time)","309975","","2087","","","","offer","","<div class='trialBorder'><div class='vertical-center'><img style='vertical-align:center; align:center' src=img/fixation3.jpg></div><div class='cl'><div class='vertical-center'>$11<br>with a<br>50% chance</div></div><div class='cr'><div class='vertical-center'>$4<br>for<br>sure</div></div><div class='respDivL'><div class='vertical-center'>(E)</div></div><div class='respDivR'><div class='vertical-center'>(I)</div></div></div>","I","$4","$11","1","4","11","SURE"
"html-keyboard-response","102","156021","0.0-5.0-3.32","5bf0cb0411439b000168edda","bdp_rd","Mon Mar 27 2023 00:06:58 GMT-0400 (Eastern Daylight Time)","309975","","null","","","","offerFB","","<div class='trialBorder'><div class='vertical-center'><img style='vertical-align:center; align:center' src=img/fixation3.jpg></div><div class='cl'><div class='vertical-center'>$11<br>with a<br>50% chance</div></div><div class='cr'><div class='vertical-center'><font style='color:orange'>$4<br>for<br>sure</font></div></div><div class='respDivL'><div class='vertical-center'>(E)</div></div><div class='respDivR'><div class='vertical-center'><font style='color:orange'>(I)</font></div></div></div>","null","$4","$11","1","4","11",""
"html-keyboard-response","103","156522","0.0-5.0-1.33","5bf0cb0411439b000168edda","bdp_rd","Mon Mar 27 2023 00:06:58 GMT-0400 (Eastern Daylight Time)","309975","","null","","","","FIX","","<div class='trialBorder'><div class='vertical-center'><img style='vertical-align:center; align:center' src=img/fixation3.jpg></div></div>","null","","","","","",""
"html-keyboard-response","104","158106","0.0-5.0-2.33","5bf0cb0411439b000168edda","bdp_rd","Mon Mar 27 2023 00:06:58 GMT-0400 (Eastern Daylight Time)","309975","","1583","","","","offer","","<div class='trialBorder'><div class='vertical-center'><img style='vertical-align:center; align:center' src=img/fixation3.jpg></div><div class='cl'><div class='vertical-center'>$9<br>for<br>sure</div></div><div class='cr'><div class='vertical-center'>$18<br>with a<br>50% chance</div></div><div class='respDivL'><div class='vertical-center'>(E)</div></div><div class='respDivR'><div class='vertical-center'>(I)</div></div></div>","I","$9","$18","0","9","18","RISKY"
"html-keyboard-response","105","158357","0.0-5.0-3.33","5bf0cb0411439b000168edda","bdp_rd","Mon Mar 27 2023 00:06:58 GMT-0400 (Eastern Daylight Time)","309975","","null","","","","offerFB","","<div class='trialBorder'><div class='vertical-center'><img style='vertical-align:center; align:center' src=img/fixation3.jpg></div><div class='cl'><div class='vertical-center'>$9<br>for<br>sure</div></div><div class='cr'><div class='vertical-center'><font style='color:orange'>$18<br>with a<br>50% chance</font></div></div><div class='respDivL'><div class='vertical-center'>(E)</div></div><div class='respDivR'><div class='vertical-center'><font style='color:orange'>(I)</font></div></div></div>","null","$9","$18","0","9","18",""
"html-keyboard-response","106","158859","0.0-5.0-1.34","5bf0cb0411439b000168edda","bdp_rd","Mon Mar 27 2023 00:06:58 GMT-0400 (Eastern Daylight Time)","309975","","null","","","","FIX","","<div class='trialBorder'><div class='vertical-center'><img style='vertical-align:center; align:center' src=img/fixation3.jpg></div></div>","null","","","","","",""
"html-keyboard-response","107","161649","0.0-5.0-2.34","5bf0cb0411439b000168edda","bdp_rd","Mon Mar 27 2023 00:06:58 GMT-0400 (Eastern Daylight Time)","309975","","2790","","","","offer","","<div class='trialBorder'><div class='vertical-center'><img style='vertical-align:center; align:center' src=img/fixation3.jpg></div><div class='cl'><div class='vertical-center'>$13<br>for<br>sure</div></div><div class='cr'><div class='vertical-center'>$24<br>with a<br>50% chance</div></div><div class='respDivL'><div class='vertical-center'>(E)</div></div><div class='respDivR'><div class='vertical-center'>(I)</div></div></div>","E","$13","$24","0","13","24","SURE"
"html-keyboard-response","108","161900","0.0-5.0-3.34","5bf0cb0411439b000168edda","bdp_rd","Mon Mar 27 2023 00:06:58 GMT-0400 (Eastern Daylight Time)","309975","","null","","","","offerFB","","<div class='trialBorder'><div class='vertical-center'><img style='vertical-align:center; align:center' src=img/fixation3.jpg></div><div class='cl'><div class='vertical-center'><font style='color:orange'>$13<br>for<br>sure</font></div></div><div class='cr'><div class='vertical-center'>$24<br>with a<br>50% chance</div></div><div class='respDivL'><div class='vertical-center'><font style='color:orange'>(E)</font></div></div><div class='respDivR'><div class='vertical-center'>(I)</div></div></div>","null","$13","$24","0","13","24",""
"html-keyboard-response","109","162402","0.0-5.0-1.35","5bf0cb0411439b000168edda","bdp_rd","Mon Mar 27 2023 00:06:58 GMT-0400 (Eastern Daylight Time)","309975","","null","","","","FIX","","<div class='trialBorder'><div class='vertical-center'><img style='vertical-align:center; align:center' src=img/fixation3.jpg></div></div>","null","","","","","",""
"html-keyboard-response","110","163745","0.0-5.0-2.35","5bf0cb0411439b000168edda","bdp_rd","Mon Mar 27 2023 00:06:58 GMT-0400 (Eastern Daylight Time)","309975","","1343","","","","offer","","<div class='trialBorder'><div class='vertical-center'><img style='vertical-align:center; align:center' src=img/fixation3.jpg></div><div class='cl'><div class='vertical-center'>$15<br>for<br>sure</div></div><div class='cr'><div class='vertical-center'>$34<br>with a<br>50% chance</div></div><div class='respDivL'><div class='vertical-center'>(E)</div></div><div class='respDivR'><div class='vertical-center'>(I)</div></div></div>","I","$15","$34","0","15","34","RISKY"
"html-keyboard-response","111","163997","0.0-5.0-3.35","5bf0cb0411439b000168edda","bdp_rd","Mon Mar 27 2023 00:06:58 GMT-0400 (Eastern Daylight Time)","309975","","null","","","","offerFB","","<div class='trialBorder'><div class='vertical-center'><img style='vertical-align:center; align:center' src=img/fixation3.jpg></div><div class='cl'><div class='vertical-center'>$15<br>for<br>sure</div></div><div class='cr'><div class='vertical-center'><font style='color:orange'>$34<br>with a<br>50% chance</font></div></div><div class='respDivL'><div class='vertical-center'>(E)</div></div><div class='respDivR'><div class='vertical-center'><font style='color:orange'>(I)</font></div></div></div>","null","$15","$34","0","15","34",""
"html-keyboard-response","112","164499","0.0-5.0-1.36","5bf0cb0411439b000168edda","bdp_rd","Mon Mar 27 2023 00:06:58 GMT-0400 (Eastern Daylight Time)","309975","","null","","","","FIX","","<div class='trialBorder'><div class='vertical-center'><img style='vertical-align:center; align:center' src=img/fixation3.jpg></div></div>","null","","","","","",""
"html-keyboard-response","113","166841","0.0-5.0-2.36","5bf0cb0411439b000168edda","bdp_rd","Mon Mar 27 2023 00:06:58 GMT-0400 (Eastern Daylight Time)","309975","","2341","","","","offer","","<div class='trialBorder'><div class='vertical-center'><img style='vertical-align:center; align:center' src=img/fixation3.jpg></div><div class='cl'><div class='vertical-center'>$47<br>with a<br>50% chance</div></div><div class='cr'><div class='vertical-center'>$27<br>for<br>sure</div></div><div class='respDivL'><div class='vertical-center'>(E)</div></div><div class='respDivR'><div class='vertical-center'>(I)</div></div></div>","I","$27","$47","1","27","47","SURE"
"html-keyboard-response","114","167093","0.0-5.0-3.36","5bf0cb0411439b000168edda","bdp_rd","Mon Mar 27 2023 00:06:58 GMT-0400 (Eastern Daylight Time)","309975","","null","","","","offerFB","","<div class='trialBorder'><div class='vertical-center'><img style='vertical-align:center; align:center' src=img/fixation3.jpg></div><div class='cl'><div class='vertical-center'>$47<br>with a<br>50% chance</div></div><div class='cr'><div class='vertical-center'><font style='color:orange'>$27<br>for<br>sure</font></div></div><div class='respDivL'><div class='vertical-center'>(E)</div></div><div class='respDivR'><div class='vertical-center'><font style='color:orange'>(I)</font></div></div></div>","null","$27","$47","1","27","47",""
"html-keyboard-response","115","167595","0.0-5.0-1.37","5bf0cb0411439b000168edda","bdp_rd","Mon Mar 27 2023 00:06:58 GMT-0400 (Eastern Daylight Time)","309975","","null","","","","FIX","","<div class='trialBorder'><div class='vertical-center'><img style='vertical-align:center; align:center' src=img/fixation3.jpg></div></div>","null","","","","","",""
"html-keyboard-response","116","169202","0.0-5.0-2.37","5bf0cb0411439b000168edda","bdp_rd","Mon Mar 27 2023 00:06:58 GMT-0400 (Eastern Daylight Time)","309975","","1605","","","","offer","","<div class='trialBorder'><div class='vertical-center'><img style='vertical-align:center; align:center' src=img/fixation3.jpg></div><div class='cl'><div class='vertical-center'>$22<br>with a<br>50% chance</div></div><div class='cr'><div class='vertical-center'>$14<br>for<br>sure</div></div><div class='respDivL'><div class='vertical-center'>(E)</div></div><div class='respDivR'><div class='vertical-center'>(I)</div></div></div>","I","$14","$22","1","14","22","SURE"
"html-keyboard-response","117","169452","0.0-5.0-3.37","5bf0cb0411439b000168edda","bdp_rd","Mon Mar 27 2023 00:06:58 GMT-0400 (Eastern Daylight Time)","309975","","null","","","","offerFB","","<div class='trialBorder'><div class='vertical-center'><img style='vertical-align:center; align:center' src=img/fixation3.jpg></div><div class='cl'><div class='vertical-center'>$22<br>with a<br>50% chance</div></div><div class='cr'><div class='vertical-center'><font style='color:orange'>$14<br>for<br>sure</font></div></div><div class='respDivL'><div class='vertical-center'>(E)</div></div><div class='respDivR'><div class='vertical-center'><font style='color:orange'>(I)</font></div></div></div>","null","$14","$22","1","14","22",""
"html-keyboard-response","118","169954","0.0-5.0-1.38","5bf0cb0411439b000168edda","bdp_rd","Mon Mar 27 2023 00:06:58 GMT-0400 (Eastern Daylight Time)","309975","","null","","","","FIX","","<div class='trialBorder'><div class='vertical-center'><img style='vertical-align:center; align:center' src=img/fixation3.jpg></div></div>","null","","","","","",""
"html-keyboard-response","119","171105","0.0-5.0-2.38","5bf0cb0411439b000168edda","bdp_rd","Mon Mar 27 2023 00:06:58 GMT-0400 (Eastern Daylight Time)","309975","","1151","","","","offer","","<div class='trialBorder'><div class='vertical-center'><img style='vertical-align:center; align:center' src=img/fixation3.jpg></div><div class='cl'><div class='vertical-center'>$69<br>with a<br>50% chance</div></div><div class='cr'><div class='vertical-center'>$58<br>for<br>sure</div></div><div class='respDivL'><div class='vertical-center'>(E)</div></div><div class='respDivR'><div class='vertical-center'>(I)</div></div></div>","I","$58","$69","1","58","69","SURE"
"html-keyboard-response","120","171357","0.0-5.0-3.38","5bf0cb0411439b000168edda","bdp_rd","Mon Mar 27 2023 00:06:58 GMT-0400 (Eastern Daylight Time)","309975","","null","","","","offerFB","","<div class='trialBorder'><div class='vertical-center'><img style='vertical-align:center; align:center' src=img/fixation3.jpg></div><div class='cl'><div class='vertical-center'>$69<br>with a<br>50% chance</div></div><div class='cr'><div class='vertical-center'><font style='color:orange'>$58<br>for<br>sure</font></div></div><div class='respDivL'><div class='vertical-center'>(E)</div></div><div class='respDivR'><div class='vertical-center'><font style='color:orange'>(I)</font></div></div></div>","null","$58","$69","1","58","69",""
"html-keyboard-response","121","171860","0.0-5.0-1.39","5bf0cb0411439b000168edda","bdp_rd","Mon Mar 27 2023 00:06:58 GMT-0400 (Eastern Daylight Time)","309975","","null","","","","FIX","","<div class='trialBorder'><div class='vertical-center'><img style='vertical-align:center; align:center' src=img/fixation3.jpg></div></div>","null","","","","","",""
"html-keyboard-response","122","173609","0.0-5.0-2.39","5bf0cb0411439b000168edda","bdp_rd","Mon Mar 27 2023 00:06:58 GMT-0400 (Eastern Daylight Time)","309975","","1749","","","","offer","","<div class='trialBorder'><div class='vertical-center'><img style='vertical-align:center; align:center' src=img/fixation3.jpg></div><div class='cl'><div class='vertical-center'>$20<br>for<br>sure</div></div><div class='cr'><div class='vertical-center'>$80<br>with a<br>50% chance</div></div><div class='respDivL'><div class='vertical-center'>(E)</div></div><div class='respDivR'><div class='vertical-center'>(I)</div></div></div>","I","$20","$80","0","20","80","RISKY"
"html-keyboard-response","123","173861","0.0-5.0-3.39","5bf0cb0411439b000168edda","bdp_rd","Mon Mar 27 2023 00:06:58 GMT-0400 (Eastern Daylight Time)","309975","","null","","","","offerFB","","<div class='trialBorder'><div class='vertical-center'><img style='vertical-align:center; align:center' src=img/fixation3.jpg></div><div class='cl'><div class='vertical-center'>$20<br>for<br>sure</div></div><div class='cr'><div class='vertical-center'><font style='color:orange'>$80<br>with a<br>50% chance</font></div></div><div class='respDivL'><div class='vertical-center'>(E)</div></div><div class='respDivR'><div class='vertical-center'><font style='color:orange'>(I)</font></div></div></div>","null","$20","$80","0","20","80",""
"html-keyboard-response","124","174362","0.0-5.0-1.40","5bf0cb0411439b000168edda","bdp_rd","Mon Mar 27 2023 00:06:58 GMT-0400 (Eastern Daylight Time)","309975","","null","","","","FIX","","<div class='trialBorder'><div class='vertical-center'><img style='vertical-align:center; align:center' src=img/fixation3.jpg></div></div>","null","","","","","",""
"html-keyboard-response","125","175529","0.0-5.0-2.40","5bf0cb0411439b000168edda","bdp_rd","Mon Mar 27 2023 00:06:58 GMT-0400 (Eastern Daylight Time)","309975","","1166","","","","offer","","<div class='trialBorder'><div class='vertical-center'><img style='vertical-align:center; align:center' src=img/fixation3.jpg></div><div class='cl'><div class='vertical-center'>$38<br>with a<br>50% chance</div></div><div class='cr'><div class='vertical-center'>$16<br>for<br>sure</div></div><div class='respDivL'><div class='vertical-center'>(E)</div></div><div class='respDivR'><div class='vertical-center'>(I)</div></div></div>","E","$16","$38","1","16","38","RISKY"
"html-keyboard-response","126","175781","0.0-5.0-3.40","5bf0cb0411439b000168edda","bdp_rd","Mon Mar 27 2023 00:06:58 GMT-0400 (Eastern Daylight Time)","309975","","null","","","","offerFB","","<div class='trialBorder'><div class='vertical-center'><img style='vertical-align:center; align:center' src=img/fixation3.jpg></div><div class='cl'><div class='vertical-center'><font style='color:orange'>$38<br>with a<br>50% chance</font></div></div><div class='cr'><div class='vertical-center'>$16<br>for<br>sure</div></div><div class='respDivL'><div class='vertical-center'><font style='color:orange'>(E)</font></div></div><div class='respDivR'><div class='vertical-center'>(I)</div></div></div>","null","$16","$38","1","16","38",""
"html-keyboard-response","127","176282","0.0-5.0-1.41","5bf0cb0411439b000168edda","bdp_rd","Mon Mar 27 2023 00:06:58 GMT-0400 (Eastern Daylight Time)","309975","","null","","","","FIX","","<div class='trialBorder'><div class='vertical-center'><img style='vertical-align:center; align:center' src=img/fixation3.jpg></div></div>","null","","","","","",""
"html-keyboard-response","128","177913","0.0-5.0-2.41","5bf0cb0411439b000168edda","bdp_rd","Mon Mar 27 2023 00:06:58 GMT-0400 (Eastern Daylight Time)","309975","","1631","","","","offer","","<div class='trialBorder'><div class='vertical-center'><img style='vertical-align:center; align:center' src=img/fixation3.jpg></div><div class='cl'><div class='vertical-center'>$10<br>with a<br>50% chance</div></div><div class='cr'><div class='vertical-center'>$7<br>for<br>sure</div></div><div class='respDivL'><div class='vertical-center'>(E)</div></div><div class='respDivR'><div class='vertical-center'>(I)</div></div></div>","I","$7","$10","1","7","10","SURE"
"html-keyboard-response","129","178165","0.0-5.0-3.41","5bf0cb0411439b000168edda","bdp_rd","Mon Mar 27 2023 00:06:58 GMT-0400 (Eastern Daylight Time)","309975","","null","","","","offerFB","","<div class='trialBorder'><div class='vertical-center'><img style='vertical-align:center; align:center' src=img/fixation3.jpg></div><div class='cl'><div class='vertical-center'>$10<br>with a<br>50% chance</div></div><div class='cr'><div class='vertical-center'><font style='color:orange'>$7<br>for<br>sure</font></div></div><div class='respDivL'><div class='vertical-center'>(E)</div></div><div class='respDivR'><div class='vertical-center'><font style='color:orange'>(I)</font></div></div></div>","null","$7","$10","1","7","10",""
"html-keyboard-response","130","178666","0.0-5.0-1.42","5bf0cb0411439b000168edda","bdp_rd","Mon Mar 27 2023 00:06:58 GMT-0400 (Eastern Daylight Time)","309975","","null","","","","FIX","","<div class='trialBorder'><div class='vertical-center'><img style='vertical-align:center; align:center' src=img/fixation3.jpg></div></div>","null","","","","","",""
"html-keyboard-response","131","179986","0.0-5.0-2.42","5bf0cb0411439b000168edda","bdp_rd","Mon Mar 27 2023 00:06:58 GMT-0400 (Eastern Daylight Time)","309975","","1319","","","","offer","","<div class='trialBorder'><div class='vertical-center'><img style='vertical-align:center; align:center' src=img/fixation3.jpg></div><div class='cl'><div class='vertical-center'>$48<br>with a<br>50% chance</div></div><div class='cr'><div class='vertical-center'>$34<br>for<br>sure</div></div><div class='respDivL'><div class='vertical-center'>(E)</div></div><div class='respDivR'><div class='vertical-center'>(I)</div></div></div>","I","$34","$48","1","34","48","SURE"
"html-keyboard-response","132","180237","0.0-5.0-3.42","5bf0cb0411439b000168edda","bdp_rd","Mon Mar 27 2023 00:06:58 GMT-0400 (Eastern Daylight Time)","309975","","null","","","","offerFB","","<div class='trialBorder'><div class='vertical-center'><img style='vertical-align:center; align:center' src=img/fixation3.jpg></div><div class='cl'><div class='vertical-center'>$48<br>with a<br>50% chance</div></div><div class='cr'><div class='vertical-center'><font style='color:orange'>$34<br>for<br>sure</font></div></div><div class='respDivL'><div class='vertical-center'>(E)</div></div><div class='respDivR'><div class='vertical-center'><font style='color:orange'>(I)</font></div></div></div>","null","$34","$48","1","34","48",""
"html-keyboard-response","133","180739","0.0-5.0-1.43","5bf0cb0411439b000168edda","bdp_rd","Mon Mar 27 2023 00:06:58 GMT-0400 (Eastern Daylight Time)","309975","","null","","","","FIX","","<div class='trialBorder'><div class='vertical-center'><img style='vertical-align:center; align:center' src=img/fixation3.jpg></div></div>","null","","","","","",""
"html-keyboard-response","134","182169","0.0-5.0-2.43","5bf0cb0411439b000168edda","bdp_rd","Mon Mar 27 2023 00:06:58 GMT-0400 (Eastern Daylight Time)","309975","","1429","","","","offer","","<div class='trialBorder'><div class='vertical-center'><img style='vertical-align:center; align:center' src=img/fixation3.jpg></div><div class='cl'><div class='vertical-center'>$23<br>with a<br>50% chance</div></div><div class='cr'><div class='vertical-center'>$8<br>for<br>sure</div></div><div class='respDivL'><div class='vertical-center'>(E)</div></div><div class='respDivR'><div class='vertical-center'>(I)</div></div></div>","E","$8","$23","1","8","23","RISKY"
"html-keyboard-response","135","182421","0.0-5.0-3.43","5bf0cb0411439b000168edda","bdp_rd","Mon Mar 27 2023 00:06:58 GMT-0400 (Eastern Daylight Time)","309975","","null","","","","offerFB","","<div class='trialBorder'><div class='vertical-center'><img style='vertical-align:center; align:center' src=img/fixation3.jpg></div><div class='cl'><div class='vertical-center'><font style='color:orange'>$23<br>with a<br>50% chance</font></div></div><div class='cr'><div class='vertical-center'>$8<br>for<br>sure</div></div><div class='respDivL'><div class='vertical-center'><font style='color:orange'>(E)</font></div></div><div class='respDivR'><div class='vertical-center'>(I)</div></div></div>","null","$8","$23","1","8","23",""
"html-keyboard-response","136","182923","0.0-5.0-1.44","5bf0cb0411439b000168edda","bdp_rd","Mon Mar 27 2023 00:06:58 GMT-0400 (Eastern Daylight Time)","309975","","null","","","","FIX","","<div class='trialBorder'><div class='vertical-center'><img style='vertical-align:center; align:center' src=img/fixation3.jpg></div></div>","null","","","","","",""
"html-keyboard-response","137","186612","0.0-5.0-2.44","5bf0cb0411439b000168edda","bdp_rd","Mon Mar 27 2023 00:06:58 GMT-0400 (Eastern Daylight Time)","309975","","3689","","","","offer","","<div class='trialBorder'><div class='vertical-center'><img style='vertical-align:center; align:center' src=img/fixation3.jpg></div><div class='cl'><div class='vertical-center'>$2<br>for<br>sure</div></div><div class='cr'><div class='vertical-center'>$64<br>with a<br>50% chance</div></div><div class='respDivL'><div class='vertical-center'>(E)</div></div><div class='respDivR'><div class='vertical-center'>(I)</div></div></div>","I","$2","$64","0","2","64","RISKY"
"html-keyboard-response","138","186864","0.0-5.0-3.44","5bf0cb0411439b000168edda","bdp_rd","Mon Mar 27 2023 00:06:58 GMT-0400 (Eastern Daylight Time)","309975","","null","","","","offerFB","","<div class='trialBorder'><div class='vertical-center'><img style='vertical-align:center; align:center' src=img/fixation3.jpg></div><div class='cl'><div class='vertical-center'>$2<br>for<br>sure</div></div><div class='cr'><div class='vertical-center'><font style='color:orange'>$64<br>with a<br>50% chance</font></div></div><div class='respDivL'><div class='vertical-center'>(E)</div></div><div class='respDivR'><div class='vertical-center'><font style='color:orange'>(I)</font></div></div></div>","null","$2","$64","0","2","64",""
"html-keyboard-response","139","187365","0.0-5.0-1.45","5bf0cb0411439b000168edda","bdp_rd","Mon Mar 27 2023 00:06:58 GMT-0400 (Eastern Daylight Time)","309975","","null","","","","FIX","","<div class='trialBorder'><div class='vertical-center'><img style='vertical-align:center; align:center' src=img/fixation3.jpg></div></div>","null","","","","","",""
"html-keyboard-response","140","189857","0.0-5.0-2.45","5bf0cb0411439b000168edda","bdp_rd","Mon Mar 27 2023 00:06:58 GMT-0400 (Eastern Daylight Time)","309975","","2491","","","","offer","","<div class='trialBorder'><div class='vertical-center'><img style='vertical-align:center; align:center' src=img/fixation3.jpg></div><div class='cl'><div class='vertical-center'>$20<br>for<br>sure</div></div><div class='cr'><div class='vertical-center'>$37<br>with a<br>50% chance</div></div><div class='respDivL'><div class='vertical-center'>(E)</div></div><div class='respDivR'><div class='vertical-center'>(I)</div></div></div>","E","$20","$37","0","20","37","SURE"
"html-keyboard-response","141","190109","0.0-5.0-3.45","5bf0cb0411439b000168edda","bdp_rd","Mon Mar 27 2023 00:06:58 GMT-0400 (Eastern Daylight Time)","309975","","null","","","","offerFB","","<div class='trialBorder'><div class='vertical-center'><img style='vertical-align:center; align:center' src=img/fixation3.jpg></div><div class='cl'><div class='vertical-center'><font style='color:orange'>$20<br>for<br>sure</font></div></div><div class='cr'><div class='vertical-center'>$37<br>with a<br>50% chance</div></div><div class='respDivL'><div class='vertical-center'><font style='color:orange'>(E)</font></div></div><div class='respDivR'><div class='vertical-center'>(I)</div></div></div>","null","$20","$37","0","20","37",""
"html-keyboard-response","142","190612","0.0-5.0-1.46","5bf0cb0411439b000168edda","bdp_rd","Mon Mar 27 2023 00:06:58 GMT-0400 (Eastern Daylight Time)","309975","","null","","","","FIX","","<div class='trialBorder'><div class='vertical-center'><img style='vertical-align:center; align:center' src=img/fixation3.jpg></div></div>","null","","","","","",""
"html-keyboard-response","143","195410","0.0-5.0-2.46","5bf0cb0411439b000168edda","bdp_rd","Mon Mar 27 2023 00:06:58 GMT-0400 (Eastern Daylight Time)","309975","","4798","","","","offer","","<div class='trialBorder'><div class='vertical-center'><img style='vertical-align:center; align:center' src=img/fixation3.jpg></div><div class='cl'><div class='vertical-center'>$22<br>for<br>sure</div></div><div class='cr'><div class='vertical-center'>$59<br>with a<br>50% chance</div></div><div class='respDivL'><div class='vertical-center'>(E)</div></div><div class='respDivR'><div class='vertical-center'>(I)</div></div></div>","I","$22","$59","0","22","59","RISKY"
"html-keyboard-response","144","195662","0.0-5.0-3.46","5bf0cb0411439b000168edda","bdp_rd","Mon Mar 27 2023 00:06:58 GMT-0400 (Eastern Daylight Time)","309975","","null","","","","offerFB","","<div class='trialBorder'><div class='vertical-center'><img style='vertical-align:center; align:center' src=img/fixation3.jpg></div><div class='cl'><div class='vertical-center'>$22<br>for<br>sure</div></div><div class='cr'><div class='vertical-center'><font style='color:orange'>$59<br>with a<br>50% chance</font></div></div><div class='respDivL'><div class='vertical-center'>(E)</div></div><div class='respDivR'><div class='vertical-center'><font style='color:orange'>(I)</font></div></div></div>","null","$22","$59","0","22","59",""
"html-keyboard-response","145","196163","0.0-5.0-1.47","5bf0cb0411439b000168edda","bdp_rd","Mon Mar 27 2023 00:06:58 GMT-0400 (Eastern Daylight Time)","309975","","null","","","","FIX","","<div class='trialBorder'><div class='vertical-center'><img style='vertical-align:center; align:center' src=img/fixation3.jpg></div></div>","null","","","","","",""
"html-keyboard-response","146","198490","0.0-5.0-2.47","5bf0cb0411439b000168edda","bdp_rd","Mon Mar 27 2023 00:06:58 GMT-0400 (Eastern Daylight Time)","309975","","2326","","","","offer","","<div class='trialBorder'><div class='vertical-center'><img style='vertical-align:center; align:center' src=img/fixation3.jpg></div><div class='cl'><div class='vertical-center'>$5<br>for<br>sure</div></div><div class='cr'><div class='vertical-center'>$16<br>with a<br>50% chance</div></div><div class='respDivL'><div class='vertical-center'>(E)</div></div><div class='respDivR'><div class='vertical-center'>(I)</div></div></div>","I","$5","$16","0","5","16","RISKY"
"html-keyboard-response","147","198741","0.0-5.0-3.47","5bf0cb0411439b000168edda","bdp_rd","Mon Mar 27 2023 00:06:58 GMT-0400 (Eastern Daylight Time)","309975","","null","","","","offerFB","","<div class='trialBorder'><div class='vertical-center'><img style='vertical-align:center; align:center' src=img/fixation3.jpg></div><div class='cl'><div class='vertical-center'>$5<br>for<br>sure</div></div><div class='cr'><div class='vertical-center'><font style='color:orange'>$16<br>with a<br>50% chance</font></div></div><div class='respDivL'><div class='vertical-center'>(E)</div></div><div class='respDivR'><div class='vertical-center'><font style='color:orange'>(I)</font></div></div></div>","null","$5","$16","0","5","16",""
"html-keyboard-response","148","199242","0.0-5.0-1.48","5bf0cb0411439b000168edda","bdp_rd","Mon Mar 27 2023 00:06:58 GMT-0400 (Eastern Daylight Time)","309975","","null","","","","FIX","","<div class='trialBorder'><div class='vertical-center'><img style='vertical-align:center; align:center' src=img/fixation3.jpg></div></div>","null","","","","","",""
"html-keyboard-response","149","206130","0.0-5.0-2.48","5bf0cb0411439b000168edda","bdp_rd","Mon Mar 27 2023 00:06:58 GMT-0400 (Eastern Daylight Time)","309975","","6887","","","","offer","","<div class='trialBorder'><div class='vertical-center'><img style='vertical-align:center; align:center' src=img/fixation3.jpg></div><div class='cl'><div class='vertical-center'>$29<br>with a<br>50% chance</div></div><div class='cr'><div class='vertical-center'>$14<br>for<br>sure</div></div><div class='respDivL'><div class='vertical-center'>(E)</div></div><div class='respDivR'><div class='vertical-center'>(I)</div></div></div>","E","$14","$29","1","14","29","RISKY"
"html-keyboard-response","150","206381","0.0-5.0-3.48","5bf0cb0411439b000168edda","bdp_rd","Mon Mar 27 2023 00:06:58 GMT-0400 (Eastern Daylight Time)","309975","","null","","","","offerFB","","<div class='trialBorder'><div class='vertical-center'><img style='vertical-align:center; align:center' src=img/fixation3.jpg></div><div class='cl'><div class='vertical-center'><font style='color:orange'>$29<br>with a<br>50% chance</font></div></div><div class='cr'><div class='vertical-center'>$14<br>for<br>sure</div></div><div class='respDivL'><div class='vertical-center'><font style='color:orange'>(E)</font></div></div><div class='respDivR'><div class='vertical-center'>(I)</div></div></div>","null","$14","$29","1","14","29",""
"html-keyboard-response","151","206883","0.0-5.0-1.49","5bf0cb0411439b000168edda","bdp_rd","Mon Mar 27 2023 00:06:58 GMT-0400 (Eastern Daylight Time)","309975","","null","","","","FIX","","<div class='trialBorder'><div class='vertical-center'><img style='vertical-align:center; align:center' src=img/fixation3.jpg></div></div>","null","","","","","",""
"html-keyboard-response","152","240162","0.0-5.0-2.49","5bf0cb0411439b000168edda","bdp_rd","Mon Mar 27 2023 00:06:58 GMT-0400 (Eastern Daylight Time)","309975","","33279","","","","offer","","<div class='trialBorder'><div class='vertical-center'><img style='vertical-align:center; align:center' src=img/fixation3.jpg></div><div class='cl'><div class='vertical-center'>$28<br>for<br>sure</div></div><div class='cr'><div class='vertical-center'>$89<br>with a<br>50% chance</div></div><div class='respDivL'><div class='vertical-center'>(E)</div></div><div class='respDivR'><div class='vertical-center'>(I)</div></div></div>","I","$28","$89","0","28","89","RISKY"
"html-keyboard-response","153","240413","0.0-5.0-3.49","5bf0cb0411439b000168edda","bdp_rd","Mon Mar 27 2023 00:06:58 GMT-0400 (Eastern Daylight Time)","309975","","null","","","","offerFB","","<div class='trialBorder'><div class='vertical-center'><img style='vertical-align:center; align:center' src=img/fixation3.jpg></div><div class='cl'><div class='vertical-center'>$28<br>for<br>sure</div></div><div class='cr'><div class='vertical-center'><font style='color:orange'>$89<br>with a<br>50% chance</font></div></div><div class='respDivL'><div class='vertical-center'>(E)</div></div><div class='respDivR'><div class='vertical-center'><font style='color:orange'>(I)</font></div></div></div>","null","$28","$89","0","28","89",""
"html-keyboard-response","154","240914","0.0-5.0-1.50","5bf0cb0411439b000168edda","bdp_rd","Mon Mar 27 2023 00:06:58 GMT-0400 (Eastern Daylight Time)","309975","","null","","","","FIX","","<div class='trialBorder'><div class='vertical-center'><img style='vertical-align:center; align:center' src=img/fixation3.jpg></div></div>","null","","","","","",""
"html-keyboard-response","155","242673","0.0-5.0-2.50","5bf0cb0411439b000168edda","bdp_rd","Mon Mar 27 2023 00:06:58 GMT-0400 (Eastern Daylight Time)","309975","","1758","","","","offer","","<div class='trialBorder'><div class='vertical-center'><img style='vertical-align:center; align:center' src=img/fixation3.jpg></div><div class='cl'><div class='vertical-center'>$39<br>with a<br>50% chance</div></div><div class='cr'><div class='vertical-center'>$18<br>for<br>sure</div></div><div class='respDivL'><div class='vertical-center'>(E)</div></div><div class='respDivR'><div class='vertical-center'>(I)</div></div></div>","I","$18","$39","1","18","39","SURE"
"html-keyboard-response","156","242925","0.0-5.0-3.50","5bf0cb0411439b000168edda","bdp_rd","Mon Mar 27 2023 00:06:58 GMT-0400 (Eastern Daylight Time)","309975","","null","","","","offerFB","","<div class='trialBorder'><div class='vertical-center'><img style='vertical-align:center; align:center' src=img/fixation3.jpg></div><div class='cl'><div class='vertical-center'>$39<br>with a<br>50% chance</div></div><div class='cr'><div class='vertical-center'><font style='color:orange'>$18<br>for<br>sure</font></div></div><div class='respDivL'><div class='vertical-center'>(E)</div></div><div class='respDivR'><div class='vertical-center'><font style='color:orange'>(I)</font></div></div></div>","null","$18","$39","1","18","39",""
"html-keyboard-response","157","243426","0.0-5.0-1.51","5bf0cb0411439b000168edda","bdp_rd","Mon Mar 27 2023 00:06:58 GMT-0400 (Eastern Daylight Time)","309975","","null","","","","FIX","","<div class='trialBorder'><div class='vertical-center'><img style='vertical-align:center; align:center' src=img/fixation3.jpg></div></div>","null","","","","","",""
"html-keyboard-response","158","247666","0.0-5.0-2.51","5bf0cb0411439b000168edda","bdp_rd","Mon Mar 27 2023 00:06:58 GMT-0400 (Eastern Daylight Time)","309975","","4239","","","","offer","","<div class='trialBorder'><div class='vertical-center'><img style='vertical-align:center; align:center' src=img/fixation3.jpg></div><div class='cl'><div class='vertical-center'>$31<br>with a<br>50% chance</div></div><div class='cr'><div class='vertical-center'>$15<br>for<br>sure</div></div><div class='respDivL'><div class='vertical-center'>(E)</div></div><div class='respDivR'><div class='vertical-center'>(I)</div></div></div>","I","$15","$31","1","15","31","SURE"
"html-keyboard-response","159","247917","0.0-5.0-3.51","5bf0cb0411439b000168edda","bdp_rd","Mon Mar 27 2023 00:06:58 GMT-0400 (Eastern Daylight Time)","309975","","null","","","","offerFB","","<div class='trialBorder'><div class='vertical-center'><img style='vertical-align:center; align:center' src=img/fixation3.jpg></div><div class='cl'><div class='vertical-center'>$31<br>with a<br>50% chance</div></div><div class='cr'><div class='vertical-center'><font style='color:orange'>$15<br>for<br>sure</font></div></div><div class='respDivL'><div class='vertical-center'>(E)</div></div><div class='respDivR'><div class='vertical-center'><font style='color:orange'>(I)</font></div></div></div>","null","$15","$31","1","15","31",""
"html-keyboard-response","160","248418","0.0-5.0-1.52","5bf0cb0411439b000168edda","bdp_rd","Mon Mar 27 2023 00:06:58 GMT-0400 (Eastern Daylight Time)","309975","","null","","","","FIX","","<div class='trialBorder'><div class='vertical-center'><img style='vertical-align:center; align:center' src=img/fixation3.jpg></div></div>","null","","","","","",""
"html-keyboard-response","161","277178","0.0-5.0-2.52","5bf0cb0411439b000168edda","bdp_rd","Mon Mar 27 2023 00:06:58 GMT-0400 (Eastern Daylight Time)","309975","","28759","","","","offer","","<div class='trialBorder'><div class='vertical-center'><img style='vertical-align:center; align:center' src=img/fixation3.jpg></div><div class='cl'><div class='vertical-center'>$66<br>with a<br>50% chance</div></div><div class='cr'><div class='vertical-center'>$33<br>for<br>sure</div></div><div class='respDivL'><div class='vertical-center'>(E)</div></div><div class='respDivR'><div class='vertical-center'>(I)</div></div></div>","E","$33","$66","1","33","66","RISKY"
"html-keyboard-response","162","277430","0.0-5.0-3.52","5bf0cb0411439b000168edda","bdp_rd","Mon Mar 27 2023 00:06:58 GMT-0400 (Eastern Daylight Time)","309975","","null","","","","offerFB","","<div class='trialBorder'><div class='vertical-center'><img style='vertical-align:center; align:center' src=img/fixation3.jpg></div><div class='cl'><div class='vertical-center'><font style='color:orange'>$66<br>with a<br>50% chance</font></div></div><div class='cr'><div class='vertical-center'>$33<br>for<br>sure</div></div><div class='respDivL'><div class='vertical-center'><font style='color:orange'>(E)</font></div></div><div class='respDivR'><div class='vertical-center'>(I)</div></div></div>","null","$33","$66","1","33","66",""
"html-keyboard-response","163","277931","0.0-5.0-1.53","5bf0cb0411439b000168edda","bdp_rd","Mon Mar 27 2023 00:06:58 GMT-0400 (Eastern Daylight Time)","309975","","null","","","","FIX","","<div class='trialBorder'><div class='vertical-center'><img style='vertical-align:center; align:center' src=img/fixation3.jpg></div></div>","null","","","","","",""
"html-keyboard-response","164","279345","0.0-5.0-2.53","5bf0cb0411439b000168edda","bdp_rd","Mon Mar 27 2023 00:06:58 GMT-0400 (Eastern Daylight Time)","309975","","1413","","","","offer","","<div class='trialBorder'><div class='vertical-center'><img style='vertical-align:center; align:center' src=img/fixation3.jpg></div><div class='cl'><div class='vertical-center'>$19<br>for<br>sure</div></div><div class='cr'><div class='vertical-center'>$51<br>with a<br>50% chance</div></div><div class='respDivL'><div class='vertical-center'>(E)</div></div><div class='respDivR'><div class='vertical-center'>(I)</div></div></div>","I","$19","$51","0","19","51","RISKY"
"html-keyboard-response","165","279597","0.0-5.0-3.53","5bf0cb0411439b000168edda","bdp_rd","Mon Mar 27 2023 00:06:58 GMT-0400 (Eastern Daylight Time)","309975","","null","","","","offerFB","","<div class='trialBorder'><div class='vertical-center'><img style='vertical-align:center; align:center' src=img/fixation3.jpg></div><div class='cl'><div class='vertical-center'>$19<br>for<br>sure</div></div><div class='cr'><div class='vertical-center'><font style='color:orange'>$51<br>with a<br>50% chance</font></div></div><div class='respDivL'><div class='vertical-center'>(E)</div></div><div class='respDivR'><div class='vertical-center'><font style='color:orange'>(I)</font></div></div></div>","null","$19","$51","0","19","51",""
"html-keyboard-response","166","280098","0.0-5.0-1.54","5bf0cb0411439b000168edda","bdp_rd","Mon Mar 27 2023 00:06:58 GMT-0400 (Eastern Daylight Time)","309975","","null","","","","FIX","","<div class='trialBorder'><div class='vertical-center'><img style='vertical-align:center; align:center' src=img/fixation3.jpg></div></div>","null","","","","","",""
"html-keyboard-response","167","283161","0.0-5.0-2.54","5bf0cb0411439b000168edda","bdp_rd","Mon Mar 27 2023 00:06:58 GMT-0400 (Eastern Daylight Time)","309975","","3062","","","","offer","","<div class='trialBorder'><div class='vertical-center'><img style='vertical-align:center; align:center' src=img/fixation3.jpg></div><div class='cl'><div class='vertical-center'>$42<br>with a<br>50% chance</div></div><div class='cr'><div class='vertical-center'>$22<br>for<br>sure</div></div><div class='respDivL'><div class='vertical-center'>(E)</div></div><div class='respDivR'><div class='vertical-center'>(I)</div></div></div>","E","$22","$42","1","22","42","RISKY"
"html-keyboard-response","168","283412","0.0-5.0-3.54","5bf0cb0411439b000168edda","bdp_rd","Mon Mar 27 2023 00:06:58 GMT-0400 (Eastern Daylight Time)","309975","","null","","","","offerFB","","<div class='trialBorder'><div class='vertical-center'><img style='vertical-align:center; align:center' src=img/fixation3.jpg></div><div class='cl'><div class='vertical-center'><font style='color:orange'>$42<br>with a<br>50% chance</font></div></div><div class='cr'><div class='vertical-center'>$22<br>for<br>sure</div></div><div class='respDivL'><div class='vertical-center'><font style='color:orange'>(E)</font></div></div><div class='respDivR'><div class='vertical-center'>(I)</div></div></div>","null","$22","$42","1","22","42",""
"html-keyboard-response","169","283914","0.0-5.0-1.55","5bf0cb0411439b000168edda","bdp_rd","Mon Mar 27 2023 00:06:58 GMT-0400 (Eastern Daylight Time)","309975","","null","","","","FIX","","<div class='trialBorder'><div class='vertical-center'><img style='vertical-align:center; align:center' src=img/fixation3.jpg></div></div>","null","","","","","",""
"html-keyboard-response","170","294746","0.0-5.0-2.55","5bf0cb0411439b000168edda","bdp_rd","Mon Mar 27 2023 00:06:58 GMT-0400 (Eastern Daylight Time)","309975","","10832","","","","offer","","<div class='trialBorder'><div class='vertical-center'><img style='vertical-align:center; align:center' src=img/fixation3.jpg></div><div class='cl'><div class='vertical-center'>$62<br>with a<br>50% chance</div></div><div class='cr'><div class='vertical-center'>$11<br>for<br>sure</div></div><div class='respDivL'><div class='vertical-center'>(E)</div></div><div class='respDivR'><div class='vertical-center'>(I)</div></div></div>","E","$11","$62","1","11","62","RISKY"
"html-keyboard-response","171","294997","0.0-5.0-3.55","5bf0cb0411439b000168edda","bdp_rd","Mon Mar 27 2023 00:06:58 GMT-0400 (Eastern Daylight Time)","309975","","null","","","","offerFB","","<div class='trialBorder'><div class='vertical-center'><img style='vertical-align:center; align:center' src=img/fixation3.jpg></div><div class='cl'><div class='vertical-center'><font style='color:orange'>$62<br>with a<br>50% chance</font></div></div><div class='cr'><div class='vertical-center'>$11<br>for<br>sure</div></div><div class='respDivL'><div class='vertical-center'><font style='color:orange'>(E)</font></div></div><div class='respDivR'><div class='vertical-center'>(I)</div></div></div>","null","$11","$62","1","11","62",""
"html-keyboard-response","172","295498","0.0-5.0-1.56","5bf0cb0411439b000168edda","bdp_rd","Mon Mar 27 2023 00:06:58 GMT-0400 (Eastern Daylight Time)","309975","","null","","","","FIX","","<div class='trialBorder'><div class='vertical-center'><img style='vertical-align:center; align:center' src=img/fixation3.jpg></div></div>","null","","","","","",""
"html-keyboard-response","173","299745","0.0-5.0-2.56","5bf0cb0411439b000168edda","bdp_rd","Mon Mar 27 2023 00:06:58 GMT-0400 (Eastern Daylight Time)","309975","","4246","","","","offer","","<div class='trialBorder'><div class='vertical-center'><img style='vertical-align:center; align:center' src=img/fixation3.jpg></div><div class='cl'><div class='vertical-center'>$13<br>for<br>sure</div></div><div class='cr'><div class='vertical-center'>$41<br>with a<br>50% chance</div></div><div class='respDivL'><div class='vertical-center'>(E)</div></div><div class='respDivR'><div class='vertical-center'>(I)</div></div></div>","I","$13","$41","0","13","41","RISKY"
