"trial_type","trial_index","time_elapsed","internal_node_id","subject_id","task","startTime","totalTime","view_history","rt","event","trial","time","trialtype","success","stimulus","key_press","sureOffer","riskyOffer","riskyLeft","sureAmt","riskyAmt","chosen"
"pavlovia","0","6","0.0-0.0","610063614e6ba35532307dda","bdp_rd","Mon Mar 27 2023 14:47:23 GMT-0400 (Eastern Daylight Time)","227400","","","","","","","","","","","","","","",""
"instructions","1","2572","0.0-1.0","610063614e6ba35532307dda","bdp_rd","Mon Mar 27 2023 14:47:23 GMT-0400 (Eastern Daylight Time)","227400","[{""page_index"":0,""viewing_time"":2565}]","2565","","","","","","","","","","","","",""
"","","","","610063614e6ba35532307dda","bdp_rd","Mon Mar 27 2023 14:47:23 GMT-0400 (Eastern Daylight Time)","227400","","","fullscreenenter","2","4033","fullscreenenter","","","","","","","","",""
"fullscreen","2","5024","0.0-2.0","610063614e6ba35532307dda","bdp_rd","Mon Mar 27 2023 14:47:23 GMT-0400 (Eastern Daylight Time)","227400","","","","","","","true","","","","","","","",""
"instructions","3","30825","0.0-4.0","610063614e6ba35532307dda","bdp_rd","Mon Mar 27 2023 14:47:23 GMT-0400 (Eastern Daylight Time)","227400","[{""page_index"":0,""viewing_time"":17614},{""page_index"":1,""viewing_time"":6757},{""page_index"":2,""viewing_time"":1428}]","25799","","","","","","","","","","","","",""
"html-keyboard-response","4","31329","0.0-5.0-1.0","610063614e6ba35532307dda","bdp_rd","Mon Mar 27 2023 14:47:23 GMT-0400 (Eastern Daylight Time)","227400","","null","","","","FIX","","<div class='trialBorder'><div class='vertical-center'><img style='vertical-align:center; align:center' src=img/fixation3.jpg></div></div>","null","","","","","",""
"html-keyboard-response","5","35977","0.0-5.0-2.0","610063614e6ba35532307dda","bdp_rd","Mon Mar 27 2023 14:47:23 GMT-0400 (Eastern Daylight Time)","227400","","4647","","","","offer","","<div class='trialBorder'><div class='vertical-center'><img style='vertical-align:center; align:center' src=img/fixation3.jpg></div><div class='cl'><div class='vertical-center'>$98<br>with a<br>50% chance</div></div><div class='cr'><div class='vertical-center'>$53<br>for<br>sure</div></div><div class='respDivL'><div class='vertical-center'>(E)</div></div><div class='respDivR'><div class='vertical-center'>(I)</div></div></div>","E","$53","$98","1","53","98","RISKY"
"html-keyboard-response","6","36234","0.0-5.0-3.0","610063614e6ba35532307dda","bdp_rd","Mon Mar 27 2023 14:47:23 GMT-0400 (Eastern Daylight Time)","227400","","null","","","","offerFB","","<div class='trialBorder'><div class='vertical-center'><img style='vertical-align:center; align:center' src=img/fixation3.jpg></div><div class='cl'><div class='vertical-center'><font style='color:orange'>$98<br>with a<br>50% chance</font></div></div><div class='cr'><div class='vertical-center'>$53<br>for<br>sure</div></div><div class='respDivL'><div class='vertical-center'><font style='color:orange'>(E)</font></div></div><div class='respDivR'><div class='vertical-center'>(I)</div></div></div>","null","$53","$98","1","53","98",""
"html-keyboard-response","7","36739","0.0-5.0-1.1","610063614e6ba35532307dda","bdp_rd","Mon Mar 27 2023 14:47:23 GMT-0400 (Eastern Daylight Time)","227400","","null","","","","FIX","","<div class='trialBorder'><div class='vertical-center'><img style='vertical-align:center; align:center' src=img/fixation3.jpg></div></div>","null","","","","","",""
"html-keyboard-response","8","37996","0.0-5.0-2.1","610063614e6ba35532307dda","bdp_rd","Mon Mar 27 2023 14:47:23 GMT-0400 (Eastern Daylight Time)","227400","","1254","","","","offer","","<div class='trialBorder'><div class='vertical-center'><img style='vertical-align:center; align:center' src=img/fixation3.jpg></div><div class='cl'><div class='vertical-center'>$19<br>with a<br>50% chance</div></div><div class='cr'><div class='vertical-center'>$10<br>for<br>sure</div></div><div class='respDivL'><div class='vertical-center'>(E)</div></div><div class='respDivR'><div class='vertical-center'>(I)</div></div></div>","I","$10","$19","1","10","19","SURE"
"html-keyboard-response","9","38252","0.0-5.0-3.1","610063614e6ba35532307dda","bdp_rd","Mon Mar 27 2023 14:47:23 GMT-0400 (Eastern Daylight Time)","227400","","null","","","","offerFB","","<div class='trialBorder'><div class='vertical-center'><img style='vertical-align:center; align:center' src=img/fixation3.jpg></div><div class='cl'><div class='vertical-center'>$19<br>with a<br>50% chance</div></div><div class='cr'><div class='vertical-center'><font style='color:orange'>$10<br>for<br>sure</font></div></div><div class='respDivL'><div class='vertical-center'>(E)</div></div><div class='respDivR'><div class='vertical-center'><font style='color:orange'>(I)</font></div></div></div>","null","$10","$19","1","10","19",""
"html-keyboard-response","10","38754","0.0-5.0-1.2","610063614e6ba35532307dda","bdp_rd","Mon Mar 27 2023 14:47:23 GMT-0400 (Eastern Daylight Time)","227400","","null","","","","FIX","","<div class='trialBorder'><div class='vertical-center'><img style='vertical-align:center; align:center' src=img/fixation3.jpg></div></div>","null","","","","","",""
"html-keyboard-response","11","40416","0.0-5.0-2.2","610063614e6ba35532307dda","bdp_rd","Mon Mar 27 2023 14:47:23 GMT-0400 (Eastern Daylight Time)","227400","","1660","","","","offer","","<div class='trialBorder'><div class='vertical-center'><img style='vertical-align:center; align:center' src=img/fixation3.jpg></div><div class='cl'><div class='vertical-center'>$11<br>for<br>sure</div></div><div class='cr'><div class='vertical-center'>$26<br>with a<br>50% chance</div></div><div class='respDivL'><div class='vertical-center'>(E)</div></div><div class='respDivR'><div class='vertical-center'>(I)</div></div></div>","E","$11","$26","0","11","26","SURE"
"html-keyboard-response","12","40671","0.0-5.0-3.2","610063614e6ba35532307dda","bdp_rd","Mon Mar 27 2023 14:47:23 GMT-0400 (Eastern Daylight Time)","227400","","null","","","","offerFB","","<div class='trialBorder'><div class='vertical-center'><img style='vertical-align:center; align:center' src=img/fixation3.jpg></div><div class='cl'><div class='vertical-center'><font style='color:orange'>$11<br>for<br>sure</font></div></div><div class='cr'><div class='vertical-center'>$26<br>with a<br>50% chance</div></div><div class='respDivL'><div class='vertical-center'><font style='color:orange'>(E)</font></div></div><div class='respDivR'><div class='vertical-center'>(I)</div></div></div>","null","$11","$26","0","11","26",""
"html-keyboard-response","13","41174","0.0-5.0-1.3","610063614e6ba35532307dda","bdp_rd","Mon Mar 27 2023 14:47:23 GMT-0400 (Eastern Daylight Time)","227400","","null","","","","FIX","","<div class='trialBorder'><div class='vertical-center'><img style='vertical-align:center; align:center' src=img/fixation3.jpg></div></div>","null","","","","","",""
"html-keyboard-response","14","42943","0.0-5.0-2.3","610063614e6ba35532307dda","bdp_rd","Mon Mar 27 2023 14:47:23 GMT-0400 (Eastern Daylight Time)","227400","","1767","","","","offer","","<div class='trialBorder'><div class='vertical-center'><img style='vertical-align:center; align:center' src=img/fixation3.jpg></div><div class='cl'><div class='vertical-center'>$10<br>with a<br>50% chance</div></div><div class='cr'><div class='vertical-center'>$7<br>for<br>sure</div></div><div class='respDivL'><div class='vertical-center'>(E)</div></div><div class='respDivR'><div class='vertical-center'>(I)</div></div></div>","I","$7","$10","1","7","10","SURE"
"html-keyboard-response","15","43194","0.0-5.0-3.3","610063614e6ba35532307dda","bdp_rd","Mon Mar 27 2023 14:47:23 GMT-0400 (Eastern Daylight Time)","227400","","null","","","","offerFB","","<div class='trialBorder'><div class='vertical-center'><img style='vertical-align:center; align:center' src=img/fixation3.jpg></div><div class='cl'><div class='vertical-center'>$10<br>with a<br>50% chance</div></div><div class='cr'><div class='vertical-center'><font style='color:orange'>$7<br>for<br>sure</font></div></div><div class='respDivL'><div class='vertical-center'>(E)</div></div><div class='respDivR'><div class='vertical-center'><font style='color:orange'>(I)</font></div></div></div>","null","$7","$10","1","7","10",""
"html-keyboard-response","16","43699","0.0-5.0-1.4","610063614e6ba35532307dda","bdp_rd","Mon Mar 27 2023 14:47:23 GMT-0400 (Eastern Daylight Time)","227400","","null","","","","FIX","","<div class='trialBorder'><div class='vertical-center'><img style='vertical-align:center; align:center' src=img/fixation3.jpg></div></div>","null","","","","","",""
"html-keyboard-response","17","45143","0.0-5.0-2.4","610063614e6ba35532307dda","bdp_rd","Mon Mar 27 2023 14:47:23 GMT-0400 (Eastern Daylight Time)","227400","","1442","","","","offer","","<div class='trialBorder'><div class='vertical-center'><img style='vertical-align:center; align:center' src=img/fixation3.jpg></div><div class='cl'><div class='vertical-center'>$34<br>for<br>sure</div></div><div class='cr'><div class='vertical-center'>$48<br>with a<br>50% chance</div></div><div class='respDivL'><div class='vertical-center'>(E)</div></div><div class='respDivR'><div class='vertical-center'>(I)</div></div></div>","E","$34","$48","0","34","48","SURE"
"html-keyboard-response","18","45399","0.0-5.0-3.4","610063614e6ba35532307dda","bdp_rd","Mon Mar 27 2023 14:47:23 GMT-0400 (Eastern Daylight Time)","227400","","null","","","","offerFB","","<div class='trialBorder'><div class='vertical-center'><img style='vertical-align:center; align:center' src=img/fixation3.jpg></div><div class='cl'><div class='vertical-center'><font style='color:orange'>$34<br>for<br>sure</font></div></div><div class='cr'><div class='vertical-center'>$48<br>with a<br>50% chance</div></div><div class='respDivL'><div class='vertical-center'><font style='color:orange'>(E)</font></div></div><div class='respDivR'><div class='vertical-center'>(I)</div></div></div>","null","$34","$48","0","34","48",""
"html-keyboard-response","19","45901","0.0-5.0-1.5","610063614e6ba35532307dda","bdp_rd","Mon Mar 27 2023 14:47:23 GMT-0400 (Eastern Daylight Time)","227400","","null","","","","FIX","","<div class='trialBorder'><div class='vertical-center'><img style='vertical-align:center; align:center' src=img/fixation3.jpg></div></div>","null","","","","","",""
"html-keyboard-response","20","47267","0.0-5.0-2.5","610063614e6ba35532307dda","bdp_rd","Mon Mar 27 2023 14:47:23 GMT-0400 (Eastern Daylight Time)","227400","","1365","","","","offer","","<div class='trialBorder'><div class='vertical-center'><img style='vertical-align:center; align:center' src=img/fixation3.jpg></div><div class='cl'><div class='vertical-center'>$2<br>for<br>sure</div></div><div class='cr'><div class='vertical-center'>$64<br>with a<br>50% chance</div></div><div class='respDivL'><div class='vertical-center'>(E)</div></div><div class='respDivR'><div class='vertical-center'>(I)</div></div></div>","I","$2","$64","0","2","64","RISKY"
"html-keyboard-response","21","47523","0.0-5.0-3.5","610063614e6ba35532307dda","bdp_rd","Mon Mar 27 2023 14:47:23 GMT-0400 (Eastern Daylight Time)","227400","","null","","","","offerFB","","<div class='trialBorder'><div class='vertical-center'><img style='vertical-align:center; align:center' src=img/fixation3.jpg></div><div class='cl'><div class='vertical-center'>$2<br>for<br>sure</div></div><div class='cr'><div class='vertical-center'><font style='color:orange'>$64<br>with a<br>50% chance</font></div></div><div class='respDivL'><div class='vertical-center'>(E)</div></div><div class='respDivR'><div class='vertical-center'><font style='color:orange'>(I)</font></div></div></div>","null","$2","$64","0","2","64",""
"html-keyboard-response","22","48025","0.0-5.0-1.6","610063614e6ba35532307dda","bdp_rd","Mon Mar 27 2023 14:47:23 GMT-0400 (Eastern Daylight Time)","227400","","null","","","","FIX","","<div class='trialBorder'><div class='vertical-center'><img style='vertical-align:center; align:center' src=img/fixation3.jpg></div></div>","null","","","","","",""
"html-keyboard-response","23","51045","0.0-5.0-2.6","610063614e6ba35532307dda","bdp_rd","Mon Mar 27 2023 14:47:23 GMT-0400 (Eastern Daylight Time)","227400","","3019","","","","offer","","<div class='trialBorder'><div class='vertical-center'><img style='vertical-align:center; align:center' src=img/fixation3.jpg></div><div class='cl'><div class='vertical-center'>$16<br>for<br>sure</div></div><div class='cr'><div class='vertical-center'>$38<br>with a<br>50% chance</div></div><div class='respDivL'><div class='vertical-center'>(E)</div></div><div class='respDivR'><div class='vertical-center'>(I)</div></div></div>","E","$16","$38","0","16","38","SURE"
"html-keyboard-response","24","51300","0.0-5.0-3.6","610063614e6ba35532307dda","bdp_rd","Mon Mar 27 2023 14:47:23 GMT-0400 (Eastern Daylight Time)","227400","","null","","","","offerFB","","<div class='trialBorder'><div class='vertical-center'><img style='vertical-align:center; align:center' src=img/fixation3.jpg></div><div class='cl'><div class='vertical-center'><font style='color:orange'>$16<br>for<br>sure</font></div></div><div class='cr'><div class='vertical-center'>$38<br>with a<br>50% chance</div></div><div class='respDivL'><div class='vertical-center'><font style='color:orange'>(E)</font></div></div><div class='respDivR'><div class='vertical-center'>(I)</div></div></div>","null","$16","$38","0","16","38",""
"html-keyboard-response","25","51805","0.0-5.0-1.7","610063614e6ba35532307dda","bdp_rd","Mon Mar 27 2023 14:47:23 GMT-0400 (Eastern Daylight Time)","227400","","null","","","","FIX","","<div class='trialBorder'><div class='vertical-center'><img style='vertical-align:center; align:center' src=img/fixation3.jpg></div></div>","null","","","","","",""
"html-keyboard-response","26","54136","0.0-5.0-2.7","610063614e6ba35532307dda","bdp_rd","Mon Mar 27 2023 14:47:23 GMT-0400 (Eastern Daylight Time)","227400","","2330","","","","offer","","<div class='trialBorder'><div class='vertical-center'><img style='vertical-align:center; align:center' src=img/fixation3.jpg></div><div class='cl'><div class='vertical-center'>$13<br>with a<br>50% chance</div></div><div class='cr'><div class='vertical-center'>$6<br>for<br>sure</div></div><div class='respDivL'><div class='vertical-center'>(E)</div></div><div class='respDivR'><div class='vertical-center'>(I)</div></div></div>","I","$6","$13","1","6","13","SURE"
"html-keyboard-response","27","54392","0.0-5.0-3.7","610063614e6ba35532307dda","bdp_rd","Mon Mar 27 2023 14:47:23 GMT-0400 (Eastern Daylight Time)","227400","","null","","","","offerFB","","<div class='trialBorder'><div class='vertical-center'><img style='vertical-align:center; align:center' src=img/fixation3.jpg></div><div class='cl'><div class='vertical-center'>$13<br>with a<br>50% chance</div></div><div class='cr'><div class='vertical-center'><font style='color:orange'>$6<br>for<br>sure</font></div></div><div class='respDivL'><div class='vertical-center'>(E)</div></div><div class='respDivR'><div class='vertical-center'><font style='color:orange'>(I)</font></div></div></div>","null","$6","$13","1","6","13",""
"html-keyboard-response","28","54897","0.0-5.0-1.8","610063614e6ba35532307dda","bdp_rd","Mon Mar 27 2023 14:47:23 GMT-0400 (Eastern Daylight Time)","227400","","null","","","","FIX","","<div class='trialBorder'><div class='vertical-center'><img style='vertical-align:center; align:center' src=img/fixation3.jpg></div></div>","null","","","","","",""
"html-keyboard-response","29","58297","0.0-5.0-2.8","610063614e6ba35532307dda","bdp_rd","Mon Mar 27 2023 14:47:23 GMT-0400 (Eastern Daylight Time)","227400","","3399","","","","offer","","<div class='trialBorder'><div class='vertical-center'><img style='vertical-align:center; align:center' src=img/fixation3.jpg></div><div class='cl'><div class='vertical-center'>$58<br>for<br>sure</div></div><div class='cr'><div class='vertical-center'>$69<br>with a<br>50% chance</div></div><div class='respDivL'><div class='vertical-center'>(E)</div></div><div class='respDivR'><div class='vertical-center'>(I)</div></div></div>","E","$58","$69","0","58","69","SURE"
"html-keyboard-response","30","58550","0.0-5.0-3.8","610063614e6ba35532307dda","bdp_rd","Mon Mar 27 2023 14:47:23 GMT-0400 (Eastern Daylight Time)","227400","","null","","","","offerFB","","<div class='trialBorder'><div class='vertical-center'><img style='vertical-align:center; align:center' src=img/fixation3.jpg></div><div class='cl'><div class='vertical-center'><font style='color:orange'>$58<br>for<br>sure</font></div></div><div class='cr'><div class='vertical-center'>$69<br>with a<br>50% chance</div></div><div class='respDivL'><div class='vertical-center'><font style='color:orange'>(E)</font></div></div><div class='respDivR'><div class='vertical-center'>(I)</div></div></div>","null","$58","$69","0","58","69",""
"html-keyboard-response","31","59054","0.0-5.0-1.9","610063614e6ba35532307dda","bdp_rd","Mon Mar 27 2023 14:47:23 GMT-0400 (Eastern Daylight Time)","227400","","null","","","","FIX","","<div class='trialBorder'><div class='vertical-center'><img style='vertical-align:center; align:center' src=img/fixation3.jpg></div></div>","null","","","","","",""
"html-keyboard-response","32","62255","0.0-5.0-2.9","610063614e6ba35532307dda","bdp_rd","Mon Mar 27 2023 14:47:23 GMT-0400 (Eastern Daylight Time)","227400","","3200","","","","offer","","<div class='trialBorder'><div class='vertical-center'><img style='vertical-align:center; align:center' src=img/fixation3.jpg></div><div class='cl'><div class='vertical-center'>$22<br>for<br>sure</div></div><div class='cr'><div class='vertical-center'>$59<br>with a<br>50% chance</div></div><div class='respDivL'><div class='vertical-center'>(E)</div></div><div class='respDivR'><div class='vertical-center'>(I)</div></div></div>","I","$22","$59","0","22","59","RISKY"
"html-keyboard-response","33","62508","0.0-5.0-3.9","610063614e6ba35532307dda","bdp_rd","Mon Mar 27 2023 14:47:23 GMT-0400 (Eastern Daylight Time)","227400","","null","","","","offerFB","","<div class='trialBorder'><div class='vertical-center'><img style='vertical-align:center; align:center' src=img/fixation3.jpg></div><div class='cl'><div class='vertical-center'>$22<br>for<br>sure</div></div><div class='cr'><div class='vertical-center'><font style='color:orange'>$59<br>with a<br>50% chance</font></div></div><div class='respDivL'><div class='vertical-center'>(E)</div></div><div class='respDivR'><div class='vertical-center'><font style='color:orange'>(I)</font></div></div></div>","null","$22","$59","0","22","59",""
"html-keyboard-response","34","63009","0.0-5.0-1.10","610063614e6ba35532307dda","bdp_rd","Mon Mar 27 2023 14:47:23 GMT-0400 (Eastern Daylight Time)","227400","","null","","","","FIX","","<div class='trialBorder'><div class='vertical-center'><img style='vertical-align:center; align:center' src=img/fixation3.jpg></div></div>","null","","","","","",""
"html-keyboard-response","35","64329","0.0-5.0-2.10","610063614e6ba35532307dda","bdp_rd","Mon Mar 27 2023 14:47:23 GMT-0400 (Eastern Daylight Time)","227400","","1318","","","","offer","","<div class='trialBorder'><div class='vertical-center'><img style='vertical-align:center; align:center' src=img/fixation3.jpg></div><div class='cl'><div class='vertical-center'>$95<br>with a<br>50% chance</div></div><div class='cr'><div class='vertical-center'>$40<br>for<br>sure</div></div><div class='respDivL'><div class='vertical-center'>(E)</div></div><div class='respDivR'><div class='vertical-center'>(I)</div></div></div>","E","$40","$95","1","40","95","RISKY"
"html-keyboard-response","36","64580","0.0-5.0-3.10","610063614e6ba35532307dda","bdp_rd","Mon Mar 27 2023 14:47:23 GMT-0400 (Eastern Daylight Time)","227400","","null","","","","offerFB","","<div class='trialBorder'><div class='vertical-center'><img style='vertical-align:center; align:center' src=img/fixation3.jpg></div><div class='cl'><div class='vertical-center'><font style='color:orange'>$95<br>with a<br>50% chance</font></div></div><div class='cr'><div class='vertical-center'>$40<br>for<br>sure</div></div><div class='respDivL'><div class='vertical-center'><font style='color:orange'>(E)</font></div></div><div class='respDivR'><div class='vertical-center'>(I)</div></div></div>","null","$40","$95","1","40","95",""
"html-keyboard-response","37","65082","0.0-5.0-1.11","610063614e6ba35532307dda","bdp_rd","Mon Mar 27 2023 14:47:23 GMT-0400 (Eastern Daylight Time)","227400","","null","","","","FIX","","<div class='trialBorder'><div class='vertical-center'><img style='vertical-align:center; align:center' src=img/fixation3.jpg></div></div>","null","","","","","",""
"html-keyboard-response","38","66584","0.0-5.0-2.11","610063614e6ba35532307dda","bdp_rd","Mon Mar 27 2023 14:47:23 GMT-0400 (Eastern Daylight Time)","227400","","1500","","","","offer","","<div class='trialBorder'><div class='vertical-center'><img style='vertical-align:center; align:center' src=img/fixation3.jpg></div><div class='cl'><div class='vertical-center'>$80<br>with a<br>50% chance</div></div><div class='cr'><div class='vertical-center'>$20<br>for<br>sure</div></div><div class='respDivL'><div class='vertical-center'>(E)</div></div><div class='respDivR'><div class='vertical-center'>(I)</div></div></div>","E","$20","$80","1","20","80","RISKY"
"html-keyboard-response","39","66835","0.0-5.0-3.11","610063614e6ba35532307dda","bdp_rd","Mon Mar 27 2023 14:47:23 GMT-0400 (Eastern Daylight Time)","227400","","null","","","","offerFB","","<div class='trialBorder'><div class='vertical-center'><img style='vertical-align:center; align:center' src=img/fixation3.jpg></div><div class='cl'><div class='vertical-center'><font style='color:orange'>$80<br>with a<br>50% chance</font></div></div><div class='cr'><div class='vertical-center'>$20<br>for<br>sure</div></div><div class='respDivL'><div class='vertical-center'><font style='color:orange'>(E)</font></div></div><div class='respDivR'><div class='vertical-center'>(I)</div></div></div>","null","$20","$80","1","20","80",""
"html-keyboard-response","40","67338","0.0-5.0-1.12","610063614e6ba35532307dda","bdp_rd","Mon Mar 27 2023 14:47:23 GMT-0400 (Eastern Daylight Time)","227400","","null","","","","FIX","","<div class='trialBorder'><div class='vertical-center'><img style='vertical-align:center; align:center' src=img/fixation3.jpg></div></div>","null","","","","","",""
"html-keyboard-response","41","71733","0.0-5.0-2.12","610063614e6ba35532307dda","bdp_rd","Mon Mar 27 2023 14:47:23 GMT-0400 (Eastern Daylight Time)","227400","","4394","","","","offer","","<div class='trialBorder'><div class='vertical-center'><img style='vertical-align:center; align:center' src=img/fixation3.jpg></div><div class='cl'><div class='vertical-center'>$51<br>with a<br>50% chance</div></div><div class='cr'><div class='vertical-center'>$19<br>for<br>sure</div></div><div class='respDivL'><div class='vertical-center'>(E)</div></div><div class='respDivR'><div class='vertical-center'>(I)</div></div></div>","E","$19","$51","1","19","51","RISKY"
"html-keyboard-response","42","71988","0.0-5.0-3.12","610063614e6ba35532307dda","bdp_rd","Mon Mar 27 2023 14:47:23 GMT-0400 (Eastern Daylight Time)","227400","","null","","","","offerFB","","<div class='trialBorder'><div class='vertical-center'><img style='vertical-align:center; align:center' src=img/fixation3.jpg></div><div class='cl'><div class='vertical-center'><font style='color:orange'>$51<br>with a<br>50% chance</font></div></div><div class='cr'><div class='vertical-center'>$19<br>for<br>sure</div></div><div class='respDivL'><div class='vertical-center'><font style='color:orange'>(E)</font></div></div><div class='respDivR'><div class='vertical-center'>(I)</div></div></div>","null","$19","$51","1","19","51",""
"html-keyboard-response","43","72493","0.0-5.0-1.13","610063614e6ba35532307dda","bdp_rd","Mon Mar 27 2023 14:47:23 GMT-0400 (Eastern Daylight Time)","227400","","null","","","","FIX","","<div class='trialBorder'><div class='vertical-center'><img style='vertical-align:center; align:center' src=img/fixation3.jpg></div></div>","null","","","","","",""
"html-keyboard-response","44","73949","0.0-5.0-2.13","610063614e6ba35532307dda","bdp_rd","Mon Mar 27 2023 14:47:23 GMT-0400 (Eastern Daylight Time)","227400","","1455","","","","offer","","<div class='trialBorder'><div class='vertical-center'><img style='vertical-align:center; align:center' src=img/fixation3.jpg></div><div class='cl'><div class='vertical-center'>$43<br>with a<br>50% chance</div></div><div class='cr'><div class='vertical-center'>$17<br>for<br>sure</div></div><div class='respDivL'><div class='vertical-center'>(E)</div></div><div class='respDivR'><div class='vertical-center'>(I)</div></div></div>","E","$17","$43","1","17","43","RISKY"
"html-keyboard-response","45","74203","0.0-5.0-3.13","610063614e6ba35532307dda","bdp_rd","Mon Mar 27 2023 14:47:23 GMT-0400 (Eastern Daylight Time)","227400","","null","","","","offerFB","","<div class='trialBorder'><div class='vertical-center'><img style='vertical-align:center; align:center' src=img/fixation3.jpg></div><div class='cl'><div class='vertical-center'><font style='color:orange'>$43<br>with a<br>50% chance</font></div></div><div class='cr'><div class='vertical-center'>$17<br>for<br>sure</div></div><div class='respDivL'><div class='vertical-center'><font style='color:orange'>(E)</font></div></div><div class='respDivR'><div class='vertical-center'>(I)</div></div></div>","null","$17","$43","1","17","43",""
"html-keyboard-response","46","74707","0.0-5.0-1.14","610063614e6ba35532307dda","bdp_rd","Mon Mar 27 2023 14:47:23 GMT-0400 (Eastern Daylight Time)","227400","","null","","","","FIX","","<div class='trialBorder'><div class='vertical-center'><img style='vertical-align:center; align:center' src=img/fixation3.jpg></div></div>","null","","","","","",""
"html-keyboard-response","47","76520","0.0-5.0-2.14","610063614e6ba35532307dda","bdp_rd","Mon Mar 27 2023 14:47:23 GMT-0400 (Eastern Daylight Time)","227400","","1812","","","","offer","","<div class='trialBorder'><div class='vertical-center'><img style='vertical-align:center; align:center' src=img/fixation3.jpg></div><div class='cl'><div class='vertical-center'>$13<br>for<br>sure</div></div><div class='cr'><div class='vertical-center'>$41<br>with a<br>50% chance</div></div><div class='respDivL'><div class='vertical-center'>(E)</div></div><div class='respDivR'><div class='vertical-center'>(I)</div></div></div>","I","$13","$41","0","13","41","RISKY"
"html-keyboard-response","48","76771","0.0-5.0-3.14","610063614e6ba35532307dda","bdp_rd","Mon Mar 27 2023 14:47:23 GMT-0400 (Eastern Daylight Time)","227400","","null","","","","offerFB","","<div class='trialBorder'><div class='vertical-center'><img style='vertical-align:center; align:center' src=img/fixation3.jpg></div><div class='cl'><div class='vertical-center'>$13<br>for<br>sure</div></div><div class='cr'><div class='vertical-center'><font style='color:orange'>$41<br>with a<br>50% chance</font></div></div><div class='respDivL'><div class='vertical-center'>(E)</div></div><div class='respDivR'><div class='vertical-center'><font style='color:orange'>(I)</font></div></div></div>","null","$13","$41","0","13","41",""
"html-keyboard-response","49","77273","0.0-5.0-1.15","610063614e6ba35532307dda","bdp_rd","Mon Mar 27 2023 14:47:23 GMT-0400 (Eastern Daylight Time)","227400","","null","","","","FIX","","<div class='trialBorder'><div class='vertical-center'><img style='vertical-align:center; align:center' src=img/fixation3.jpg></div></div>","null","","","","","",""
"html-keyboard-response","50","78776","0.0-5.0-2.15","610063614e6ba35532307dda","bdp_rd","Mon Mar 27 2023 14:47:23 GMT-0400 (Eastern Daylight Time)","227400","","1502","","","","offer","","<div class='trialBorder'><div class='vertical-center'><img style='vertical-align:center; align:center' src=img/fixation3.jpg></div><div class='cl'><div class='vertical-center'>$50<br>with a<br>50% chance</div></div><div class='cr'><div class='vertical-center'>$5<br>for<br>sure</div></div><div class='respDivL'><div class='vertical-center'>(E)</div></div><div class='respDivR'><div class='vertical-center'>(I)</div></div></div>","E","$5","$50","1","5","50","RISKY"
"html-keyboard-response","51","79030","0.0-5.0-3.15","610063614e6ba35532307dda","bdp_rd","Mon Mar 27 2023 14:47:23 GMT-0400 (Eastern Daylight Time)","227400","","null","","","","offerFB","","<div class='trialBorder'><div class='vertical-center'><img style='vertical-align:center; align:center' src=img/fixation3.jpg></div><div class='cl'><div class='vertical-center'><font style='color:orange'>$50<br>with a<br>50% chance</font></div></div><div class='cr'><div class='vertical-center'>$5<br>for<br>sure</div></div><div class='respDivL'><div class='vertical-center'><font style='color:orange'>(E)</font></div></div><div class='respDivR'><div class='vertical-center'>(I)</div></div></div>","null","$5","$50","1","5","50",""
"html-keyboard-response","52","79535","0.0-5.0-1.16","610063614e6ba35532307dda","bdp_rd","Mon Mar 27 2023 14:47:23 GMT-0400 (Eastern Daylight Time)","227400","","null","","","","FIX","","<div class='trialBorder'><div class='vertical-center'><img style='vertical-align:center; align:center' src=img/fixation3.jpg></div></div>","null","","","","","",""
"html-keyboard-response","53","81234","0.0-5.0-2.16","610063614e6ba35532307dda","bdp_rd","Mon Mar 27 2023 14:47:23 GMT-0400 (Eastern Daylight Time)","227400","","1698","","","","offer","","<div class='trialBorder'><div class='vertical-center'><img style='vertical-align:center; align:center' src=img/fixation3.jpg></div><div class='cl'><div class='vertical-center'>$18<br>for<br>sure</div></div><div class='cr'><div class='vertical-center'>$39<br>with a<br>50% chance</div></div><div class='respDivL'><div class='vertical-center'>(E)</div></div><div class='respDivR'><div class='vertical-center'>(I)</div></div></div>","E","$18","$39","0","18","39","SURE"
"html-keyboard-response","54","81490","0.0-5.0-3.16","610063614e6ba35532307dda","bdp_rd","Mon Mar 27 2023 14:47:23 GMT-0400 (Eastern Daylight Time)","227400","","null","","","","offerFB","","<div class='trialBorder'><div class='vertical-center'><img style='vertical-align:center; align:center' src=img/fixation3.jpg></div><div class='cl'><div class='vertical-center'><font style='color:orange'>$18<br>for<br>sure</font></div></div><div class='cr'><div class='vertical-center'>$39<br>with a<br>50% chance</div></div><div class='respDivL'><div class='vertical-center'><font style='color:orange'>(E)</font></div></div><div class='respDivR'><div class='vertical-center'>(I)</div></div></div>","null","$18","$39","0","18","39",""
"html-keyboard-response","55","81996","0.0-5.0-1.17","610063614e6ba35532307dda","bdp_rd","Mon Mar 27 2023 14:47:23 GMT-0400 (Eastern Daylight Time)","227400","","null","","","","FIX","","<div class='trialBorder'><div class='vertical-center'><img style='vertical-align:center; align:center' src=img/fixation3.jpg></div></div>","null","","","","","",""
"html-keyboard-response","56","84841","0.0-5.0-2.17","610063614e6ba35532307dda","bdp_rd","Mon Mar 27 2023 14:47:23 GMT-0400 (Eastern Daylight Time)","227400","","2844","","","","offer","","<div class='trialBorder'><div class='vertical-center'><img style='vertical-align:center; align:center' src=img/fixation3.jpg></div><div class='cl'><div class='vertical-center'>$32<br>with a<br>50% chance</div></div><div class='cr'><div class='vertical-center'>$9<br>for<br>sure</div></div><div class='respDivL'><div class='vertical-center'>(E)</div></div><div class='respDivR'><div class='vertical-center'>(I)</div></div></div>","I","$9","$32","1","9","32","SURE"
"html-keyboard-response","57","85096","0.0-5.0-3.17","610063614e6ba35532307dda","bdp_rd","Mon Mar 27 2023 14:47:23 GMT-0400 (Eastern Daylight Time)","227400","","null","","","","offerFB","","<div class='trialBorder'><div class='vertical-center'><img style='vertical-align:center; align:center' src=img/fixation3.jpg></div><div class='cl'><div class='vertical-center'>$32<br>with a<br>50% chance</div></div><div class='cr'><div class='vertical-center'><font style='color:orange'>$9<br>for<br>sure</font></div></div><div class='respDivL'><div class='vertical-center'>(E)</div></div><div class='respDivR'><div class='vertical-center'><font style='color:orange'>(I)</font></div></div></div>","null","$9","$32","1","9","32",""
"html-keyboard-response","58","85601","0.0-5.0-1.18","610063614e6ba35532307dda","bdp_rd","Mon Mar 27 2023 14:47:23 GMT-0400 (Eastern Daylight Time)","227400","","null","","","","FIX","","<div class='trialBorder'><div class='vertical-center'><img style='vertical-align:center; align:center' src=img/fixation3.jpg></div></div>","null","","","","","",""
"html-keyboard-response","59","93773","0.0-5.0-2.18","610063614e6ba35532307dda","bdp_rd","Mon Mar 27 2023 14:47:23 GMT-0400 (Eastern Daylight Time)","227400","","8170","","","","offer","","<div class='trialBorder'><div class='vertical-center'><img style='vertical-align:center; align:center' src=img/fixation3.jpg></div><div class='cl'><div class='vertical-center'>$15<br>with a<br>50% chance</div></div><div class='cr'><div class='vertical-center'>$6<br>for<br>sure</div></div><div class='respDivL'><div class='vertical-center'>(E)</div></div><div class='respDivR'><div class='vertical-center'>(I)</div></div></div>","E","$6","$15","1","6","15","RISKY"
"html-keyboard-response","60","94027","0.0-5.0-3.18","610063614e6ba35532307dda","bdp_rd","Mon Mar 27 2023 14:47:23 GMT-0400 (Eastern Daylight Time)","227400","","null","","","","offerFB","","<div class='trialBorder'><div class='vertical-center'><img style='vertical-align:center; align:center' src=img/fixation3.jpg></div><div class='cl'><div class='vertical-center'><font style='color:orange'>$15<br>with a<br>50% chance</font></div></div><div class='cr'><div class='vertical-center'>$6<br>for<br>sure</div></div><div class='respDivL'><div class='vertical-center'><font style='color:orange'>(E)</font></div></div><div class='respDivR'><div class='vertical-center'>(I)</div></div></div>","null","$6","$15","1","6","15",""
"html-keyboard-response","61","94532","0.0-5.0-1.19","610063614e6ba35532307dda","bdp_rd","Mon Mar 27 2023 14:47:23 GMT-0400 (Eastern Daylight Time)","227400","","null","","","","FIX","","<div class='trialBorder'><div class='vertical-center'><img style='vertical-align:center; align:center' src=img/fixation3.jpg></div></div>","null","","","","","",""
"html-keyboard-response","62","115839","0.0-5.0-2.19","610063614e6ba35532307dda","bdp_rd","Mon Mar 27 2023 14:47:23 GMT-0400 (Eastern Daylight Time)","227400","","21306","","","","offer","","<div class='trialBorder'><div class='vertical-center'><img style='vertical-align:center; align:center' src=img/fixation3.jpg></div><div class='cl'><div class='vertical-center'>$25<br>for<br>sure</div></div><div class='cr'><div class='vertical-center'>$54<br>with a<br>50% chance</div></div><div class='respDivL'><div class='vertical-center'>(E)</div></div><div class='respDivR'><div class='vertical-center'>(I)</div></div></div>","I","$25","$54","0","25","54","RISKY"
"html-keyboard-response","63","116092","0.0-5.0-3.19","610063614e6ba35532307dda","bdp_rd","Mon Mar 27 2023 14:47:23 GMT-0400 (Eastern Daylight Time)","227400","","null","","","","offerFB","","<div class='trialBorder'><div class='vertical-center'><img style='vertical-align:center; align:center' src=img/fixation3.jpg></div><div class='cl'><div class='vertical-center'>$25<br>for<br>sure</div></div><div class='cr'><div class='vertical-center'><font style='color:orange'>$54<br>with a<br>50% chance</font></div></div><div class='respDivL'><div class='vertical-center'>(E)</div></div><div class='respDivR'><div class='vertical-center'><font style='color:orange'>(I)</font></div></div></div>","null","$25","$54","0","25","54",""
"html-keyboard-response","64","116595","0.0-5.0-1.20","610063614e6ba35532307dda","bdp_rd","Mon Mar 27 2023 14:47:23 GMT-0400 (Eastern Daylight Time)","227400","","null","","","","FIX","","<div class='trialBorder'><div class='vertical-center'><img style='vertical-align:center; align:center' src=img/fixation3.jpg></div></div>","null","","","","","",""
"html-keyboard-response","65","118213","0.0-5.0-2.20","610063614e6ba35532307dda","bdp_rd","Mon Mar 27 2023 14:47:23 GMT-0400 (Eastern Daylight Time)","227400","","1617","","","","offer","","<div class='trialBorder'><div class='vertical-center'><img style='vertical-align:center; align:center' src=img/fixation3.jpg></div><div class='cl'><div class='vertical-center'>$28<br>for<br>sure</div></div><div class='cr'><div class='vertical-center'>$89<br>with a<br>50% chance</div></div><div class='respDivL'><div class='vertical-center'>(E)</div></div><div class='respDivR'><div class='vertical-center'>(I)</div></div></div>","I","$28","$89","0","28","89","RISKY"
"html-keyboard-response","66","118464","0.0-5.0-3.20","610063614e6ba35532307dda","bdp_rd","Mon Mar 27 2023 14:47:23 GMT-0400 (Eastern Daylight Time)","227400","","null","","","","offerFB","","<div class='trialBorder'><div class='vertical-center'><img style='vertical-align:center; align:center' src=img/fixation3.jpg></div><div class='cl'><div class='vertical-center'>$28<br>for<br>sure</div></div><div class='cr'><div class='vertical-center'><font style='color:orange'>$89<br>with a<br>50% chance</font></div></div><div class='respDivL'><div class='vertical-center'>(E)</div></div><div class='respDivR'><div class='vertical-center'><font style='color:orange'>(I)</font></div></div></div>","null","$28","$89","0","28","89",""
"html-keyboard-response","67","118966","0.0-5.0-1.21","610063614e6ba35532307dda","bdp_rd","Mon Mar 27 2023 14:47:23 GMT-0400 (Eastern Daylight Time)","227400","","null","","","","FIX","","<div class='trialBorder'><div class='vertical-center'><img style='vertical-align:center; align:center' src=img/fixation3.jpg></div></div>","null","","","","","",""
"html-keyboard-response","68","120155","0.0-5.0-2.21","610063614e6ba35532307dda","bdp_rd","Mon Mar 27 2023 14:47:23 GMT-0400 (Eastern Daylight Time)","227400","","1188","","","","offer","","<div class='trialBorder'><div class='vertical-center'><img style='vertical-align:center; align:center' src=img/fixation3.jpg></div><div class='cl'><div class='vertical-center'>$26<br>for<br>sure</div></div><div class='cr'><div class='vertical-center'>$92<br>with a<br>50% chance</div></div><div class='respDivL'><div class='vertical-center'>(E)</div></div><div class='respDivR'><div class='vertical-center'>(I)</div></div></div>","I","$26","$92","0","26","92","RISKY"
"html-keyboard-response","69","120409","0.0-5.0-3.21","610063614e6ba35532307dda","bdp_rd","Mon Mar 27 2023 14:47:23 GMT-0400 (Eastern Daylight Time)","227400","","null","","","","offerFB","","<div class='trialBorder'><div class='vertical-center'><img style='vertical-align:center; align:center' src=img/fixation3.jpg></div><div class='cl'><div class='vertical-center'>$26<br>for<br>sure</div></div><div class='cr'><div class='vertical-center'><font style='color:orange'>$92<br>with a<br>50% chance</font></div></div><div class='respDivL'><div class='vertical-center'>(E)</div></div><div class='respDivR'><div class='vertical-center'><font style='color:orange'>(I)</font></div></div></div>","null","$26","$92","0","26","92",""
"html-keyboard-response","70","120911","0.0-5.0-1.22","610063614e6ba35532307dda","bdp_rd","Mon Mar 27 2023 14:47:23 GMT-0400 (Eastern Daylight Time)","227400","","null","","","","FIX","","<div class='trialBorder'><div class='vertical-center'><img style='vertical-align:center; align:center' src=img/fixation3.jpg></div></div>","null","","","","","",""
"html-keyboard-response","71","122556","0.0-5.0-2.22","610063614e6ba35532307dda","bdp_rd","Mon Mar 27 2023 14:47:23 GMT-0400 (Eastern Daylight Time)","227400","","1643","","","","offer","","<div class='trialBorder'><div class='vertical-center'><img style='vertical-align:center; align:center' src=img/fixation3.jpg></div><div class='cl'><div class='vertical-center'>$21<br>with a<br>50% chance</div></div><div class='cr'><div class='vertical-center'>$2<br>for<br>sure</div></div><div class='respDivL'><div class='vertical-center'>(E)</div></div><div class='respDivR'><div class='vertical-center'>(I)</div></div></div>","E","$2","$21","1","2","21","RISKY"
"html-keyboard-response","72","122812","0.0-5.0-3.22","610063614e6ba35532307dda","bdp_rd","Mon Mar 27 2023 14:47:23 GMT-0400 (Eastern Daylight Time)","227400","","null","","","","offerFB","","<div class='trialBorder'><div class='vertical-center'><img style='vertical-align:center; align:center' src=img/fixation3.jpg></div><div class='cl'><div class='vertical-center'><font style='color:orange'>$21<br>with a<br>50% chance</font></div></div><div class='cr'><div class='vertical-center'>$2<br>for<br>sure</div></div><div class='respDivL'><div class='vertical-center'><font style='color:orange'>(E)</font></div></div><div class='respDivR'><div class='vertical-center'>(I)</div></div></div>","null","$2","$21","1","2","21",""
"html-keyboard-response","73","123318","0.0-5.0-1.23","610063614e6ba35532307dda","bdp_rd","Mon Mar 27 2023 14:47:23 GMT-0400 (Eastern Daylight Time)","227400","","null","","","","FIX","","<div class='trialBorder'><div class='vertical-center'><img style='vertical-align:center; align:center' src=img/fixation3.jpg></div></div>","null","","","","","",""
"html-keyboard-response","74","124677","0.0-5.0-2.23","610063614e6ba35532307dda","bdp_rd","Mon Mar 27 2023 14:47:23 GMT-0400 (Eastern Daylight Time)","227400","","1359","","","","offer","","<div class='trialBorder'><div class='vertical-center'><img style='vertical-align:center; align:center' src=img/fixation3.jpg></div><div class='cl'><div class='vertical-center'>$39<br>for<br>sure</div></div><div class='cr'><div class='vertical-center'>$81<br>with a<br>50% chance</div></div><div class='respDivL'><div class='vertical-center'>(E)</div></div><div class='respDivR'><div class='vertical-center'>(I)</div></div></div>","I","$39","$81","0","39","81","RISKY"
"html-keyboard-response","75","124933","0.0-5.0-3.23","610063614e6ba35532307dda","bdp_rd","Mon Mar 27 2023 14:47:23 GMT-0400 (Eastern Daylight Time)","227400","","null","","","","offerFB","","<div class='trialBorder'><div class='vertical-center'><img style='vertical-align:center; align:center' src=img/fixation3.jpg></div><div class='cl'><div class='vertical-center'>$39<br>for<br>sure</div></div><div class='cr'><div class='vertical-center'><font style='color:orange'>$81<br>with a<br>50% chance</font></div></div><div class='respDivL'><div class='vertical-center'>(E)</div></div><div class='respDivR'><div class='vertical-center'><font style='color:orange'>(I)</font></div></div></div>","null","$39","$81","0","39","81",""
"html-keyboard-response","76","125436","0.0-5.0-1.24","610063614e6ba35532307dda","bdp_rd","Mon Mar 27 2023 14:47:23 GMT-0400 (Eastern Daylight Time)","227400","","null","","","","FIX","","<div class='trialBorder'><div class='vertical-center'><img style='vertical-align:center; align:center' src=img/fixation3.jpg></div></div>","null","","","","","",""
"html-keyboard-response","77","127281","0.0-5.0-2.24","610063614e6ba35532307dda","bdp_rd","Mon Mar 27 2023 14:47:23 GMT-0400 (Eastern Daylight Time)","227400","","1842","","","","offer","","<div class='trialBorder'><div class='vertical-center'><img style='vertical-align:center; align:center' src=img/fixation3.jpg></div><div class='cl'><div class='vertical-center'>$63<br>for<br>sure</div></div><div class='cr'><div class='vertical-center'>$100<br>with a<br>50% chance</div></div><div class='respDivL'><div class='vertical-center'>(E)</div></div><div class='respDivR'><div class='vertical-center'>(I)</div></div></div>","E","$63","$100","0","63","10","SURE"
"html-keyboard-response","78","127537","0.0-5.0-3.24","610063614e6ba35532307dda","bdp_rd","Mon Mar 27 2023 14:47:23 GMT-0400 (Eastern Daylight Time)","227400","","null","","","","offerFB","","<div class='trialBorder'><div class='vertical-center'><img style='vertical-align:center; align:center' src=img/fixation3.jpg></div><div class='cl'><div class='vertical-center'><font style='color:orange'>$63<br>for<br>sure</font></div></div><div class='cr'><div class='vertical-center'>$100<br>with a<br>50% chance</div></div><div class='respDivL'><div class='vertical-center'><font style='color:orange'>(E)</font></div></div><div class='respDivR'><div class='vertical-center'>(I)</div></div></div>","null","$63","$100","0","63","10",""
"html-keyboard-response","79","128043","0.0-5.0-1.25","610063614e6ba35532307dda","bdp_rd","Mon Mar 27 2023 14:47:23 GMT-0400 (Eastern Daylight Time)","227400","","null","","","","FIX","","<div class='trialBorder'><div class='vertical-center'><img style='vertical-align:center; align:center' src=img/fixation3.jpg></div></div>","null","","","","","",""
"html-keyboard-response","80","130276","0.0-5.0-2.25","610063614e6ba35532307dda","bdp_rd","Mon Mar 27 2023 14:47:23 GMT-0400 (Eastern Daylight Time)","227400","","2231","","","","offer","","<div class='trialBorder'><div class='vertical-center'><img style='vertical-align:center; align:center' src=img/fixation3.jpg></div><div class='cl'><div class='vertical-center'>$23<br>with a<br>50% chance</div></div><div class='cr'><div class='vertical-center'>$8<br>for<br>sure</div></div><div class='respDivL'><div class='vertical-center'>(E)</div></div><div class='respDivR'><div class='vertical-center'>(I)</div></div></div>","E","$8","$23","1","8","23","RISKY"
"html-keyboard-response","81","130528","0.0-5.0-3.25","610063614e6ba35532307dda","bdp_rd","Mon Mar 27 2023 14:47:23 GMT-0400 (Eastern Daylight Time)","227400","","null","","","","offerFB","","<div class='trialBorder'><div class='vertical-center'><img style='vertical-align:center; align:center' src=img/fixation3.jpg></div><div class='cl'><div class='vertical-center'><font style='color:orange'>$23<br>with a<br>50% chance</font></div></div><div class='cr'><div class='vertical-center'>$8<br>for<br>sure</div></div><div class='respDivL'><div class='vertical-center'><font style='color:orange'>(E)</font></div></div><div class='respDivR'><div class='vertical-center'>(I)</div></div></div>","null","$8","$23","1","8","23",""
"html-keyboard-response","82","131029","0.0-5.0-1.26","610063614e6ba35532307dda","bdp_rd","Mon Mar 27 2023 14:47:23 GMT-0400 (Eastern Daylight Time)","227400","","null","","","","FIX","","<div class='trialBorder'><div class='vertical-center'><img style='vertical-align:center; align:center' src=img/fixation3.jpg></div></div>","null","","","","","",""
"html-keyboard-response","83","132334","0.0-5.0-2.26","610063614e6ba35532307dda","bdp_rd","Mon Mar 27 2023 14:47:23 GMT-0400 (Eastern Daylight Time)","227400","","1303","","","","offer","","<div class='trialBorder'><div class='vertical-center'><img style='vertical-align:center; align:center' src=img/fixation3.jpg></div><div class='cl'><div class='vertical-center'>$5<br>for<br>sure</div></div><div class='cr'><div class='vertical-center'>$16<br>with a<br>50% chance</div></div><div class='respDivL'><div class='vertical-center'>(E)</div></div><div class='respDivR'><div class='vertical-center'>(I)</div></div></div>","E","$5","$16","0","5","16","SURE"
"html-keyboard-response","84","132589","0.0-5.0-3.26","610063614e6ba35532307dda","bdp_rd","Mon Mar 27 2023 14:47:23 GMT-0400 (Eastern Daylight Time)","227400","","null","","","","offerFB","","<div class='trialBorder'><div class='vertical-center'><img style='vertical-align:center; align:center' src=img/fixation3.jpg></div><div class='cl'><div class='vertical-center'><font style='color:orange'>$5<br>for<br>sure</font></div></div><div class='cr'><div class='vertical-center'>$16<br>with a<br>50% chance</div></div><div class='respDivL'><div class='vertical-center'><font style='color:orange'>(E)</font></div></div><div class='respDivR'><div class='vertical-center'>(I)</div></div></div>","null","$5","$16","0","5","16",""
"html-keyboard-response","85","133094","0.0-5.0-1.27","610063614e6ba35532307dda","bdp_rd","Mon Mar 27 2023 14:47:23 GMT-0400 (Eastern Daylight Time)","227400","","null","","","","FIX","","<div class='trialBorder'><div class='vertical-center'><img style='vertical-align:center; align:center' src=img/fixation3.jpg></div></div>","null","","","","","",""
"html-keyboard-response","86","134638","0.0-5.0-2.27","610063614e6ba35532307dda","bdp_rd","Mon Mar 27 2023 14:47:23 GMT-0400 (Eastern Daylight Time)","227400","","1542","","","","offer","","<div class='trialBorder'><div class='vertical-center'><img style='vertical-align:center; align:center' src=img/fixation3.jpg></div><div class='cl'><div class='vertical-center'>$62<br>with a<br>50% chance</div></div><div class='cr'><div class='vertical-center'>$11<br>for<br>sure</div></div><div class='respDivL'><div class='vertical-center'>(E)</div></div><div class='respDivR'><div class='vertical-center'>(I)</div></div></div>","E","$11","$62","1","11","62","RISKY"
"html-keyboard-response","87","134893","0.0-5.0-3.27","610063614e6ba35532307dda","bdp_rd","Mon Mar 27 2023 14:47:23 GMT-0400 (Eastern Daylight Time)","227400","","null","","","","offerFB","","<div class='trialBorder'><div class='vertical-center'><img style='vertical-align:center; align:center' src=img/fixation3.jpg></div><div class='cl'><div class='vertical-center'><font style='color:orange'>$62<br>with a<br>50% chance</font></div></div><div class='cr'><div class='vertical-center'>$11<br>for<br>sure</div></div><div class='respDivL'><div class='vertical-center'><font style='color:orange'>(E)</font></div></div><div class='respDivR'><div class='vertical-center'>(I)</div></div></div>","null","$11","$62","1","11","62",""
"html-keyboard-response","88","135395","0.0-5.0-1.28","610063614e6ba35532307dda","bdp_rd","Mon Mar 27 2023 14:47:23 GMT-0400 (Eastern Daylight Time)","227400","","null","","","","FIX","","<div class='trialBorder'><div class='vertical-center'><img style='vertical-align:center; align:center' src=img/fixation3.jpg></div></div>","null","","","","","",""
"html-keyboard-response","89","137883","0.0-5.0-2.28","610063614e6ba35532307dda","bdp_rd","Mon Mar 27 2023 14:47:23 GMT-0400 (Eastern Daylight Time)","227400","","2487","","","","offer","","<div class='trialBorder'><div class='vertical-center'><img style='vertical-align:center; align:center' src=img/fixation3.jpg></div><div class='cl'><div class='vertical-center'>$25<br>with a<br>50% chance</div></div><div class='cr'><div class='vertical-center'>$21<br>for<br>sure</div></div><div class='respDivL'><div class='vertical-center'>(E)</div></div><div class='respDivR'><div class='vertical-center'>(I)</div></div></div>","I","$21","$25","1","21","25","SURE"
"html-keyboard-response","90","138140","0.0-5.0-3.28","610063614e6ba35532307dda","bdp_rd","Mon Mar 27 2023 14:47:23 GMT-0400 (Eastern Daylight Time)","227400","","null","","","","offerFB","","<div class='trialBorder'><div class='vertical-center'><img style='vertical-align:center; align:center' src=img/fixation3.jpg></div><div class='cl'><div class='vertical-center'>$25<br>with a<br>50% chance</div></div><div class='cr'><div class='vertical-center'><font style='color:orange'>$21<br>for<br>sure</font></div></div><div class='respDivL'><div class='vertical-center'>(E)</div></div><div class='respDivR'><div class='vertical-center'><font style='color:orange'>(I)</font></div></div></div>","null","$21","$25","1","21","25",""
"html-keyboard-response","91","138643","0.0-5.0-1.29","610063614e6ba35532307dda","bdp_rd","Mon Mar 27 2023 14:47:23 GMT-0400 (Eastern Daylight Time)","227400","","null","","","","FIX","","<div class='trialBorder'><div class='vertical-center'><img style='vertical-align:center; align:center' src=img/fixation3.jpg></div></div>","null","","","","","",""
"html-keyboard-response","92","141192","0.0-5.0-2.29","610063614e6ba35532307dda","bdp_rd","Mon Mar 27 2023 14:47:23 GMT-0400 (Eastern Daylight Time)","227400","","2548","","","","offer","","<div class='trialBorder'><div class='vertical-center'><img style='vertical-align:center; align:center' src=img/fixation3.jpg></div><div class='cl'><div class='vertical-center'>$14<br>for<br>sure</div></div><div class='cr'><div class='vertical-center'>$29<br>with a<br>50% chance</div></div><div class='respDivL'><div class='vertical-center'>(E)</div></div><div class='respDivR'><div class='vertical-center'>(I)</div></div></div>","I","$14","$29","0","14","29","RISKY"
"html-keyboard-response","93","141449","0.0-5.0-3.29","610063614e6ba35532307dda","bdp_rd","Mon Mar 27 2023 14:47:23 GMT-0400 (Eastern Daylight Time)","227400","","null","","","","offerFB","","<div class='trialBorder'><div class='vertical-center'><img style='vertical-align:center; align:center' src=img/fixation3.jpg></div><div class='cl'><div class='vertical-center'>$14<br>for<br>sure</div></div><div class='cr'><div class='vertical-center'><font style='color:orange'>$29<br>with a<br>50% chance</font></div></div><div class='respDivL'><div class='vertical-center'>(E)</div></div><div class='respDivR'><div class='vertical-center'><font style='color:orange'>(I)</font></div></div></div>","null","$14","$29","0","14","29",""
"html-keyboard-response","94","141952","0.0-5.0-1.30","610063614e6ba35532307dda","bdp_rd","Mon Mar 27 2023 14:47:23 GMT-0400 (Eastern Daylight Time)","227400","","null","","","","FIX","","<div class='trialBorder'><div class='vertical-center'><img style='vertical-align:center; align:center' src=img/fixation3.jpg></div></div>","null","","","","","",""
"html-keyboard-response","95","143296","0.0-5.0-2.30","610063614e6ba35532307dda","bdp_rd","Mon Mar 27 2023 14:47:23 GMT-0400 (Eastern Daylight Time)","227400","","1342","","","","offer","","<div class='trialBorder'><div class='vertical-center'><img style='vertical-align:center; align:center' src=img/fixation3.jpg></div><div class='cl'><div class='vertical-center'>$12<br>for<br>sure</div></div><div class='cr'><div class='vertical-center'>$35<br>with a<br>50% chance</div></div><div class='respDivL'><div class='vertical-center'>(E)</div></div><div class='respDivR'><div class='vertical-center'>(I)</div></div></div>","E","$12","$35","0","12","35","SURE"
"html-keyboard-response","96","143551","0.0-5.0-3.30","610063614e6ba35532307dda","bdp_rd","Mon Mar 27 2023 14:47:23 GMT-0400 (Eastern Daylight Time)","227400","","null","","","","offerFB","","<div class='trialBorder'><div class='vertical-center'><img style='vertical-align:center; align:center' src=img/fixation3.jpg></div><div class='cl'><div class='vertical-center'><font style='color:orange'>$12<br>for<br>sure</font></div></div><div class='cr'><div class='vertical-center'>$35<br>with a<br>50% chance</div></div><div class='respDivL'><div class='vertical-center'><font style='color:orange'>(E)</font></div></div><div class='respDivR'><div class='vertical-center'>(I)</div></div></div>","null","$12","$35","0","12","35",""
"html-keyboard-response","97","144054","0.0-5.0-1.31","610063614e6ba35532307dda","bdp_rd","Mon Mar 27 2023 14:47:23 GMT-0400 (Eastern Daylight Time)","227400","","null","","","","FIX","","<div class='trialBorder'><div class='vertical-center'><img style='vertical-align:center; align:center' src=img/fixation3.jpg></div></div>","null","","","","","",""
"html-keyboard-response","98","145204","0.0-5.0-2.31","610063614e6ba35532307dda","bdp_rd","Mon Mar 27 2023 14:47:23 GMT-0400 (Eastern Daylight Time)","227400","","1149","","","","offer","","<div class='trialBorder'><div class='vertical-center'><img style='vertical-align:center; align:center' src=img/fixation3.jpg></div><div class='cl'><div class='vertical-center'>$9<br>for<br>sure</div></div><div class='cr'><div class='vertical-center'>$18<br>with a<br>50% chance</div></div><div class='respDivL'><div class='vertical-center'>(E)</div></div><div class='respDivR'><div class='vertical-center'>(I)</div></div></div>","E","$9","$18","0","9","18","SURE"
"html-keyboard-response","99","145459","0.0-5.0-3.31","610063614e6ba35532307dda","bdp_rd","Mon Mar 27 2023 14:47:23 GMT-0400 (Eastern Daylight Time)","227400","","null","","","","offerFB","","<div class='trialBorder'><div class='vertical-center'><img style='vertical-align:center; align:center' src=img/fixation3.jpg></div><div class='cl'><div class='vertical-center'><font style='color:orange'>$9<br>for<br>sure</font></div></div><div class='cr'><div class='vertical-center'>$18<br>with a<br>50% chance</div></div><div class='respDivL'><div class='vertical-center'><font style='color:orange'>(E)</font></div></div><div class='respDivR'><div class='vertical-center'>(I)</div></div></div>","null","$9","$18","0","9","18",""
"html-keyboard-response","100","145960","0.0-5.0-1.32","610063614e6ba35532307dda","bdp_rd","Mon Mar 27 2023 14:47:23 GMT-0400 (Eastern Daylight Time)","227400","","null","","","","FIX","","<div class='trialBorder'><div class='vertical-center'><img style='vertical-align:center; align:center' src=img/fixation3.jpg></div></div>","null","","","","","",""
"html-keyboard-response","101","147069","0.0-5.0-2.32","610063614e6ba35532307dda","bdp_rd","Mon Mar 27 2023 14:47:23 GMT-0400 (Eastern Daylight Time)","227400","","1108","","","","offer","","<div class='trialBorder'><div class='vertical-center'><img style='vertical-align:center; align:center' src=img/fixation3.jpg></div><div class='cl'><div class='vertical-center'>$31<br>for<br>sure</div></div><div class='cr'><div class='vertical-center'>$78<br>with a<br>50% chance</div></div><div class='respDivL'><div class='vertical-center'>(E)</div></div><div class='respDivR'><div class='vertical-center'>(I)</div></div></div>","I","$31","$78","0","31","78","RISKY"
"html-keyboard-response","102","147322","0.0-5.0-3.32","610063614e6ba35532307dda","bdp_rd","Mon Mar 27 2023 14:47:23 GMT-0400 (Eastern Daylight Time)","227400","","null","","","","offerFB","","<div class='trialBorder'><div class='vertical-center'><img style='vertical-align:center; align:center' src=img/fixation3.jpg></div><div class='cl'><div class='vertical-center'>$31<br>for<br>sure</div></div><div class='cr'><div class='vertical-center'><font style='color:orange'>$78<br>with a<br>50% chance</font></div></div><div class='respDivL'><div class='vertical-center'>(E)</div></div><div class='respDivR'><div class='vertical-center'><font style='color:orange'>(I)</font></div></div></div>","null","$31","$78","0","31","78",""
"html-keyboard-response","103","147827","0.0-5.0-1.33","610063614e6ba35532307dda","bdp_rd","Mon Mar 27 2023 14:47:23 GMT-0400 (Eastern Daylight Time)","227400","","null","","","","FIX","","<div class='trialBorder'><div class='vertical-center'><img style='vertical-align:center; align:center' src=img/fixation3.jpg></div></div>","null","","","","","",""
"html-keyboard-response","104","149707","0.0-5.0-2.33","610063614e6ba35532307dda","bdp_rd","Mon Mar 27 2023 14:47:23 GMT-0400 (Eastern Daylight Time)","227400","","1878","","","","offer","","<div class='trialBorder'><div class='vertical-center'><img style='vertical-align:center; align:center' src=img/fixation3.jpg></div><div class='cl'><div class='vertical-center'>$20<br>for<br>sure</div></div><div class='cr'><div class='vertical-center'>$37<br>with a<br>50% chance</div></div><div class='respDivL'><div class='vertical-center'>(E)</div></div><div class='respDivR'><div class='vertical-center'>(I)</div></div></div>","E","$20","$37","0","20","37","SURE"
"html-keyboard-response","105","149963","0.0-5.0-3.33","610063614e6ba35532307dda","bdp_rd","Mon Mar 27 2023 14:47:23 GMT-0400 (Eastern Daylight Time)","227400","","null","","","","offerFB","","<div class='trialBorder'><div class='vertical-center'><img style='vertical-align:center; align:center' src=img/fixation3.jpg></div><div class='cl'><div class='vertical-center'><font style='color:orange'>$20<br>for<br>sure</font></div></div><div class='cr'><div class='vertical-center'>$37<br>with a<br>50% chance</div></div><div class='respDivL'><div class='vertical-center'><font style='color:orange'>(E)</font></div></div><div class='respDivR'><div class='vertical-center'>(I)</div></div></div>","null","$20","$37","0","20","37",""
"html-keyboard-response","106","150469","0.0-5.0-1.34","610063614e6ba35532307dda","bdp_rd","Mon Mar 27 2023 14:47:23 GMT-0400 (Eastern Daylight Time)","227400","","null","","","","FIX","","<div class='trialBorder'><div class='vertical-center'><img style='vertical-align:center; align:center' src=img/fixation3.jpg></div></div>","null","","","","","",""
"html-keyboard-response","107","152903","0.0-5.0-2.34","610063614e6ba35532307dda","bdp_rd","Mon Mar 27 2023 14:47:23 GMT-0400 (Eastern Daylight Time)","227400","","2433","","","","offer","","<div class='trialBorder'><div class='vertical-center'><img style='vertical-align:center; align:center' src=img/fixation3.jpg></div><div class='cl'><div class='vertical-center'>$31<br>with a<br>50% chance</div></div><div class='cr'><div class='vertical-center'>$15<br>for<br>sure</div></div><div class='respDivL'><div class='vertical-center'>(E)</div></div><div class='respDivR'><div class='vertical-center'>(I)</div></div></div>","I","$15","$31","1","15","31","SURE"
"html-keyboard-response","108","153159","0.0-5.0-3.34","610063614e6ba35532307dda","bdp_rd","Mon Mar 27 2023 14:47:23 GMT-0400 (Eastern Daylight Time)","227400","","null","","","","offerFB","","<div class='trialBorder'><div class='vertical-center'><img style='vertical-align:center; align:center' src=img/fixation3.jpg></div><div class='cl'><div class='vertical-center'>$31<br>with a<br>50% chance</div></div><div class='cr'><div class='vertical-center'><font style='color:orange'>$15<br>for<br>sure</font></div></div><div class='respDivL'><div class='vertical-center'>(E)</div></div><div class='respDivR'><div class='vertical-center'><font style='color:orange'>(I)</font></div></div></div>","null","$15","$31","1","15","31",""
"html-keyboard-response","109","153662","0.0-5.0-1.35","610063614e6ba35532307dda","bdp_rd","Mon Mar 27 2023 14:47:23 GMT-0400 (Eastern Daylight Time)","227400","","null","","","","FIX","","<div class='trialBorder'><div class='vertical-center'><img style='vertical-align:center; align:center' src=img/fixation3.jpg></div></div>","null","","","","","",""
"html-keyboard-response","110","156139","0.0-5.0-2.35","610063614e6ba35532307dda","bdp_rd","Mon Mar 27 2023 14:47:23 GMT-0400 (Eastern Daylight Time)","227400","","2476","","","","offer","","<div class='trialBorder'><div class='vertical-center'><img style='vertical-align:center; align:center' src=img/fixation3.jpg></div><div class='cl'><div class='vertical-center'>$14<br>with a<br>50% chance</div></div><div class='cr'><div class='vertical-center'>$4<br>for<br>sure</div></div><div class='respDivL'><div class='vertical-center'>(E)</div></div><div class='respDivR'><div class='vertical-center'>(I)</div></div></div>","E","$4","$14","1","4","14","RISKY"
"html-keyboard-response","111","156391","0.0-5.0-3.35","610063614e6ba35532307dda","bdp_rd","Mon Mar 27 2023 14:47:23 GMT-0400 (Eastern Daylight Time)","227400","","null","","","","offerFB","","<div class='trialBorder'><div class='vertical-center'><img style='vertical-align:center; align:center' src=img/fixation3.jpg></div><div class='cl'><div class='vertical-center'><font style='color:orange'>$14<br>with a<br>50% chance</font></div></div><div class='cr'><div class='vertical-center'>$4<br>for<br>sure</div></div><div class='respDivL'><div class='vertical-center'><font style='color:orange'>(E)</font></div></div><div class='respDivR'><div class='vertical-center'>(I)</div></div></div>","null","$4","$14","1","4","14",""
"html-keyboard-response","112","156895","0.0-5.0-1.36","610063614e6ba35532307dda","bdp_rd","Mon Mar 27 2023 14:47:23 GMT-0400 (Eastern Daylight Time)","227400","","null","","","","FIX","","<div class='trialBorder'><div class='vertical-center'><img style='vertical-align:center; align:center' src=img/fixation3.jpg></div></div>","null","","","","","",""
"html-keyboard-response","113","157912","0.0-5.0-2.36","610063614e6ba35532307dda","bdp_rd","Mon Mar 27 2023 14:47:23 GMT-0400 (Eastern Daylight Time)","227400","","1016","","","","offer","","<div class='trialBorder'><div class='vertical-center'><img style='vertical-align:center; align:center' src=img/fixation3.jpg></div><div class='cl'><div class='vertical-center'>$33<br>with a<br>50% chance</div></div><div class='cr'><div class='vertical-center'>$1<br>for<br>sure</div></div><div class='respDivL'><div class='vertical-center'>(E)</div></div><div class='respDivR'><div class='vertical-center'>(I)</div></div></div>","E","$1","$33","1","1","33","RISKY"
"html-keyboard-response","114","158166","0.0-5.0-3.36","610063614e6ba35532307dda","bdp_rd","Mon Mar 27 2023 14:47:23 GMT-0400 (Eastern Daylight Time)","227400","","null","","","","offerFB","","<div class='trialBorder'><div class='vertical-center'><img style='vertical-align:center; align:center' src=img/fixation3.jpg></div><div class='cl'><div class='vertical-center'><font style='color:orange'>$33<br>with a<br>50% chance</font></div></div><div class='cr'><div class='vertical-center'>$1<br>for<br>sure</div></div><div class='respDivL'><div class='vertical-center'><font style='color:orange'>(E)</font></div></div><div class='respDivR'><div class='vertical-center'>(I)</div></div></div>","null","$1","$33","1","1","33",""
"html-keyboard-response","115","158668","0.0-5.0-1.37","610063614e6ba35532307dda","bdp_rd","Mon Mar 27 2023 14:47:23 GMT-0400 (Eastern Daylight Time)","227400","","null","","","","FIX","","<div class='trialBorder'><div class='vertical-center'><img style='vertical-align:center; align:center' src=img/fixation3.jpg></div></div>","null","","","","","",""
"html-keyboard-response","116","159894","0.0-5.0-2.37","610063614e6ba35532307dda","bdp_rd","Mon Mar 27 2023 14:47:23 GMT-0400 (Eastern Daylight Time)","227400","","1224","","","","offer","","<div class='trialBorder'><div class='vertical-center'><img style='vertical-align:center; align:center' src=img/fixation3.jpg></div><div class='cl'><div class='vertical-center'>$24<br>with a<br>50% chance</div></div><div class='cr'><div class='vertical-center'>$13<br>for<br>sure</div></div><div class='respDivL'><div class='vertical-center'>(E)</div></div><div class='respDivR'><div class='vertical-center'>(I)</div></div></div>","I","$13","$24","1","13","24","SURE"
"html-keyboard-response","117","160146","0.0-5.0-3.37","610063614e6ba35532307dda","bdp_rd","Mon Mar 27 2023 14:47:23 GMT-0400 (Eastern Daylight Time)","227400","","null","","","","offerFB","","<div class='trialBorder'><div class='vertical-center'><img style='vertical-align:center; align:center' src=img/fixation3.jpg></div><div class='cl'><div class='vertical-center'>$24<br>with a<br>50% chance</div></div><div class='cr'><div class='vertical-center'><font style='color:orange'>$13<br>for<br>sure</font></div></div><div class='respDivL'><div class='vertical-center'>(E)</div></div><div class='respDivR'><div class='vertical-center'><font style='color:orange'>(I)</font></div></div></div>","null","$13","$24","1","13","24",""
"html-keyboard-response","118","160647","0.0-5.0-1.38","610063614e6ba35532307dda","bdp_rd","Mon Mar 27 2023 14:47:23 GMT-0400 (Eastern Daylight Time)","227400","","null","","","","FIX","","<div class='trialBorder'><div class='vertical-center'><img style='vertical-align:center; align:center' src=img/fixation3.jpg></div></div>","null","","","","","",""
"html-keyboard-response","119","162220","0.0-5.0-2.38","610063614e6ba35532307dda","bdp_rd","Mon Mar 27 2023 14:47:23 GMT-0400 (Eastern Daylight Time)","227400","","1572","","","","offer","","<div class='trialBorder'><div class='vertical-center'><img style='vertical-align:center; align:center' src=img/fixation3.jpg></div><div class='cl'><div class='vertical-center'>$36<br>with a<br>50% chance</div></div><div class='cr'><div class='vertical-center'>$18<br>for<br>sure</div></div><div class='respDivL'><div class='vertical-center'>(E)</div></div><div class='respDivR'><div class='vertical-center'>(I)</div></div></div>","E","$18","$36","1","18","36","RISKY"
"html-keyboard-response","120","162476","0.0-5.0-3.38","610063614e6ba35532307dda","bdp_rd","Mon Mar 27 2023 14:47:23 GMT-0400 (Eastern Daylight Time)","227400","","null","","","","offerFB","","<div class='trialBorder'><div class='vertical-center'><img style='vertical-align:center; align:center' src=img/fixation3.jpg></div><div class='cl'><div class='vertical-center'><font style='color:orange'>$36<br>with a<br>50% chance</font></div></div><div class='cr'><div class='vertical-center'>$18<br>for<br>sure</div></div><div class='respDivL'><div class='vertical-center'><font style='color:orange'>(E)</font></div></div><div class='respDivR'><div class='vertical-center'>(I)</div></div></div>","null","$18","$36","1","18","36",""
"html-keyboard-response","121","162980","0.0-5.0-1.39","610063614e6ba35532307dda","bdp_rd","Mon Mar 27 2023 14:47:23 GMT-0400 (Eastern Daylight Time)","227400","","null","","","","FIX","","<div class='trialBorder'><div class='vertical-center'><img style='vertical-align:center; align:center' src=img/fixation3.jpg></div></div>","null","","","","","",""
"html-keyboard-response","122","163887","0.0-5.0-2.39","610063614e6ba35532307dda","bdp_rd","Mon Mar 27 2023 14:47:23 GMT-0400 (Eastern Daylight Time)","227400","","906","","","","offer","","<div class='trialBorder'><div class='vertical-center'><img style='vertical-align:center; align:center' src=img/fixation3.jpg></div><div class='cl'><div class='vertical-center'>$65<br>with a<br>50% chance</div></div><div class='cr'><div class='vertical-center'>$46<br>for<br>sure</div></div><div class='respDivL'><div class='vertical-center'>(E)</div></div><div class='respDivR'><div class='vertical-center'>(I)</div></div></div>","E","$46","$65","1","46","65","RISKY"
"html-keyboard-response","123","164140","0.0-5.0-3.39","610063614e6ba35532307dda","bdp_rd","Mon Mar 27 2023 14:47:23 GMT-0400 (Eastern Daylight Time)","227400","","null","","","","offerFB","","<div class='trialBorder'><div class='vertical-center'><img style='vertical-align:center; align:center' src=img/fixation3.jpg></div><div class='cl'><div class='vertical-center'><font style='color:orange'>$65<br>with a<br>50% chance</font></div></div><div class='cr'><div class='vertical-center'>$46<br>for<br>sure</div></div><div class='respDivL'><div class='vertical-center'><font style='color:orange'>(E)</font></div></div><div class='respDivR'><div class='vertical-center'>(I)</div></div></div>","null","$46","$65","1","46","65",""
"html-keyboard-response","124","164641","0.0-5.0-1.40","610063614e6ba35532307dda","bdp_rd","Mon Mar 27 2023 14:47:23 GMT-0400 (Eastern Daylight Time)","227400","","null","","","","FIX","","<div class='trialBorder'><div class='vertical-center'><img style='vertical-align:center; align:center' src=img/fixation3.jpg></div></div>","null","","","","","",""
"html-keyboard-response","125","166262","0.0-5.0-2.40","610063614e6ba35532307dda","bdp_rd","Mon Mar 27 2023 14:47:23 GMT-0400 (Eastern Daylight Time)","227400","","1620","","","","offer","","<div class='trialBorder'><div class='vertical-center'><img style='vertical-align:center; align:center' src=img/fixation3.jpg></div><div class='cl'><div class='vertical-center'>$22<br>for<br>sure</div></div><div class='cr'><div class='vertical-center'>$42<br>with a<br>50% chance</div></div><div class='respDivL'><div class='vertical-center'>(E)</div></div><div class='respDivR'><div class='vertical-center'>(I)</div></div></div>","E","$22","$42","0","22","42","SURE"
"html-keyboard-response","126","166518","0.0-5.0-3.40","610063614e6ba35532307dda","bdp_rd","Mon Mar 27 2023 14:47:23 GMT-0400 (Eastern Daylight Time)","227400","","null","","","","offerFB","","<div class='trialBorder'><div class='vertical-center'><img style='vertical-align:center; align:center' src=img/fixation3.jpg></div><div class='cl'><div class='vertical-center'><font style='color:orange'>$22<br>for<br>sure</font></div></div><div class='cr'><div class='vertical-center'>$42<br>with a<br>50% chance</div></div><div class='respDivL'><div class='vertical-center'><font style='color:orange'>(E)</font></div></div><div class='respDivR'><div class='vertical-center'>(I)</div></div></div>","null","$22","$42","0","22","42",""
"html-keyboard-response","127","167020","0.0-5.0-1.41","610063614e6ba35532307dda","bdp_rd","Mon Mar 27 2023 14:47:23 GMT-0400 (Eastern Daylight Time)","227400","","null","","","","FIX","","<div class='trialBorder'><div class='vertical-center'><img style='vertical-align:center; align:center' src=img/fixation3.jpg></div></div>","null","","","","","",""
"html-keyboard-response","128","168322","0.0-5.0-2.41","610063614e6ba35532307dda","bdp_rd","Mon Mar 27 2023 14:47:23 GMT-0400 (Eastern Daylight Time)","227400","","1301","","","","offer","","<div class='trialBorder'><div class='vertical-center'><img style='vertical-align:center; align:center' src=img/fixation3.jpg></div><div class='cl'><div class='vertical-center'>$45<br>with a<br>50% chance</div></div><div class='cr'><div class='vertical-center'>$8<br>for<br>sure</div></div><div class='respDivL'><div class='vertical-center'>(E)</div></div><div class='respDivR'><div class='vertical-center'>(I)</div></div></div>","E","$8","$45","1","8","45","RISKY"
"html-keyboard-response","129","168575","0.0-5.0-3.41","610063614e6ba35532307dda","bdp_rd","Mon Mar 27 2023 14:47:23 GMT-0400 (Eastern Daylight Time)","227400","","null","","","","offerFB","","<div class='trialBorder'><div class='vertical-center'><img style='vertical-align:center; align:center' src=img/fixation3.jpg></div><div class='cl'><div class='vertical-center'><font style='color:orange'>$45<br>with a<br>50% chance</font></div></div><div class='cr'><div class='vertical-center'>$8<br>for<br>sure</div></div><div class='respDivL'><div class='vertical-center'><font style='color:orange'>(E)</font></div></div><div class='respDivR'><div class='vertical-center'>(I)</div></div></div>","null","$8","$45","1","8","45",""
"html-keyboard-response","130","169077","0.0-5.0-1.42","610063614e6ba35532307dda","bdp_rd","Mon Mar 27 2023 14:47:23 GMT-0400 (Eastern Daylight Time)","227400","","null","","","","FIX","","<div class='trialBorder'><div class='vertical-center'><img style='vertical-align:center; align:center' src=img/fixation3.jpg></div></div>","null","","","","","",""
"html-keyboard-response","131","172227","0.0-5.0-2.42","610063614e6ba35532307dda","bdp_rd","Mon Mar 27 2023 14:47:23 GMT-0400 (Eastern Daylight Time)","227400","","3149","","","","offer","","<div class='trialBorder'><div class='vertical-center'><img style='vertical-align:center; align:center' src=img/fixation3.jpg></div><div class='cl'><div class='vertical-center'>$73<br>with a<br>50% chance</div></div><div class='cr'><div class='vertical-center'>$42<br>for<br>sure</div></div><div class='respDivL'><div class='vertical-center'>(E)</div></div><div class='respDivR'><div class='vertical-center'>(I)</div></div></div>","E","$42","$73","1","42","73","RISKY"
"html-keyboard-response","132","172482","0.0-5.0-3.42","610063614e6ba35532307dda","bdp_rd","Mon Mar 27 2023 14:47:23 GMT-0400 (Eastern Daylight Time)","227400","","null","","","","offerFB","","<div class='trialBorder'><div class='vertical-center'><img style='vertical-align:center; align:center' src=img/fixation3.jpg></div><div class='cl'><div class='vertical-center'><font style='color:orange'>$73<br>with a<br>50% chance</font></div></div><div class='cr'><div class='vertical-center'>$42<br>for<br>sure</div></div><div class='respDivL'><div class='vertical-center'><font style='color:orange'>(E)</font></div></div><div class='respDivR'><div class='vertical-center'>(I)</div></div></div>","null","$42","$73","1","42","73",""
"html-keyboard-response","133","172987","0.0-5.0-1.43","610063614e6ba35532307dda","bdp_rd","Mon Mar 27 2023 14:47:23 GMT-0400 (Eastern Daylight Time)","227400","","null","","","","FIX","","<div class='trialBorder'><div class='vertical-center'><img style='vertical-align:center; align:center' src=img/fixation3.jpg></div></div>","null","","","","","",""
"html-keyboard-response","134","174115","0.0-5.0-2.43","610063614e6ba35532307dda","bdp_rd","Mon Mar 27 2023 14:47:23 GMT-0400 (Eastern Daylight Time)","227400","","1126","","","","offer","","<div class='trialBorder'><div class='vertical-center'><img style='vertical-align:center; align:center' src=img/fixation3.jpg></div><div class='cl'><div class='vertical-center'>$10<br>for<br>sure</div></div><div class='cr'><div class='vertical-center'>$40<br>with a<br>50% chance</div></div><div class='respDivL'><div class='vertical-center'>(E)</div></div><div class='respDivR'><div class='vertical-center'>(I)</div></div></div>","I","$10","$40","0","10","40","RISKY"
"html-keyboard-response","135","174368","0.0-5.0-3.43","610063614e6ba35532307dda","bdp_rd","Mon Mar 27 2023 14:47:23 GMT-0400 (Eastern Daylight Time)","227400","","null","","","","offerFB","","<div class='trialBorder'><div class='vertical-center'><img style='vertical-align:center; align:center' src=img/fixation3.jpg></div><div class='cl'><div class='vertical-center'>$10<br>for<br>sure</div></div><div class='cr'><div class='vertical-center'><font style='color:orange'>$40<br>with a<br>50% chance</font></div></div><div class='respDivL'><div class='vertical-center'>(E)</div></div><div class='respDivR'><div class='vertical-center'><font style='color:orange'>(I)</font></div></div></div>","null","$10","$40","0","10","40",""
"html-keyboard-response","136","174870","0.0-5.0-1.44","610063614e6ba35532307dda","bdp_rd","Mon Mar 27 2023 14:47:23 GMT-0400 (Eastern Daylight Time)","227400","","null","","","","FIX","","<div class='trialBorder'><div class='vertical-center'><img style='vertical-align:center; align:center' src=img/fixation3.jpg></div></div>","null","","","","","",""
"html-keyboard-response","137","175903","0.0-5.0-2.44","610063614e6ba35532307dda","bdp_rd","Mon Mar 27 2023 14:47:23 GMT-0400 (Eastern Daylight Time)","227400","","1031","","","","offer","","<div class='trialBorder'><div class='vertical-center'><img style='vertical-align:center; align:center' src=img/fixation3.jpg></div><div class='cl'><div class='vertical-center'>$3<br>for<br>sure</div></div><div class='cr'><div class='vertical-center'>$17<br>with a<br>50% chance</div></div><div class='respDivL'><div class='vertical-center'>(E)</div></div><div class='respDivR'><div class='vertical-center'>(I)</div></div></div>","E","$3","$17","0","3","17","SURE"
"html-keyboard-response","138","176159","0.0-5.0-3.44","610063614e6ba35532307dda","bdp_rd","Mon Mar 27 2023 14:47:23 GMT-0400 (Eastern Daylight Time)","227400","","null","","","","offerFB","","<div class='trialBorder'><div class='vertical-center'><img style='vertical-align:center; align:center' src=img/fixation3.jpg></div><div class='cl'><div class='vertical-center'><font style='color:orange'>$3<br>for<br>sure</font></div></div><div class='cr'><div class='vertical-center'>$17<br>with a<br>50% chance</div></div><div class='respDivL'><div class='vertical-center'><font style='color:orange'>(E)</font></div></div><div class='respDivR'><div class='vertical-center'>(I)</div></div></div>","null","$3","$17","0","3","17",""
"html-keyboard-response","139","176662","0.0-5.0-1.45","610063614e6ba35532307dda","bdp_rd","Mon Mar 27 2023 14:47:23 GMT-0400 (Eastern Daylight Time)","227400","","null","","","","FIX","","<div class='trialBorder'><div class='vertical-center'><img style='vertical-align:center; align:center' src=img/fixation3.jpg></div></div>","null","","","","","",""
"html-keyboard-response","140","186373","0.0-5.0-2.45","610063614e6ba35532307dda","bdp_rd","Mon Mar 27 2023 14:47:23 GMT-0400 (Eastern Daylight Time)","227400","","9710","","","","offer","","<div class='trialBorder'><div class='vertical-center'><img style='vertical-align:center; align:center' src=img/fixation3.jpg></div><div class='cl'><div class='vertical-center'>$12<br>for<br>sure</div></div><div class='cr'><div class='vertical-center'>$27<br>with a<br>50% chance</div></div><div class='respDivL'><div class='vertical-center'>(E)</div></div><div class='respDivR'><div class='vertical-center'>(I)</div></div></div>","E","$12","$27","0","12","27","SURE"
"html-keyboard-response","141","186626","0.0-5.0-3.45","610063614e6ba35532307dda","bdp_rd","Mon Mar 27 2023 14:47:23 GMT-0400 (Eastern Daylight Time)","227400","","null","","","","offerFB","","<div class='trialBorder'><div class='vertical-center'><img style='vertical-align:center; align:center' src=img/fixation3.jpg></div><div class='cl'><div class='vertical-center'><font style='color:orange'>$12<br>for<br>sure</font></div></div><div class='cr'><div class='vertical-center'>$27<br>with a<br>50% chance</div></div><div class='respDivL'><div class='vertical-center'><font style='color:orange'>(E)</font></div></div><div class='respDivR'><div class='vertical-center'>(I)</div></div></div>","null","$12","$27","0","12","27",""
"html-keyboard-response","142","187129","0.0-5.0-1.46","610063614e6ba35532307dda","bdp_rd","Mon Mar 27 2023 14:47:23 GMT-0400 (Eastern Daylight Time)","227400","","null","","","","FIX","","<div class='trialBorder'><div class='vertical-center'><img style='vertical-align:center; align:center' src=img/fixation3.jpg></div></div>","null","","","","","",""
"html-keyboard-response","143","188700","0.0-5.0-2.46","610063614e6ba35532307dda","bdp_rd","Mon Mar 27 2023 14:47:23 GMT-0400 (Eastern Daylight Time)","227400","","1570","","","","offer","","<div class='trialBorder'><div class='vertical-center'><img style='vertical-align:center; align:center' src=img/fixation3.jpg></div><div class='cl'><div class='vertical-center'>$45<br>for<br>sure</div></div><div class='cr'><div class='vertical-center'>$86<br>with a<br>50% chance</div></div><div class='respDivL'><div class='vertical-center'>(E)</div></div><div class='respDivR'><div class='vertical-center'>(I)</div></div></div>","E","$45","$86","0","45","86","SURE"
"html-keyboard-response","144","188956","0.0-5.0-3.46","610063614e6ba35532307dda","bdp_rd","Mon Mar 27 2023 14:47:23 GMT-0400 (Eastern Daylight Time)","227400","","null","","","","offerFB","","<div class='trialBorder'><div class='vertical-center'><img style='vertical-align:center; align:center' src=img/fixation3.jpg></div><div class='cl'><div class='vertical-center'><font style='color:orange'>$45<br>for<br>sure</font></div></div><div class='cr'><div class='vertical-center'>$86<br>with a<br>50% chance</div></div><div class='respDivL'><div class='vertical-center'><font style='color:orange'>(E)</font></div></div><div class='respDivR'><div class='vertical-center'>(I)</div></div></div>","null","$45","$86","0","45","86",""
"html-keyboard-response","145","189462","0.0-5.0-1.47","610063614e6ba35532307dda","bdp_rd","Mon Mar 27 2023 14:47:23 GMT-0400 (Eastern Daylight Time)","227400","","null","","","","FIX","","<div class='trialBorder'><div class='vertical-center'><img style='vertical-align:center; align:center' src=img/fixation3.jpg></div></div>","null","","","","","",""
"html-keyboard-response","146","190855","0.0-5.0-2.47","610063614e6ba35532307dda","bdp_rd","Mon Mar 27 2023 14:47:23 GMT-0400 (Eastern Daylight Time)","227400","","1392","","","","offer","","<div class='trialBorder'><div class='vertical-center'><img style='vertical-align:center; align:center' src=img/fixation3.jpg></div><div class='cl'><div class='vertical-center'>$47<br>with a<br>50% chance</div></div><div class='cr'><div class='vertical-center'>$27<br>for<br>sure</div></div><div class='respDivL'><div class='vertical-center'>(E)</div></div><div class='respDivR'><div class='vertical-center'>(I)</div></div></div>","E","$27","$47","1","27","47","RISKY"
"html-keyboard-response","147","191107","0.0-5.0-3.47","610063614e6ba35532307dda","bdp_rd","Mon Mar 27 2023 14:47:23 GMT-0400 (Eastern Daylight Time)","227400","","null","","","","offerFB","","<div class='trialBorder'><div class='vertical-center'><img style='vertical-align:center; align:center' src=img/fixation3.jpg></div><div class='cl'><div class='vertical-center'><font style='color:orange'>$47<br>with a<br>50% chance</font></div></div><div class='cr'><div class='vertical-center'>$27<br>for<br>sure</div></div><div class='respDivL'><div class='vertical-center'><font style='color:orange'>(E)</font></div></div><div class='respDivR'><div class='vertical-center'>(I)</div></div></div>","null","$27","$47","1","27","47",""
"html-keyboard-response","148","191610","0.0-5.0-1.48","610063614e6ba35532307dda","bdp_rd","Mon Mar 27 2023 14:47:23 GMT-0400 (Eastern Daylight Time)","227400","","null","","","","FIX","","<div class='trialBorder'><div class='vertical-center'><img style='vertical-align:center; align:center' src=img/fixation3.jpg></div></div>","null","","","","","",""
"html-keyboard-response","149","192735","0.0-5.0-2.48","610063614e6ba35532307dda","bdp_rd","Mon Mar 27 2023 14:47:23 GMT-0400 (Eastern Daylight Time)","227400","","1124","","","","offer","","<div class='trialBorder'><div class='vertical-center'><img style='vertical-align:center; align:center' src=img/fixation3.jpg></div><div class='cl'><div class='vertical-center'>$11<br>with a<br>50% chance</div></div><div class='cr'><div class='vertical-center'>$4<br>for<br>sure</div></div><div class='respDivL'><div class='vertical-center'>(E)</div></div><div class='respDivR'><div class='vertical-center'>(I)</div></div></div>","E","$4","$11","1","4","11","RISKY"
"html-keyboard-response","150","192987","0.0-5.0-3.48","610063614e6ba35532307dda","bdp_rd","Mon Mar 27 2023 14:47:23 GMT-0400 (Eastern Daylight Time)","227400","","null","","","","offerFB","","<div class='trialBorder'><div class='vertical-center'><img style='vertical-align:center; align:center' src=img/fixation3.jpg></div><div class='cl'><div class='vertical-center'><font style='color:orange'>$11<br>with a<br>50% chance</font></div></div><div class='cr'><div class='vertical-center'>$4<br>for<br>sure</div></div><div class='respDivL'><div class='vertical-center'><font style='color:orange'>(E)</font></div></div><div class='respDivR'><div class='vertical-center'>(I)</div></div></div>","null","$4","$11","1","4","11",""
"html-keyboard-response","151","193491","0.0-5.0-1.49","610063614e6ba35532307dda","bdp_rd","Mon Mar 27 2023 14:47:23 GMT-0400 (Eastern Daylight Time)","227400","","null","","","","FIX","","<div class='trialBorder'><div class='vertical-center'><img style='vertical-align:center; align:center' src=img/fixation3.jpg></div></div>","null","","","","","",""
"html-keyboard-response","152","194757","0.0-5.0-2.49","610063614e6ba35532307dda","bdp_rd","Mon Mar 27 2023 14:47:23 GMT-0400 (Eastern Daylight Time)","227400","","1265","","","","offer","","<div class='trialBorder'><div class='vertical-center'><img style='vertical-align:center; align:center' src=img/fixation3.jpg></div><div class='cl'><div class='vertical-center'>$44<br>with a<br>50% chance</div></div><div class='cr'><div class='vertical-center'>$37<br>for<br>sure</div></div><div class='respDivL'><div class='vertical-center'>(E)</div></div><div class='respDivR'><div class='vertical-center'>(I)</div></div></div>","I","$37","$44","1","37","44","SURE"
"html-keyboard-response","153","195013","0.0-5.0-3.49","610063614e6ba35532307dda","bdp_rd","Mon Mar 27 2023 14:47:23 GMT-0400 (Eastern Daylight Time)","227400","","null","","","","offerFB","","<div class='trialBorder'><div class='vertical-center'><img style='vertical-align:center; align:center' src=img/fixation3.jpg></div><div class='cl'><div class='vertical-center'>$44<br>with a<br>50% chance</div></div><div class='cr'><div class='vertical-center'><font style='color:orange'>$37<br>for<br>sure</font></div></div><div class='respDivL'><div class='vertical-center'>(E)</div></div><div class='respDivR'><div class='vertical-center'><font style='color:orange'>(I)</font></div></div></div>","null","$37","$44","1","37","44",""
"html-keyboard-response","154","195517","0.0-5.0-1.50","610063614e6ba35532307dda","bdp_rd","Mon Mar 27 2023 14:47:23 GMT-0400 (Eastern Daylight Time)","227400","","null","","","","FIX","","<div class='trialBorder'><div class='vertical-center'><img style='vertical-align:center; align:center' src=img/fixation3.jpg></div></div>","null","","","","","",""
"html-keyboard-response","155","199589","0.0-5.0-2.50","610063614e6ba35532307dda","bdp_rd","Mon Mar 27 2023 14:47:23 GMT-0400 (Eastern Daylight Time)","227400","","4070","","","","offer","","<div class='trialBorder'><div class='vertical-center'><img style='vertical-align:center; align:center' src=img/fixation3.jpg></div><div class='cl'><div class='vertical-center'>$30<br>for<br>sure</div></div><div class='cr'><div class='vertical-center'>$68<br>with a<br>50% chance</div></div><div class='respDivL'><div class='vertical-center'>(E)</div></div><div class='respDivR'><div class='vertical-center'>(I)</div></div></div>","I","$30","$68","0","30","68","RISKY"
"html-keyboard-response","156","199842","0.0-5.0-3.50","610063614e6ba35532307dda","bdp_rd","Mon Mar 27 2023 14:47:23 GMT-0400 (Eastern Daylight Time)","227400","","null","","","","offerFB","","<div class='trialBorder'><div class='vertical-center'><img style='vertical-align:center; align:center' src=img/fixation3.jpg></div><div class='cl'><div class='vertical-center'>$30<br>for<br>sure</div></div><div class='cr'><div class='vertical-center'><font style='color:orange'>$68<br>with a<br>50% chance</font></div></div><div class='respDivL'><div class='vertical-center'>(E)</div></div><div class='respDivR'><div class='vertical-center'><font style='color:orange'>(I)</font></div></div></div>","null","$30","$68","0","30","68",""
"html-keyboard-response","157","200343","0.0-5.0-1.51","610063614e6ba35532307dda","bdp_rd","Mon Mar 27 2023 14:47:23 GMT-0400 (Eastern Daylight Time)","227400","","null","","","","FIX","","<div class='trialBorder'><div class='vertical-center'><img style='vertical-align:center; align:center' src=img/fixation3.jpg></div></div>","null","","","","","",""
"html-keyboard-response","158","202352","0.0-5.0-2.51","610063614e6ba35532307dda","bdp_rd","Mon Mar 27 2023 14:47:23 GMT-0400 (Eastern Daylight Time)","227400","","2008","","","","offer","","<div class='trialBorder'><div class='vertical-center'><img style='vertical-align:center; align:center' src=img/fixation3.jpg></div><div class='cl'><div class='vertical-center'>$46<br>with a<br>50% chance</div></div><div class='cr'><div class='vertical-center'>$29<br>for<br>sure</div></div><div class='respDivL'><div class='vertical-center'>(E)</div></div><div class='respDivR'><div class='vertical-center'>(I)</div></div></div>","I","$29","$46","1","29","46","SURE"
"html-keyboard-response","159","202608","0.0-5.0-3.51","610063614e6ba35532307dda","bdp_rd","Mon Mar 27 2023 14:47:23 GMT-0400 (Eastern Daylight Time)","227400","","null","","","","offerFB","","<div class='trialBorder'><div class='vertical-center'><img style='vertical-align:center; align:center' src=img/fixation3.jpg></div><div class='cl'><div class='vertical-center'>$46<br>with a<br>50% chance</div></div><div class='cr'><div class='vertical-center'><font style='color:orange'>$29<br>for<br>sure</font></div></div><div class='respDivL'><div class='vertical-center'>(E)</div></div><div class='respDivR'><div class='vertical-center'><font style='color:orange'>(I)</font></div></div></div>","null","$29","$46","1","29","46",""
"html-keyboard-response","160","203110","0.0-5.0-1.52","610063614e6ba35532307dda","bdp_rd","Mon Mar 27 2023 14:47:23 GMT-0400 (Eastern Daylight Time)","227400","","null","","","","FIX","","<div class='trialBorder'><div class='vertical-center'><img style='vertical-align:center; align:center' src=img/fixation3.jpg></div></div>","null","","","","","",""
"html-keyboard-response","161","204798","0.0-5.0-2.52","610063614e6ba35532307dda","bdp_rd","Mon Mar 27 2023 14:47:23 GMT-0400 (Eastern Daylight Time)","227400","","1686","","","","offer","","<div class='trialBorder'><div class='vertical-center'><img style='vertical-align:center; align:center' src=img/fixation3.jpg></div><div class='cl'><div class='vertical-center'>$24<br>for<br>sure</div></div><div class='cr'><div class='vertical-center'>$70<br>with a<br>50% chance</div></div><div class='respDivL'><div class='vertical-center'>(E)</div></div><div class='respDivR'><div class='vertical-center'>(I)</div></div></div>","I","$24","$70","0","24","70","RISKY"
"html-keyboard-response","162","205054","0.0-5.0-3.52","610063614e6ba35532307dda","bdp_rd","Mon Mar 27 2023 14:47:23 GMT-0400 (Eastern Daylight Time)","227400","","null","","","","offerFB","","<div class='trialBorder'><div class='vertical-center'><img style='vertical-align:center; align:center' src=img/fixation3.jpg></div><div class='cl'><div class='vertical-center'>$24<br>for<br>sure</div></div><div class='cr'><div class='vertical-center'><font style='color:orange'>$70<br>with a<br>50% chance</font></div></div><div class='respDivL'><div class='vertical-center'>(E)</div></div><div class='respDivR'><div class='vertical-center'><font style='color:orange'>(I)</font></div></div></div>","null","$24","$70","0","24","70",""
"html-keyboard-response","163","205556","0.0-5.0-1.53","610063614e6ba35532307dda","bdp_rd","Mon Mar 27 2023 14:47:23 GMT-0400 (Eastern Daylight Time)","227400","","null","","","","FIX","","<div class='trialBorder'><div class='vertical-center'><img style='vertical-align:center; align:center' src=img/fixation3.jpg></div></div>","null","","","","","",""
"html-keyboard-response","164","206811","0.0-5.0-2.53","610063614e6ba35532307dda","bdp_rd","Mon Mar 27 2023 14:47:23 GMT-0400 (Eastern Daylight Time)","227400","","1255","","","","offer","","<div class='trialBorder'><div class='vertical-center'><img style='vertical-align:center; align:center' src=img/fixation3.jpg></div><div class='cl'><div class='vertical-center'>$15<br>for<br>sure</div></div><div class='cr'><div class='vertical-center'>$34<br>with a<br>50% chance</div></div><div class='respDivL'><div class='vertical-center'>(E)</div></div><div class='respDivR'><div class='vertical-center'>(I)</div></div></div>","E","$15","$34","0","15","34","SURE"
"html-keyboard-response","165","207068","0.0-5.0-3.53","610063614e6ba35532307dda","bdp_rd","Mon Mar 27 2023 14:47:23 GMT-0400 (Eastern Daylight Time)","227400","","null","","","","offerFB","","<div class='trialBorder'><div class='vertical-center'><img style='vertical-align:center; align:center' src=img/fixation3.jpg></div><div class='cl'><div class='vertical-center'><font style='color:orange'>$15<br>for<br>sure</font></div></div><div class='cr'><div class='vertical-center'>$34<br>with a<br>50% chance</div></div><div class='respDivL'><div class='vertical-center'><font style='color:orange'>(E)</font></div></div><div class='respDivR'><div class='vertical-center'>(I)</div></div></div>","null","$15","$34","0","15","34",""
"html-keyboard-response","166","207570","0.0-5.0-1.54","610063614e6ba35532307dda","bdp_rd","Mon Mar 27 2023 14:47:23 GMT-0400 (Eastern Daylight Time)","227400","","null","","","","FIX","","<div class='trialBorder'><div class='vertical-center'><img style='vertical-align:center; align:center' src=img/fixation3.jpg></div></div>","null","","","","","",""
"html-keyboard-response","167","209181","0.0-5.0-2.54","610063614e6ba35532307dda","bdp_rd","Mon Mar 27 2023 14:47:23 GMT-0400 (Eastern Daylight Time)","227400","","1610","","","","offer","","<div class='trialBorder'><div class='vertical-center'><img style='vertical-align:center; align:center' src=img/fixation3.jpg></div><div class='cl'><div class='vertical-center'>$1<br>for<br>sure</div></div><div class='cr'><div class='vertical-center'>$30<br>with a<br>50% chance</div></div><div class='respDivL'><div class='vertical-center'>(E)</div></div><div class='respDivR'><div class='vertical-center'>(I)</div></div></div>","I","$1","$30","0","1","30","RISKY"
"html-keyboard-response","168","209438","0.0-5.0-3.54","610063614e6ba35532307dda","bdp_rd","Mon Mar 27 2023 14:47:23 GMT-0400 (Eastern Daylight Time)","227400","","null","","","","offerFB","","<div class='trialBorder'><div class='vertical-center'><img style='vertical-align:center; align:center' src=img/fixation3.jpg></div><div class='cl'><div class='vertical-center'>$1<br>for<br>sure</div></div><div class='cr'><div class='vertical-center'><font style='color:orange'>$30<br>with a<br>50% chance</font></div></div><div class='respDivL'><div class='vertical-center'>(E)</div></div><div class='respDivR'><div class='vertical-center'><font style='color:orange'>(I)</font></div></div></div>","null","$1","$30","0","1","30",""
"html-keyboard-response","169","209943","0.0-5.0-1.55","610063614e6ba35532307dda","bdp_rd","Mon Mar 27 2023 14:47:23 GMT-0400 (Eastern Daylight Time)","227400","","null","","","","FIX","","<div class='trialBorder'><div class='vertical-center'><img style='vertical-align:center; align:center' src=img/fixation3.jpg></div></div>","null","","","","","",""
"html-keyboard-response","170","211979","0.0-5.0-2.55","610063614e6ba35532307dda","bdp_rd","Mon Mar 27 2023 14:47:23 GMT-0400 (Eastern Daylight Time)","227400","","2035","","","","offer","","<div class='trialBorder'><div class='vertical-center'><img style='vertical-align:center; align:center' src=img/fixation3.jpg></div><div class='cl'><div class='vertical-center'>$28<br>with a<br>50% chance</div></div><div class='cr'><div class='vertical-center'>$16<br>for<br>sure</div></div><div class='respDivL'><div class='vertical-center'>(E)</div></div><div class='respDivR'><div class='vertical-center'>(I)</div></div></div>","E","$16","$28","1","16","28","RISKY"
"html-keyboard-response","171","212235","0.0-5.0-3.55","610063614e6ba35532307dda","bdp_rd","Mon Mar 27 2023 14:47:23 GMT-0400 (Eastern Daylight Time)","227400","","null","","","","offerFB","","<div class='trialBorder'><div class='vertical-center'><img style='vertical-align:center; align:center' src=img/fixation3.jpg></div><div class='cl'><div class='vertical-center'><font style='color:orange'>$28<br>with a<br>50% chance</font></div></div><div class='cr'><div class='vertical-center'>$16<br>for<br>sure</div></div><div class='respDivL'><div class='vertical-center'><font style='color:orange'>(E)</font></div></div><div class='respDivR'><div class='vertical-center'>(I)</div></div></div>","null","$16","$28","1","16","28",""
"html-keyboard-response","172","212737","0.0-5.0-1.56","610063614e6ba35532307dda","bdp_rd","Mon Mar 27 2023 14:47:23 GMT-0400 (Eastern Daylight Time)","227400","","null","","","","FIX","","<div class='trialBorder'><div class='vertical-center'><img style='vertical-align:center; align:center' src=img/fixation3.jpg></div></div>","null","","","","","",""
"html-keyboard-response","173","214540","0.0-5.0-2.56","610063614e6ba35532307dda","bdp_rd","Mon Mar 27 2023 14:47:23 GMT-0400 (Eastern Daylight Time)","227400","","1802","","","","offer","","<div class='trialBorder'><div class='vertical-center'><img style='vertical-align:center; align:center' src=img/fixation3.jpg></div><div class='cl'><div class='vertical-center'>$12<br>with a<br>50% chance</div></div><div class='cr'><div class='vertical-center'>$3<br>for<br>sure</div></div><div class='respDivL'><div class='vertical-center'>(E)</div></div><div class='respDivR'><div class='vertical-center'>(I)</div></div></div>","E","$3","$12","1","3","12","RISKY"
