"trial_type","trial_index","time_elapsed","internal_node_id","subject_id","task","startTime","totalTime","view_history","rt","event","trial","time","trialtype","success","stimulus","key_press","sureOffer","riskyOffer","riskyLeft","sureAmt","riskyAmt","chosen"
"pavlovia","0","2","0.0-0.0","611d4519393cabb9a4a46ebd","bdp_rd","Wed Mar 29 2023 00:35:54 GMT-0400 (Eastern Daylight Time)","218527","","","","","","","","","","","","","","",""
"instructions","1","2260","0.0-1.0","611d4519393cabb9a4a46ebd","bdp_rd","Wed Mar 29 2023 00:35:54 GMT-0400 (Eastern Daylight Time)","218527","[{""page_index"":0,""viewing_time"":2258}]","2258","","","","","","","","","","","","",""
"","","","","611d4519393cabb9a4a46ebd","bdp_rd","Wed Mar 29 2023 00:35:54 GMT-0400 (Eastern Daylight Time)","218527","","","fullscreenenter","2","3954","fullscreenenter","","","","","","","","",""
"fullscreen","2","4946","0.0-2.0","611d4519393cabb9a4a46ebd","bdp_rd","Wed Mar 29 2023 00:35:54 GMT-0400 (Eastern Daylight Time)","218527","","","","","","","true","","","","","","","",""
"instructions","3","48847","0.0-4.0","611d4519393cabb9a4a46ebd","bdp_rd","Wed Mar 29 2023 00:35:54 GMT-0400 (Eastern Daylight Time)","218527","[{""page_index"":0,""viewing_time"":17644},{""page_index"":1,""viewing_time"":21807},{""page_index"":2,""viewing_time"":4449}]","43900","","","","","","","","","","","","",""
"html-keyboard-response","4","49348","0.0-5.0-1.0","611d4519393cabb9a4a46ebd","bdp_rd","Wed Mar 29 2023 00:35:54 GMT-0400 (Eastern Daylight Time)","218527","","null","","","","FIX","","<div class='trialBorder'><div class='vertical-center'><img style='vertical-align:center; align:center' src=img/fixation3.jpg></div></div>","null","","","","","",""
"html-keyboard-response","5","56731","0.0-5.0-2.0","611d4519393cabb9a4a46ebd","bdp_rd","Wed Mar 29 2023 00:35:54 GMT-0400 (Eastern Daylight Time)","218527","","7382","","","","offer","","<div class='trialBorder'><div class='vertical-center'><img style='vertical-align:center; align:center' src=img/fixation3.jpg></div><div class='cl'><div class='vertical-center'>$16<br>for<br>sure</div></div><div class='cr'><div class='vertical-center'>$38<br>with a<br>50% chance</div></div><div class='respDivL'><div class='vertical-center'>(E)</div></div><div class='respDivR'><div class='vertical-center'>(I)</div></div></div>","E","$16","$38","0","16","38","SURE"
"html-keyboard-response","6","56984","0.0-5.0-3.0","611d4519393cabb9a4a46ebd","bdp_rd","Wed Mar 29 2023 00:35:54 GMT-0400 (Eastern Daylight Time)","218527","","null","","","","offerFB","","<div class='trialBorder'><div class='vertical-center'><img style='vertical-align:center; align:center' src=img/fixation3.jpg></div><div class='cl'><div class='vertical-center'><font style='color:orange'>$16<br>for<br>sure</font></div></div><div class='cr'><div class='vertical-center'>$38<br>with a<br>50% chance</div></div><div class='respDivL'><div class='vertical-center'><font style='color:orange'>(E)</font></div></div><div class='respDivR'><div class='vertical-center'>(I)</div></div></div>","null","$16","$38","0","16","38",""
"html-keyboard-response","7","57486","0.0-5.0-1.1","611d4519393cabb9a4a46ebd","bdp_rd","Wed Mar 29 2023 00:35:54 GMT-0400 (Eastern Daylight Time)","218527","","null","","","","FIX","","<div class='trialBorder'><div class='vertical-center'><img style='vertical-align:center; align:center' src=img/fixation3.jpg></div></div>","null","","","","","",""
"html-keyboard-response","8","60029","0.0-5.0-2.1","611d4519393cabb9a4a46ebd","bdp_rd","Wed Mar 29 2023 00:35:54 GMT-0400 (Eastern Daylight Time)","218527","","2543","","","","offer","","<div class='trialBorder'><div class='vertical-center'><img style='vertical-align:center; align:center' src=img/fixation3.jpg></div><div class='cl'><div class='vertical-center'>$18<br>with a<br>50% chance</div></div><div class='cr'><div class='vertical-center'>$9<br>for<br>sure</div></div><div class='respDivL'><div class='vertical-center'>(E)</div></div><div class='respDivR'><div class='vertical-center'>(I)</div></div></div>","I","$9","$18","1","9","18","SURE"
"html-keyboard-response","9","60281","0.0-5.0-3.1","611d4519393cabb9a4a46ebd","bdp_rd","Wed Mar 29 2023 00:35:54 GMT-0400 (Eastern Daylight Time)","218527","","null","","","","offerFB","","<div class='trialBorder'><div class='vertical-center'><img style='vertical-align:center; align:center' src=img/fixation3.jpg></div><div class='cl'><div class='vertical-center'>$18<br>with a<br>50% chance</div></div><div class='cr'><div class='vertical-center'><font style='color:orange'>$9<br>for<br>sure</font></div></div><div class='respDivL'><div class='vertical-center'>(E)</div></div><div class='respDivR'><div class='vertical-center'><font style='color:orange'>(I)</font></div></div></div>","null","$9","$18","1","9","18",""
"html-keyboard-response","10","60782","0.0-5.0-1.2","611d4519393cabb9a4a46ebd","bdp_rd","Wed Mar 29 2023 00:35:54 GMT-0400 (Eastern Daylight Time)","218527","","null","","","","FIX","","<div class='trialBorder'><div class='vertical-center'><img style='vertical-align:center; align:center' src=img/fixation3.jpg></div></div>","null","","","","","",""
"html-keyboard-response","11","64656","0.0-5.0-2.2","611d4519393cabb9a4a46ebd","bdp_rd","Wed Mar 29 2023 00:35:54 GMT-0400 (Eastern Daylight Time)","218527","","3874","","","","offer","","<div class='trialBorder'><div class='vertical-center'><img style='vertical-align:center; align:center' src=img/fixation3.jpg></div><div class='cl'><div class='vertical-center'>$59<br>with a<br>50% chance</div></div><div class='cr'><div class='vertical-center'>$22<br>for<br>sure</div></div><div class='respDivL'><div class='vertical-center'>(E)</div></div><div class='respDivR'><div class='vertical-center'>(I)</div></div></div>","E","$22","$59","1","22","59","RISKY"
"html-keyboard-response","12","64907","0.0-5.0-3.2","611d4519393cabb9a4a46ebd","bdp_rd","Wed Mar 29 2023 00:35:54 GMT-0400 (Eastern Daylight Time)","218527","","null","","","","offerFB","","<div class='trialBorder'><div class='vertical-center'><img style='vertical-align:center; align:center' src=img/fixation3.jpg></div><div class='cl'><div class='vertical-center'><font style='color:orange'>$59<br>with a<br>50% chance</font></div></div><div class='cr'><div class='vertical-center'>$22<br>for<br>sure</div></div><div class='respDivL'><div class='vertical-center'><font style='color:orange'>(E)</font></div></div><div class='respDivR'><div class='vertical-center'>(I)</div></div></div>","null","$22","$59","1","22","59",""
"html-keyboard-response","13","65408","0.0-5.0-1.3","611d4519393cabb9a4a46ebd","bdp_rd","Wed Mar 29 2023 00:35:54 GMT-0400 (Eastern Daylight Time)","218527","","null","","","","FIX","","<div class='trialBorder'><div class='vertical-center'><img style='vertical-align:center; align:center' src=img/fixation3.jpg></div></div>","null","","","","","",""
"html-keyboard-response","14","67745","0.0-5.0-2.3","611d4519393cabb9a4a46ebd","bdp_rd","Wed Mar 29 2023 00:35:54 GMT-0400 (Eastern Daylight Time)","218527","","2337","","","","offer","","<div class='trialBorder'><div class='vertical-center'><img style='vertical-align:center; align:center' src=img/fixation3.jpg></div><div class='cl'><div class='vertical-center'>$98<br>with a<br>50% chance</div></div><div class='cr'><div class='vertical-center'>$53<br>for<br>sure</div></div><div class='respDivL'><div class='vertical-center'>(E)</div></div><div class='respDivR'><div class='vertical-center'>(I)</div></div></div>","E","$53","$98","1","53","98","RISKY"
"html-keyboard-response","15","67996","0.0-5.0-3.3","611d4519393cabb9a4a46ebd","bdp_rd","Wed Mar 29 2023 00:35:54 GMT-0400 (Eastern Daylight Time)","218527","","null","","","","offerFB","","<div class='trialBorder'><div class='vertical-center'><img style='vertical-align:center; align:center' src=img/fixation3.jpg></div><div class='cl'><div class='vertical-center'><font style='color:orange'>$98<br>with a<br>50% chance</font></div></div><div class='cr'><div class='vertical-center'>$53<br>for<br>sure</div></div><div class='respDivL'><div class='vertical-center'><font style='color:orange'>(E)</font></div></div><div class='respDivR'><div class='vertical-center'>(I)</div></div></div>","null","$53","$98","1","53","98",""
"html-keyboard-response","16","68497","0.0-5.0-1.4","611d4519393cabb9a4a46ebd","bdp_rd","Wed Mar 29 2023 00:35:54 GMT-0400 (Eastern Daylight Time)","218527","","null","","","","FIX","","<div class='trialBorder'><div class='vertical-center'><img style='vertical-align:center; align:center' src=img/fixation3.jpg></div></div>","null","","","","","",""
"html-keyboard-response","17","69982","0.0-5.0-2.4","611d4519393cabb9a4a46ebd","bdp_rd","Wed Mar 29 2023 00:35:54 GMT-0400 (Eastern Daylight Time)","218527","","1485","","","","offer","","<div class='trialBorder'><div class='vertical-center'><img style='vertical-align:center; align:center' src=img/fixation3.jpg></div><div class='cl'><div class='vertical-center'>$15<br>for<br>sure</div></div><div class='cr'><div class='vertical-center'>$34<br>with a<br>50% chance</div></div><div class='respDivL'><div class='vertical-center'>(E)</div></div><div class='respDivR'><div class='vertical-center'>(I)</div></div></div>","E","$15","$34","0","15","34","SURE"
"html-keyboard-response","18","70234","0.0-5.0-3.4","611d4519393cabb9a4a46ebd","bdp_rd","Wed Mar 29 2023 00:35:54 GMT-0400 (Eastern Daylight Time)","218527","","null","","","","offerFB","","<div class='trialBorder'><div class='vertical-center'><img style='vertical-align:center; align:center' src=img/fixation3.jpg></div><div class='cl'><div class='vertical-center'><font style='color:orange'>$15<br>for<br>sure</font></div></div><div class='cr'><div class='vertical-center'>$34<br>with a<br>50% chance</div></div><div class='respDivL'><div class='vertical-center'><font style='color:orange'>(E)</font></div></div><div class='respDivR'><div class='vertical-center'>(I)</div></div></div>","null","$15","$34","0","15","34",""
"html-keyboard-response","19","70735","0.0-5.0-1.5","611d4519393cabb9a4a46ebd","bdp_rd","Wed Mar 29 2023 00:35:54 GMT-0400 (Eastern Daylight Time)","218527","","null","","","","FIX","","<div class='trialBorder'><div class='vertical-center'><img style='vertical-align:center; align:center' src=img/fixation3.jpg></div></div>","null","","","","","",""
"html-keyboard-response","20","72081","0.0-5.0-2.5","611d4519393cabb9a4a46ebd","bdp_rd","Wed Mar 29 2023 00:35:54 GMT-0400 (Eastern Daylight Time)","218527","","1346","","","","offer","","<div class='trialBorder'><div class='vertical-center'><img style='vertical-align:center; align:center' src=img/fixation3.jpg></div><div class='cl'><div class='vertical-center'>$21<br>with a<br>50% chance</div></div><div class='cr'><div class='vertical-center'>$2<br>for<br>sure</div></div><div class='respDivL'><div class='vertical-center'>(E)</div></div><div class='respDivR'><div class='vertical-center'>(I)</div></div></div>","E","$2","$21","1","2","21","RISKY"
"html-keyboard-response","21","72333","0.0-5.0-3.5","611d4519393cabb9a4a46ebd","bdp_rd","Wed Mar 29 2023 00:35:54 GMT-0400 (Eastern Daylight Time)","218527","","null","","","","offerFB","","<div class='trialBorder'><div class='vertical-center'><img style='vertical-align:center; align:center' src=img/fixation3.jpg></div><div class='cl'><div class='vertical-center'><font style='color:orange'>$21<br>with a<br>50% chance</font></div></div><div class='cr'><div class='vertical-center'>$2<br>for<br>sure</div></div><div class='respDivL'><div class='vertical-center'><font style='color:orange'>(E)</font></div></div><div class='respDivR'><div class='vertical-center'>(I)</div></div></div>","null","$2","$21","1","2","21",""
"html-keyboard-response","22","72835","0.0-5.0-1.6","611d4519393cabb9a4a46ebd","bdp_rd","Wed Mar 29 2023 00:35:54 GMT-0400 (Eastern Daylight Time)","218527","","null","","","","FIX","","<div class='trialBorder'><div class='vertical-center'><img style='vertical-align:center; align:center' src=img/fixation3.jpg></div></div>","null","","","","","",""
"html-keyboard-response","23","75654","0.0-5.0-2.6","611d4519393cabb9a4a46ebd","bdp_rd","Wed Mar 29 2023 00:35:54 GMT-0400 (Eastern Daylight Time)","218527","","2819","","","","offer","","<div class='trialBorder'><div class='vertical-center'><img style='vertical-align:center; align:center' src=img/fixation3.jpg></div><div class='cl'><div class='vertical-center'>$14<br>for<br>sure</div></div><div class='cr'><div class='vertical-center'>$22<br>with a<br>50% chance</div></div><div class='respDivL'><div class='vertical-center'>(E)</div></div><div class='respDivR'><div class='vertical-center'>(I)</div></div></div>","E","$14","$22","0","14","22","SURE"
"html-keyboard-response","24","75906","0.0-5.0-3.6","611d4519393cabb9a4a46ebd","bdp_rd","Wed Mar 29 2023 00:35:54 GMT-0400 (Eastern Daylight Time)","218527","","null","","","","offerFB","","<div class='trialBorder'><div class='vertical-center'><img style='vertical-align:center; align:center' src=img/fixation3.jpg></div><div class='cl'><div class='vertical-center'><font style='color:orange'>$14<br>for<br>sure</font></div></div><div class='cr'><div class='vertical-center'>$22<br>with a<br>50% chance</div></div><div class='respDivL'><div class='vertical-center'><font style='color:orange'>(E)</font></div></div><div class='respDivR'><div class='vertical-center'>(I)</div></div></div>","null","$14","$22","0","14","22",""
"html-keyboard-response","25","76407","0.0-5.0-1.7","611d4519393cabb9a4a46ebd","bdp_rd","Wed Mar 29 2023 00:35:54 GMT-0400 (Eastern Daylight Time)","218527","","null","","","","FIX","","<div class='trialBorder'><div class='vertical-center'><img style='vertical-align:center; align:center' src=img/fixation3.jpg></div></div>","null","","","","","",""
"html-keyboard-response","26","77889","0.0-5.0-2.7","611d4519393cabb9a4a46ebd","bdp_rd","Wed Mar 29 2023 00:35:54 GMT-0400 (Eastern Daylight Time)","218527","","1481","","","","offer","","<div class='trialBorder'><div class='vertical-center'><img style='vertical-align:center; align:center' src=img/fixation3.jpg></div><div class='cl'><div class='vertical-center'>$5<br>for<br>sure</div></div><div class='cr'><div class='vertical-center'>$16<br>with a<br>50% chance</div></div><div class='respDivL'><div class='vertical-center'>(E)</div></div><div class='respDivR'><div class='vertical-center'>(I)</div></div></div>","I","$5","$16","0","5","16","RISKY"
"html-keyboard-response","27","78141","0.0-5.0-3.7","611d4519393cabb9a4a46ebd","bdp_rd","Wed Mar 29 2023 00:35:54 GMT-0400 (Eastern Daylight Time)","218527","","null","","","","offerFB","","<div class='trialBorder'><div class='vertical-center'><img style='vertical-align:center; align:center' src=img/fixation3.jpg></div><div class='cl'><div class='vertical-center'>$5<br>for<br>sure</div></div><div class='cr'><div class='vertical-center'><font style='color:orange'>$16<br>with a<br>50% chance</font></div></div><div class='respDivL'><div class='vertical-center'>(E)</div></div><div class='respDivR'><div class='vertical-center'><font style='color:orange'>(I)</font></div></div></div>","null","$5","$16","0","5","16",""
"html-keyboard-response","28","78642","0.0-5.0-1.8","611d4519393cabb9a4a46ebd","bdp_rd","Wed Mar 29 2023 00:35:54 GMT-0400 (Eastern Daylight Time)","218527","","null","","","","FIX","","<div class='trialBorder'><div class='vertical-center'><img style='vertical-align:center; align:center' src=img/fixation3.jpg></div></div>","null","","","","","",""
"html-keyboard-response","29","79995","0.0-5.0-2.8","611d4519393cabb9a4a46ebd","bdp_rd","Wed Mar 29 2023 00:35:54 GMT-0400 (Eastern Daylight Time)","218527","","1353","","","","offer","","<div class='trialBorder'><div class='vertical-center'><img style='vertical-align:center; align:center' src=img/fixation3.jpg></div><div class='cl'><div class='vertical-center'>$4<br>for<br>sure</div></div><div class='cr'><div class='vertical-center'>$14<br>with a<br>50% chance</div></div><div class='respDivL'><div class='vertical-center'>(E)</div></div><div class='respDivR'><div class='vertical-center'>(I)</div></div></div>","I","$4","$14","0","4","14","RISKY"
"html-keyboard-response","30","80246","0.0-5.0-3.8","611d4519393cabb9a4a46ebd","bdp_rd","Wed Mar 29 2023 00:35:54 GMT-0400 (Eastern Daylight Time)","218527","","null","","","","offerFB","","<div class='trialBorder'><div class='vertical-center'><img style='vertical-align:center; align:center' src=img/fixation3.jpg></div><div class='cl'><div class='vertical-center'>$4<br>for<br>sure</div></div><div class='cr'><div class='vertical-center'><font style='color:orange'>$14<br>with a<br>50% chance</font></div></div><div class='respDivL'><div class='vertical-center'>(E)</div></div><div class='respDivR'><div class='vertical-center'><font style='color:orange'>(I)</font></div></div></div>","null","$4","$14","0","4","14",""
"html-keyboard-response","31","80748","0.0-5.0-1.9","611d4519393cabb9a4a46ebd","bdp_rd","Wed Mar 29 2023 00:35:54 GMT-0400 (Eastern Daylight Time)","218527","","null","","","","FIX","","<div class='trialBorder'><div class='vertical-center'><img style='vertical-align:center; align:center' src=img/fixation3.jpg></div></div>","null","","","","","",""
"html-keyboard-response","32","82501","0.0-5.0-2.9","611d4519393cabb9a4a46ebd","bdp_rd","Wed Mar 29 2023 00:35:54 GMT-0400 (Eastern Daylight Time)","218527","","1753","","","","offer","","<div class='trialBorder'><div class='vertical-center'><img style='vertical-align:center; align:center' src=img/fixation3.jpg></div><div class='cl'><div class='vertical-center'>$37<br>with a<br>50% chance</div></div><div class='cr'><div class='vertical-center'>$20<br>for<br>sure</div></div><div class='respDivL'><div class='vertical-center'>(E)</div></div><div class='respDivR'><div class='vertical-center'>(I)</div></div></div>","I","$20","$37","1","20","37","SURE"
"html-keyboard-response","33","82752","0.0-5.0-3.9","611d4519393cabb9a4a46ebd","bdp_rd","Wed Mar 29 2023 00:35:54 GMT-0400 (Eastern Daylight Time)","218527","","null","","","","offerFB","","<div class='trialBorder'><div class='vertical-center'><img style='vertical-align:center; align:center' src=img/fixation3.jpg></div><div class='cl'><div class='vertical-center'>$37<br>with a<br>50% chance</div></div><div class='cr'><div class='vertical-center'><font style='color:orange'>$20<br>for<br>sure</font></div></div><div class='respDivL'><div class='vertical-center'>(E)</div></div><div class='respDivR'><div class='vertical-center'><font style='color:orange'>(I)</font></div></div></div>","null","$20","$37","1","20","37",""
"html-keyboard-response","34","83254","0.0-5.0-1.10","611d4519393cabb9a4a46ebd","bdp_rd","Wed Mar 29 2023 00:35:54 GMT-0400 (Eastern Daylight Time)","218527","","null","","","","FIX","","<div class='trialBorder'><div class='vertical-center'><img style='vertical-align:center; align:center' src=img/fixation3.jpg></div></div>","null","","","","","",""
"html-keyboard-response","35","85480","0.0-5.0-2.10","611d4519393cabb9a4a46ebd","bdp_rd","Wed Mar 29 2023 00:35:54 GMT-0400 (Eastern Daylight Time)","218527","","2226","","","","offer","","<div class='trialBorder'><div class='vertical-center'><img style='vertical-align:center; align:center' src=img/fixation3.jpg></div><div class='cl'><div class='vertical-center'>$14<br>for<br>sure</div></div><div class='cr'><div class='vertical-center'>$29<br>with a<br>50% chance</div></div><div class='respDivL'><div class='vertical-center'>(E)</div></div><div class='respDivR'><div class='vertical-center'>(I)</div></div></div>","E","$14","$29","0","14","29","SURE"
"html-keyboard-response","36","85732","0.0-5.0-3.10","611d4519393cabb9a4a46ebd","bdp_rd","Wed Mar 29 2023 00:35:54 GMT-0400 (Eastern Daylight Time)","218527","","null","","","","offerFB","","<div class='trialBorder'><div class='vertical-center'><img style='vertical-align:center; align:center' src=img/fixation3.jpg></div><div class='cl'><div class='vertical-center'><font style='color:orange'>$14<br>for<br>sure</font></div></div><div class='cr'><div class='vertical-center'>$29<br>with a<br>50% chance</div></div><div class='respDivL'><div class='vertical-center'><font style='color:orange'>(E)</font></div></div><div class='respDivR'><div class='vertical-center'>(I)</div></div></div>","null","$14","$29","0","14","29",""
"html-keyboard-response","37","86233","0.0-5.0-1.11","611d4519393cabb9a4a46ebd","bdp_rd","Wed Mar 29 2023 00:35:54 GMT-0400 (Eastern Daylight Time)","218527","","null","","","","FIX","","<div class='trialBorder'><div class='vertical-center'><img style='vertical-align:center; align:center' src=img/fixation3.jpg></div></div>","null","","","","","",""
"html-keyboard-response","38","87663","0.0-5.0-2.11","611d4519393cabb9a4a46ebd","bdp_rd","Wed Mar 29 2023 00:35:54 GMT-0400 (Eastern Daylight Time)","218527","","1430","","","","offer","","<div class='trialBorder'><div class='vertical-center'><img style='vertical-align:center; align:center' src=img/fixation3.jpg></div><div class='cl'><div class='vertical-center'>$58<br>for<br>sure</div></div><div class='cr'><div class='vertical-center'>$69<br>with a<br>50% chance</div></div><div class='respDivL'><div class='vertical-center'>(E)</div></div><div class='respDivR'><div class='vertical-center'>(I)</div></div></div>","E","$58","$69","0","58","69","SURE"
"html-keyboard-response","39","87915","0.0-5.0-3.11","611d4519393cabb9a4a46ebd","bdp_rd","Wed Mar 29 2023 00:35:54 GMT-0400 (Eastern Daylight Time)","218527","","null","","","","offerFB","","<div class='trialBorder'><div class='vertical-center'><img style='vertical-align:center; align:center' src=img/fixation3.jpg></div><div class='cl'><div class='vertical-center'><font style='color:orange'>$58<br>for<br>sure</font></div></div><div class='cr'><div class='vertical-center'>$69<br>with a<br>50% chance</div></div><div class='respDivL'><div class='vertical-center'><font style='color:orange'>(E)</font></div></div><div class='respDivR'><div class='vertical-center'>(I)</div></div></div>","null","$58","$69","0","58","69",""
"html-keyboard-response","40","88416","0.0-5.0-1.12","611d4519393cabb9a4a46ebd","bdp_rd","Wed Mar 29 2023 00:35:54 GMT-0400 (Eastern Daylight Time)","218527","","null","","","","FIX","","<div class='trialBorder'><div class='vertical-center'><img style='vertical-align:center; align:center' src=img/fixation3.jpg></div></div>","null","","","","","",""
"html-keyboard-response","41","89801","0.0-5.0-2.12","611d4519393cabb9a4a46ebd","bdp_rd","Wed Mar 29 2023 00:35:54 GMT-0400 (Eastern Daylight Time)","218527","","1385","","","","offer","","<div class='trialBorder'><div class='vertical-center'><img style='vertical-align:center; align:center' src=img/fixation3.jpg></div><div class='cl'><div class='vertical-center'>$41<br>with a<br>50% chance</div></div><div class='cr'><div class='vertical-center'>$13<br>for<br>sure</div></div><div class='respDivL'><div class='vertical-center'>(E)</div></div><div class='respDivR'><div class='vertical-center'>(I)</div></div></div>","E","$13","$41","1","13","41","RISKY"
"html-keyboard-response","42","90052","0.0-5.0-3.12","611d4519393cabb9a4a46ebd","bdp_rd","Wed Mar 29 2023 00:35:54 GMT-0400 (Eastern Daylight Time)","218527","","null","","","","offerFB","","<div class='trialBorder'><div class='vertical-center'><img style='vertical-align:center; align:center' src=img/fixation3.jpg></div><div class='cl'><div class='vertical-center'><font style='color:orange'>$41<br>with a<br>50% chance</font></div></div><div class='cr'><div class='vertical-center'>$13<br>for<br>sure</div></div><div class='respDivL'><div class='vertical-center'><font style='color:orange'>(E)</font></div></div><div class='respDivR'><div class='vertical-center'>(I)</div></div></div>","null","$13","$41","1","13","41",""
"html-keyboard-response","43","90554","0.0-5.0-1.13","611d4519393cabb9a4a46ebd","bdp_rd","Wed Mar 29 2023 00:35:54 GMT-0400 (Eastern Daylight Time)","218527","","null","","","","FIX","","<div class='trialBorder'><div class='vertical-center'><img style='vertical-align:center; align:center' src=img/fixation3.jpg></div></div>","null","","","","","",""
"html-keyboard-response","44","91964","0.0-5.0-2.13","611d4519393cabb9a4a46ebd","bdp_rd","Wed Mar 29 2023 00:35:54 GMT-0400 (Eastern Daylight Time)","218527","","1410","","","","offer","","<div class='trialBorder'><div class='vertical-center'><img style='vertical-align:center; align:center' src=img/fixation3.jpg></div><div class='cl'><div class='vertical-center'>$23<br>with a<br>50% chance</div></div><div class='cr'><div class='vertical-center'>$8<br>for<br>sure</div></div><div class='respDivL'><div class='vertical-center'>(E)</div></div><div class='respDivR'><div class='vertical-center'>(I)</div></div></div>","E","$8","$23","1","8","23","RISKY"
"html-keyboard-response","45","92216","0.0-5.0-3.13","611d4519393cabb9a4a46ebd","bdp_rd","Wed Mar 29 2023 00:35:54 GMT-0400 (Eastern Daylight Time)","218527","","null","","","","offerFB","","<div class='trialBorder'><div class='vertical-center'><img style='vertical-align:center; align:center' src=img/fixation3.jpg></div><div class='cl'><div class='vertical-center'><font style='color:orange'>$23<br>with a<br>50% chance</font></div></div><div class='cr'><div class='vertical-center'>$8<br>for<br>sure</div></div><div class='respDivL'><div class='vertical-center'><font style='color:orange'>(E)</font></div></div><div class='respDivR'><div class='vertical-center'>(I)</div></div></div>","null","$8","$23","1","8","23",""
"html-keyboard-response","46","92717","0.0-5.0-1.14","611d4519393cabb9a4a46ebd","bdp_rd","Wed Mar 29 2023 00:35:54 GMT-0400 (Eastern Daylight Time)","218527","","null","","","","FIX","","<div class='trialBorder'><div class='vertical-center'><img style='vertical-align:center; align:center' src=img/fixation3.jpg></div></div>","null","","","","","",""
"html-keyboard-response","47","94086","0.0-5.0-2.14","611d4519393cabb9a4a46ebd","bdp_rd","Wed Mar 29 2023 00:35:54 GMT-0400 (Eastern Daylight Time)","218527","","1369","","","","offer","","<div class='trialBorder'><div class='vertical-center'><img style='vertical-align:center; align:center' src=img/fixation3.jpg></div><div class='cl'><div class='vertical-center'>$15<br>for<br>sure</div></div><div class='cr'><div class='vertical-center'>$31<br>with a<br>50% chance</div></div><div class='respDivL'><div class='vertical-center'>(E)</div></div><div class='respDivR'><div class='vertical-center'>(I)</div></div></div>","E","$15","$31","0","15","31","SURE"
"html-keyboard-response","48","94337","0.0-5.0-3.14","611d4519393cabb9a4a46ebd","bdp_rd","Wed Mar 29 2023 00:35:54 GMT-0400 (Eastern Daylight Time)","218527","","null","","","","offerFB","","<div class='trialBorder'><div class='vertical-center'><img style='vertical-align:center; align:center' src=img/fixation3.jpg></div><div class='cl'><div class='vertical-center'><font style='color:orange'>$15<br>for<br>sure</font></div></div><div class='cr'><div class='vertical-center'>$31<br>with a<br>50% chance</div></div><div class='respDivL'><div class='vertical-center'><font style='color:orange'>(E)</font></div></div><div class='respDivR'><div class='vertical-center'>(I)</div></div></div>","null","$15","$31","0","15","31",""
"html-keyboard-response","49","94838","0.0-5.0-1.15","611d4519393cabb9a4a46ebd","bdp_rd","Wed Mar 29 2023 00:35:54 GMT-0400 (Eastern Daylight Time)","218527","","null","","","","FIX","","<div class='trialBorder'><div class='vertical-center'><img style='vertical-align:center; align:center' src=img/fixation3.jpg></div></div>","null","","","","","",""
"html-keyboard-response","50","97574","0.0-5.0-2.15","611d4519393cabb9a4a46ebd","bdp_rd","Wed Mar 29 2023 00:35:54 GMT-0400 (Eastern Daylight Time)","218527","","2736","","","","offer","","<div class='trialBorder'><div class='vertical-center'><img style='vertical-align:center; align:center' src=img/fixation3.jpg></div><div class='cl'><div class='vertical-center'>$32<br>with a<br>50% chance</div></div><div class='cr'><div class='vertical-center'>$9<br>for<br>sure</div></div><div class='respDivL'><div class='vertical-center'>(E)</div></div><div class='respDivR'><div class='vertical-center'>(I)</div></div></div>","E","$9","$32","1","9","32","RISKY"
"html-keyboard-response","51","97826","0.0-5.0-3.15","611d4519393cabb9a4a46ebd","bdp_rd","Wed Mar 29 2023 00:35:54 GMT-0400 (Eastern Daylight Time)","218527","","null","","","","offerFB","","<div class='trialBorder'><div class='vertical-center'><img style='vertical-align:center; align:center' src=img/fixation3.jpg></div><div class='cl'><div class='vertical-center'><font style='color:orange'>$32<br>with a<br>50% chance</font></div></div><div class='cr'><div class='vertical-center'>$9<br>for<br>sure</div></div><div class='respDivL'><div class='vertical-center'><font style='color:orange'>(E)</font></div></div><div class='respDivR'><div class='vertical-center'>(I)</div></div></div>","null","$9","$32","1","9","32",""
"html-keyboard-response","52","98326","0.0-5.0-1.16","611d4519393cabb9a4a46ebd","bdp_rd","Wed Mar 29 2023 00:35:54 GMT-0400 (Eastern Daylight Time)","218527","","null","","","","FIX","","<div class='trialBorder'><div class='vertical-center'><img style='vertical-align:center; align:center' src=img/fixation3.jpg></div></div>","null","","","","","",""
"html-keyboard-response","53","99417","0.0-5.0-2.16","611d4519393cabb9a4a46ebd","bdp_rd","Wed Mar 29 2023 00:35:54 GMT-0400 (Eastern Daylight Time)","218527","","1091","","","","offer","","<div class='trialBorder'><div class='vertical-center'><img style='vertical-align:center; align:center' src=img/fixation3.jpg></div><div class='cl'><div class='vertical-center'>$2<br>for<br>sure</div></div><div class='cr'><div class='vertical-center'>$64<br>with a<br>50% chance</div></div><div class='respDivL'><div class='vertical-center'>(E)</div></div><div class='respDivR'><div class='vertical-center'>(I)</div></div></div>","I","$2","$64","0","2","64","RISKY"
"html-keyboard-response","54","99668","0.0-5.0-3.16","611d4519393cabb9a4a46ebd","bdp_rd","Wed Mar 29 2023 00:35:54 GMT-0400 (Eastern Daylight Time)","218527","","null","","","","offerFB","","<div class='trialBorder'><div class='vertical-center'><img style='vertical-align:center; align:center' src=img/fixation3.jpg></div><div class='cl'><div class='vertical-center'>$2<br>for<br>sure</div></div><div class='cr'><div class='vertical-center'><font style='color:orange'>$64<br>with a<br>50% chance</font></div></div><div class='respDivL'><div class='vertical-center'>(E)</div></div><div class='respDivR'><div class='vertical-center'><font style='color:orange'>(I)</font></div></div></div>","null","$2","$64","0","2","64",""
"html-keyboard-response","55","100170","0.0-5.0-1.17","611d4519393cabb9a4a46ebd","bdp_rd","Wed Mar 29 2023 00:35:54 GMT-0400 (Eastern Daylight Time)","218527","","null","","","","FIX","","<div class='trialBorder'><div class='vertical-center'><img style='vertical-align:center; align:center' src=img/fixation3.jpg></div></div>","null","","","","","",""
"html-keyboard-response","56","104561","0.0-5.0-2.17","611d4519393cabb9a4a46ebd","bdp_rd","Wed Mar 29 2023 00:35:54 GMT-0400 (Eastern Daylight Time)","218527","","4390","","","","offer","","<div class='trialBorder'><div class='vertical-center'><img style='vertical-align:center; align:center' src=img/fixation3.jpg></div><div class='cl'><div class='vertical-center'>$35<br>with a<br>50% chance</div></div><div class='cr'><div class='vertical-center'>$12<br>for<br>sure</div></div><div class='respDivL'><div class='vertical-center'>(E)</div></div><div class='respDivR'><div class='vertical-center'>(I)</div></div></div>","E","$12","$35","1","12","35","RISKY"
"html-keyboard-response","57","104813","0.0-5.0-3.17","611d4519393cabb9a4a46ebd","bdp_rd","Wed Mar 29 2023 00:35:54 GMT-0400 (Eastern Daylight Time)","218527","","null","","","","offerFB","","<div class='trialBorder'><div class='vertical-center'><img style='vertical-align:center; align:center' src=img/fixation3.jpg></div><div class='cl'><div class='vertical-center'><font style='color:orange'>$35<br>with a<br>50% chance</font></div></div><div class='cr'><div class='vertical-center'>$12<br>for<br>sure</div></div><div class='respDivL'><div class='vertical-center'><font style='color:orange'>(E)</font></div></div><div class='respDivR'><div class='vertical-center'>(I)</div></div></div>","null","$12","$35","1","12","35",""
"html-keyboard-response","58","105315","0.0-5.0-1.18","611d4519393cabb9a4a46ebd","bdp_rd","Wed Mar 29 2023 00:35:54 GMT-0400 (Eastern Daylight Time)","218527","","null","","","","FIX","","<div class='trialBorder'><div class='vertical-center'><img style='vertical-align:center; align:center' src=img/fixation3.jpg></div></div>","null","","","","","",""
"html-keyboard-response","59","106546","0.0-5.0-2.18","611d4519393cabb9a4a46ebd","bdp_rd","Wed Mar 29 2023 00:35:54 GMT-0400 (Eastern Daylight Time)","218527","","1231","","","","offer","","<div class='trialBorder'><div class='vertical-center'><img style='vertical-align:center; align:center' src=img/fixation3.jpg></div><div class='cl'><div class='vertical-center'>$42<br>with a<br>50% chance</div></div><div class='cr'><div class='vertical-center'>$22<br>for<br>sure</div></div><div class='respDivL'><div class='vertical-center'>(E)</div></div><div class='respDivR'><div class='vertical-center'>(I)</div></div></div>","I","$22","$42","1","22","42","SURE"
"html-keyboard-response","60","106798","0.0-5.0-3.18","611d4519393cabb9a4a46ebd","bdp_rd","Wed Mar 29 2023 00:35:54 GMT-0400 (Eastern Daylight Time)","218527","","null","","","","offerFB","","<div class='trialBorder'><div class='vertical-center'><img style='vertical-align:center; align:center' src=img/fixation3.jpg></div><div class='cl'><div class='vertical-center'>$42<br>with a<br>50% chance</div></div><div class='cr'><div class='vertical-center'><font style='color:orange'>$22<br>for<br>sure</font></div></div><div class='respDivL'><div class='vertical-center'>(E)</div></div><div class='respDivR'><div class='vertical-center'><font style='color:orange'>(I)</font></div></div></div>","null","$22","$42","1","22","42",""
"html-keyboard-response","61","107300","0.0-5.0-1.19","611d4519393cabb9a4a46ebd","bdp_rd","Wed Mar 29 2023 00:35:54 GMT-0400 (Eastern Daylight Time)","218527","","null","","","","FIX","","<div class='trialBorder'><div class='vertical-center'><img style='vertical-align:center; align:center' src=img/fixation3.jpg></div></div>","null","","","","","",""
"html-keyboard-response","62","109101","0.0-5.0-2.19","611d4519393cabb9a4a46ebd","bdp_rd","Wed Mar 29 2023 00:35:54 GMT-0400 (Eastern Daylight Time)","218527","","1801","","","","offer","","<div class='trialBorder'><div class='vertical-center'><img style='vertical-align:center; align:center' src=img/fixation3.jpg></div><div class='cl'><div class='vertical-center'>$63<br>for<br>sure</div></div><div class='cr'><div class='vertical-center'>$100<br>with a<br>50% chance</div></div><div class='respDivL'><div class='vertical-center'>(E)</div></div><div class='respDivR'><div class='vertical-center'>(I)</div></div></div>","E","$63","$100","0","63","10","SURE"
"html-keyboard-response","63","109353","0.0-5.0-3.19","611d4519393cabb9a4a46ebd","bdp_rd","Wed Mar 29 2023 00:35:54 GMT-0400 (Eastern Daylight Time)","218527","","null","","","","offerFB","","<div class='trialBorder'><div class='vertical-center'><img style='vertical-align:center; align:center' src=img/fixation3.jpg></div><div class='cl'><div class='vertical-center'><font style='color:orange'>$63<br>for<br>sure</font></div></div><div class='cr'><div class='vertical-center'>$100<br>with a<br>50% chance</div></div><div class='respDivL'><div class='vertical-center'><font style='color:orange'>(E)</font></div></div><div class='respDivR'><div class='vertical-center'>(I)</div></div></div>","null","$63","$100","0","63","10",""
"html-keyboard-response","64","109855","0.0-5.0-1.20","611d4519393cabb9a4a46ebd","bdp_rd","Wed Mar 29 2023 00:35:54 GMT-0400 (Eastern Daylight Time)","218527","","null","","","","FIX","","<div class='trialBorder'><div class='vertical-center'><img style='vertical-align:center; align:center' src=img/fixation3.jpg></div></div>","null","","","","","",""
"html-keyboard-response","65","114773","0.0-5.0-2.20","611d4519393cabb9a4a46ebd","bdp_rd","Wed Mar 29 2023 00:35:54 GMT-0400 (Eastern Daylight Time)","218527","","4918","","","","offer","","<div class='trialBorder'><div class='vertical-center'><img style='vertical-align:center; align:center' src=img/fixation3.jpg></div><div class='cl'><div class='vertical-center'>$26<br>with a<br>50% chance</div></div><div class='cr'><div class='vertical-center'>$11<br>for<br>sure</div></div><div class='respDivL'><div class='vertical-center'>(E)</div></div><div class='respDivR'><div class='vertical-center'>(I)</div></div></div>","E","$11","$26","1","11","26","RISKY"
"html-keyboard-response","66","115024","0.0-5.0-3.20","611d4519393cabb9a4a46ebd","bdp_rd","Wed Mar 29 2023 00:35:54 GMT-0400 (Eastern Daylight Time)","218527","","null","","","","offerFB","","<div class='trialBorder'><div class='vertical-center'><img style='vertical-align:center; align:center' src=img/fixation3.jpg></div><div class='cl'><div class='vertical-center'><font style='color:orange'>$26<br>with a<br>50% chance</font></div></div><div class='cr'><div class='vertical-center'>$11<br>for<br>sure</div></div><div class='respDivL'><div class='vertical-center'><font style='color:orange'>(E)</font></div></div><div class='respDivR'><div class='vertical-center'>(I)</div></div></div>","null","$11","$26","1","11","26",""
"html-keyboard-response","67","115526","0.0-5.0-1.21","611d4519393cabb9a4a46ebd","bdp_rd","Wed Mar 29 2023 00:35:54 GMT-0400 (Eastern Daylight Time)","218527","","null","","","","FIX","","<div class='trialBorder'><div class='vertical-center'><img style='vertical-align:center; align:center' src=img/fixation3.jpg></div></div>","null","","","","","",""
"html-keyboard-response","68","117001","0.0-5.0-2.21","611d4519393cabb9a4a46ebd","bdp_rd","Wed Mar 29 2023 00:35:54 GMT-0400 (Eastern Daylight Time)","218527","","1475","","","","offer","","<div class='trialBorder'><div class='vertical-center'><img style='vertical-align:center; align:center' src=img/fixation3.jpg></div><div class='cl'><div class='vertical-center'>$13<br>for<br>sure</div></div><div class='cr'><div class='vertical-center'>$24<br>with a<br>50% chance</div></div><div class='respDivL'><div class='vertical-center'>(E)</div></div><div class='respDivR'><div class='vertical-center'>(I)</div></div></div>","I","$13","$24","0","13","24","RISKY"
"html-keyboard-response","69","117253","0.0-5.0-3.21","611d4519393cabb9a4a46ebd","bdp_rd","Wed Mar 29 2023 00:35:54 GMT-0400 (Eastern Daylight Time)","218527","","null","","","","offerFB","","<div class='trialBorder'><div class='vertical-center'><img style='vertical-align:center; align:center' src=img/fixation3.jpg></div><div class='cl'><div class='vertical-center'>$13<br>for<br>sure</div></div><div class='cr'><div class='vertical-center'><font style='color:orange'>$24<br>with a<br>50% chance</font></div></div><div class='respDivL'><div class='vertical-center'>(E)</div></div><div class='respDivR'><div class='vertical-center'><font style='color:orange'>(I)</font></div></div></div>","null","$13","$24","0","13","24",""
"html-keyboard-response","70","117755","0.0-5.0-1.22","611d4519393cabb9a4a46ebd","bdp_rd","Wed Mar 29 2023 00:35:54 GMT-0400 (Eastern Daylight Time)","218527","","null","","","","FIX","","<div class='trialBorder'><div class='vertical-center'><img style='vertical-align:center; align:center' src=img/fixation3.jpg></div></div>","null","","","","","",""
"html-keyboard-response","71","119283","0.0-5.0-2.22","611d4519393cabb9a4a46ebd","bdp_rd","Wed Mar 29 2023 00:35:54 GMT-0400 (Eastern Daylight Time)","218527","","1528","","","","offer","","<div class='trialBorder'><div class='vertical-center'><img style='vertical-align:center; align:center' src=img/fixation3.jpg></div><div class='cl'><div class='vertical-center'>$47<br>with a<br>50% chance</div></div><div class='cr'><div class='vertical-center'>$27<br>for<br>sure</div></div><div class='respDivL'><div class='vertical-center'>(E)</div></div><div class='respDivR'><div class='vertical-center'>(I)</div></div></div>","I","$27","$47","1","27","47","SURE"
"html-keyboard-response","72","119534","0.0-5.0-3.22","611d4519393cabb9a4a46ebd","bdp_rd","Wed Mar 29 2023 00:35:54 GMT-0400 (Eastern Daylight Time)","218527","","null","","","","offerFB","","<div class='trialBorder'><div class='vertical-center'><img style='vertical-align:center; align:center' src=img/fixation3.jpg></div><div class='cl'><div class='vertical-center'>$47<br>with a<br>50% chance</div></div><div class='cr'><div class='vertical-center'><font style='color:orange'>$27<br>for<br>sure</font></div></div><div class='respDivL'><div class='vertical-center'>(E)</div></div><div class='respDivR'><div class='vertical-center'><font style='color:orange'>(I)</font></div></div></div>","null","$27","$47","1","27","47",""
"html-keyboard-response","73","120035","0.0-5.0-1.23","611d4519393cabb9a4a46ebd","bdp_rd","Wed Mar 29 2023 00:35:54 GMT-0400 (Eastern Daylight Time)","218527","","null","","","","FIX","","<div class='trialBorder'><div class='vertical-center'><img style='vertical-align:center; align:center' src=img/fixation3.jpg></div></div>","null","","","","","",""
"html-keyboard-response","74","121302","0.0-5.0-2.23","611d4519393cabb9a4a46ebd","bdp_rd","Wed Mar 29 2023 00:35:54 GMT-0400 (Eastern Daylight Time)","218527","","1267","","","","offer","","<div class='trialBorder'><div class='vertical-center'><img style='vertical-align:center; align:center' src=img/fixation3.jpg></div><div class='cl'><div class='vertical-center'>$86<br>with a<br>50% chance</div></div><div class='cr'><div class='vertical-center'>$45<br>for<br>sure</div></div><div class='respDivL'><div class='vertical-center'>(E)</div></div><div class='respDivR'><div class='vertical-center'>(I)</div></div></div>","I","$45","$86","1","45","86","SURE"
"html-keyboard-response","75","121553","0.0-5.0-3.23","611d4519393cabb9a4a46ebd","bdp_rd","Wed Mar 29 2023 00:35:54 GMT-0400 (Eastern Daylight Time)","218527","","null","","","","offerFB","","<div class='trialBorder'><div class='vertical-center'><img style='vertical-align:center; align:center' src=img/fixation3.jpg></div><div class='cl'><div class='vertical-center'>$86<br>with a<br>50% chance</div></div><div class='cr'><div class='vertical-center'><font style='color:orange'>$45<br>for<br>sure</font></div></div><div class='respDivL'><div class='vertical-center'>(E)</div></div><div class='respDivR'><div class='vertical-center'><font style='color:orange'>(I)</font></div></div></div>","null","$45","$86","1","45","86",""
"html-keyboard-response","76","122055","0.0-5.0-1.24","611d4519393cabb9a4a46ebd","bdp_rd","Wed Mar 29 2023 00:35:54 GMT-0400 (Eastern Daylight Time)","218527","","null","","","","FIX","","<div class='trialBorder'><div class='vertical-center'><img style='vertical-align:center; align:center' src=img/fixation3.jpg></div></div>","null","","","","","",""
"html-keyboard-response","77","124158","0.0-5.0-2.24","611d4519393cabb9a4a46ebd","bdp_rd","Wed Mar 29 2023 00:35:54 GMT-0400 (Eastern Daylight Time)","218527","","2103","","","","offer","","<div class='trialBorder'><div class='vertical-center'><img style='vertical-align:center; align:center' src=img/fixation3.jpg></div><div class='cl'><div class='vertical-center'>$5<br>for<br>sure</div></div><div class='cr'><div class='vertical-center'>$50<br>with a<br>50% chance</div></div><div class='respDivL'><div class='vertical-center'>(E)</div></div><div class='respDivR'><div class='vertical-center'>(I)</div></div></div>","I","$5","$50","0","5","50","RISKY"
"html-keyboard-response","78","124409","0.0-5.0-3.24","611d4519393cabb9a4a46ebd","bdp_rd","Wed Mar 29 2023 00:35:54 GMT-0400 (Eastern Daylight Time)","218527","","null","","","","offerFB","","<div class='trialBorder'><div class='vertical-center'><img style='vertical-align:center; align:center' src=img/fixation3.jpg></div><div class='cl'><div class='vertical-center'>$5<br>for<br>sure</div></div><div class='cr'><div class='vertical-center'><font style='color:orange'>$50<br>with a<br>50% chance</font></div></div><div class='respDivL'><div class='vertical-center'>(E)</div></div><div class='respDivR'><div class='vertical-center'><font style='color:orange'>(I)</font></div></div></div>","null","$5","$50","0","5","50",""
"html-keyboard-response","79","124910","0.0-5.0-1.25","611d4519393cabb9a4a46ebd","bdp_rd","Wed Mar 29 2023 00:35:54 GMT-0400 (Eastern Daylight Time)","218527","","null","","","","FIX","","<div class='trialBorder'><div class='vertical-center'><img style='vertical-align:center; align:center' src=img/fixation3.jpg></div></div>","null","","","","","",""
"html-keyboard-response","80","126514","0.0-5.0-2.25","611d4519393cabb9a4a46ebd","bdp_rd","Wed Mar 29 2023 00:35:54 GMT-0400 (Eastern Daylight Time)","218527","","1603","","","","offer","","<div class='trialBorder'><div class='vertical-center'><img style='vertical-align:center; align:center' src=img/fixation3.jpg></div><div class='cl'><div class='vertical-center'>$26<br>for<br>sure</div></div><div class='cr'><div class='vertical-center'>$92<br>with a<br>50% chance</div></div><div class='respDivL'><div class='vertical-center'>(E)</div></div><div class='respDivR'><div class='vertical-center'>(I)</div></div></div>","I","$26","$92","0","26","92","RISKY"
"html-keyboard-response","81","126766","0.0-5.0-3.25","611d4519393cabb9a4a46ebd","bdp_rd","Wed Mar 29 2023 00:35:54 GMT-0400 (Eastern Daylight Time)","218527","","null","","","","offerFB","","<div class='trialBorder'><div class='vertical-center'><img style='vertical-align:center; align:center' src=img/fixation3.jpg></div><div class='cl'><div class='vertical-center'>$26<br>for<br>sure</div></div><div class='cr'><div class='vertical-center'><font style='color:orange'>$92<br>with a<br>50% chance</font></div></div><div class='respDivL'><div class='vertical-center'>(E)</div></div><div class='respDivR'><div class='vertical-center'><font style='color:orange'>(I)</font></div></div></div>","null","$26","$92","0","26","92",""
"html-keyboard-response","82","127267","0.0-5.0-1.26","611d4519393cabb9a4a46ebd","bdp_rd","Wed Mar 29 2023 00:35:54 GMT-0400 (Eastern Daylight Time)","218527","","null","","","","FIX","","<div class='trialBorder'><div class='vertical-center'><img style='vertical-align:center; align:center' src=img/fixation3.jpg></div></div>","null","","","","","",""
"html-keyboard-response","83","129165","0.0-5.0-2.26","611d4519393cabb9a4a46ebd","bdp_rd","Wed Mar 29 2023 00:35:54 GMT-0400 (Eastern Daylight Time)","218527","","1898","","","","offer","","<div class='trialBorder'><div class='vertical-center'><img style='vertical-align:center; align:center' src=img/fixation3.jpg></div><div class='cl'><div class='vertical-center'>$42<br>for<br>sure</div></div><div class='cr'><div class='vertical-center'>$73<br>with a<br>50% chance</div></div><div class='respDivL'><div class='vertical-center'>(E)</div></div><div class='respDivR'><div class='vertical-center'>(I)</div></div></div>","E","$42","$73","0","42","73","SURE"
"html-keyboard-response","84","129417","0.0-5.0-3.26","611d4519393cabb9a4a46ebd","bdp_rd","Wed Mar 29 2023 00:35:54 GMT-0400 (Eastern Daylight Time)","218527","","null","","","","offerFB","","<div class='trialBorder'><div class='vertical-center'><img style='vertical-align:center; align:center' src=img/fixation3.jpg></div><div class='cl'><div class='vertical-center'><font style='color:orange'>$42<br>for<br>sure</font></div></div><div class='cr'><div class='vertical-center'>$73<br>with a<br>50% chance</div></div><div class='respDivL'><div class='vertical-center'><font style='color:orange'>(E)</font></div></div><div class='respDivR'><div class='vertical-center'>(I)</div></div></div>","null","$42","$73","0","42","73",""
"html-keyboard-response","85","129918","0.0-5.0-1.27","611d4519393cabb9a4a46ebd","bdp_rd","Wed Mar 29 2023 00:35:54 GMT-0400 (Eastern Daylight Time)","218527","","null","","","","FIX","","<div class='trialBorder'><div class='vertical-center'><img style='vertical-align:center; align:center' src=img/fixation3.jpg></div></div>","null","","","","","",""
"html-keyboard-response","86","131252","0.0-5.0-2.27","611d4519393cabb9a4a46ebd","bdp_rd","Wed Mar 29 2023 00:35:54 GMT-0400 (Eastern Daylight Time)","218527","","1334","","","","offer","","<div class='trialBorder'><div class='vertical-center'><img style='vertical-align:center; align:center' src=img/fixation3.jpg></div><div class='cl'><div class='vertical-center'>$28<br>for<br>sure</div></div><div class='cr'><div class='vertical-center'>$89<br>with a<br>50% chance</div></div><div class='respDivL'><div class='vertical-center'>(E)</div></div><div class='respDivR'><div class='vertical-center'>(I)</div></div></div>","I","$28","$89","0","28","89","RISKY"
"html-keyboard-response","87","131503","0.0-5.0-3.27","611d4519393cabb9a4a46ebd","bdp_rd","Wed Mar 29 2023 00:35:54 GMT-0400 (Eastern Daylight Time)","218527","","null","","","","offerFB","","<div class='trialBorder'><div class='vertical-center'><img style='vertical-align:center; align:center' src=img/fixation3.jpg></div><div class='cl'><div class='vertical-center'>$28<br>for<br>sure</div></div><div class='cr'><div class='vertical-center'><font style='color:orange'>$89<br>with a<br>50% chance</font></div></div><div class='respDivL'><div class='vertical-center'>(E)</div></div><div class='respDivR'><div class='vertical-center'><font style='color:orange'>(I)</font></div></div></div>","null","$28","$89","0","28","89",""
"html-keyboard-response","88","132005","0.0-5.0-1.28","611d4519393cabb9a4a46ebd","bdp_rd","Wed Mar 29 2023 00:35:54 GMT-0400 (Eastern Daylight Time)","218527","","null","","","","FIX","","<div class='trialBorder'><div class='vertical-center'><img style='vertical-align:center; align:center' src=img/fixation3.jpg></div></div>","null","","","","","",""
"html-keyboard-response","89","136121","0.0-5.0-2.28","611d4519393cabb9a4a46ebd","bdp_rd","Wed Mar 29 2023 00:35:54 GMT-0400 (Eastern Daylight Time)","218527","","4116","","","","offer","","<div class='trialBorder'><div class='vertical-center'><img style='vertical-align:center; align:center' src=img/fixation3.jpg></div><div class='cl'><div class='vertical-center'>$15<br>with a<br>50% chance</div></div><div class='cr'><div class='vertical-center'>$6<br>for<br>sure</div></div><div class='respDivL'><div class='vertical-center'>(E)</div></div><div class='respDivR'><div class='vertical-center'>(I)</div></div></div>","E","$6","$15","1","6","15","RISKY"
"html-keyboard-response","90","136373","0.0-5.0-3.28","611d4519393cabb9a4a46ebd","bdp_rd","Wed Mar 29 2023 00:35:54 GMT-0400 (Eastern Daylight Time)","218527","","null","","","","offerFB","","<div class='trialBorder'><div class='vertical-center'><img style='vertical-align:center; align:center' src=img/fixation3.jpg></div><div class='cl'><div class='vertical-center'><font style='color:orange'>$15<br>with a<br>50% chance</font></div></div><div class='cr'><div class='vertical-center'>$6<br>for<br>sure</div></div><div class='respDivL'><div class='vertical-center'><font style='color:orange'>(E)</font></div></div><div class='respDivR'><div class='vertical-center'>(I)</div></div></div>","null","$6","$15","1","6","15",""
"html-keyboard-response","91","136874","0.0-5.0-1.29","611d4519393cabb9a4a46ebd","bdp_rd","Wed Mar 29 2023 00:35:54 GMT-0400 (Eastern Daylight Time)","218527","","null","","","","FIX","","<div class='trialBorder'><div class='vertical-center'><img style='vertical-align:center; align:center' src=img/fixation3.jpg></div></div>","null","","","","","",""
"html-keyboard-response","92","139351","0.0-5.0-2.29","611d4519393cabb9a4a46ebd","bdp_rd","Wed Mar 29 2023 00:35:54 GMT-0400 (Eastern Daylight Time)","218527","","2477","","","","offer","","<div class='trialBorder'><div class='vertical-center'><img style='vertical-align:center; align:center' src=img/fixation3.jpg></div><div class='cl'><div class='vertical-center'>$12<br>with a<br>50% chance</div></div><div class='cr'><div class='vertical-center'>$3<br>for<br>sure</div></div><div class='respDivL'><div class='vertical-center'>(E)</div></div><div class='respDivR'><div class='vertical-center'>(I)</div></div></div>","E","$3","$12","1","3","12","RISKY"
"html-keyboard-response","93","139603","0.0-5.0-3.29","611d4519393cabb9a4a46ebd","bdp_rd","Wed Mar 29 2023 00:35:54 GMT-0400 (Eastern Daylight Time)","218527","","null","","","","offerFB","","<div class='trialBorder'><div class='vertical-center'><img style='vertical-align:center; align:center' src=img/fixation3.jpg></div><div class='cl'><div class='vertical-center'><font style='color:orange'>$12<br>with a<br>50% chance</font></div></div><div class='cr'><div class='vertical-center'>$3<br>for<br>sure</div></div><div class='respDivL'><div class='vertical-center'><font style='color:orange'>(E)</font></div></div><div class='respDivR'><div class='vertical-center'>(I)</div></div></div>","null","$3","$12","1","3","12",""
"html-keyboard-response","94","140104","0.0-5.0-1.30","611d4519393cabb9a4a46ebd","bdp_rd","Wed Mar 29 2023 00:35:54 GMT-0400 (Eastern Daylight Time)","218527","","null","","","","FIX","","<div class='trialBorder'><div class='vertical-center'><img style='vertical-align:center; align:center' src=img/fixation3.jpg></div></div>","null","","","","","",""
"html-keyboard-response","95","141526","0.0-5.0-2.30","611d4519393cabb9a4a46ebd","bdp_rd","Wed Mar 29 2023 00:35:54 GMT-0400 (Eastern Daylight Time)","218527","","1422","","","","offer","","<div class='trialBorder'><div class='vertical-center'><img style='vertical-align:center; align:center' src=img/fixation3.jpg></div><div class='cl'><div class='vertical-center'>$11<br>with a<br>50% chance</div></div><div class='cr'><div class='vertical-center'>$4<br>for<br>sure</div></div><div class='respDivL'><div class='vertical-center'>(E)</div></div><div class='respDivR'><div class='vertical-center'>(I)</div></div></div>","E","$4","$11","1","4","11","RISKY"
"html-keyboard-response","96","141777","0.0-5.0-3.30","611d4519393cabb9a4a46ebd","bdp_rd","Wed Mar 29 2023 00:35:54 GMT-0400 (Eastern Daylight Time)","218527","","null","","","","offerFB","","<div class='trialBorder'><div class='vertical-center'><img style='vertical-align:center; align:center' src=img/fixation3.jpg></div><div class='cl'><div class='vertical-center'><font style='color:orange'>$11<br>with a<br>50% chance</font></div></div><div class='cr'><div class='vertical-center'>$4<br>for<br>sure</div></div><div class='respDivL'><div class='vertical-center'><font style='color:orange'>(E)</font></div></div><div class='respDivR'><div class='vertical-center'>(I)</div></div></div>","null","$4","$11","1","4","11",""
"html-keyboard-response","97","142278","0.0-5.0-1.31","611d4519393cabb9a4a46ebd","bdp_rd","Wed Mar 29 2023 00:35:54 GMT-0400 (Eastern Daylight Time)","218527","","null","","","","FIX","","<div class='trialBorder'><div class='vertical-center'><img style='vertical-align:center; align:center' src=img/fixation3.jpg></div></div>","null","","","","","",""
"html-keyboard-response","98","143884","0.0-5.0-2.31","611d4519393cabb9a4a46ebd","bdp_rd","Wed Mar 29 2023 00:35:54 GMT-0400 (Eastern Daylight Time)","218527","","1606","","","","offer","","<div class='trialBorder'><div class='vertical-center'><img style='vertical-align:center; align:center' src=img/fixation3.jpg></div><div class='cl'><div class='vertical-center'>$33<br>with a<br>50% chance</div></div><div class='cr'><div class='vertical-center'>$1<br>for<br>sure</div></div><div class='respDivL'><div class='vertical-center'>(E)</div></div><div class='respDivR'><div class='vertical-center'>(I)</div></div></div>","E","$1","$33","1","1","33","RISKY"
"html-keyboard-response","99","144136","0.0-5.0-3.31","611d4519393cabb9a4a46ebd","bdp_rd","Wed Mar 29 2023 00:35:54 GMT-0400 (Eastern Daylight Time)","218527","","null","","","","offerFB","","<div class='trialBorder'><div class='vertical-center'><img style='vertical-align:center; align:center' src=img/fixation3.jpg></div><div class='cl'><div class='vertical-center'><font style='color:orange'>$33<br>with a<br>50% chance</font></div></div><div class='cr'><div class='vertical-center'>$1<br>for<br>sure</div></div><div class='respDivL'><div class='vertical-center'><font style='color:orange'>(E)</font></div></div><div class='respDivR'><div class='vertical-center'>(I)</div></div></div>","null","$1","$33","1","1","33",""
"html-keyboard-response","100","144637","0.0-5.0-1.32","611d4519393cabb9a4a46ebd","bdp_rd","Wed Mar 29 2023 00:35:54 GMT-0400 (Eastern Daylight Time)","218527","","null","","","","FIX","","<div class='trialBorder'><div class='vertical-center'><img style='vertical-align:center; align:center' src=img/fixation3.jpg></div></div>","null","","","","","",""
"html-keyboard-response","101","146831","0.0-5.0-2.32","611d4519393cabb9a4a46ebd","bdp_rd","Wed Mar 29 2023 00:35:54 GMT-0400 (Eastern Daylight Time)","218527","","2194","","","","offer","","<div class='trialBorder'><div class='vertical-center'><img style='vertical-align:center; align:center' src=img/fixation3.jpg></div><div class='cl'><div class='vertical-center'>$19<br>for<br>sure</div></div><div class='cr'><div class='vertical-center'>$51<br>with a<br>50% chance</div></div><div class='respDivL'><div class='vertical-center'>(E)</div></div><div class='respDivR'><div class='vertical-center'>(I)</div></div></div>","I","$19","$51","0","19","51","RISKY"
"html-keyboard-response","102","147083","0.0-5.0-3.32","611d4519393cabb9a4a46ebd","bdp_rd","Wed Mar 29 2023 00:35:54 GMT-0400 (Eastern Daylight Time)","218527","","null","","","","offerFB","","<div class='trialBorder'><div class='vertical-center'><img style='vertical-align:center; align:center' src=img/fixation3.jpg></div><div class='cl'><div class='vertical-center'>$19<br>for<br>sure</div></div><div class='cr'><div class='vertical-center'><font style='color:orange'>$51<br>with a<br>50% chance</font></div></div><div class='respDivL'><div class='vertical-center'>(E)</div></div><div class='respDivR'><div class='vertical-center'><font style='color:orange'>(I)</font></div></div></div>","null","$19","$51","0","19","51",""
"html-keyboard-response","103","147585","0.0-5.0-1.33","611d4519393cabb9a4a46ebd","bdp_rd","Wed Mar 29 2023 00:35:54 GMT-0400 (Eastern Daylight Time)","218527","","null","","","","FIX","","<div class='trialBorder'><div class='vertical-center'><img style='vertical-align:center; align:center' src=img/fixation3.jpg></div></div>","null","","","","","",""
"html-keyboard-response","104","149103","0.0-5.0-2.33","611d4519393cabb9a4a46ebd","bdp_rd","Wed Mar 29 2023 00:35:54 GMT-0400 (Eastern Daylight Time)","218527","","1518","","","","offer","","<div class='trialBorder'><div class='vertical-center'><img style='vertical-align:center; align:center' src=img/fixation3.jpg></div><div class='cl'><div class='vertical-center'>$28<br>with a<br>50% chance</div></div><div class='cr'><div class='vertical-center'>$16<br>for<br>sure</div></div><div class='respDivL'><div class='vertical-center'>(E)</div></div><div class='respDivR'><div class='vertical-center'>(I)</div></div></div>","I","$16","$28","1","16","28","SURE"
"html-keyboard-response","105","149355","0.0-5.0-3.33","611d4519393cabb9a4a46ebd","bdp_rd","Wed Mar 29 2023 00:35:54 GMT-0400 (Eastern Daylight Time)","218527","","null","","","","offerFB","","<div class='trialBorder'><div class='vertical-center'><img style='vertical-align:center; align:center' src=img/fixation3.jpg></div><div class='cl'><div class='vertical-center'>$28<br>with a<br>50% chance</div></div><div class='cr'><div class='vertical-center'><font style='color:orange'>$16<br>for<br>sure</font></div></div><div class='respDivL'><div class='vertical-center'>(E)</div></div><div class='respDivR'><div class='vertical-center'><font style='color:orange'>(I)</font></div></div></div>","null","$16","$28","1","16","28",""
"html-keyboard-response","106","149856","0.0-5.0-1.34","611d4519393cabb9a4a46ebd","bdp_rd","Wed Mar 29 2023 00:35:54 GMT-0400 (Eastern Daylight Time)","218527","","null","","","","FIX","","<div class='trialBorder'><div class='vertical-center'><img style='vertical-align:center; align:center' src=img/fixation3.jpg></div></div>","null","","","","","",""
"html-keyboard-response","107","153797","0.0-5.0-2.34","611d4519393cabb9a4a46ebd","bdp_rd","Wed Mar 29 2023 00:35:54 GMT-0400 (Eastern Daylight Time)","218527","","3940","","","","offer","","<div class='trialBorder'><div class='vertical-center'><img style='vertical-align:center; align:center' src=img/fixation3.jpg></div><div class='cl'><div class='vertical-center'>$12<br>for<br>sure</div></div><div class='cr'><div class='vertical-center'>$27<br>with a<br>50% chance</div></div><div class='respDivL'><div class='vertical-center'>(E)</div></div><div class='respDivR'><div class='vertical-center'>(I)</div></div></div>","E","$12","$27","0","12","27","SURE"
"html-keyboard-response","108","154049","0.0-5.0-3.34","611d4519393cabb9a4a46ebd","bdp_rd","Wed Mar 29 2023 00:35:54 GMT-0400 (Eastern Daylight Time)","218527","","null","","","","offerFB","","<div class='trialBorder'><div class='vertical-center'><img style='vertical-align:center; align:center' src=img/fixation3.jpg></div><div class='cl'><div class='vertical-center'><font style='color:orange'>$12<br>for<br>sure</font></div></div><div class='cr'><div class='vertical-center'>$27<br>with a<br>50% chance</div></div><div class='respDivL'><div class='vertical-center'><font style='color:orange'>(E)</font></div></div><div class='respDivR'><div class='vertical-center'>(I)</div></div></div>","null","$12","$27","0","12","27",""
"html-keyboard-response","109","154550","0.0-5.0-1.35","611d4519393cabb9a4a46ebd","bdp_rd","Wed Mar 29 2023 00:35:54 GMT-0400 (Eastern Daylight Time)","218527","","null","","","","FIX","","<div class='trialBorder'><div class='vertical-center'><img style='vertical-align:center; align:center' src=img/fixation3.jpg></div></div>","null","","","","","",""
"html-keyboard-response","110","155963","0.0-5.0-2.35","611d4519393cabb9a4a46ebd","bdp_rd","Wed Mar 29 2023 00:35:54 GMT-0400 (Eastern Daylight Time)","218527","","1413","","","","offer","","<div class='trialBorder'><div class='vertical-center'><img style='vertical-align:center; align:center' src=img/fixation3.jpg></div><div class='cl'><div class='vertical-center'>$17<br>for<br>sure</div></div><div class='cr'><div class='vertical-center'>$43<br>with a<br>50% chance</div></div><div class='respDivL'><div class='vertical-center'>(E)</div></div><div class='respDivR'><div class='vertical-center'>(I)</div></div></div>","I","$17","$43","0","17","43","RISKY"
"html-keyboard-response","111","156215","0.0-5.0-3.35","611d4519393cabb9a4a46ebd","bdp_rd","Wed Mar 29 2023 00:35:54 GMT-0400 (Eastern Daylight Time)","218527","","null","","","","offerFB","","<div class='trialBorder'><div class='vertical-center'><img style='vertical-align:center; align:center' src=img/fixation3.jpg></div><div class='cl'><div class='vertical-center'>$17<br>for<br>sure</div></div><div class='cr'><div class='vertical-center'><font style='color:orange'>$43<br>with a<br>50% chance</font></div></div><div class='respDivL'><div class='vertical-center'>(E)</div></div><div class='respDivR'><div class='vertical-center'><font style='color:orange'>(I)</font></div></div></div>","null","$17","$43","0","17","43",""
"html-keyboard-response","112","156716","0.0-5.0-1.36","611d4519393cabb9a4a46ebd","bdp_rd","Wed Mar 29 2023 00:35:54 GMT-0400 (Eastern Daylight Time)","218527","","null","","","","FIX","","<div class='trialBorder'><div class='vertical-center'><img style='vertical-align:center; align:center' src=img/fixation3.jpg></div></div>","null","","","","","",""
"html-keyboard-response","113","158740","0.0-5.0-2.36","611d4519393cabb9a4a46ebd","bdp_rd","Wed Mar 29 2023 00:35:54 GMT-0400 (Eastern Daylight Time)","218527","","2024","","","","offer","","<div class='trialBorder'><div class='vertical-center'><img style='vertical-align:center; align:center' src=img/fixation3.jpg></div><div class='cl'><div class='vertical-center'>$46<br>for<br>sure</div></div><div class='cr'><div class='vertical-center'>$65<br>with a<br>50% chance</div></div><div class='respDivL'><div class='vertical-center'>(E)</div></div><div class='respDivR'><div class='vertical-center'>(I)</div></div></div>","E","$46","$65","0","46","65","SURE"
"html-keyboard-response","114","158991","0.0-5.0-3.36","611d4519393cabb9a4a46ebd","bdp_rd","Wed Mar 29 2023 00:35:54 GMT-0400 (Eastern Daylight Time)","218527","","null","","","","offerFB","","<div class='trialBorder'><div class='vertical-center'><img style='vertical-align:center; align:center' src=img/fixation3.jpg></div><div class='cl'><div class='vertical-center'><font style='color:orange'>$46<br>for<br>sure</font></div></div><div class='cr'><div class='vertical-center'>$65<br>with a<br>50% chance</div></div><div class='respDivL'><div class='vertical-center'><font style='color:orange'>(E)</font></div></div><div class='respDivR'><div class='vertical-center'>(I)</div></div></div>","null","$46","$65","0","46","65",""
"html-keyboard-response","115","159493","0.0-5.0-1.37","611d4519393cabb9a4a46ebd","bdp_rd","Wed Mar 29 2023 00:35:54 GMT-0400 (Eastern Daylight Time)","218527","","null","","","","FIX","","<div class='trialBorder'><div class='vertical-center'><img style='vertical-align:center; align:center' src=img/fixation3.jpg></div></div>","null","","","","","",""
"html-keyboard-response","116","160535","0.0-5.0-2.37","611d4519393cabb9a4a46ebd","bdp_rd","Wed Mar 29 2023 00:35:54 GMT-0400 (Eastern Daylight Time)","218527","","1042","","","","offer","","<div class='trialBorder'><div class='vertical-center'><img style='vertical-align:center; align:center' src=img/fixation3.jpg></div><div class='cl'><div class='vertical-center'>$30<br>for<br>sure</div></div><div class='cr'><div class='vertical-center'>$68<br>with a<br>50% chance</div></div><div class='respDivL'><div class='vertical-center'>(E)</div></div><div class='respDivR'><div class='vertical-center'>(I)</div></div></div>","E","$30","$68","0","30","68","SURE"
"html-keyboard-response","117","160787","0.0-5.0-3.37","611d4519393cabb9a4a46ebd","bdp_rd","Wed Mar 29 2023 00:35:54 GMT-0400 (Eastern Daylight Time)","218527","","null","","","","offerFB","","<div class='trialBorder'><div class='vertical-center'><img style='vertical-align:center; align:center' src=img/fixation3.jpg></div><div class='cl'><div class='vertical-center'><font style='color:orange'>$30<br>for<br>sure</font></div></div><div class='cr'><div class='vertical-center'>$68<br>with a<br>50% chance</div></div><div class='respDivL'><div class='vertical-center'><font style='color:orange'>(E)</font></div></div><div class='respDivR'><div class='vertical-center'>(I)</div></div></div>","null","$30","$68","0","30","68",""
"html-keyboard-response","118","161288","0.0-5.0-1.38","611d4519393cabb9a4a46ebd","bdp_rd","Wed Mar 29 2023 00:35:54 GMT-0400 (Eastern Daylight Time)","218527","","null","","","","FIX","","<div class='trialBorder'><div class='vertical-center'><img style='vertical-align:center; align:center' src=img/fixation3.jpg></div></div>","null","","","","","",""
"html-keyboard-response","119","162126","0.0-5.0-2.38","611d4519393cabb9a4a46ebd","bdp_rd","Wed Mar 29 2023 00:35:54 GMT-0400 (Eastern Daylight Time)","218527","","838","","","","offer","","<div class='trialBorder'><div class='vertical-center'><img style='vertical-align:center; align:center' src=img/fixation3.jpg></div><div class='cl'><div class='vertical-center'>$33<br>for<br>sure</div></div><div class='cr'><div class='vertical-center'>$66<br>with a<br>50% chance</div></div><div class='respDivL'><div class='vertical-center'>(E)</div></div><div class='respDivR'><div class='vertical-center'>(I)</div></div></div>","E","$33","$66","0","33","66","SURE"
"html-keyboard-response","120","162377","0.0-5.0-3.38","611d4519393cabb9a4a46ebd","bdp_rd","Wed Mar 29 2023 00:35:54 GMT-0400 (Eastern Daylight Time)","218527","","null","","","","offerFB","","<div class='trialBorder'><div class='vertical-center'><img style='vertical-align:center; align:center' src=img/fixation3.jpg></div><div class='cl'><div class='vertical-center'><font style='color:orange'>$33<br>for<br>sure</font></div></div><div class='cr'><div class='vertical-center'>$66<br>with a<br>50% chance</div></div><div class='respDivL'><div class='vertical-center'><font style='color:orange'>(E)</font></div></div><div class='respDivR'><div class='vertical-center'>(I)</div></div></div>","null","$33","$66","0","33","66",""
"html-keyboard-response","121","162878","0.0-5.0-1.39","611d4519393cabb9a4a46ebd","bdp_rd","Wed Mar 29 2023 00:35:54 GMT-0400 (Eastern Daylight Time)","218527","","null","","","","FIX","","<div class='trialBorder'><div class='vertical-center'><img style='vertical-align:center; align:center' src=img/fixation3.jpg></div></div>","null","","","","","",""
"html-keyboard-response","122","165666","0.0-5.0-2.39","611d4519393cabb9a4a46ebd","bdp_rd","Wed Mar 29 2023 00:35:54 GMT-0400 (Eastern Daylight Time)","218527","","2787","","","","offer","","<div class='trialBorder'><div class='vertical-center'><img style='vertical-align:center; align:center' src=img/fixation3.jpg></div><div class='cl'><div class='vertical-center'>$40<br>with a<br>50% chance</div></div><div class='cr'><div class='vertical-center'>$10<br>for<br>sure</div></div><div class='respDivL'><div class='vertical-center'>(E)</div></div><div class='respDivR'><div class='vertical-center'>(I)</div></div></div>","E","$10","$40","1","10","40","RISKY"
"html-keyboard-response","123","165917","0.0-5.0-3.39","611d4519393cabb9a4a46ebd","bdp_rd","Wed Mar 29 2023 00:35:54 GMT-0400 (Eastern Daylight Time)","218527","","null","","","","offerFB","","<div class='trialBorder'><div class='vertical-center'><img style='vertical-align:center; align:center' src=img/fixation3.jpg></div><div class='cl'><div class='vertical-center'><font style='color:orange'>$40<br>with a<br>50% chance</font></div></div><div class='cr'><div class='vertical-center'>$10<br>for<br>sure</div></div><div class='respDivL'><div class='vertical-center'><font style='color:orange'>(E)</font></div></div><div class='respDivR'><div class='vertical-center'>(I)</div></div></div>","null","$10","$40","1","10","40",""
"html-keyboard-response","124","166419","0.0-5.0-1.40","611d4519393cabb9a4a46ebd","bdp_rd","Wed Mar 29 2023 00:35:54 GMT-0400 (Eastern Daylight Time)","218527","","null","","","","FIX","","<div class='trialBorder'><div class='vertical-center'><img style='vertical-align:center; align:center' src=img/fixation3.jpg></div></div>","null","","","","","",""
"html-keyboard-response","125","167578","0.0-5.0-2.40","611d4519393cabb9a4a46ebd","bdp_rd","Wed Mar 29 2023 00:35:54 GMT-0400 (Eastern Daylight Time)","218527","","1159","","","","offer","","<div class='trialBorder'><div class='vertical-center'><img style='vertical-align:center; align:center' src=img/fixation3.jpg></div><div class='cl'><div class='vertical-center'>$11<br>for<br>sure</div></div><div class='cr'><div class='vertical-center'>$62<br>with a<br>50% chance</div></div><div class='respDivL'><div class='vertical-center'>(E)</div></div><div class='respDivR'><div class='vertical-center'>(I)</div></div></div>","I","$11","$62","0","11","62","RISKY"
"html-keyboard-response","126","167830","0.0-5.0-3.40","611d4519393cabb9a4a46ebd","bdp_rd","Wed Mar 29 2023 00:35:54 GMT-0400 (Eastern Daylight Time)","218527","","null","","","","offerFB","","<div class='trialBorder'><div class='vertical-center'><img style='vertical-align:center; align:center' src=img/fixation3.jpg></div><div class='cl'><div class='vertical-center'>$11<br>for<br>sure</div></div><div class='cr'><div class='vertical-center'><font style='color:orange'>$62<br>with a<br>50% chance</font></div></div><div class='respDivL'><div class='vertical-center'>(E)</div></div><div class='respDivR'><div class='vertical-center'><font style='color:orange'>(I)</font></div></div></div>","null","$11","$62","0","11","62",""
"html-keyboard-response","127","168331","0.0-5.0-1.41","611d4519393cabb9a4a46ebd","bdp_rd","Wed Mar 29 2023 00:35:54 GMT-0400 (Eastern Daylight Time)","218527","","null","","","","FIX","","<div class='trialBorder'><div class='vertical-center'><img style='vertical-align:center; align:center' src=img/fixation3.jpg></div></div>","null","","","","","",""
"html-keyboard-response","128","169494","0.0-5.0-2.41","611d4519393cabb9a4a46ebd","bdp_rd","Wed Mar 29 2023 00:35:54 GMT-0400 (Eastern Daylight Time)","218527","","1163","","","","offer","","<div class='trialBorder'><div class='vertical-center'><img style='vertical-align:center; align:center' src=img/fixation3.jpg></div><div class='cl'><div class='vertical-center'>$25<br>for<br>sure</div></div><div class='cr'><div class='vertical-center'>$54<br>with a<br>50% chance</div></div><div class='respDivL'><div class='vertical-center'>(E)</div></div><div class='respDivR'><div class='vertical-center'>(I)</div></div></div>","E","$25","$54","0","25","54","SURE"
"html-keyboard-response","129","169746","0.0-5.0-3.41","611d4519393cabb9a4a46ebd","bdp_rd","Wed Mar 29 2023 00:35:54 GMT-0400 (Eastern Daylight Time)","218527","","null","","","","offerFB","","<div class='trialBorder'><div class='vertical-center'><img style='vertical-align:center; align:center' src=img/fixation3.jpg></div><div class='cl'><div class='vertical-center'><font style='color:orange'>$25<br>for<br>sure</font></div></div><div class='cr'><div class='vertical-center'>$54<br>with a<br>50% chance</div></div><div class='respDivL'><div class='vertical-center'><font style='color:orange'>(E)</font></div></div><div class='respDivR'><div class='vertical-center'>(I)</div></div></div>","null","$25","$54","0","25","54",""
"html-keyboard-response","130","170247","0.0-5.0-1.42","611d4519393cabb9a4a46ebd","bdp_rd","Wed Mar 29 2023 00:35:54 GMT-0400 (Eastern Daylight Time)","218527","","null","","","","FIX","","<div class='trialBorder'><div class='vertical-center'><img style='vertical-align:center; align:center' src=img/fixation3.jpg></div></div>","null","","","","","",""
"html-keyboard-response","131","172316","0.0-5.0-2.42","611d4519393cabb9a4a46ebd","bdp_rd","Wed Mar 29 2023 00:35:54 GMT-0400 (Eastern Daylight Time)","218527","","2068","","","","offer","","<div class='trialBorder'><div class='vertical-center'><img style='vertical-align:center; align:center' src=img/fixation3.jpg></div><div class='cl'><div class='vertical-center'>$80<br>with a<br>50% chance</div></div><div class='cr'><div class='vertical-center'>$20<br>for<br>sure</div></div><div class='respDivL'><div class='vertical-center'>(E)</div></div><div class='respDivR'><div class='vertical-center'>(I)</div></div></div>","E","$20","$80","1","20","80","RISKY"
"html-keyboard-response","132","172566","0.0-5.0-3.42","611d4519393cabb9a4a46ebd","bdp_rd","Wed Mar 29 2023 00:35:54 GMT-0400 (Eastern Daylight Time)","218527","","null","","","","offerFB","","<div class='trialBorder'><div class='vertical-center'><img style='vertical-align:center; align:center' src=img/fixation3.jpg></div><div class='cl'><div class='vertical-center'><font style='color:orange'>$80<br>with a<br>50% chance</font></div></div><div class='cr'><div class='vertical-center'>$20<br>for<br>sure</div></div><div class='respDivL'><div class='vertical-center'><font style='color:orange'>(E)</font></div></div><div class='respDivR'><div class='vertical-center'>(I)</div></div></div>","null","$20","$80","1","20","80",""
"html-keyboard-response","133","173067","0.0-5.0-1.43","611d4519393cabb9a4a46ebd","bdp_rd","Wed Mar 29 2023 00:35:54 GMT-0400 (Eastern Daylight Time)","218527","","null","","","","FIX","","<div class='trialBorder'><div class='vertical-center'><img style='vertical-align:center; align:center' src=img/fixation3.jpg></div></div>","null","","","","","",""
"html-keyboard-response","134","174898","0.0-5.0-2.43","611d4519393cabb9a4a46ebd","bdp_rd","Wed Mar 29 2023 00:35:54 GMT-0400 (Eastern Daylight Time)","218527","","1830","","","","offer","","<div class='trialBorder'><div class='vertical-center'><img style='vertical-align:center; align:center' src=img/fixation3.jpg></div><div class='cl'><div class='vertical-center'>$10<br>for<br>sure</div></div><div class='cr'><div class='vertical-center'>$19<br>with a<br>50% chance</div></div><div class='respDivL'><div class='vertical-center'>(E)</div></div><div class='respDivR'><div class='vertical-center'>(I)</div></div></div>","E","$10","$19","0","10","19","SURE"
"html-keyboard-response","135","175150","0.0-5.0-3.43","611d4519393cabb9a4a46ebd","bdp_rd","Wed Mar 29 2023 00:35:54 GMT-0400 (Eastern Daylight Time)","218527","","null","","","","offerFB","","<div class='trialBorder'><div class='vertical-center'><img style='vertical-align:center; align:center' src=img/fixation3.jpg></div><div class='cl'><div class='vertical-center'><font style='color:orange'>$10<br>for<br>sure</font></div></div><div class='cr'><div class='vertical-center'>$19<br>with a<br>50% chance</div></div><div class='respDivL'><div class='vertical-center'><font style='color:orange'>(E)</font></div></div><div class='respDivR'><div class='vertical-center'>(I)</div></div></div>","null","$10","$19","0","10","19",""
"html-keyboard-response","136","175651","0.0-5.0-1.44","611d4519393cabb9a4a46ebd","bdp_rd","Wed Mar 29 2023 00:35:54 GMT-0400 (Eastern Daylight Time)","218527","","null","","","","FIX","","<div class='trialBorder'><div class='vertical-center'><img style='vertical-align:center; align:center' src=img/fixation3.jpg></div></div>","null","","","","","",""
"html-keyboard-response","137","178256","0.0-5.0-2.44","611d4519393cabb9a4a46ebd","bdp_rd","Wed Mar 29 2023 00:35:54 GMT-0400 (Eastern Daylight Time)","218527","","2605","","","","offer","","<div class='trialBorder'><div class='vertical-center'><img style='vertical-align:center; align:center' src=img/fixation3.jpg></div><div class='cl'><div class='vertical-center'>$48<br>with a<br>50% chance</div></div><div class='cr'><div class='vertical-center'>$34<br>for<br>sure</div></div><div class='respDivL'><div class='vertical-center'>(E)</div></div><div class='respDivR'><div class='vertical-center'>(I)</div></div></div>","I","$34","$48","1","34","48","SURE"
"html-keyboard-response","138","178508","0.0-5.0-3.44","611d4519393cabb9a4a46ebd","bdp_rd","Wed Mar 29 2023 00:35:54 GMT-0400 (Eastern Daylight Time)","218527","","null","","","","offerFB","","<div class='trialBorder'><div class='vertical-center'><img style='vertical-align:center; align:center' src=img/fixation3.jpg></div><div class='cl'><div class='vertical-center'>$48<br>with a<br>50% chance</div></div><div class='cr'><div class='vertical-center'><font style='color:orange'>$34<br>for<br>sure</font></div></div><div class='respDivL'><div class='vertical-center'>(E)</div></div><div class='respDivR'><div class='vertical-center'><font style='color:orange'>(I)</font></div></div></div>","null","$34","$48","1","34","48",""
"html-keyboard-response","139","179010","0.0-5.0-1.45","611d4519393cabb9a4a46ebd","bdp_rd","Wed Mar 29 2023 00:35:54 GMT-0400 (Eastern Daylight Time)","218527","","null","","","","FIX","","<div class='trialBorder'><div class='vertical-center'><img style='vertical-align:center; align:center' src=img/fixation3.jpg></div></div>","null","","","","","",""
"html-keyboard-response","140","180877","0.0-5.0-2.45","611d4519393cabb9a4a46ebd","bdp_rd","Wed Mar 29 2023 00:35:54 GMT-0400 (Eastern Daylight Time)","218527","","1867","","","","offer","","<div class='trialBorder'><div class='vertical-center'><img style='vertical-align:center; align:center' src=img/fixation3.jpg></div><div class='cl'><div class='vertical-center'>$25<br>with a<br>50% chance</div></div><div class='cr'><div class='vertical-center'>$21<br>for<br>sure</div></div><div class='respDivL'><div class='vertical-center'>(E)</div></div><div class='respDivR'><div class='vertical-center'>(I)</div></div></div>","I","$21","$25","1","21","25","SURE"
"html-keyboard-response","141","181128","0.0-5.0-3.45","611d4519393cabb9a4a46ebd","bdp_rd","Wed Mar 29 2023 00:35:54 GMT-0400 (Eastern Daylight Time)","218527","","null","","","","offerFB","","<div class='trialBorder'><div class='vertical-center'><img style='vertical-align:center; align:center' src=img/fixation3.jpg></div><div class='cl'><div class='vertical-center'>$25<br>with a<br>50% chance</div></div><div class='cr'><div class='vertical-center'><font style='color:orange'>$21<br>for<br>sure</font></div></div><div class='respDivL'><div class='vertical-center'>(E)</div></div><div class='respDivR'><div class='vertical-center'><font style='color:orange'>(I)</font></div></div></div>","null","$21","$25","1","21","25",""
"html-keyboard-response","142","181629","0.0-5.0-1.46","611d4519393cabb9a4a46ebd","bdp_rd","Wed Mar 29 2023 00:35:54 GMT-0400 (Eastern Daylight Time)","218527","","null","","","","FIX","","<div class='trialBorder'><div class='vertical-center'><img style='vertical-align:center; align:center' src=img/fixation3.jpg></div></div>","null","","","","","",""
"html-keyboard-response","143","183761","0.0-5.0-2.46","611d4519393cabb9a4a46ebd","bdp_rd","Wed Mar 29 2023 00:35:54 GMT-0400 (Eastern Daylight Time)","218527","","2132","","","","offer","","<div class='trialBorder'><div class='vertical-center'><img style='vertical-align:center; align:center' src=img/fixation3.jpg></div><div class='cl'><div class='vertical-center'>$7<br>for<br>sure</div></div><div class='cr'><div class='vertical-center'>$71<br>with a<br>50% chance</div></div><div class='respDivL'><div class='vertical-center'>(E)</div></div><div class='respDivR'><div class='vertical-center'>(I)</div></div></div>","I","$7","$71","0","7","71","RISKY"
"html-keyboard-response","144","184012","0.0-5.0-3.46","611d4519393cabb9a4a46ebd","bdp_rd","Wed Mar 29 2023 00:35:54 GMT-0400 (Eastern Daylight Time)","218527","","null","","","","offerFB","","<div class='trialBorder'><div class='vertical-center'><img style='vertical-align:center; align:center' src=img/fixation3.jpg></div><div class='cl'><div class='vertical-center'>$7<br>for<br>sure</div></div><div class='cr'><div class='vertical-center'><font style='color:orange'>$71<br>with a<br>50% chance</font></div></div><div class='respDivL'><div class='vertical-center'>(E)</div></div><div class='respDivR'><div class='vertical-center'><font style='color:orange'>(I)</font></div></div></div>","null","$7","$71","0","7","71",""
"html-keyboard-response","145","184513","0.0-5.0-1.47","611d4519393cabb9a4a46ebd","bdp_rd","Wed Mar 29 2023 00:35:54 GMT-0400 (Eastern Daylight Time)","218527","","null","","","","FIX","","<div class='trialBorder'><div class='vertical-center'><img style='vertical-align:center; align:center' src=img/fixation3.jpg></div></div>","null","","","","","",""
"html-keyboard-response","146","186539","0.0-5.0-2.47","611d4519393cabb9a4a46ebd","bdp_rd","Wed Mar 29 2023 00:35:54 GMT-0400 (Eastern Daylight Time)","218527","","2025","","","","offer","","<div class='trialBorder'><div class='vertical-center'><img style='vertical-align:center; align:center' src=img/fixation3.jpg></div><div class='cl'><div class='vertical-center'>$37<br>for<br>sure</div></div><div class='cr'><div class='vertical-center'>$44<br>with a<br>50% chance</div></div><div class='respDivL'><div class='vertical-center'>(E)</div></div><div class='respDivR'><div class='vertical-center'>(I)</div></div></div>","E","$37","$44","0","37","44","SURE"
"html-keyboard-response","147","186790","0.0-5.0-3.47","611d4519393cabb9a4a46ebd","bdp_rd","Wed Mar 29 2023 00:35:54 GMT-0400 (Eastern Daylight Time)","218527","","null","","","","offerFB","","<div class='trialBorder'><div class='vertical-center'><img style='vertical-align:center; align:center' src=img/fixation3.jpg></div><div class='cl'><div class='vertical-center'><font style='color:orange'>$37<br>for<br>sure</font></div></div><div class='cr'><div class='vertical-center'>$44<br>with a<br>50% chance</div></div><div class='respDivL'><div class='vertical-center'><font style='color:orange'>(E)</font></div></div><div class='respDivR'><div class='vertical-center'>(I)</div></div></div>","null","$37","$44","0","37","44",""
"html-keyboard-response","148","187292","0.0-5.0-1.48","611d4519393cabb9a4a46ebd","bdp_rd","Wed Mar 29 2023 00:35:54 GMT-0400 (Eastern Daylight Time)","218527","","null","","","","FIX","","<div class='trialBorder'><div class='vertical-center'><img style='vertical-align:center; align:center' src=img/fixation3.jpg></div></div>","null","","","","","",""
"html-keyboard-response","149","188945","0.0-5.0-2.48","611d4519393cabb9a4a46ebd","bdp_rd","Wed Mar 29 2023 00:35:54 GMT-0400 (Eastern Daylight Time)","218527","","1652","","","","offer","","<div class='trialBorder'><div class='vertical-center'><img style='vertical-align:center; align:center' src=img/fixation3.jpg></div><div class='cl'><div class='vertical-center'>$78<br>with a<br>50% chance</div></div><div class='cr'><div class='vertical-center'>$31<br>for<br>sure</div></div><div class='respDivL'><div class='vertical-center'>(E)</div></div><div class='respDivR'><div class='vertical-center'>(I)</div></div></div>","E","$31","$78","1","31","78","RISKY"
"html-keyboard-response","150","189197","0.0-5.0-3.48","611d4519393cabb9a4a46ebd","bdp_rd","Wed Mar 29 2023 00:35:54 GMT-0400 (Eastern Daylight Time)","218527","","null","","","","offerFB","","<div class='trialBorder'><div class='vertical-center'><img style='vertical-align:center; align:center' src=img/fixation3.jpg></div><div class='cl'><div class='vertical-center'><font style='color:orange'>$78<br>with a<br>50% chance</font></div></div><div class='cr'><div class='vertical-center'>$31<br>for<br>sure</div></div><div class='respDivL'><div class='vertical-center'><font style='color:orange'>(E)</font></div></div><div class='respDivR'><div class='vertical-center'>(I)</div></div></div>","null","$31","$78","1","31","78",""
"html-keyboard-response","151","189698","0.0-5.0-1.49","611d4519393cabb9a4a46ebd","bdp_rd","Wed Mar 29 2023 00:35:54 GMT-0400 (Eastern Daylight Time)","218527","","null","","","","FIX","","<div class='trialBorder'><div class='vertical-center'><img style='vertical-align:center; align:center' src=img/fixation3.jpg></div></div>","null","","","","","",""
"html-keyboard-response","152","191680","0.0-5.0-2.49","611d4519393cabb9a4a46ebd","bdp_rd","Wed Mar 29 2023 00:35:54 GMT-0400 (Eastern Daylight Time)","218527","","1981","","","","offer","","<div class='trialBorder'><div class='vertical-center'><img style='vertical-align:center; align:center' src=img/fixation3.jpg></div><div class='cl'><div class='vertical-center'>$18<br>for<br>sure</div></div><div class='cr'><div class='vertical-center'>$39<br>with a<br>50% chance</div></div><div class='respDivL'><div class='vertical-center'>(E)</div></div><div class='respDivR'><div class='vertical-center'>(I)</div></div></div>","E","$18","$39","0","18","39","SURE"
"html-keyboard-response","153","191932","0.0-5.0-3.49","611d4519393cabb9a4a46ebd","bdp_rd","Wed Mar 29 2023 00:35:54 GMT-0400 (Eastern Daylight Time)","218527","","null","","","","offerFB","","<div class='trialBorder'><div class='vertical-center'><img style='vertical-align:center; align:center' src=img/fixation3.jpg></div><div class='cl'><div class='vertical-center'><font style='color:orange'>$18<br>for<br>sure</font></div></div><div class='cr'><div class='vertical-center'>$39<br>with a<br>50% chance</div></div><div class='respDivL'><div class='vertical-center'><font style='color:orange'>(E)</font></div></div><div class='respDivR'><div class='vertical-center'>(I)</div></div></div>","null","$18","$39","0","18","39",""
"html-keyboard-response","154","192433","0.0-5.0-1.50","611d4519393cabb9a4a46ebd","bdp_rd","Wed Mar 29 2023 00:35:54 GMT-0400 (Eastern Daylight Time)","218527","","null","","","","FIX","","<div class='trialBorder'><div class='vertical-center'><img style='vertical-align:center; align:center' src=img/fixation3.jpg></div></div>","null","","","","","",""
"html-keyboard-response","155","194144","0.0-5.0-2.50","611d4519393cabb9a4a46ebd","bdp_rd","Wed Mar 29 2023 00:35:54 GMT-0400 (Eastern Daylight Time)","218527","","1711","","","","offer","","<div class='trialBorder'><div class='vertical-center'><img style='vertical-align:center; align:center' src=img/fixation3.jpg></div><div class='cl'><div class='vertical-center'>$40<br>for<br>sure</div></div><div class='cr'><div class='vertical-center'>$95<br>with a<br>50% chance</div></div><div class='respDivL'><div class='vertical-center'>(E)</div></div><div class='respDivR'><div class='vertical-center'>(I)</div></div></div>","E","$40","$95","0","40","95","SURE"
"html-keyboard-response","156","194396","0.0-5.0-3.50","611d4519393cabb9a4a46ebd","bdp_rd","Wed Mar 29 2023 00:35:54 GMT-0400 (Eastern Daylight Time)","218527","","null","","","","offerFB","","<div class='trialBorder'><div class='vertical-center'><img style='vertical-align:center; align:center' src=img/fixation3.jpg></div><div class='cl'><div class='vertical-center'><font style='color:orange'>$40<br>for<br>sure</font></div></div><div class='cr'><div class='vertical-center'>$95<br>with a<br>50% chance</div></div><div class='respDivL'><div class='vertical-center'><font style='color:orange'>(E)</font></div></div><div class='respDivR'><div class='vertical-center'>(I)</div></div></div>","null","$40","$95","0","40","95",""
"html-keyboard-response","157","194897","0.0-5.0-1.51","611d4519393cabb9a4a46ebd","bdp_rd","Wed Mar 29 2023 00:35:54 GMT-0400 (Eastern Daylight Time)","218527","","null","","","","FIX","","<div class='trialBorder'><div class='vertical-center'><img style='vertical-align:center; align:center' src=img/fixation3.jpg></div></div>","null","","","","","",""
"html-keyboard-response","158","197235","0.0-5.0-2.51","611d4519393cabb9a4a46ebd","bdp_rd","Wed Mar 29 2023 00:35:54 GMT-0400 (Eastern Daylight Time)","218527","","2337","","","","offer","","<div class='trialBorder'><div class='vertical-center'><img style='vertical-align:center; align:center' src=img/fixation3.jpg></div><div class='cl'><div class='vertical-center'>$36<br>with a<br>50% chance</div></div><div class='cr'><div class='vertical-center'>$18<br>for<br>sure</div></div><div class='respDivL'><div class='vertical-center'>(E)</div></div><div class='respDivR'><div class='vertical-center'>(I)</div></div></div>","I","$18","$36","1","18","36","SURE"
"html-keyboard-response","159","197487","0.0-5.0-3.51","611d4519393cabb9a4a46ebd","bdp_rd","Wed Mar 29 2023 00:35:54 GMT-0400 (Eastern Daylight Time)","218527","","null","","","","offerFB","","<div class='trialBorder'><div class='vertical-center'><img style='vertical-align:center; align:center' src=img/fixation3.jpg></div><div class='cl'><div class='vertical-center'>$36<br>with a<br>50% chance</div></div><div class='cr'><div class='vertical-center'><font style='color:orange'>$18<br>for<br>sure</font></div></div><div class='respDivL'><div class='vertical-center'>(E)</div></div><div class='respDivR'><div class='vertical-center'><font style='color:orange'>(I)</font></div></div></div>","null","$18","$36","1","18","36",""
"html-keyboard-response","160","197989","0.0-5.0-1.52","611d4519393cabb9a4a46ebd","bdp_rd","Wed Mar 29 2023 00:35:54 GMT-0400 (Eastern Daylight Time)","218527","","null","","","","FIX","","<div class='trialBorder'><div class='vertical-center'><img style='vertical-align:center; align:center' src=img/fixation3.jpg></div></div>","null","","","","","",""
"html-keyboard-response","161","199196","0.0-5.0-2.52","611d4519393cabb9a4a46ebd","bdp_rd","Wed Mar 29 2023 00:35:54 GMT-0400 (Eastern Daylight Time)","218527","","1207","","","","offer","","<div class='trialBorder'><div class='vertical-center'><img style='vertical-align:center; align:center' src=img/fixation3.jpg></div><div class='cl'><div class='vertical-center'>$70<br>with a<br>50% chance</div></div><div class='cr'><div class='vertical-center'>$24<br>for<br>sure</div></div><div class='respDivL'><div class='vertical-center'>(E)</div></div><div class='respDivR'><div class='vertical-center'>(I)</div></div></div>","E","$24","$70","1","24","70","RISKY"
"html-keyboard-response","162","199447","0.0-5.0-3.52","611d4519393cabb9a4a46ebd","bdp_rd","Wed Mar 29 2023 00:35:54 GMT-0400 (Eastern Daylight Time)","218527","","null","","","","offerFB","","<div class='trialBorder'><div class='vertical-center'><img style='vertical-align:center; align:center' src=img/fixation3.jpg></div><div class='cl'><div class='vertical-center'><font style='color:orange'>$70<br>with a<br>50% chance</font></div></div><div class='cr'><div class='vertical-center'>$24<br>for<br>sure</div></div><div class='respDivL'><div class='vertical-center'><font style='color:orange'>(E)</font></div></div><div class='respDivR'><div class='vertical-center'>(I)</div></div></div>","null","$24","$70","1","24","70",""
"html-keyboard-response","163","199948","0.0-5.0-1.53","611d4519393cabb9a4a46ebd","bdp_rd","Wed Mar 29 2023 00:35:54 GMT-0400 (Eastern Daylight Time)","218527","","null","","","","FIX","","<div class='trialBorder'><div class='vertical-center'><img style='vertical-align:center; align:center' src=img/fixation3.jpg></div></div>","null","","","","","",""
"html-keyboard-response","164","203844","0.0-5.0-2.53","611d4519393cabb9a4a46ebd","bdp_rd","Wed Mar 29 2023 00:35:54 GMT-0400 (Eastern Daylight Time)","218527","","3895","","","","offer","","<div class='trialBorder'><div class='vertical-center'><img style='vertical-align:center; align:center' src=img/fixation3.jpg></div><div class='cl'><div class='vertical-center'>$13<br>with a<br>50% chance</div></div><div class='cr'><div class='vertical-center'>$6<br>for<br>sure</div></div><div class='respDivL'><div class='vertical-center'>(E)</div></div><div class='respDivR'><div class='vertical-center'>(I)</div></div></div>","I","$6","$13","1","6","13","SURE"
"html-keyboard-response","165","204096","0.0-5.0-3.53","611d4519393cabb9a4a46ebd","bdp_rd","Wed Mar 29 2023 00:35:54 GMT-0400 (Eastern Daylight Time)","218527","","null","","","","offerFB","","<div class='trialBorder'><div class='vertical-center'><img style='vertical-align:center; align:center' src=img/fixation3.jpg></div><div class='cl'><div class='vertical-center'>$13<br>with a<br>50% chance</div></div><div class='cr'><div class='vertical-center'><font style='color:orange'>$6<br>for<br>sure</font></div></div><div class='respDivL'><div class='vertical-center'>(E)</div></div><div class='respDivR'><div class='vertical-center'><font style='color:orange'>(I)</font></div></div></div>","null","$6","$13","1","6","13",""
"html-keyboard-response","166","204597","0.0-5.0-1.54","611d4519393cabb9a4a46ebd","bdp_rd","Wed Mar 29 2023 00:35:54 GMT-0400 (Eastern Daylight Time)","218527","","null","","","","FIX","","<div class='trialBorder'><div class='vertical-center'><img style='vertical-align:center; align:center' src=img/fixation3.jpg></div></div>","null","","","","","",""
"html-keyboard-response","167","205576","0.0-5.0-2.54","611d4519393cabb9a4a46ebd","bdp_rd","Wed Mar 29 2023 00:35:54 GMT-0400 (Eastern Daylight Time)","218527","","979","","","","offer","","<div class='trialBorder'><div class='vertical-center'><img style='vertical-align:center; align:center' src=img/fixation3.jpg></div><div class='cl'><div class='vertical-center'>$17<br>with a<br>50% chance</div></div><div class='cr'><div class='vertical-center'>$3<br>for<br>sure</div></div><div class='respDivL'><div class='vertical-center'>(E)</div></div><div class='respDivR'><div class='vertical-center'>(I)</div></div></div>","E","$3","$17","1","3","17","RISKY"
"html-keyboard-response","168","205828","0.0-5.0-3.54","611d4519393cabb9a4a46ebd","bdp_rd","Wed Mar 29 2023 00:35:54 GMT-0400 (Eastern Daylight Time)","218527","","null","","","","offerFB","","<div class='trialBorder'><div class='vertical-center'><img style='vertical-align:center; align:center' src=img/fixation3.jpg></div><div class='cl'><div class='vertical-center'><font style='color:orange'>$17<br>with a<br>50% chance</font></div></div><div class='cr'><div class='vertical-center'>$3<br>for<br>sure</div></div><div class='respDivL'><div class='vertical-center'><font style='color:orange'>(E)</font></div></div><div class='respDivR'><div class='vertical-center'>(I)</div></div></div>","null","$3","$17","1","3","17",""
"html-keyboard-response","169","206329","0.0-5.0-1.55","611d4519393cabb9a4a46ebd","bdp_rd","Wed Mar 29 2023 00:35:54 GMT-0400 (Eastern Daylight Time)","218527","","null","","","","FIX","","<div class='trialBorder'><div class='vertical-center'><img style='vertical-align:center; align:center' src=img/fixation3.jpg></div></div>","null","","","","","",""
"html-keyboard-response","170","207954","0.0-5.0-2.55","611d4519393cabb9a4a46ebd","bdp_rd","Wed Mar 29 2023 00:35:54 GMT-0400 (Eastern Daylight Time)","218527","","1624","","","","offer","","<div class='trialBorder'><div class='vertical-center'><img style='vertical-align:center; align:center' src=img/fixation3.jpg></div><div class='cl'><div class='vertical-center'>$39<br>for<br>sure</div></div><div class='cr'><div class='vertical-center'>$81<br>with a<br>50% chance</div></div><div class='respDivL'><div class='vertical-center'>(E)</div></div><div class='respDivR'><div class='vertical-center'>(I)</div></div></div>","E","$39","$81","0","39","81","SURE"
"html-keyboard-response","171","208206","0.0-5.0-3.55","611d4519393cabb9a4a46ebd","bdp_rd","Wed Mar 29 2023 00:35:54 GMT-0400 (Eastern Daylight Time)","218527","","null","","","","offerFB","","<div class='trialBorder'><div class='vertical-center'><img style='vertical-align:center; align:center' src=img/fixation3.jpg></div><div class='cl'><div class='vertical-center'><font style='color:orange'>$39<br>for<br>sure</font></div></div><div class='cr'><div class='vertical-center'>$81<br>with a<br>50% chance</div></div><div class='respDivL'><div class='vertical-center'><font style='color:orange'>(E)</font></div></div><div class='respDivR'><div class='vertical-center'>(I)</div></div></div>","null","$39","$81","0","39","81",""
"html-keyboard-response","172","208708","0.0-5.0-1.56","611d4519393cabb9a4a46ebd","bdp_rd","Wed Mar 29 2023 00:35:54 GMT-0400 (Eastern Daylight Time)","218527","","null","","","","FIX","","<div class='trialBorder'><div class='vertical-center'><img style='vertical-align:center; align:center' src=img/fixation3.jpg></div></div>","null","","","","","",""
"html-keyboard-response","173","210305","0.0-5.0-2.56","611d4519393cabb9a4a46ebd","bdp_rd","Wed Mar 29 2023 00:35:54 GMT-0400 (Eastern Daylight Time)","218527","","1597","","","","offer","","<div class='trialBorder'><div class='vertical-center'><img style='vertical-align:center; align:center' src=img/fixation3.jpg></div><div class='cl'><div class='vertical-center'>$10<br>with a<br>50% chance</div></div><div class='cr'><div class='vertical-center'>$7<br>for<br>sure</div></div><div class='respDivL'><div class='vertical-center'>(E)</div></div><div class='respDivR'><div class='vertical-center'>(I)</div></div></div>","I","$7","$10","1","7","10","SURE"
