"trial_type","trial_index","time_elapsed","internal_node_id","subject_id","task","startTime","totalTime","view_history","rt","event","trial","time","trialtype","success","stimulus","key_press","sureOffer","riskyOffer","riskyLeft","sureAmt","riskyAmt","chosen"
"pavlovia","0","5","0.0-0.0","62951043176ada9a9de2faa4","bdp_rd","Sun Mar 26 2023 20:13:31 GMT-0600 (Mountain Daylight Time)","190738","","","","","","","","","","","","","","",""
"instructions","1","1609","0.0-1.0","62951043176ada9a9de2faa4","bdp_rd","Sun Mar 26 2023 20:13:31 GMT-0600 (Mountain Daylight Time)","190738","[{""page_index"":0,""viewing_time"":1603}]","1603","","","","","","","","","","","","",""
"","","","","62951043176ada9a9de2faa4","bdp_rd","Sun Mar 26 2023 20:13:31 GMT-0600 (Mountain Daylight Time)","190738","","","fullscreenenter","2","2884","fullscreenenter","","","","","","","","",""
"fullscreen","2","3882","0.0-2.0","62951043176ada9a9de2faa4","bdp_rd","Sun Mar 26 2023 20:13:31 GMT-0600 (Mountain Daylight Time)","190738","","","","","","","true","","","","","","","",""
"instructions","3","10406","0.0-4.0","62951043176ada9a9de2faa4","bdp_rd","Sun Mar 26 2023 20:13:31 GMT-0600 (Mountain Daylight Time)","190738","[{""page_index"":0,""viewing_time"":2967},{""page_index"":1,""viewing_time"":879},{""page_index"":2,""viewing_time"":2676}]","6522","","","","","","","","","","","","",""
"html-keyboard-response","4","10915","0.0-5.0-1.0","62951043176ada9a9de2faa4","bdp_rd","Sun Mar 26 2023 20:13:31 GMT-0600 (Mountain Daylight Time)","190738","","null","","","","FIX","","<div class='trialBorder'><div class='vertical-center'><img style='vertical-align:center; align:center' src=img/fixation3.jpg></div></div>","null","","","","","",""
"html-keyboard-response","5","19226","0.0-5.0-2.0","62951043176ada9a9de2faa4","bdp_rd","Sun Mar 26 2023 20:13:31 GMT-0600 (Mountain Daylight Time)","190738","","8309","","","","offer","","<div class='trialBorder'><div class='vertical-center'><img style='vertical-align:center; align:center' src=img/fixation3.jpg></div><div class='cl'><div class='vertical-center'>$32<br>with a<br>50% chance</div></div><div class='cr'><div class='vertical-center'>$9<br>for<br>sure</div></div><div class='respDivL'><div class='vertical-center'>(E)</div></div><div class='respDivR'><div class='vertical-center'>(I)</div></div></div>","I","$9","$32","1","9","32","SURE"
"html-keyboard-response","6","19481","0.0-5.0-3.0","62951043176ada9a9de2faa4","bdp_rd","Sun Mar 26 2023 20:13:31 GMT-0600 (Mountain Daylight Time)","190738","","null","","","","offerFB","","<div class='trialBorder'><div class='vertical-center'><img style='vertical-align:center; align:center' src=img/fixation3.jpg></div><div class='cl'><div class='vertical-center'>$32<br>with a<br>50% chance</div></div><div class='cr'><div class='vertical-center'><font style='color:orange'>$9<br>for<br>sure</font></div></div><div class='respDivL'><div class='vertical-center'>(E)</div></div><div class='respDivR'><div class='vertical-center'><font style='color:orange'>(I)</font></div></div></div>","null","$9","$32","1","9","32",""
"html-keyboard-response","7","19986","0.0-5.0-1.1","62951043176ada9a9de2faa4","bdp_rd","Sun Mar 26 2023 20:13:31 GMT-0600 (Mountain Daylight Time)","190738","","null","","","","FIX","","<div class='trialBorder'><div class='vertical-center'><img style='vertical-align:center; align:center' src=img/fixation3.jpg></div></div>","null","","","","","",""
"html-keyboard-response","8","22443","0.0-5.0-2.1","62951043176ada9a9de2faa4","bdp_rd","Sun Mar 26 2023 20:13:31 GMT-0600 (Mountain Daylight Time)","190738","","2455","","","","offer","","<div class='trialBorder'><div class='vertical-center'><img style='vertical-align:center; align:center' src=img/fixation3.jpg></div><div class='cl'><div class='vertical-center'>$1<br>for<br>sure</div></div><div class='cr'><div class='vertical-center'>$30<br>with a<br>50% chance</div></div><div class='respDivL'><div class='vertical-center'>(E)</div></div><div class='respDivR'><div class='vertical-center'>(I)</div></div></div>","I","$1","$30","0","1","30","RISKY"
"html-keyboard-response","9","22698","0.0-5.0-3.1","62951043176ada9a9de2faa4","bdp_rd","Sun Mar 26 2023 20:13:31 GMT-0600 (Mountain Daylight Time)","190738","","null","","","","offerFB","","<div class='trialBorder'><div class='vertical-center'><img style='vertical-align:center; align:center' src=img/fixation3.jpg></div><div class='cl'><div class='vertical-center'>$1<br>for<br>sure</div></div><div class='cr'><div class='vertical-center'><font style='color:orange'>$30<br>with a<br>50% chance</font></div></div><div class='respDivL'><div class='vertical-center'>(E)</div></div><div class='respDivR'><div class='vertical-center'><font style='color:orange'>(I)</font></div></div></div>","null","$1","$30","0","1","30",""
"html-keyboard-response","10","23202","0.0-5.0-1.2","62951043176ada9a9de2faa4","bdp_rd","Sun Mar 26 2023 20:13:31 GMT-0600 (Mountain Daylight Time)","190738","","null","","","","FIX","","<div class='trialBorder'><div class='vertical-center'><img style='vertical-align:center; align:center' src=img/fixation3.jpg></div></div>","null","","","","","",""
"html-keyboard-response","11","24940","0.0-5.0-2.2","62951043176ada9a9de2faa4","bdp_rd","Sun Mar 26 2023 20:13:31 GMT-0600 (Mountain Daylight Time)","190738","","1737","","","","offer","","<div class='trialBorder'><div class='vertical-center'><img style='vertical-align:center; align:center' src=img/fixation3.jpg></div><div class='cl'><div class='vertical-center'>$7<br>for<br>sure</div></div><div class='cr'><div class='vertical-center'>$71<br>with a<br>50% chance</div></div><div class='respDivL'><div class='vertical-center'>(E)</div></div><div class='respDivR'><div class='vertical-center'>(I)</div></div></div>","I","$7","$71","0","7","71","RISKY"
"html-keyboard-response","12","25193","0.0-5.0-3.2","62951043176ada9a9de2faa4","bdp_rd","Sun Mar 26 2023 20:13:31 GMT-0600 (Mountain Daylight Time)","190738","","null","","","","offerFB","","<div class='trialBorder'><div class='vertical-center'><img style='vertical-align:center; align:center' src=img/fixation3.jpg></div><div class='cl'><div class='vertical-center'>$7<br>for<br>sure</div></div><div class='cr'><div class='vertical-center'><font style='color:orange'>$71<br>with a<br>50% chance</font></div></div><div class='respDivL'><div class='vertical-center'>(E)</div></div><div class='respDivR'><div class='vertical-center'><font style='color:orange'>(I)</font></div></div></div>","null","$7","$71","0","7","71",""
"html-keyboard-response","13","25697","0.0-5.0-1.3","62951043176ada9a9de2faa4","bdp_rd","Sun Mar 26 2023 20:13:31 GMT-0600 (Mountain Daylight Time)","190738","","null","","","","FIX","","<div class='trialBorder'><div class='vertical-center'><img style='vertical-align:center; align:center' src=img/fixation3.jpg></div></div>","null","","","","","",""
"html-keyboard-response","14","27257","0.0-5.0-2.3","62951043176ada9a9de2faa4","bdp_rd","Sun Mar 26 2023 20:13:31 GMT-0600 (Mountain Daylight Time)","190738","","1559","","","","offer","","<div class='trialBorder'><div class='vertical-center'><img style='vertical-align:center; align:center' src=img/fixation3.jpg></div><div class='cl'><div class='vertical-center'>$80<br>with a<br>50% chance</div></div><div class='cr'><div class='vertical-center'>$20<br>for<br>sure</div></div><div class='respDivL'><div class='vertical-center'>(E)</div></div><div class='respDivR'><div class='vertical-center'>(I)</div></div></div>","E","$20","$80","1","20","80","RISKY"
"html-keyboard-response","15","27513","0.0-5.0-3.3","62951043176ada9a9de2faa4","bdp_rd","Sun Mar 26 2023 20:13:31 GMT-0600 (Mountain Daylight Time)","190738","","null","","","","offerFB","","<div class='trialBorder'><div class='vertical-center'><img style='vertical-align:center; align:center' src=img/fixation3.jpg></div><div class='cl'><div class='vertical-center'><font style='color:orange'>$80<br>with a<br>50% chance</font></div></div><div class='cr'><div class='vertical-center'>$20<br>for<br>sure</div></div><div class='respDivL'><div class='vertical-center'><font style='color:orange'>(E)</font></div></div><div class='respDivR'><div class='vertical-center'>(I)</div></div></div>","null","$20","$80","1","20","80",""
"html-keyboard-response","16","28017","0.0-5.0-1.4","62951043176ada9a9de2faa4","bdp_rd","Sun Mar 26 2023 20:13:31 GMT-0600 (Mountain Daylight Time)","190738","","null","","","","FIX","","<div class='trialBorder'><div class='vertical-center'><img style='vertical-align:center; align:center' src=img/fixation3.jpg></div></div>","null","","","","","",""
"html-keyboard-response","17","30471","0.0-5.0-2.4","62951043176ada9a9de2faa4","bdp_rd","Sun Mar 26 2023 20:13:31 GMT-0600 (Mountain Daylight Time)","190738","","2452","","","","offer","","<div class='trialBorder'><div class='vertical-center'><img style='vertical-align:center; align:center' src=img/fixation3.jpg></div><div class='cl'><div class='vertical-center'>$24<br>for<br>sure</div></div><div class='cr'><div class='vertical-center'>$70<br>with a<br>50% chance</div></div><div class='respDivL'><div class='vertical-center'>(E)</div></div><div class='respDivR'><div class='vertical-center'>(I)</div></div></div>","E","$24","$70","0","24","70","SURE"
"html-keyboard-response","18","30729","0.0-5.0-3.4","62951043176ada9a9de2faa4","bdp_rd","Sun Mar 26 2023 20:13:31 GMT-0600 (Mountain Daylight Time)","190738","","null","","","","offerFB","","<div class='trialBorder'><div class='vertical-center'><img style='vertical-align:center; align:center' src=img/fixation3.jpg></div><div class='cl'><div class='vertical-center'><font style='color:orange'>$24<br>for<br>sure</font></div></div><div class='cr'><div class='vertical-center'>$70<br>with a<br>50% chance</div></div><div class='respDivL'><div class='vertical-center'><font style='color:orange'>(E)</font></div></div><div class='respDivR'><div class='vertical-center'>(I)</div></div></div>","null","$24","$70","0","24","70",""
"html-keyboard-response","19","31233","0.0-5.0-1.5","62951043176ada9a9de2faa4","bdp_rd","Sun Mar 26 2023 20:13:31 GMT-0600 (Mountain Daylight Time)","190738","","null","","","","FIX","","<div class='trialBorder'><div class='vertical-center'><img style='vertical-align:center; align:center' src=img/fixation3.jpg></div></div>","null","","","","","",""
"html-keyboard-response","20","33850","0.0-5.0-2.5","62951043176ada9a9de2faa4","bdp_rd","Sun Mar 26 2023 20:13:31 GMT-0600 (Mountain Daylight Time)","190738","","2616","","","","offer","","<div class='trialBorder'><div class='vertical-center'><img style='vertical-align:center; align:center' src=img/fixation3.jpg></div><div class='cl'><div class='vertical-center'>$8<br>for<br>sure</div></div><div class='cr'><div class='vertical-center'>$23<br>with a<br>50% chance</div></div><div class='respDivL'><div class='vertical-center'>(E)</div></div><div class='respDivR'><div class='vertical-center'>(I)</div></div></div>","E","$8","$23","0","8","23","SURE"
"html-keyboard-response","21","34105","0.0-5.0-3.5","62951043176ada9a9de2faa4","bdp_rd","Sun Mar 26 2023 20:13:31 GMT-0600 (Mountain Daylight Time)","190738","","null","","","","offerFB","","<div class='trialBorder'><div class='vertical-center'><img style='vertical-align:center; align:center' src=img/fixation3.jpg></div><div class='cl'><div class='vertical-center'><font style='color:orange'>$8<br>for<br>sure</font></div></div><div class='cr'><div class='vertical-center'>$23<br>with a<br>50% chance</div></div><div class='respDivL'><div class='vertical-center'><font style='color:orange'>(E)</font></div></div><div class='respDivR'><div class='vertical-center'>(I)</div></div></div>","null","$8","$23","0","8","23",""
"html-keyboard-response","22","34609","0.0-5.0-1.6","62951043176ada9a9de2faa4","bdp_rd","Sun Mar 26 2023 20:13:31 GMT-0600 (Mountain Daylight Time)","190738","","null","","","","FIX","","<div class='trialBorder'><div class='vertical-center'><img style='vertical-align:center; align:center' src=img/fixation3.jpg></div></div>","null","","","","","",""
"html-keyboard-response","23","37314","0.0-5.0-2.6","62951043176ada9a9de2faa4","bdp_rd","Sun Mar 26 2023 20:13:31 GMT-0600 (Mountain Daylight Time)","190738","","2705","","","","offer","","<div class='trialBorder'><div class='vertical-center'><img style='vertical-align:center; align:center' src=img/fixation3.jpg></div><div class='cl'><div class='vertical-center'>$31<br>for<br>sure</div></div><div class='cr'><div class='vertical-center'>$78<br>with a<br>50% chance</div></div><div class='respDivL'><div class='vertical-center'>(E)</div></div><div class='respDivR'><div class='vertical-center'>(I)</div></div></div>","E","$31","$78","0","31","78","SURE"
"html-keyboard-response","24","37569","0.0-5.0-3.6","62951043176ada9a9de2faa4","bdp_rd","Sun Mar 26 2023 20:13:31 GMT-0600 (Mountain Daylight Time)","190738","","null","","","","offerFB","","<div class='trialBorder'><div class='vertical-center'><img style='vertical-align:center; align:center' src=img/fixation3.jpg></div><div class='cl'><div class='vertical-center'><font style='color:orange'>$31<br>for<br>sure</font></div></div><div class='cr'><div class='vertical-center'>$78<br>with a<br>50% chance</div></div><div class='respDivL'><div class='vertical-center'><font style='color:orange'>(E)</font></div></div><div class='respDivR'><div class='vertical-center'>(I)</div></div></div>","null","$31","$78","0","31","78",""
"html-keyboard-response","25","38073","0.0-5.0-1.7","62951043176ada9a9de2faa4","bdp_rd","Sun Mar 26 2023 20:13:31 GMT-0600 (Mountain Daylight Time)","190738","","null","","","","FIX","","<div class='trialBorder'><div class='vertical-center'><img style='vertical-align:center; align:center' src=img/fixation3.jpg></div></div>","null","","","","","",""
"html-keyboard-response","26","40327","0.0-5.0-2.7","62951043176ada9a9de2faa4","bdp_rd","Sun Mar 26 2023 20:13:31 GMT-0600 (Mountain Daylight Time)","190738","","2253","","","","offer","","<div class='trialBorder'><div class='vertical-center'><img style='vertical-align:center; align:center' src=img/fixation3.jpg></div><div class='cl'><div class='vertical-center'>$9<br>for<br>sure</div></div><div class='cr'><div class='vertical-center'>$18<br>with a<br>50% chance</div></div><div class='respDivL'><div class='vertical-center'>(E)</div></div><div class='respDivR'><div class='vertical-center'>(I)</div></div></div>","E","$9","$18","0","9","18","SURE"
"html-keyboard-response","27","40585","0.0-5.0-3.7","62951043176ada9a9de2faa4","bdp_rd","Sun Mar 26 2023 20:13:31 GMT-0600 (Mountain Daylight Time)","190738","","null","","","","offerFB","","<div class='trialBorder'><div class='vertical-center'><img style='vertical-align:center; align:center' src=img/fixation3.jpg></div><div class='cl'><div class='vertical-center'><font style='color:orange'>$9<br>for<br>sure</font></div></div><div class='cr'><div class='vertical-center'>$18<br>with a<br>50% chance</div></div><div class='respDivL'><div class='vertical-center'><font style='color:orange'>(E)</font></div></div><div class='respDivR'><div class='vertical-center'>(I)</div></div></div>","null","$9","$18","0","9","18",""
"html-keyboard-response","28","41088","0.0-5.0-1.8","62951043176ada9a9de2faa4","bdp_rd","Sun Mar 26 2023 20:13:31 GMT-0600 (Mountain Daylight Time)","190738","","null","","","","FIX","","<div class='trialBorder'><div class='vertical-center'><img style='vertical-align:center; align:center' src=img/fixation3.jpg></div></div>","null","","","","","",""
"html-keyboard-response","29","43479","0.0-5.0-2.8","62951043176ada9a9de2faa4","bdp_rd","Sun Mar 26 2023 20:13:31 GMT-0600 (Mountain Daylight Time)","190738","","2389","","","","offer","","<div class='trialBorder'><div class='vertical-center'><img style='vertical-align:center; align:center' src=img/fixation3.jpg></div><div class='cl'><div class='vertical-center'>$33<br>with a<br>50% chance</div></div><div class='cr'><div class='vertical-center'>$1<br>for<br>sure</div></div><div class='respDivL'><div class='vertical-center'>(E)</div></div><div class='respDivR'><div class='vertical-center'>(I)</div></div></div>","E","$1","$33","1","1","33","RISKY"
"html-keyboard-response","30","43737","0.0-5.0-3.8","62951043176ada9a9de2faa4","bdp_rd","Sun Mar 26 2023 20:13:31 GMT-0600 (Mountain Daylight Time)","190738","","null","","","","offerFB","","<div class='trialBorder'><div class='vertical-center'><img style='vertical-align:center; align:center' src=img/fixation3.jpg></div><div class='cl'><div class='vertical-center'><font style='color:orange'>$33<br>with a<br>50% chance</font></div></div><div class='cr'><div class='vertical-center'>$1<br>for<br>sure</div></div><div class='respDivL'><div class='vertical-center'><font style='color:orange'>(E)</font></div></div><div class='respDivR'><div class='vertical-center'>(I)</div></div></div>","null","$1","$33","1","1","33",""
"html-keyboard-response","31","44240","0.0-5.0-1.9","62951043176ada9a9de2faa4","bdp_rd","Sun Mar 26 2023 20:13:31 GMT-0600 (Mountain Daylight Time)","190738","","null","","","","FIX","","<div class='trialBorder'><div class='vertical-center'><img style='vertical-align:center; align:center' src=img/fixation3.jpg></div></div>","null","","","","","",""
"html-keyboard-response","32","46156","0.0-5.0-2.9","62951043176ada9a9de2faa4","bdp_rd","Sun Mar 26 2023 20:13:31 GMT-0600 (Mountain Daylight Time)","190738","","1915","","","","offer","","<div class='trialBorder'><div class='vertical-center'><img style='vertical-align:center; align:center' src=img/fixation3.jpg></div><div class='cl'><div class='vertical-center'>$11<br>for<br>sure</div></div><div class='cr'><div class='vertical-center'>$26<br>with a<br>50% chance</div></div><div class='respDivL'><div class='vertical-center'>(E)</div></div><div class='respDivR'><div class='vertical-center'>(I)</div></div></div>","E","$11","$26","0","11","26","SURE"
"html-keyboard-response","33","46416","0.0-5.0-3.9","62951043176ada9a9de2faa4","bdp_rd","Sun Mar 26 2023 20:13:31 GMT-0600 (Mountain Daylight Time)","190738","","null","","","","offerFB","","<div class='trialBorder'><div class='vertical-center'><img style='vertical-align:center; align:center' src=img/fixation3.jpg></div><div class='cl'><div class='vertical-center'><font style='color:orange'>$11<br>for<br>sure</font></div></div><div class='cr'><div class='vertical-center'>$26<br>with a<br>50% chance</div></div><div class='respDivL'><div class='vertical-center'><font style='color:orange'>(E)</font></div></div><div class='respDivR'><div class='vertical-center'>(I)</div></div></div>","null","$11","$26","0","11","26",""
"html-keyboard-response","34","46920","0.0-5.0-1.10","62951043176ada9a9de2faa4","bdp_rd","Sun Mar 26 2023 20:13:31 GMT-0600 (Mountain Daylight Time)","190738","","null","","","","FIX","","<div class='trialBorder'><div class='vertical-center'><img style='vertical-align:center; align:center' src=img/fixation3.jpg></div></div>","null","","","","","",""
"html-keyboard-response","35","49103","0.0-5.0-2.10","62951043176ada9a9de2faa4","bdp_rd","Sun Mar 26 2023 20:13:31 GMT-0600 (Mountain Daylight Time)","190738","","2181","","","","offer","","<div class='trialBorder'><div class='vertical-center'><img style='vertical-align:center; align:center' src=img/fixation3.jpg></div><div class='cl'><div class='vertical-center'>$12<br>with a<br>50% chance</div></div><div class='cr'><div class='vertical-center'>$3<br>for<br>sure</div></div><div class='respDivL'><div class='vertical-center'>(E)</div></div><div class='respDivR'><div class='vertical-center'>(I)</div></div></div>","E","$3","$12","1","3","12","RISKY"
"html-keyboard-response","36","49360","0.0-5.0-3.10","62951043176ada9a9de2faa4","bdp_rd","Sun Mar 26 2023 20:13:31 GMT-0600 (Mountain Daylight Time)","190738","","null","","","","offerFB","","<div class='trialBorder'><div class='vertical-center'><img style='vertical-align:center; align:center' src=img/fixation3.jpg></div><div class='cl'><div class='vertical-center'><font style='color:orange'>$12<br>with a<br>50% chance</font></div></div><div class='cr'><div class='vertical-center'>$3<br>for<br>sure</div></div><div class='respDivL'><div class='vertical-center'><font style='color:orange'>(E)</font></div></div><div class='respDivR'><div class='vertical-center'>(I)</div></div></div>","null","$3","$12","1","3","12",""
"html-keyboard-response","37","49864","0.0-5.0-1.11","62951043176ada9a9de2faa4","bdp_rd","Sun Mar 26 2023 20:13:31 GMT-0600 (Mountain Daylight Time)","190738","","null","","","","FIX","","<div class='trialBorder'><div class='vertical-center'><img style='vertical-align:center; align:center' src=img/fixation3.jpg></div></div>","null","","","","","",""
"html-keyboard-response","38","52389","0.0-5.0-2.11","62951043176ada9a9de2faa4","bdp_rd","Sun Mar 26 2023 20:13:31 GMT-0600 (Mountain Daylight Time)","190738","","2524","","","","offer","","<div class='trialBorder'><div class='vertical-center'><img style='vertical-align:center; align:center' src=img/fixation3.jpg></div><div class='cl'><div class='vertical-center'>$29<br>with a<br>50% chance</div></div><div class='cr'><div class='vertical-center'>$14<br>for<br>sure</div></div><div class='respDivL'><div class='vertical-center'>(E)</div></div><div class='respDivR'><div class='vertical-center'>(I)</div></div></div>","I","$14","$29","1","14","29","SURE"
"html-keyboard-response","39","52648","0.0-5.0-3.11","62951043176ada9a9de2faa4","bdp_rd","Sun Mar 26 2023 20:13:31 GMT-0600 (Mountain Daylight Time)","190738","","null","","","","offerFB","","<div class='trialBorder'><div class='vertical-center'><img style='vertical-align:center; align:center' src=img/fixation3.jpg></div><div class='cl'><div class='vertical-center'>$29<br>with a<br>50% chance</div></div><div class='cr'><div class='vertical-center'><font style='color:orange'>$14<br>for<br>sure</font></div></div><div class='respDivL'><div class='vertical-center'>(E)</div></div><div class='respDivR'><div class='vertical-center'><font style='color:orange'>(I)</font></div></div></div>","null","$14","$29","1","14","29",""
"html-keyboard-response","40","53152","0.0-5.0-1.12","62951043176ada9a9de2faa4","bdp_rd","Sun Mar 26 2023 20:13:31 GMT-0600 (Mountain Daylight Time)","190738","","null","","","","FIX","","<div class='trialBorder'><div class='vertical-center'><img style='vertical-align:center; align:center' src=img/fixation3.jpg></div></div>","null","","","","","",""
"html-keyboard-response","41","55315","0.0-5.0-2.12","62951043176ada9a9de2faa4","bdp_rd","Sun Mar 26 2023 20:13:31 GMT-0600 (Mountain Daylight Time)","190738","","2162","","","","offer","","<div class='trialBorder'><div class='vertical-center'><img style='vertical-align:center; align:center' src=img/fixation3.jpg></div><div class='cl'><div class='vertical-center'>$100<br>with a<br>50% chance</div></div><div class='cr'><div class='vertical-center'>$63<br>for<br>sure</div></div><div class='respDivL'><div class='vertical-center'>(E)</div></div><div class='respDivR'><div class='vertical-center'>(I)</div></div></div>","I","$63","$100","1","63","10","SURE"
"html-keyboard-response","42","55576","0.0-5.0-3.12","62951043176ada9a9de2faa4","bdp_rd","Sun Mar 26 2023 20:13:31 GMT-0600 (Mountain Daylight Time)","190738","","null","","","","offerFB","","<div class='trialBorder'><div class='vertical-center'><img style='vertical-align:center; align:center' src=img/fixation3.jpg></div><div class='cl'><div class='vertical-center'>$100<br>with a<br>50% chance</div></div><div class='cr'><div class='vertical-center'><font style='color:orange'>$63<br>for<br>sure</font></div></div><div class='respDivL'><div class='vertical-center'>(E)</div></div><div class='respDivR'><div class='vertical-center'><font style='color:orange'>(I)</font></div></div></div>","null","$63","$100","1","63","10",""
"html-keyboard-response","43","56080","0.0-5.0-1.13","62951043176ada9a9de2faa4","bdp_rd","Sun Mar 26 2023 20:13:31 GMT-0600 (Mountain Daylight Time)","190738","","null","","","","FIX","","<div class='trialBorder'><div class='vertical-center'><img style='vertical-align:center; align:center' src=img/fixation3.jpg></div></div>","null","","","","","",""
"html-keyboard-response","44","58329","0.0-5.0-2.13","62951043176ada9a9de2faa4","bdp_rd","Sun Mar 26 2023 20:13:31 GMT-0600 (Mountain Daylight Time)","190738","","2248","","","","offer","","<div class='trialBorder'><div class='vertical-center'><img style='vertical-align:center; align:center' src=img/fixation3.jpg></div><div class='cl'><div class='vertical-center'>$27<br>for<br>sure</div></div><div class='cr'><div class='vertical-center'>$47<br>with a<br>50% chance</div></div><div class='respDivL'><div class='vertical-center'>(E)</div></div><div class='respDivR'><div class='vertical-center'>(I)</div></div></div>","E","$27","$47","0","27","47","SURE"
"html-keyboard-response","45","58584","0.0-5.0-3.13","62951043176ada9a9de2faa4","bdp_rd","Sun Mar 26 2023 20:13:31 GMT-0600 (Mountain Daylight Time)","190738","","null","","","","offerFB","","<div class='trialBorder'><div class='vertical-center'><img style='vertical-align:center; align:center' src=img/fixation3.jpg></div><div class='cl'><div class='vertical-center'><font style='color:orange'>$27<br>for<br>sure</font></div></div><div class='cr'><div class='vertical-center'>$47<br>with a<br>50% chance</div></div><div class='respDivL'><div class='vertical-center'><font style='color:orange'>(E)</font></div></div><div class='respDivR'><div class='vertical-center'>(I)</div></div></div>","null","$27","$47","0","27","47",""
"html-keyboard-response","46","59088","0.0-5.0-1.14","62951043176ada9a9de2faa4","bdp_rd","Sun Mar 26 2023 20:13:31 GMT-0600 (Mountain Daylight Time)","190738","","null","","","","FIX","","<div class='trialBorder'><div class='vertical-center'><img style='vertical-align:center; align:center' src=img/fixation3.jpg></div></div>","null","","","","","",""
"html-keyboard-response","47","60870","0.0-5.0-2.14","62951043176ada9a9de2faa4","bdp_rd","Sun Mar 26 2023 20:13:31 GMT-0600 (Mountain Daylight Time)","190738","","1781","","","","offer","","<div class='trialBorder'><div class='vertical-center'><img style='vertical-align:center; align:center' src=img/fixation3.jpg></div><div class='cl'><div class='vertical-center'>$50<br>with a<br>50% chance</div></div><div class='cr'><div class='vertical-center'>$5<br>for<br>sure</div></div><div class='respDivL'><div class='vertical-center'>(E)</div></div><div class='respDivR'><div class='vertical-center'>(I)</div></div></div>","E","$5","$50","1","5","50","RISKY"
"html-keyboard-response","48","61128","0.0-5.0-3.14","62951043176ada9a9de2faa4","bdp_rd","Sun Mar 26 2023 20:13:31 GMT-0600 (Mountain Daylight Time)","190738","","null","","","","offerFB","","<div class='trialBorder'><div class='vertical-center'><img style='vertical-align:center; align:center' src=img/fixation3.jpg></div><div class='cl'><div class='vertical-center'><font style='color:orange'>$50<br>with a<br>50% chance</font></div></div><div class='cr'><div class='vertical-center'>$5<br>for<br>sure</div></div><div class='respDivL'><div class='vertical-center'><font style='color:orange'>(E)</font></div></div><div class='respDivR'><div class='vertical-center'>(I)</div></div></div>","null","$5","$50","1","5","50",""
"html-keyboard-response","49","61634","0.0-5.0-1.15","62951043176ada9a9de2faa4","bdp_rd","Sun Mar 26 2023 20:13:31 GMT-0600 (Mountain Daylight Time)","190738","","null","","","","FIX","","<div class='trialBorder'><div class='vertical-center'><img style='vertical-align:center; align:center' src=img/fixation3.jpg></div></div>","null","","","","","",""
"html-keyboard-response","50","63571","0.0-5.0-2.15","62951043176ada9a9de2faa4","bdp_rd","Sun Mar 26 2023 20:13:31 GMT-0600 (Mountain Daylight Time)","190738","","1935","","","","offer","","<div class='trialBorder'><div class='vertical-center'><img style='vertical-align:center; align:center' src=img/fixation3.jpg></div><div class='cl'><div class='vertical-center'>$46<br>for<br>sure</div></div><div class='cr'><div class='vertical-center'>$65<br>with a<br>50% chance</div></div><div class='respDivL'><div class='vertical-center'>(E)</div></div><div class='respDivR'><div class='vertical-center'>(I)</div></div></div>","E","$46","$65","0","46","65","SURE"
"html-keyboard-response","51","63832","0.0-5.0-3.15","62951043176ada9a9de2faa4","bdp_rd","Sun Mar 26 2023 20:13:31 GMT-0600 (Mountain Daylight Time)","190738","","null","","","","offerFB","","<div class='trialBorder'><div class='vertical-center'><img style='vertical-align:center; align:center' src=img/fixation3.jpg></div><div class='cl'><div class='vertical-center'><font style='color:orange'>$46<br>for<br>sure</font></div></div><div class='cr'><div class='vertical-center'>$65<br>with a<br>50% chance</div></div><div class='respDivL'><div class='vertical-center'><font style='color:orange'>(E)</font></div></div><div class='respDivR'><div class='vertical-center'>(I)</div></div></div>","null","$46","$65","0","46","65",""
"html-keyboard-response","52","64335","0.0-5.0-1.16","62951043176ada9a9de2faa4","bdp_rd","Sun Mar 26 2023 20:13:31 GMT-0600 (Mountain Daylight Time)","190738","","null","","","","FIX","","<div class='trialBorder'><div class='vertical-center'><img style='vertical-align:center; align:center' src=img/fixation3.jpg></div></div>","null","","","","","",""
"html-keyboard-response","53","66923","0.0-5.0-2.16","62951043176ada9a9de2faa4","bdp_rd","Sun Mar 26 2023 20:13:31 GMT-0600 (Mountain Daylight Time)","190738","","2586","","","","offer","","<div class='trialBorder'><div class='vertical-center'><img style='vertical-align:center; align:center' src=img/fixation3.jpg></div><div class='cl'><div class='vertical-center'>$25<br>with a<br>50% chance</div></div><div class='cr'><div class='vertical-center'>$21<br>for<br>sure</div></div><div class='respDivL'><div class='vertical-center'>(E)</div></div><div class='respDivR'><div class='vertical-center'>(I)</div></div></div>","E","$21","$25","1","21","25","RISKY"
"html-keyboard-response","54","67183","0.0-5.0-3.16","62951043176ada9a9de2faa4","bdp_rd","Sun Mar 26 2023 20:13:31 GMT-0600 (Mountain Daylight Time)","190738","","null","","","","offerFB","","<div class='trialBorder'><div class='vertical-center'><img style='vertical-align:center; align:center' src=img/fixation3.jpg></div><div class='cl'><div class='vertical-center'><font style='color:orange'>$25<br>with a<br>50% chance</font></div></div><div class='cr'><div class='vertical-center'>$21<br>for<br>sure</div></div><div class='respDivL'><div class='vertical-center'><font style='color:orange'>(E)</font></div></div><div class='respDivR'><div class='vertical-center'>(I)</div></div></div>","null","$21","$25","1","21","25",""
"html-keyboard-response","55","67687","0.0-5.0-1.17","62951043176ada9a9de2faa4","bdp_rd","Sun Mar 26 2023 20:13:31 GMT-0600 (Mountain Daylight Time)","190738","","null","","","","FIX","","<div class='trialBorder'><div class='vertical-center'><img style='vertical-align:center; align:center' src=img/fixation3.jpg></div></div>","null","","","","","",""
"html-keyboard-response","56","70500","0.0-5.0-2.17","62951043176ada9a9de2faa4","bdp_rd","Sun Mar 26 2023 20:13:31 GMT-0600 (Mountain Daylight Time)","190738","","2811","","","","offer","","<div class='trialBorder'><div class='vertical-center'><img style='vertical-align:center; align:center' src=img/fixation3.jpg></div><div class='cl'><div class='vertical-center'>$15<br>with a<br>50% chance</div></div><div class='cr'><div class='vertical-center'>$6<br>for<br>sure</div></div><div class='respDivL'><div class='vertical-center'>(E)</div></div><div class='respDivR'><div class='vertical-center'>(I)</div></div></div>","I","$6","$15","1","6","15","SURE"
"html-keyboard-response","57","70759","0.0-5.0-3.17","62951043176ada9a9de2faa4","bdp_rd","Sun Mar 26 2023 20:13:31 GMT-0600 (Mountain Daylight Time)","190738","","null","","","","offerFB","","<div class='trialBorder'><div class='vertical-center'><img style='vertical-align:center; align:center' src=img/fixation3.jpg></div><div class='cl'><div class='vertical-center'>$15<br>with a<br>50% chance</div></div><div class='cr'><div class='vertical-center'><font style='color:orange'>$6<br>for<br>sure</font></div></div><div class='respDivL'><div class='vertical-center'>(E)</div></div><div class='respDivR'><div class='vertical-center'><font style='color:orange'>(I)</font></div></div></div>","null","$6","$15","1","6","15",""
"html-keyboard-response","58","71263","0.0-5.0-1.18","62951043176ada9a9de2faa4","bdp_rd","Sun Mar 26 2023 20:13:31 GMT-0600 (Mountain Daylight Time)","190738","","null","","","","FIX","","<div class='trialBorder'><div class='vertical-center'><img style='vertical-align:center; align:center' src=img/fixation3.jpg></div></div>","null","","","","","",""
"html-keyboard-response","59","73717","0.0-5.0-2.18","62951043176ada9a9de2faa4","bdp_rd","Sun Mar 26 2023 20:13:31 GMT-0600 (Mountain Daylight Time)","190738","","2453","","","","offer","","<div class='trialBorder'><div class='vertical-center'><img style='vertical-align:center; align:center' src=img/fixation3.jpg></div><div class='cl'><div class='vertical-center'>$45<br>with a<br>50% chance</div></div><div class='cr'><div class='vertical-center'>$8<br>for<br>sure</div></div><div class='respDivL'><div class='vertical-center'>(E)</div></div><div class='respDivR'><div class='vertical-center'>(I)</div></div></div>","E","$8","$45","1","8","45","RISKY"
"html-keyboard-response","60","73975","0.0-5.0-3.18","62951043176ada9a9de2faa4","bdp_rd","Sun Mar 26 2023 20:13:31 GMT-0600 (Mountain Daylight Time)","190738","","null","","","","offerFB","","<div class='trialBorder'><div class='vertical-center'><img style='vertical-align:center; align:center' src=img/fixation3.jpg></div><div class='cl'><div class='vertical-center'><font style='color:orange'>$45<br>with a<br>50% chance</font></div></div><div class='cr'><div class='vertical-center'>$8<br>for<br>sure</div></div><div class='respDivL'><div class='vertical-center'><font style='color:orange'>(E)</font></div></div><div class='respDivR'><div class='vertical-center'>(I)</div></div></div>","null","$8","$45","1","8","45",""
"html-keyboard-response","61","74479","0.0-5.0-1.19","62951043176ada9a9de2faa4","bdp_rd","Sun Mar 26 2023 20:13:31 GMT-0600 (Mountain Daylight Time)","190738","","null","","","","FIX","","<div class='trialBorder'><div class='vertical-center'><img style='vertical-align:center; align:center' src=img/fixation3.jpg></div></div>","null","","","","","",""
"html-keyboard-response","62","76598","0.0-5.0-2.19","62951043176ada9a9de2faa4","bdp_rd","Sun Mar 26 2023 20:13:31 GMT-0600 (Mountain Daylight Time)","190738","","2118","","","","offer","","<div class='trialBorder'><div class='vertical-center'><img style='vertical-align:center; align:center' src=img/fixation3.jpg></div><div class='cl'><div class='vertical-center'>$53<br>for<br>sure</div></div><div class='cr'><div class='vertical-center'>$98<br>with a<br>50% chance</div></div><div class='respDivL'><div class='vertical-center'>(E)</div></div><div class='respDivR'><div class='vertical-center'>(I)</div></div></div>","E","$53","$98","0","53","98","SURE"
"html-keyboard-response","63","76855","0.0-5.0-3.19","62951043176ada9a9de2faa4","bdp_rd","Sun Mar 26 2023 20:13:31 GMT-0600 (Mountain Daylight Time)","190738","","null","","","","offerFB","","<div class='trialBorder'><div class='vertical-center'><img style='vertical-align:center; align:center' src=img/fixation3.jpg></div><div class='cl'><div class='vertical-center'><font style='color:orange'>$53<br>for<br>sure</font></div></div><div class='cr'><div class='vertical-center'>$98<br>with a<br>50% chance</div></div><div class='respDivL'><div class='vertical-center'><font style='color:orange'>(E)</font></div></div><div class='respDivR'><div class='vertical-center'>(I)</div></div></div>","null","$53","$98","0","53","98",""
"html-keyboard-response","64","77362","0.0-5.0-1.20","62951043176ada9a9de2faa4","bdp_rd","Sun Mar 26 2023 20:13:31 GMT-0600 (Mountain Daylight Time)","190738","","null","","","","FIX","","<div class='trialBorder'><div class='vertical-center'><img style='vertical-align:center; align:center' src=img/fixation3.jpg></div></div>","null","","","","","",""
"html-keyboard-response","65","79207","0.0-5.0-2.20","62951043176ada9a9de2faa4","bdp_rd","Sun Mar 26 2023 20:13:31 GMT-0600 (Mountain Daylight Time)","190738","","1844","","","","offer","","<div class='trialBorder'><div class='vertical-center'><img style='vertical-align:center; align:center' src=img/fixation3.jpg></div><div class='cl'><div class='vertical-center'>$7<br>for<br>sure</div></div><div class='cr'><div class='vertical-center'>$10<br>with a<br>50% chance</div></div><div class='respDivL'><div class='vertical-center'>(E)</div></div><div class='respDivR'><div class='vertical-center'>(I)</div></div></div>","E","$7","$10","0","7","10","SURE"
"html-keyboard-response","66","79463","0.0-5.0-3.20","62951043176ada9a9de2faa4","bdp_rd","Sun Mar 26 2023 20:13:31 GMT-0600 (Mountain Daylight Time)","190738","","null","","","","offerFB","","<div class='trialBorder'><div class='vertical-center'><img style='vertical-align:center; align:center' src=img/fixation3.jpg></div><div class='cl'><div class='vertical-center'><font style='color:orange'>$7<br>for<br>sure</font></div></div><div class='cr'><div class='vertical-center'>$10<br>with a<br>50% chance</div></div><div class='respDivL'><div class='vertical-center'><font style='color:orange'>(E)</font></div></div><div class='respDivR'><div class='vertical-center'>(I)</div></div></div>","null","$7","$10","0","7","10",""
"html-keyboard-response","67","79967","0.0-5.0-1.21","62951043176ada9a9de2faa4","bdp_rd","Sun Mar 26 2023 20:13:31 GMT-0600 (Mountain Daylight Time)","190738","","null","","","","FIX","","<div class='trialBorder'><div class='vertical-center'><img style='vertical-align:center; align:center' src=img/fixation3.jpg></div></div>","null","","","","","",""
"html-keyboard-response","68","82133","0.0-5.0-2.21","62951043176ada9a9de2faa4","bdp_rd","Sun Mar 26 2023 20:13:31 GMT-0600 (Mountain Daylight Time)","190738","","2165","","","","offer","","<div class='trialBorder'><div class='vertical-center'><img style='vertical-align:center; align:center' src=img/fixation3.jpg></div><div class='cl'><div class='vertical-center'>$68<br>with a<br>50% chance</div></div><div class='cr'><div class='vertical-center'>$30<br>for<br>sure</div></div><div class='respDivL'><div class='vertical-center'>(E)</div></div><div class='respDivR'><div class='vertical-center'>(I)</div></div></div>","I","$30","$68","1","30","68","SURE"
"html-keyboard-response","69","82391","0.0-5.0-3.21","62951043176ada9a9de2faa4","bdp_rd","Sun Mar 26 2023 20:13:31 GMT-0600 (Mountain Daylight Time)","190738","","null","","","","offerFB","","<div class='trialBorder'><div class='vertical-center'><img style='vertical-align:center; align:center' src=img/fixation3.jpg></div><div class='cl'><div class='vertical-center'>$68<br>with a<br>50% chance</div></div><div class='cr'><div class='vertical-center'><font style='color:orange'>$30<br>for<br>sure</font></div></div><div class='respDivL'><div class='vertical-center'>(E)</div></div><div class='respDivR'><div class='vertical-center'><font style='color:orange'>(I)</font></div></div></div>","null","$30","$68","1","30","68",""
"html-keyboard-response","70","82894","0.0-5.0-1.22","62951043176ada9a9de2faa4","bdp_rd","Sun Mar 26 2023 20:13:31 GMT-0600 (Mountain Daylight Time)","190738","","null","","","","FIX","","<div class='trialBorder'><div class='vertical-center'><img style='vertical-align:center; align:center' src=img/fixation3.jpg></div></div>","null","","","","","",""
"html-keyboard-response","71","84765","0.0-5.0-2.22","62951043176ada9a9de2faa4","bdp_rd","Sun Mar 26 2023 20:13:31 GMT-0600 (Mountain Daylight Time)","190738","","1869","","","","offer","","<div class='trialBorder'><div class='vertical-center'><img style='vertical-align:center; align:center' src=img/fixation3.jpg></div><div class='cl'><div class='vertical-center'>$16<br>for<br>sure</div></div><div class='cr'><div class='vertical-center'>$28<br>with a<br>50% chance</div></div><div class='respDivL'><div class='vertical-center'>(E)</div></div><div class='respDivR'><div class='vertical-center'>(I)</div></div></div>","E","$16","$28","0","16","28","SURE"
"html-keyboard-response","72","85022","0.0-5.0-3.22","62951043176ada9a9de2faa4","bdp_rd","Sun Mar 26 2023 20:13:31 GMT-0600 (Mountain Daylight Time)","190738","","null","","","","offerFB","","<div class='trialBorder'><div class='vertical-center'><img style='vertical-align:center; align:center' src=img/fixation3.jpg></div><div class='cl'><div class='vertical-center'><font style='color:orange'>$16<br>for<br>sure</font></div></div><div class='cr'><div class='vertical-center'>$28<br>with a<br>50% chance</div></div><div class='respDivL'><div class='vertical-center'><font style='color:orange'>(E)</font></div></div><div class='respDivR'><div class='vertical-center'>(I)</div></div></div>","null","$16","$28","0","16","28",""
"html-keyboard-response","73","85526","0.0-5.0-1.23","62951043176ada9a9de2faa4","bdp_rd","Sun Mar 26 2023 20:13:31 GMT-0600 (Mountain Daylight Time)","190738","","null","","","","FIX","","<div class='trialBorder'><div class='vertical-center'><img style='vertical-align:center; align:center' src=img/fixation3.jpg></div></div>","null","","","","","",""
"html-keyboard-response","74","89377","0.0-5.0-2.23","62951043176ada9a9de2faa4","bdp_rd","Sun Mar 26 2023 20:13:31 GMT-0600 (Mountain Daylight Time)","190738","","3849","","","","offer","","<div class='trialBorder'><div class='vertical-center'><img style='vertical-align:center; align:center' src=img/fixation3.jpg></div><div class='cl'><div class='vertical-center'>$40<br>with a<br>50% chance</div></div><div class='cr'><div class='vertical-center'>$10<br>for<br>sure</div></div><div class='respDivL'><div class='vertical-center'>(E)</div></div><div class='respDivR'><div class='vertical-center'>(I)</div></div></div>","I","$10","$40","1","10","40","SURE"
"html-keyboard-response","75","89638","0.0-5.0-3.23","62951043176ada9a9de2faa4","bdp_rd","Sun Mar 26 2023 20:13:31 GMT-0600 (Mountain Daylight Time)","190738","","null","","","","offerFB","","<div class='trialBorder'><div class='vertical-center'><img style='vertical-align:center; align:center' src=img/fixation3.jpg></div><div class='cl'><div class='vertical-center'>$40<br>with a<br>50% chance</div></div><div class='cr'><div class='vertical-center'><font style='color:orange'>$10<br>for<br>sure</font></div></div><div class='respDivL'><div class='vertical-center'>(E)</div></div><div class='respDivR'><div class='vertical-center'><font style='color:orange'>(I)</font></div></div></div>","null","$10","$40","1","10","40",""
"html-keyboard-response","76","90142","0.0-5.0-1.24","62951043176ada9a9de2faa4","bdp_rd","Sun Mar 26 2023 20:13:31 GMT-0600 (Mountain Daylight Time)","190738","","null","","","","FIX","","<div class='trialBorder'><div class='vertical-center'><img style='vertical-align:center; align:center' src=img/fixation3.jpg></div></div>","null","","","","","",""
"html-keyboard-response","77","92393","0.0-5.0-2.24","62951043176ada9a9de2faa4","bdp_rd","Sun Mar 26 2023 20:13:31 GMT-0600 (Mountain Daylight Time)","190738","","2249","","","","offer","","<div class='trialBorder'><div class='vertical-center'><img style='vertical-align:center; align:center' src=img/fixation3.jpg></div><div class='cl'><div class='vertical-center'>$42<br>with a<br>50% chance</div></div><div class='cr'><div class='vertical-center'>$22<br>for<br>sure</div></div><div class='respDivL'><div class='vertical-center'>(E)</div></div><div class='respDivR'><div class='vertical-center'>(I)</div></div></div>","I","$22","$42","1","22","42","SURE"
"html-keyboard-response","78","92646","0.0-5.0-3.24","62951043176ada9a9de2faa4","bdp_rd","Sun Mar 26 2023 20:13:31 GMT-0600 (Mountain Daylight Time)","190738","","null","","","","offerFB","","<div class='trialBorder'><div class='vertical-center'><img style='vertical-align:center; align:center' src=img/fixation3.jpg></div><div class='cl'><div class='vertical-center'>$42<br>with a<br>50% chance</div></div><div class='cr'><div class='vertical-center'><font style='color:orange'>$22<br>for<br>sure</font></div></div><div class='respDivL'><div class='vertical-center'>(E)</div></div><div class='respDivR'><div class='vertical-center'><font style='color:orange'>(I)</font></div></div></div>","null","$22","$42","1","22","42",""
"html-keyboard-response","79","93150","0.0-5.0-1.25","62951043176ada9a9de2faa4","bdp_rd","Sun Mar 26 2023 20:13:31 GMT-0600 (Mountain Daylight Time)","190738","","null","","","","FIX","","<div class='trialBorder'><div class='vertical-center'><img style='vertical-align:center; align:center' src=img/fixation3.jpg></div></div>","null","","","","","",""
"html-keyboard-response","80","95181","0.0-5.0-2.25","62951043176ada9a9de2faa4","bdp_rd","Sun Mar 26 2023 20:13:31 GMT-0600 (Mountain Daylight Time)","190738","","2030","","","","offer","","<div class='trialBorder'><div class='vertical-center'><img style='vertical-align:center; align:center' src=img/fixation3.jpg></div><div class='cl'><div class='vertical-center'>$29<br>for<br>sure</div></div><div class='cr'><div class='vertical-center'>$46<br>with a<br>50% chance</div></div><div class='respDivL'><div class='vertical-center'>(E)</div></div><div class='respDivR'><div class='vertical-center'>(I)</div></div></div>","E","$29","$46","0","29","46","SURE"
"html-keyboard-response","81","95438","0.0-5.0-3.25","62951043176ada9a9de2faa4","bdp_rd","Sun Mar 26 2023 20:13:31 GMT-0600 (Mountain Daylight Time)","190738","","null","","","","offerFB","","<div class='trialBorder'><div class='vertical-center'><img style='vertical-align:center; align:center' src=img/fixation3.jpg></div><div class='cl'><div class='vertical-center'><font style='color:orange'>$29<br>for<br>sure</font></div></div><div class='cr'><div class='vertical-center'>$46<br>with a<br>50% chance</div></div><div class='respDivL'><div class='vertical-center'><font style='color:orange'>(E)</font></div></div><div class='respDivR'><div class='vertical-center'>(I)</div></div></div>","null","$29","$46","0","29","46",""
"html-keyboard-response","82","95942","0.0-5.0-1.26","62951043176ada9a9de2faa4","bdp_rd","Sun Mar 26 2023 20:13:31 GMT-0600 (Mountain Daylight Time)","190738","","null","","","","FIX","","<div class='trialBorder'><div class='vertical-center'><img style='vertical-align:center; align:center' src=img/fixation3.jpg></div></div>","null","","","","","",""
"html-keyboard-response","83","97232","0.0-5.0-2.26","62951043176ada9a9de2faa4","bdp_rd","Sun Mar 26 2023 20:13:31 GMT-0600 (Mountain Daylight Time)","190738","","1288","","","","offer","","<div class='trialBorder'><div class='vertical-center'><img style='vertical-align:center; align:center' src=img/fixation3.jpg></div><div class='cl'><div class='vertical-center'>$48<br>with a<br>50% chance</div></div><div class='cr'><div class='vertical-center'>$34<br>for<br>sure</div></div><div class='respDivL'><div class='vertical-center'>(E)</div></div><div class='respDivR'><div class='vertical-center'>(I)</div></div></div>","I","$34","$48","1","34","48","SURE"
"html-keyboard-response","84","97486","0.0-5.0-3.26","62951043176ada9a9de2faa4","bdp_rd","Sun Mar 26 2023 20:13:31 GMT-0600 (Mountain Daylight Time)","190738","","null","","","","offerFB","","<div class='trialBorder'><div class='vertical-center'><img style='vertical-align:center; align:center' src=img/fixation3.jpg></div><div class='cl'><div class='vertical-center'>$48<br>with a<br>50% chance</div></div><div class='cr'><div class='vertical-center'><font style='color:orange'>$34<br>for<br>sure</font></div></div><div class='respDivL'><div class='vertical-center'>(E)</div></div><div class='respDivR'><div class='vertical-center'><font style='color:orange'>(I)</font></div></div></div>","null","$34","$48","1","34","48",""
"html-keyboard-response","85","97990","0.0-5.0-1.27","62951043176ada9a9de2faa4","bdp_rd","Sun Mar 26 2023 20:13:31 GMT-0600 (Mountain Daylight Time)","190738","","null","","","","FIX","","<div class='trialBorder'><div class='vertical-center'><img style='vertical-align:center; align:center' src=img/fixation3.jpg></div></div>","null","","","","","",""
"html-keyboard-response","86","102405","0.0-5.0-2.27","62951043176ada9a9de2faa4","bdp_rd","Sun Mar 26 2023 20:13:31 GMT-0600 (Mountain Daylight Time)","190738","","4414","","","","offer","","<div class='trialBorder'><div class='vertical-center'><img style='vertical-align:center; align:center' src=img/fixation3.jpg></div><div class='cl'><div class='vertical-center'>$41<br>with a<br>50% chance</div></div><div class='cr'><div class='vertical-center'>$13<br>for<br>sure</div></div><div class='respDivL'><div class='vertical-center'>(E)</div></div><div class='respDivR'><div class='vertical-center'>(I)</div></div></div>","I","$13","$41","1","13","41","SURE"
"html-keyboard-response","87","102662","0.0-5.0-3.27","62951043176ada9a9de2faa4","bdp_rd","Sun Mar 26 2023 20:13:31 GMT-0600 (Mountain Daylight Time)","190738","","null","","","","offerFB","","<div class='trialBorder'><div class='vertical-center'><img style='vertical-align:center; align:center' src=img/fixation3.jpg></div><div class='cl'><div class='vertical-center'>$41<br>with a<br>50% chance</div></div><div class='cr'><div class='vertical-center'><font style='color:orange'>$13<br>for<br>sure</font></div></div><div class='respDivL'><div class='vertical-center'>(E)</div></div><div class='respDivR'><div class='vertical-center'><font style='color:orange'>(I)</font></div></div></div>","null","$13","$41","1","13","41",""
"html-keyboard-response","88","103165","0.0-5.0-1.28","62951043176ada9a9de2faa4","bdp_rd","Sun Mar 26 2023 20:13:31 GMT-0600 (Mountain Daylight Time)","190738","","null","","","","FIX","","<div class='trialBorder'><div class='vertical-center'><img style='vertical-align:center; align:center' src=img/fixation3.jpg></div></div>","null","","","","","",""
"html-keyboard-response","89","105937","0.0-5.0-2.28","62951043176ada9a9de2faa4","bdp_rd","Sun Mar 26 2023 20:13:31 GMT-0600 (Mountain Daylight Time)","190738","","2769","","","","offer","","<div class='trialBorder'><div class='vertical-center'><img style='vertical-align:center; align:center' src=img/fixation3.jpg></div><div class='cl'><div class='vertical-center'>$18<br>for<br>sure</div></div><div class='cr'><div class='vertical-center'>$36<br>with a<br>50% chance</div></div><div class='respDivL'><div class='vertical-center'>(E)</div></div><div class='respDivR'><div class='vertical-center'>(I)</div></div></div>","E","$18","$36","0","18","36","SURE"
"html-keyboard-response","90","106198","0.0-5.0-3.28","62951043176ada9a9de2faa4","bdp_rd","Sun Mar 26 2023 20:13:31 GMT-0600 (Mountain Daylight Time)","190738","","null","","","","offerFB","","<div class='trialBorder'><div class='vertical-center'><img style='vertical-align:center; align:center' src=img/fixation3.jpg></div><div class='cl'><div class='vertical-center'><font style='color:orange'>$18<br>for<br>sure</font></div></div><div class='cr'><div class='vertical-center'>$36<br>with a<br>50% chance</div></div><div class='respDivL'><div class='vertical-center'><font style='color:orange'>(E)</font></div></div><div class='respDivR'><div class='vertical-center'>(I)</div></div></div>","null","$18","$36","0","18","36",""
"html-keyboard-response","91","106701","0.0-5.0-1.29","62951043176ada9a9de2faa4","bdp_rd","Sun Mar 26 2023 20:13:31 GMT-0600 (Mountain Daylight Time)","190738","","null","","","","FIX","","<div class='trialBorder'><div class='vertical-center'><img style='vertical-align:center; align:center' src=img/fixation3.jpg></div></div>","null","","","","","",""
"html-keyboard-response","92","108231","0.0-5.0-2.29","62951043176ada9a9de2faa4","bdp_rd","Sun Mar 26 2023 20:13:31 GMT-0600 (Mountain Daylight Time)","190738","","1529","","","","offer","","<div class='trialBorder'><div class='vertical-center'><img style='vertical-align:center; align:center' src=img/fixation3.jpg></div><div class='cl'><div class='vertical-center'>$10<br>for<br>sure</div></div><div class='cr'><div class='vertical-center'>$19<br>with a<br>50% chance</div></div><div class='respDivL'><div class='vertical-center'>(E)</div></div><div class='respDivR'><div class='vertical-center'>(I)</div></div></div>","I","$10","$19","0","10","19","RISKY"
"html-keyboard-response","93","108485","0.0-5.0-3.29","62951043176ada9a9de2faa4","bdp_rd","Sun Mar 26 2023 20:13:31 GMT-0600 (Mountain Daylight Time)","190738","","null","","","","offerFB","","<div class='trialBorder'><div class='vertical-center'><img style='vertical-align:center; align:center' src=img/fixation3.jpg></div><div class='cl'><div class='vertical-center'>$10<br>for<br>sure</div></div><div class='cr'><div class='vertical-center'><font style='color:orange'>$19<br>with a<br>50% chance</font></div></div><div class='respDivL'><div class='vertical-center'>(E)</div></div><div class='respDivR'><div class='vertical-center'><font style='color:orange'>(I)</font></div></div></div>","null","$10","$19","0","10","19",""
"html-keyboard-response","94","108991","0.0-5.0-1.30","62951043176ada9a9de2faa4","bdp_rd","Sun Mar 26 2023 20:13:31 GMT-0600 (Mountain Daylight Time)","190738","","null","","","","FIX","","<div class='trialBorder'><div class='vertical-center'><img style='vertical-align:center; align:center' src=img/fixation3.jpg></div></div>","null","","","","","",""
"html-keyboard-response","95","110751","0.0-5.0-2.30","62951043176ada9a9de2faa4","bdp_rd","Sun Mar 26 2023 20:13:31 GMT-0600 (Mountain Daylight Time)","190738","","1758","","","","offer","","<div class='trialBorder'><div class='vertical-center'><img style='vertical-align:center; align:center' src=img/fixation3.jpg></div><div class='cl'><div class='vertical-center'>$6<br>for<br>sure</div></div><div class='cr'><div class='vertical-center'>$13<br>with a<br>50% chance</div></div><div class='respDivL'><div class='vertical-center'>(E)</div></div><div class='respDivR'><div class='vertical-center'>(I)</div></div></div>","E","$6","$13","0","6","13","SURE"
"html-keyboard-response","96","111005","0.0-5.0-3.30","62951043176ada9a9de2faa4","bdp_rd","Sun Mar 26 2023 20:13:31 GMT-0600 (Mountain Daylight Time)","190738","","null","","","","offerFB","","<div class='trialBorder'><div class='vertical-center'><img style='vertical-align:center; align:center' src=img/fixation3.jpg></div><div class='cl'><div class='vertical-center'><font style='color:orange'>$6<br>for<br>sure</font></div></div><div class='cr'><div class='vertical-center'>$13<br>with a<br>50% chance</div></div><div class='respDivL'><div class='vertical-center'><font style='color:orange'>(E)</font></div></div><div class='respDivR'><div class='vertical-center'>(I)</div></div></div>","null","$6","$13","0","6","13",""
"html-keyboard-response","97","111509","0.0-5.0-1.31","62951043176ada9a9de2faa4","bdp_rd","Sun Mar 26 2023 20:13:31 GMT-0600 (Mountain Daylight Time)","190738","","null","","","","FIX","","<div class='trialBorder'><div class='vertical-center'><img style='vertical-align:center; align:center' src=img/fixation3.jpg></div></div>","null","","","","","",""
"html-keyboard-response","98","112621","0.0-5.0-2.31","62951043176ada9a9de2faa4","bdp_rd","Sun Mar 26 2023 20:13:31 GMT-0600 (Mountain Daylight Time)","190738","","1111","","","","offer","","<div class='trialBorder'><div class='vertical-center'><img style='vertical-align:center; align:center' src=img/fixation3.jpg></div><div class='cl'><div class='vertical-center'>$27<br>with a<br>50% chance</div></div><div class='cr'><div class='vertical-center'>$12<br>for<br>sure</div></div><div class='respDivL'><div class='vertical-center'>(E)</div></div><div class='respDivR'><div class='vertical-center'>(I)</div></div></div>","I","$12","$27","1","12","27","SURE"
"html-keyboard-response","99","112877","0.0-5.0-3.31","62951043176ada9a9de2faa4","bdp_rd","Sun Mar 26 2023 20:13:31 GMT-0600 (Mountain Daylight Time)","190738","","null","","","","offerFB","","<div class='trialBorder'><div class='vertical-center'><img style='vertical-align:center; align:center' src=img/fixation3.jpg></div><div class='cl'><div class='vertical-center'>$27<br>with a<br>50% chance</div></div><div class='cr'><div class='vertical-center'><font style='color:orange'>$12<br>for<br>sure</font></div></div><div class='respDivL'><div class='vertical-center'>(E)</div></div><div class='respDivR'><div class='vertical-center'><font style='color:orange'>(I)</font></div></div></div>","null","$12","$27","1","12","27",""
"html-keyboard-response","100","113381","0.0-5.0-1.32","62951043176ada9a9de2faa4","bdp_rd","Sun Mar 26 2023 20:13:31 GMT-0600 (Mountain Daylight Time)","190738","","null","","","","FIX","","<div class='trialBorder'><div class='vertical-center'><img style='vertical-align:center; align:center' src=img/fixation3.jpg></div></div>","null","","","","","",""
"html-keyboard-response","101","115250","0.0-5.0-2.32","62951043176ada9a9de2faa4","bdp_rd","Sun Mar 26 2023 20:13:31 GMT-0600 (Mountain Daylight Time)","190738","","1868","","","","offer","","<div class='trialBorder'><div class='vertical-center'><img style='vertical-align:center; align:center' src=img/fixation3.jpg></div><div class='cl'><div class='vertical-center'>$22<br>with a<br>50% chance</div></div><div class='cr'><div class='vertical-center'>$14<br>for<br>sure</div></div><div class='respDivL'><div class='vertical-center'>(E)</div></div><div class='respDivR'><div class='vertical-center'>(I)</div></div></div>","I","$14","$22","1","14","22","SURE"
"html-keyboard-response","102","115509","0.0-5.0-3.32","62951043176ada9a9de2faa4","bdp_rd","Sun Mar 26 2023 20:13:31 GMT-0600 (Mountain Daylight Time)","190738","","null","","","","offerFB","","<div class='trialBorder'><div class='vertical-center'><img style='vertical-align:center; align:center' src=img/fixation3.jpg></div><div class='cl'><div class='vertical-center'>$22<br>with a<br>50% chance</div></div><div class='cr'><div class='vertical-center'><font style='color:orange'>$14<br>for<br>sure</font></div></div><div class='respDivL'><div class='vertical-center'>(E)</div></div><div class='respDivR'><div class='vertical-center'><font style='color:orange'>(I)</font></div></div></div>","null","$14","$22","1","14","22",""
"html-keyboard-response","103","116013","0.0-5.0-1.33","62951043176ada9a9de2faa4","bdp_rd","Sun Mar 26 2023 20:13:31 GMT-0600 (Mountain Daylight Time)","190738","","null","","","","FIX","","<div class='trialBorder'><div class='vertical-center'><img style='vertical-align:center; align:center' src=img/fixation3.jpg></div></div>","null","","","","","",""
"html-keyboard-response","104","117165","0.0-5.0-2.33","62951043176ada9a9de2faa4","bdp_rd","Sun Mar 26 2023 20:13:31 GMT-0600 (Mountain Daylight Time)","190738","","1150","","","","offer","","<div class='trialBorder'><div class='vertical-center'><img style='vertical-align:center; align:center' src=img/fixation3.jpg></div><div class='cl'><div class='vertical-center'>$33<br>for<br>sure</div></div><div class='cr'><div class='vertical-center'>$66<br>with a<br>50% chance</div></div><div class='respDivL'><div class='vertical-center'>(E)</div></div><div class='respDivR'><div class='vertical-center'>(I)</div></div></div>","E","$33","$66","0","33","66","SURE"
"html-keyboard-response","105","117421","0.0-5.0-3.33","62951043176ada9a9de2faa4","bdp_rd","Sun Mar 26 2023 20:13:31 GMT-0600 (Mountain Daylight Time)","190738","","null","","","","offerFB","","<div class='trialBorder'><div class='vertical-center'><img style='vertical-align:center; align:center' src=img/fixation3.jpg></div><div class='cl'><div class='vertical-center'><font style='color:orange'>$33<br>for<br>sure</font></div></div><div class='cr'><div class='vertical-center'>$66<br>with a<br>50% chance</div></div><div class='respDivL'><div class='vertical-center'><font style='color:orange'>(E)</font></div></div><div class='respDivR'><div class='vertical-center'>(I)</div></div></div>","null","$33","$66","0","33","66",""
"html-keyboard-response","106","117925","0.0-5.0-1.34","62951043176ada9a9de2faa4","bdp_rd","Sun Mar 26 2023 20:13:31 GMT-0600 (Mountain Daylight Time)","190738","","null","","","","FIX","","<div class='trialBorder'><div class='vertical-center'><img style='vertical-align:center; align:center' src=img/fixation3.jpg></div></div>","null","","","","","",""
"html-keyboard-response","107","119549","0.0-5.0-2.34","62951043176ada9a9de2faa4","bdp_rd","Sun Mar 26 2023 20:13:31 GMT-0600 (Mountain Daylight Time)","190738","","1623","","","","offer","","<div class='trialBorder'><div class='vertical-center'><img style='vertical-align:center; align:center' src=img/fixation3.jpg></div><div class='cl'><div class='vertical-center'>$26<br>for<br>sure</div></div><div class='cr'><div class='vertical-center'>$92<br>with a<br>50% chance</div></div><div class='respDivL'><div class='vertical-center'>(E)</div></div><div class='respDivR'><div class='vertical-center'>(I)</div></div></div>","I","$26","$92","0","26","92","RISKY"
"html-keyboard-response","108","119805","0.0-5.0-3.34","62951043176ada9a9de2faa4","bdp_rd","Sun Mar 26 2023 20:13:31 GMT-0600 (Mountain Daylight Time)","190738","","null","","","","offerFB","","<div class='trialBorder'><div class='vertical-center'><img style='vertical-align:center; align:center' src=img/fixation3.jpg></div><div class='cl'><div class='vertical-center'>$26<br>for<br>sure</div></div><div class='cr'><div class='vertical-center'><font style='color:orange'>$92<br>with a<br>50% chance</font></div></div><div class='respDivL'><div class='vertical-center'>(E)</div></div><div class='respDivR'><div class='vertical-center'><font style='color:orange'>(I)</font></div></div></div>","null","$26","$92","0","26","92",""
"html-keyboard-response","109","120309","0.0-5.0-1.35","62951043176ada9a9de2faa4","bdp_rd","Sun Mar 26 2023 20:13:31 GMT-0600 (Mountain Daylight Time)","190738","","null","","","","FIX","","<div class='trialBorder'><div class='vertical-center'><img style='vertical-align:center; align:center' src=img/fixation3.jpg></div></div>","null","","","","","",""
"html-keyboard-response","110","122203","0.0-5.0-2.35","62951043176ada9a9de2faa4","bdp_rd","Sun Mar 26 2023 20:13:31 GMT-0600 (Mountain Daylight Time)","190738","","1893","","","","offer","","<div class='trialBorder'><div class='vertical-center'><img style='vertical-align:center; align:center' src=img/fixation3.jpg></div><div class='cl'><div class='vertical-center'>$37<br>with a<br>50% chance</div></div><div class='cr'><div class='vertical-center'>$20<br>for<br>sure</div></div><div class='respDivL'><div class='vertical-center'>(E)</div></div><div class='respDivR'><div class='vertical-center'>(I)</div></div></div>","I","$20","$37","1","20","37","SURE"
"html-keyboard-response","111","122460","0.0-5.0-3.35","62951043176ada9a9de2faa4","bdp_rd","Sun Mar 26 2023 20:13:31 GMT-0600 (Mountain Daylight Time)","190738","","null","","","","offerFB","","<div class='trialBorder'><div class='vertical-center'><img style='vertical-align:center; align:center' src=img/fixation3.jpg></div><div class='cl'><div class='vertical-center'>$37<br>with a<br>50% chance</div></div><div class='cr'><div class='vertical-center'><font style='color:orange'>$20<br>for<br>sure</font></div></div><div class='respDivL'><div class='vertical-center'>(E)</div></div><div class='respDivR'><div class='vertical-center'><font style='color:orange'>(I)</font></div></div></div>","null","$20","$37","1","20","37",""
"html-keyboard-response","112","122965","0.0-5.0-1.36","62951043176ada9a9de2faa4","bdp_rd","Sun Mar 26 2023 20:13:31 GMT-0600 (Mountain Daylight Time)","190738","","null","","","","FIX","","<div class='trialBorder'><div class='vertical-center'><img style='vertical-align:center; align:center' src=img/fixation3.jpg></div></div>","null","","","","","",""
"html-keyboard-response","113","124498","0.0-5.0-2.36","62951043176ada9a9de2faa4","bdp_rd","Sun Mar 26 2023 20:13:31 GMT-0600 (Mountain Daylight Time)","190738","","1532","","","","offer","","<div class='trialBorder'><div class='vertical-center'><img style='vertical-align:center; align:center' src=img/fixation3.jpg></div><div class='cl'><div class='vertical-center'>$3<br>for<br>sure</div></div><div class='cr'><div class='vertical-center'>$17<br>with a<br>50% chance</div></div><div class='respDivL'><div class='vertical-center'>(E)</div></div><div class='respDivR'><div class='vertical-center'>(I)</div></div></div>","I","$3","$17","0","3","17","RISKY"
"html-keyboard-response","114","124757","0.0-5.0-3.36","62951043176ada9a9de2faa4","bdp_rd","Sun Mar 26 2023 20:13:31 GMT-0600 (Mountain Daylight Time)","190738","","null","","","","offerFB","","<div class='trialBorder'><div class='vertical-center'><img style='vertical-align:center; align:center' src=img/fixation3.jpg></div><div class='cl'><div class='vertical-center'>$3<br>for<br>sure</div></div><div class='cr'><div class='vertical-center'><font style='color:orange'>$17<br>with a<br>50% chance</font></div></div><div class='respDivL'><div class='vertical-center'>(E)</div></div><div class='respDivR'><div class='vertical-center'><font style='color:orange'>(I)</font></div></div></div>","null","$3","$17","0","3","17",""
"html-keyboard-response","115","125260","0.0-5.0-1.37","62951043176ada9a9de2faa4","bdp_rd","Sun Mar 26 2023 20:13:31 GMT-0600 (Mountain Daylight Time)","190738","","null","","","","FIX","","<div class='trialBorder'><div class='vertical-center'><img style='vertical-align:center; align:center' src=img/fixation3.jpg></div></div>","null","","","","","",""
"html-keyboard-response","116","128278","0.0-5.0-2.37","62951043176ada9a9de2faa4","bdp_rd","Sun Mar 26 2023 20:13:31 GMT-0600 (Mountain Daylight Time)","190738","","3016","","","","offer","","<div class='trialBorder'><div class='vertical-center'><img style='vertical-align:center; align:center' src=img/fixation3.jpg></div><div class='cl'><div class='vertical-center'>$62<br>with a<br>50% chance</div></div><div class='cr'><div class='vertical-center'>$11<br>for<br>sure</div></div><div class='respDivL'><div class='vertical-center'>(E)</div></div><div class='respDivR'><div class='vertical-center'>(I)</div></div></div>","E","$11","$62","1","11","62","RISKY"
"html-keyboard-response","117","128532","0.0-5.0-3.37","62951043176ada9a9de2faa4","bdp_rd","Sun Mar 26 2023 20:13:31 GMT-0600 (Mountain Daylight Time)","190738","","null","","","","offerFB","","<div class='trialBorder'><div class='vertical-center'><img style='vertical-align:center; align:center' src=img/fixation3.jpg></div><div class='cl'><div class='vertical-center'><font style='color:orange'>$62<br>with a<br>50% chance</font></div></div><div class='cr'><div class='vertical-center'>$11<br>for<br>sure</div></div><div class='respDivL'><div class='vertical-center'><font style='color:orange'>(E)</font></div></div><div class='respDivR'><div class='vertical-center'>(I)</div></div></div>","null","$11","$62","1","11","62",""
"html-keyboard-response","118","129036","0.0-5.0-1.38","62951043176ada9a9de2faa4","bdp_rd","Sun Mar 26 2023 20:13:31 GMT-0600 (Mountain Daylight Time)","190738","","null","","","","FIX","","<div class='trialBorder'><div class='vertical-center'><img style='vertical-align:center; align:center' src=img/fixation3.jpg></div></div>","null","","","","","",""
"html-keyboard-response","119","131405","0.0-5.0-2.38","62951043176ada9a9de2faa4","bdp_rd","Sun Mar 26 2023 20:13:31 GMT-0600 (Mountain Daylight Time)","190738","","2367","","","","offer","","<div class='trialBorder'><div class='vertical-center'><img style='vertical-align:center; align:center' src=img/fixation3.jpg></div><div class='cl'><div class='vertical-center'>$11<br>with a<br>50% chance</div></div><div class='cr'><div class='vertical-center'>$4<br>for<br>sure</div></div><div class='respDivL'><div class='vertical-center'>(E)</div></div><div class='respDivR'><div class='vertical-center'>(I)</div></div></div>","I","$4","$11","1","4","11","SURE"
"html-keyboard-response","120","131660","0.0-5.0-3.38","62951043176ada9a9de2faa4","bdp_rd","Sun Mar 26 2023 20:13:31 GMT-0600 (Mountain Daylight Time)","190738","","null","","","","offerFB","","<div class='trialBorder'><div class='vertical-center'><img style='vertical-align:center; align:center' src=img/fixation3.jpg></div><div class='cl'><div class='vertical-center'>$11<br>with a<br>50% chance</div></div><div class='cr'><div class='vertical-center'><font style='color:orange'>$4<br>for<br>sure</font></div></div><div class='respDivL'><div class='vertical-center'>(E)</div></div><div class='respDivR'><div class='vertical-center'><font style='color:orange'>(I)</font></div></div></div>","null","$4","$11","1","4","11",""
"html-keyboard-response","121","132164","0.0-5.0-1.39","62951043176ada9a9de2faa4","bdp_rd","Sun Mar 26 2023 20:13:31 GMT-0600 (Mountain Daylight Time)","190738","","null","","","","FIX","","<div class='trialBorder'><div class='vertical-center'><img style='vertical-align:center; align:center' src=img/fixation3.jpg></div></div>","null","","","","","",""
"html-keyboard-response","122","134308","0.0-5.0-2.39","62951043176ada9a9de2faa4","bdp_rd","Sun Mar 26 2023 20:13:31 GMT-0600 (Mountain Daylight Time)","190738","","2142","","","","offer","","<div class='trialBorder'><div class='vertical-center'><img style='vertical-align:center; align:center' src=img/fixation3.jpg></div><div class='cl'><div class='vertical-center'>$40<br>for<br>sure</div></div><div class='cr'><div class='vertical-center'>$95<br>with a<br>50% chance</div></div><div class='respDivL'><div class='vertical-center'>(E)</div></div><div class='respDivR'><div class='vertical-center'>(I)</div></div></div>","E","$40","$95","0","40","95","SURE"
"html-keyboard-response","123","134564","0.0-5.0-3.39","62951043176ada9a9de2faa4","bdp_rd","Sun Mar 26 2023 20:13:31 GMT-0600 (Mountain Daylight Time)","190738","","null","","","","offerFB","","<div class='trialBorder'><div class='vertical-center'><img style='vertical-align:center; align:center' src=img/fixation3.jpg></div><div class='cl'><div class='vertical-center'><font style='color:orange'>$40<br>for<br>sure</font></div></div><div class='cr'><div class='vertical-center'>$95<br>with a<br>50% chance</div></div><div class='respDivL'><div class='vertical-center'><font style='color:orange'>(E)</font></div></div><div class='respDivR'><div class='vertical-center'>(I)</div></div></div>","null","$40","$95","0","40","95",""
"html-keyboard-response","124","135068","0.0-5.0-1.40","62951043176ada9a9de2faa4","bdp_rd","Sun Mar 26 2023 20:13:31 GMT-0600 (Mountain Daylight Time)","190738","","null","","","","FIX","","<div class='trialBorder'><div class='vertical-center'><img style='vertical-align:center; align:center' src=img/fixation3.jpg></div></div>","null","","","","","",""
"html-keyboard-response","125","136760","0.0-5.0-2.40","62951043176ada9a9de2faa4","bdp_rd","Sun Mar 26 2023 20:13:31 GMT-0600 (Mountain Daylight Time)","190738","","1691","","","","offer","","<div class='trialBorder'><div class='vertical-center'><img style='vertical-align:center; align:center' src=img/fixation3.jpg></div><div class='cl'><div class='vertical-center'>$42<br>for<br>sure</div></div><div class='cr'><div class='vertical-center'>$73<br>with a<br>50% chance</div></div><div class='respDivL'><div class='vertical-center'>(E)</div></div><div class='respDivR'><div class='vertical-center'>(I)</div></div></div>","E","$42","$73","0","42","73","SURE"
"html-keyboard-response","126","137020","0.0-5.0-3.40","62951043176ada9a9de2faa4","bdp_rd","Sun Mar 26 2023 20:13:31 GMT-0600 (Mountain Daylight Time)","190738","","null","","","","offerFB","","<div class='trialBorder'><div class='vertical-center'><img style='vertical-align:center; align:center' src=img/fixation3.jpg></div><div class='cl'><div class='vertical-center'><font style='color:orange'>$42<br>for<br>sure</font></div></div><div class='cr'><div class='vertical-center'>$73<br>with a<br>50% chance</div></div><div class='respDivL'><div class='vertical-center'><font style='color:orange'>(E)</font></div></div><div class='respDivR'><div class='vertical-center'>(I)</div></div></div>","null","$42","$73","0","42","73",""
"html-keyboard-response","127","137524","0.0-5.0-1.41","62951043176ada9a9de2faa4","bdp_rd","Sun Mar 26 2023 20:13:31 GMT-0600 (Mountain Daylight Time)","190738","","null","","","","FIX","","<div class='trialBorder'><div class='vertical-center'><img style='vertical-align:center; align:center' src=img/fixation3.jpg></div></div>","null","","","","","",""
"html-keyboard-response","128","139775","0.0-5.0-2.41","62951043176ada9a9de2faa4","bdp_rd","Sun Mar 26 2023 20:13:31 GMT-0600 (Mountain Daylight Time)","190738","","2249","","","","offer","","<div class='trialBorder'><div class='vertical-center'><img style='vertical-align:center; align:center' src=img/fixation3.jpg></div><div class='cl'><div class='vertical-center'>$15<br>for<br>sure</div></div><div class='cr'><div class='vertical-center'>$34<br>with a<br>50% chance</div></div><div class='respDivL'><div class='vertical-center'>(E)</div></div><div class='respDivR'><div class='vertical-center'>(I)</div></div></div>","E","$15","$34","0","15","34","SURE"
"html-keyboard-response","129","140035","0.0-5.0-3.41","62951043176ada9a9de2faa4","bdp_rd","Sun Mar 26 2023 20:13:31 GMT-0600 (Mountain Daylight Time)","190738","","null","","","","offerFB","","<div class='trialBorder'><div class='vertical-center'><img style='vertical-align:center; align:center' src=img/fixation3.jpg></div><div class='cl'><div class='vertical-center'><font style='color:orange'>$15<br>for<br>sure</font></div></div><div class='cr'><div class='vertical-center'>$34<br>with a<br>50% chance</div></div><div class='respDivL'><div class='vertical-center'><font style='color:orange'>(E)</font></div></div><div class='respDivR'><div class='vertical-center'>(I)</div></div></div>","null","$15","$34","0","15","34",""
"html-keyboard-response","130","140540","0.0-5.0-1.42","62951043176ada9a9de2faa4","bdp_rd","Sun Mar 26 2023 20:13:31 GMT-0600 (Mountain Daylight Time)","190738","","null","","","","FIX","","<div class='trialBorder'><div class='vertical-center'><img style='vertical-align:center; align:center' src=img/fixation3.jpg></div></div>","null","","","","","",""
"html-keyboard-response","131","142182","0.0-5.0-2.42","62951043176ada9a9de2faa4","bdp_rd","Sun Mar 26 2023 20:13:31 GMT-0600 (Mountain Daylight Time)","190738","","1640","","","","offer","","<div class='trialBorder'><div class='vertical-center'><img style='vertical-align:center; align:center' src=img/fixation3.jpg></div><div class='cl'><div class='vertical-center'>$15<br>for<br>sure</div></div><div class='cr'><div class='vertical-center'>$31<br>with a<br>50% chance</div></div><div class='respDivL'><div class='vertical-center'>(E)</div></div><div class='respDivR'><div class='vertical-center'>(I)</div></div></div>","E","$15","$31","0","15","31","SURE"
"html-keyboard-response","132","142436","0.0-5.0-3.42","62951043176ada9a9de2faa4","bdp_rd","Sun Mar 26 2023 20:13:31 GMT-0600 (Mountain Daylight Time)","190738","","null","","","","offerFB","","<div class='trialBorder'><div class='vertical-center'><img style='vertical-align:center; align:center' src=img/fixation3.jpg></div><div class='cl'><div class='vertical-center'><font style='color:orange'>$15<br>for<br>sure</font></div></div><div class='cr'><div class='vertical-center'>$31<br>with a<br>50% chance</div></div><div class='respDivL'><div class='vertical-center'><font style='color:orange'>(E)</font></div></div><div class='respDivR'><div class='vertical-center'>(I)</div></div></div>","null","$15","$31","0","15","31",""
"html-keyboard-response","133","142939","0.0-5.0-1.43","62951043176ada9a9de2faa4","bdp_rd","Sun Mar 26 2023 20:13:31 GMT-0600 (Mountain Daylight Time)","190738","","null","","","","FIX","","<div class='trialBorder'><div class='vertical-center'><img style='vertical-align:center; align:center' src=img/fixation3.jpg></div></div>","null","","","","","",""
"html-keyboard-response","134","145152","0.0-5.0-2.43","62951043176ada9a9de2faa4","bdp_rd","Sun Mar 26 2023 20:13:31 GMT-0600 (Mountain Daylight Time)","190738","","2212","","","","offer","","<div class='trialBorder'><div class='vertical-center'><img style='vertical-align:center; align:center' src=img/fixation3.jpg></div><div class='cl'><div class='vertical-center'>$86<br>with a<br>50% chance</div></div><div class='cr'><div class='vertical-center'>$45<br>for<br>sure</div></div><div class='respDivL'><div class='vertical-center'>(E)</div></div><div class='respDivR'><div class='vertical-center'>(I)</div></div></div>","I","$45","$86","1","45","86","SURE"
"html-keyboard-response","135","145412","0.0-5.0-3.43","62951043176ada9a9de2faa4","bdp_rd","Sun Mar 26 2023 20:13:31 GMT-0600 (Mountain Daylight Time)","190738","","null","","","","offerFB","","<div class='trialBorder'><div class='vertical-center'><img style='vertical-align:center; align:center' src=img/fixation3.jpg></div><div class='cl'><div class='vertical-center'>$86<br>with a<br>50% chance</div></div><div class='cr'><div class='vertical-center'><font style='color:orange'>$45<br>for<br>sure</font></div></div><div class='respDivL'><div class='vertical-center'>(E)</div></div><div class='respDivR'><div class='vertical-center'><font style='color:orange'>(I)</font></div></div></div>","null","$45","$86","1","45","86",""
"html-keyboard-response","136","145915","0.0-5.0-1.44","62951043176ada9a9de2faa4","bdp_rd","Sun Mar 26 2023 20:13:31 GMT-0600 (Mountain Daylight Time)","190738","","null","","","","FIX","","<div class='trialBorder'><div class='vertical-center'><img style='vertical-align:center; align:center' src=img/fixation3.jpg></div></div>","null","","","","","",""
"html-keyboard-response","137","148145","0.0-5.0-2.44","62951043176ada9a9de2faa4","bdp_rd","Sun Mar 26 2023 20:13:31 GMT-0600 (Mountain Daylight Time)","190738","","2228","","","","offer","","<div class='trialBorder'><div class='vertical-center'><img style='vertical-align:center; align:center' src=img/fixation3.jpg></div><div class='cl'><div class='vertical-center'>$24<br>with a<br>50% chance</div></div><div class='cr'><div class='vertical-center'>$13<br>for<br>sure</div></div><div class='respDivL'><div class='vertical-center'>(E)</div></div><div class='respDivR'><div class='vertical-center'>(I)</div></div></div>","I","$13","$24","1","13","24","SURE"
"html-keyboard-response","138","148403","0.0-5.0-3.44","62951043176ada9a9de2faa4","bdp_rd","Sun Mar 26 2023 20:13:31 GMT-0600 (Mountain Daylight Time)","190738","","null","","","","offerFB","","<div class='trialBorder'><div class='vertical-center'><img style='vertical-align:center; align:center' src=img/fixation3.jpg></div><div class='cl'><div class='vertical-center'>$24<br>with a<br>50% chance</div></div><div class='cr'><div class='vertical-center'><font style='color:orange'>$13<br>for<br>sure</font></div></div><div class='respDivL'><div class='vertical-center'>(E)</div></div><div class='respDivR'><div class='vertical-center'><font style='color:orange'>(I)</font></div></div></div>","null","$13","$24","1","13","24",""
"html-keyboard-response","139","148907","0.0-5.0-1.45","62951043176ada9a9de2faa4","bdp_rd","Sun Mar 26 2023 20:13:31 GMT-0600 (Mountain Daylight Time)","190738","","null","","","","FIX","","<div class='trialBorder'><div class='vertical-center'><img style='vertical-align:center; align:center' src=img/fixation3.jpg></div></div>","null","","","","","",""
"html-keyboard-response","140","152577","0.0-5.0-2.45","62951043176ada9a9de2faa4","bdp_rd","Sun Mar 26 2023 20:13:31 GMT-0600 (Mountain Daylight Time)","190738","","3669","","","","offer","","<div class='trialBorder'><div class='vertical-center'><img style='vertical-align:center; align:center' src=img/fixation3.jpg></div><div class='cl'><div class='vertical-center'>$22<br>for<br>sure</div></div><div class='cr'><div class='vertical-center'>$59<br>with a<br>50% chance</div></div><div class='respDivL'><div class='vertical-center'>(E)</div></div><div class='respDivR'><div class='vertical-center'>(I)</div></div></div>","E","$22","$59","0","22","59","SURE"
"html-keyboard-response","141","152835","0.0-5.0-3.45","62951043176ada9a9de2faa4","bdp_rd","Sun Mar 26 2023 20:13:31 GMT-0600 (Mountain Daylight Time)","190738","","null","","","","offerFB","","<div class='trialBorder'><div class='vertical-center'><img style='vertical-align:center; align:center' src=img/fixation3.jpg></div><div class='cl'><div class='vertical-center'><font style='color:orange'>$22<br>for<br>sure</font></div></div><div class='cr'><div class='vertical-center'>$59<br>with a<br>50% chance</div></div><div class='respDivL'><div class='vertical-center'><font style='color:orange'>(E)</font></div></div><div class='respDivR'><div class='vertical-center'>(I)</div></div></div>","null","$22","$59","0","22","59",""
"html-keyboard-response","142","153339","0.0-5.0-1.46","62951043176ada9a9de2faa4","bdp_rd","Sun Mar 26 2023 20:13:31 GMT-0600 (Mountain Daylight Time)","190738","","null","","","","FIX","","<div class='trialBorder'><div class='vertical-center'><img style='vertical-align:center; align:center' src=img/fixation3.jpg></div></div>","null","","","","","",""
"html-keyboard-response","143","155862","0.0-5.0-2.46","62951043176ada9a9de2faa4","bdp_rd","Sun Mar 26 2023 20:13:31 GMT-0600 (Mountain Daylight Time)","190738","","2521","","","","offer","","<div class='trialBorder'><div class='vertical-center'><img style='vertical-align:center; align:center' src=img/fixation3.jpg></div><div class='cl'><div class='vertical-center'>$38<br>with a<br>50% chance</div></div><div class='cr'><div class='vertical-center'>$16<br>for<br>sure</div></div><div class='respDivL'><div class='vertical-center'>(E)</div></div><div class='respDivR'><div class='vertical-center'>(I)</div></div></div>","E","$16","$38","1","16","38","RISKY"
"html-keyboard-response","144","156126","0.0-5.0-3.46","62951043176ada9a9de2faa4","bdp_rd","Sun Mar 26 2023 20:13:31 GMT-0600 (Mountain Daylight Time)","190738","","null","","","","offerFB","","<div class='trialBorder'><div class='vertical-center'><img style='vertical-align:center; align:center' src=img/fixation3.jpg></div><div class='cl'><div class='vertical-center'><font style='color:orange'>$38<br>with a<br>50% chance</font></div></div><div class='cr'><div class='vertical-center'>$16<br>for<br>sure</div></div><div class='respDivL'><div class='vertical-center'><font style='color:orange'>(E)</font></div></div><div class='respDivR'><div class='vertical-center'>(I)</div></div></div>","null","$16","$38","1","16","38",""
"html-keyboard-response","145","156635","0.0-5.0-1.47","62951043176ada9a9de2faa4","bdp_rd","Sun Mar 26 2023 20:13:31 GMT-0600 (Mountain Daylight Time)","190738","","null","","","","FIX","","<div class='trialBorder'><div class='vertical-center'><img style='vertical-align:center; align:center' src=img/fixation3.jpg></div></div>","null","","","","","",""
"html-keyboard-response","146","158517","0.0-5.0-2.47","62951043176ada9a9de2faa4","bdp_rd","Sun Mar 26 2023 20:13:31 GMT-0600 (Mountain Daylight Time)","190738","","1881","","","","offer","","<div class='trialBorder'><div class='vertical-center'><img style='vertical-align:center; align:center' src=img/fixation3.jpg></div><div class='cl'><div class='vertical-center'>$39<br>with a<br>50% chance</div></div><div class='cr'><div class='vertical-center'>$18<br>for<br>sure</div></div><div class='respDivL'><div class='vertical-center'>(E)</div></div><div class='respDivR'><div class='vertical-center'>(I)</div></div></div>","I","$18","$39","1","18","39","SURE"
"html-keyboard-response","147","158771","0.0-5.0-3.47","62951043176ada9a9de2faa4","bdp_rd","Sun Mar 26 2023 20:13:31 GMT-0600 (Mountain Daylight Time)","190738","","null","","","","offerFB","","<div class='trialBorder'><div class='vertical-center'><img style='vertical-align:center; align:center' src=img/fixation3.jpg></div><div class='cl'><div class='vertical-center'>$39<br>with a<br>50% chance</div></div><div class='cr'><div class='vertical-center'><font style='color:orange'>$18<br>for<br>sure</font></div></div><div class='respDivL'><div class='vertical-center'>(E)</div></div><div class='respDivR'><div class='vertical-center'><font style='color:orange'>(I)</font></div></div></div>","null","$18","$39","1","18","39",""
"html-keyboard-response","148","159275","0.0-5.0-1.48","62951043176ada9a9de2faa4","bdp_rd","Sun Mar 26 2023 20:13:31 GMT-0600 (Mountain Daylight Time)","190738","","null","","","","FIX","","<div class='trialBorder'><div class='vertical-center'><img style='vertical-align:center; align:center' src=img/fixation3.jpg></div></div>","null","","","","","",""
"html-keyboard-response","149","161216","0.0-5.0-2.48","62951043176ada9a9de2faa4","bdp_rd","Sun Mar 26 2023 20:13:31 GMT-0600 (Mountain Daylight Time)","190738","","1940","","","","offer","","<div class='trialBorder'><div class='vertical-center'><img style='vertical-align:center; align:center' src=img/fixation3.jpg></div><div class='cl'><div class='vertical-center'>$28<br>for<br>sure</div></div><div class='cr'><div class='vertical-center'>$89<br>with a<br>50% chance</div></div><div class='respDivL'><div class='vertical-center'>(E)</div></div><div class='respDivR'><div class='vertical-center'>(I)</div></div></div>","I","$28","$89","0","28","89","RISKY"
"html-keyboard-response","150","161475","0.0-5.0-3.48","62951043176ada9a9de2faa4","bdp_rd","Sun Mar 26 2023 20:13:31 GMT-0600 (Mountain Daylight Time)","190738","","null","","","","offerFB","","<div class='trialBorder'><div class='vertical-center'><img style='vertical-align:center; align:center' src=img/fixation3.jpg></div><div class='cl'><div class='vertical-center'>$28<br>for<br>sure</div></div><div class='cr'><div class='vertical-center'><font style='color:orange'>$89<br>with a<br>50% chance</font></div></div><div class='respDivL'><div class='vertical-center'>(E)</div></div><div class='respDivR'><div class='vertical-center'><font style='color:orange'>(I)</font></div></div></div>","null","$28","$89","0","28","89",""
"html-keyboard-response","151","161978","0.0-5.0-1.49","62951043176ada9a9de2faa4","bdp_rd","Sun Mar 26 2023 20:13:31 GMT-0600 (Mountain Daylight Time)","190738","","null","","","","FIX","","<div class='trialBorder'><div class='vertical-center'><img style='vertical-align:center; align:center' src=img/fixation3.jpg></div></div>","null","","","","","",""
"html-keyboard-response","152","164208","0.0-5.0-2.49","62951043176ada9a9de2faa4","bdp_rd","Sun Mar 26 2023 20:13:31 GMT-0600 (Mountain Daylight Time)","190738","","2228","","","","offer","","<div class='trialBorder'><div class='vertical-center'><img style='vertical-align:center; align:center' src=img/fixation3.jpg></div><div class='cl'><div class='vertical-center'>$4<br>for<br>sure</div></div><div class='cr'><div class='vertical-center'>$14<br>with a<br>50% chance</div></div><div class='respDivL'><div class='vertical-center'>(E)</div></div><div class='respDivR'><div class='vertical-center'>(I)</div></div></div>","E","$4","$14","0","4","14","SURE"
"html-keyboard-response","153","164467","0.0-5.0-3.49","62951043176ada9a9de2faa4","bdp_rd","Sun Mar 26 2023 20:13:31 GMT-0600 (Mountain Daylight Time)","190738","","null","","","","offerFB","","<div class='trialBorder'><div class='vertical-center'><img style='vertical-align:center; align:center' src=img/fixation3.jpg></div><div class='cl'><div class='vertical-center'><font style='color:orange'>$4<br>for<br>sure</font></div></div><div class='cr'><div class='vertical-center'>$14<br>with a<br>50% chance</div></div><div class='respDivL'><div class='vertical-center'><font style='color:orange'>(E)</font></div></div><div class='respDivR'><div class='vertical-center'>(I)</div></div></div>","null","$4","$14","0","4","14",""
"html-keyboard-response","154","164970","0.0-5.0-1.50","62951043176ada9a9de2faa4","bdp_rd","Sun Mar 26 2023 20:13:31 GMT-0600 (Mountain Daylight Time)","190738","","null","","","","FIX","","<div class='trialBorder'><div class='vertical-center'><img style='vertical-align:center; align:center' src=img/fixation3.jpg></div></div>","null","","","","","",""
"html-keyboard-response","155","167515","0.0-5.0-2.50","62951043176ada9a9de2faa4","bdp_rd","Sun Mar 26 2023 20:13:31 GMT-0600 (Mountain Daylight Time)","190738","","2543","","","","offer","","<div class='trialBorder'><div class='vertical-center'><img style='vertical-align:center; align:center' src=img/fixation3.jpg></div><div class='cl'><div class='vertical-center'>$19<br>for<br>sure</div></div><div class='cr'><div class='vertical-center'>$51<br>with a<br>50% chance</div></div><div class='respDivL'><div class='vertical-center'>(E)</div></div><div class='respDivR'><div class='vertical-center'>(I)</div></div></div>","I","$19","$51","0","19","51","RISKY"
"html-keyboard-response","156","167770","0.0-5.0-3.50","62951043176ada9a9de2faa4","bdp_rd","Sun Mar 26 2023 20:13:31 GMT-0600 (Mountain Daylight Time)","190738","","null","","","","offerFB","","<div class='trialBorder'><div class='vertical-center'><img style='vertical-align:center; align:center' src=img/fixation3.jpg></div><div class='cl'><div class='vertical-center'>$19<br>for<br>sure</div></div><div class='cr'><div class='vertical-center'><font style='color:orange'>$51<br>with a<br>50% chance</font></div></div><div class='respDivL'><div class='vertical-center'>(E)</div></div><div class='respDivR'><div class='vertical-center'><font style='color:orange'>(I)</font></div></div></div>","null","$19","$51","0","19","51",""
"html-keyboard-response","157","168274","0.0-5.0-1.51","62951043176ada9a9de2faa4","bdp_rd","Sun Mar 26 2023 20:13:31 GMT-0600 (Mountain Daylight Time)","190738","","null","","","","FIX","","<div class='trialBorder'><div class='vertical-center'><img style='vertical-align:center; align:center' src=img/fixation3.jpg></div></div>","null","","","","","",""
"html-keyboard-response","158","169699","0.0-5.0-2.51","62951043176ada9a9de2faa4","bdp_rd","Sun Mar 26 2023 20:13:31 GMT-0600 (Mountain Daylight Time)","190738","","1424","","","","offer","","<div class='trialBorder'><div class='vertical-center'><img style='vertical-align:center; align:center' src=img/fixation3.jpg></div><div class='cl'><div class='vertical-center'>$64<br>with a<br>50% chance</div></div><div class='cr'><div class='vertical-center'>$2<br>for<br>sure</div></div><div class='respDivL'><div class='vertical-center'>(E)</div></div><div class='respDivR'><div class='vertical-center'>(I)</div></div></div>","E","$2","$64","1","2","64","RISKY"
"html-keyboard-response","159","169954","0.0-5.0-3.51","62951043176ada9a9de2faa4","bdp_rd","Sun Mar 26 2023 20:13:31 GMT-0600 (Mountain Daylight Time)","190738","","null","","","","offerFB","","<div class='trialBorder'><div class='vertical-center'><img style='vertical-align:center; align:center' src=img/fixation3.jpg></div><div class='cl'><div class='vertical-center'><font style='color:orange'>$64<br>with a<br>50% chance</font></div></div><div class='cr'><div class='vertical-center'>$2<br>for<br>sure</div></div><div class='respDivL'><div class='vertical-center'><font style='color:orange'>(E)</font></div></div><div class='respDivR'><div class='vertical-center'>(I)</div></div></div>","null","$2","$64","1","2","64",""
"html-keyboard-response","160","170458","0.0-5.0-1.52","62951043176ada9a9de2faa4","bdp_rd","Sun Mar 26 2023 20:13:31 GMT-0600 (Mountain Daylight Time)","190738","","null","","","","FIX","","<div class='trialBorder'><div class='vertical-center'><img style='vertical-align:center; align:center' src=img/fixation3.jpg></div></div>","null","","","","","",""
"html-keyboard-response","161","171657","0.0-5.0-2.52","62951043176ada9a9de2faa4","bdp_rd","Sun Mar 26 2023 20:13:31 GMT-0600 (Mountain Daylight Time)","190738","","1198","","","","offer","","<div class='trialBorder'><div class='vertical-center'><img style='vertical-align:center; align:center' src=img/fixation3.jpg></div><div class='cl'><div class='vertical-center'>$69<br>with a<br>50% chance</div></div><div class='cr'><div class='vertical-center'>$58<br>for<br>sure</div></div><div class='respDivL'><div class='vertical-center'>(E)</div></div><div class='respDivR'><div class='vertical-center'>(I)</div></div></div>","I","$58","$69","1","58","69","SURE"
"html-keyboard-response","162","171914","0.0-5.0-3.52","62951043176ada9a9de2faa4","bdp_rd","Sun Mar 26 2023 20:13:31 GMT-0600 (Mountain Daylight Time)","190738","","null","","","","offerFB","","<div class='trialBorder'><div class='vertical-center'><img style='vertical-align:center; align:center' src=img/fixation3.jpg></div><div class='cl'><div class='vertical-center'>$69<br>with a<br>50% chance</div></div><div class='cr'><div class='vertical-center'><font style='color:orange'>$58<br>for<br>sure</font></div></div><div class='respDivL'><div class='vertical-center'>(E)</div></div><div class='respDivR'><div class='vertical-center'><font style='color:orange'>(I)</font></div></div></div>","null","$58","$69","1","58","69",""
"html-keyboard-response","163","172418","0.0-5.0-1.53","62951043176ada9a9de2faa4","bdp_rd","Sun Mar 26 2023 20:13:31 GMT-0600 (Mountain Daylight Time)","190738","","null","","","","FIX","","<div class='trialBorder'><div class='vertical-center'><img style='vertical-align:center; align:center' src=img/fixation3.jpg></div></div>","null","","","","","",""
"html-keyboard-response","164","174626","0.0-5.0-2.53","62951043176ada9a9de2faa4","bdp_rd","Sun Mar 26 2023 20:13:31 GMT-0600 (Mountain Daylight Time)","190738","","2207","","","","offer","","<div class='trialBorder'><div class='vertical-center'><img style='vertical-align:center; align:center' src=img/fixation3.jpg></div><div class='cl'><div class='vertical-center'>$5<br>for<br>sure</div></div><div class='cr'><div class='vertical-center'>$16<br>with a<br>50% chance</div></div><div class='respDivL'><div class='vertical-center'>(E)</div></div><div class='respDivR'><div class='vertical-center'>(I)</div></div></div>","I","$5","$16","0","5","16","RISKY"
"html-keyboard-response","165","174882","0.0-5.0-3.53","62951043176ada9a9de2faa4","bdp_rd","Sun Mar 26 2023 20:13:31 GMT-0600 (Mountain Daylight Time)","190738","","null","","","","offerFB","","<div class='trialBorder'><div class='vertical-center'><img style='vertical-align:center; align:center' src=img/fixation3.jpg></div><div class='cl'><div class='vertical-center'>$5<br>for<br>sure</div></div><div class='cr'><div class='vertical-center'><font style='color:orange'>$16<br>with a<br>50% chance</font></div></div><div class='respDivL'><div class='vertical-center'>(E)</div></div><div class='respDivR'><div class='vertical-center'><font style='color:orange'>(I)</font></div></div></div>","null","$5","$16","0","5","16",""
"html-keyboard-response","166","175386","0.0-5.0-1.54","62951043176ada9a9de2faa4","bdp_rd","Sun Mar 26 2023 20:13:31 GMT-0600 (Mountain Daylight Time)","190738","","null","","","","FIX","","<div class='trialBorder'><div class='vertical-center'><img style='vertical-align:center; align:center' src=img/fixation3.jpg></div></div>","null","","","","","",""
"html-keyboard-response","167","177685","0.0-5.0-2.54","62951043176ada9a9de2faa4","bdp_rd","Sun Mar 26 2023 20:13:31 GMT-0600 (Mountain Daylight Time)","190738","","2298","","","","offer","","<div class='trialBorder'><div class='vertical-center'><img style='vertical-align:center; align:center' src=img/fixation3.jpg></div><div class='cl'><div class='vertical-center'>$25<br>for<br>sure</div></div><div class='cr'><div class='vertical-center'>$54<br>with a<br>50% chance</div></div><div class='respDivL'><div class='vertical-center'>(E)</div></div><div class='respDivR'><div class='vertical-center'>(I)</div></div></div>","E","$25","$54","0","25","54","SURE"
"html-keyboard-response","168","177946","0.0-5.0-3.54","62951043176ada9a9de2faa4","bdp_rd","Sun Mar 26 2023 20:13:31 GMT-0600 (Mountain Daylight Time)","190738","","null","","","","offerFB","","<div class='trialBorder'><div class='vertical-center'><img style='vertical-align:center; align:center' src=img/fixation3.jpg></div><div class='cl'><div class='vertical-center'><font style='color:orange'>$25<br>for<br>sure</font></div></div><div class='cr'><div class='vertical-center'>$54<br>with a<br>50% chance</div></div><div class='respDivL'><div class='vertical-center'><font style='color:orange'>(E)</font></div></div><div class='respDivR'><div class='vertical-center'>(I)</div></div></div>","null","$25","$54","0","25","54",""
"html-keyboard-response","169","178450","0.0-5.0-1.55","62951043176ada9a9de2faa4","bdp_rd","Sun Mar 26 2023 20:13:31 GMT-0600 (Mountain Daylight Time)","190738","","null","","","","FIX","","<div class='trialBorder'><div class='vertical-center'><img style='vertical-align:center; align:center' src=img/fixation3.jpg></div></div>","null","","","","","",""
"html-keyboard-response","170","179600","0.0-5.0-2.55","62951043176ada9a9de2faa4","bdp_rd","Sun Mar 26 2023 20:13:31 GMT-0600 (Mountain Daylight Time)","190738","","1148","","","","offer","","<div class='trialBorder'><div class='vertical-center'><img style='vertical-align:center; align:center' src=img/fixation3.jpg></div><div class='cl'><div class='vertical-center'>$81<br>with a<br>50% chance</div></div><div class='cr'><div class='vertical-center'>$39<br>for<br>sure</div></div><div class='respDivL'><div class='vertical-center'>(E)</div></div><div class='respDivR'><div class='vertical-center'>(I)</div></div></div>","I","$39","$81","1","39","81","SURE"
"html-keyboard-response","171","179858","0.0-5.0-3.55","62951043176ada9a9de2faa4","bdp_rd","Sun Mar 26 2023 20:13:31 GMT-0600 (Mountain Daylight Time)","190738","","null","","","","offerFB","","<div class='trialBorder'><div class='vertical-center'><img style='vertical-align:center; align:center' src=img/fixation3.jpg></div><div class='cl'><div class='vertical-center'>$81<br>with a<br>50% chance</div></div><div class='cr'><div class='vertical-center'><font style='color:orange'>$39<br>for<br>sure</font></div></div><div class='respDivL'><div class='vertical-center'>(E)</div></div><div class='respDivR'><div class='vertical-center'><font style='color:orange'>(I)</font></div></div></div>","null","$39","$81","1","39","81",""
"html-keyboard-response","172","180362","0.0-5.0-1.56","62951043176ada9a9de2faa4","bdp_rd","Sun Mar 26 2023 20:13:31 GMT-0600 (Mountain Daylight Time)","190738","","null","","","","FIX","","<div class='trialBorder'><div class='vertical-center'><img style='vertical-align:center; align:center' src=img/fixation3.jpg></div></div>","null","","","","","",""
"html-keyboard-response","173","181489","0.0-5.0-2.56","62951043176ada9a9de2faa4","bdp_rd","Sun Mar 26 2023 20:13:31 GMT-0600 (Mountain Daylight Time)","190738","","1126","","","","offer","","<div class='trialBorder'><div class='vertical-center'><img style='vertical-align:center; align:center' src=img/fixation3.jpg></div><div class='cl'><div class='vertical-center'>$44<br>with a<br>50% chance</div></div><div class='cr'><div class='vertical-center'>$37<br>for<br>sure</div></div><div class='respDivL'><div class='vertical-center'>(E)</div></div><div class='respDivR'><div class='vertical-center'>(I)</div></div></div>","I","$37","$44","1","37","44","SURE"
