"trial_type","trial_index","time_elapsed","internal_node_id","subject_id","task","startTime","totalTime","view_history","rt","event","trial","time","trialtype","success","stimulus","key_press","sureOffer","riskyOffer","riskyLeft","sureAmt","riskyAmt","chosen"
"pavlovia","0","11","0.0-0.0","63eaa9f8f0637c961dcfc277","bdp_rd","Sat Mar 25 2023 21:05:48 GMT-1000 (Hawaii-Aleutian Standard Time)","213325","","","","","","","","","","","","","","",""
"instructions","1","1977","0.0-1.0","63eaa9f8f0637c961dcfc277","bdp_rd","Sat Mar 25 2023 21:05:48 GMT-1000 (Hawaii-Aleutian Standard Time)","213325","[{""page_index"":0,""viewing_time"":1963}]","1964","","","","","","","","","","","","",""
"","","","","63eaa9f8f0637c961dcfc277","bdp_rd","Sat Mar 25 2023 21:05:48 GMT-1000 (Hawaii-Aleutian Standard Time)","213325","","","fullscreenenter","2","5335","fullscreenenter","","","","","","","","",""
"fullscreen","2","6284","0.0-2.0","63eaa9f8f0637c961dcfc277","bdp_rd","Sat Mar 25 2023 21:05:48 GMT-1000 (Hawaii-Aleutian Standard Time)","213325","","","","","","","true","","","","","","","",""
"instructions","3","43348","0.0-4.0","63eaa9f8f0637c961dcfc277","bdp_rd","Sat Mar 25 2023 21:05:48 GMT-1000 (Hawaii-Aleutian Standard Time)","213325","[{""page_index"":0,""viewing_time"":19910},{""page_index"":1,""viewing_time"":10550},{""page_index"":2,""viewing_time"":6599}]","37060","","","","","","","","","","","","",""
"html-keyboard-response","4","43858","0.0-5.0-1.0","63eaa9f8f0637c961dcfc277","bdp_rd","Sat Mar 25 2023 21:05:48 GMT-1000 (Hawaii-Aleutian Standard Time)","213325","","null","","","","FIX","","<div class='trialBorder'><div class='vertical-center'><img style='vertical-align:center; align:center' src=img/fixation3.jpg></div></div>","null","","","","","",""
"html-keyboard-response","5","48298","0.0-5.0-2.0","63eaa9f8f0637c961dcfc277","bdp_rd","Sat Mar 25 2023 21:05:48 GMT-1000 (Hawaii-Aleutian Standard Time)","213325","","4437","","","","offer","","<div class='trialBorder'><div class='vertical-center'><img style='vertical-align:center; align:center' src=img/fixation3.jpg></div><div class='cl'><div class='vertical-center'>$43<br>with a<br>50% chance</div></div><div class='cr'><div class='vertical-center'>$17<br>for<br>sure</div></div><div class='respDivL'><div class='vertical-center'>(E)</div></div><div class='respDivR'><div class='vertical-center'>(I)</div></div></div>","E","$17","$43","1","17","43","RISKY"
"html-keyboard-response","6","48553","0.0-5.0-3.0","63eaa9f8f0637c961dcfc277","bdp_rd","Sat Mar 25 2023 21:05:48 GMT-1000 (Hawaii-Aleutian Standard Time)","213325","","null","","","","offerFB","","<div class='trialBorder'><div class='vertical-center'><img style='vertical-align:center; align:center' src=img/fixation3.jpg></div><div class='cl'><div class='vertical-center'><font style='color:orange'>$43<br>with a<br>50% chance</font></div></div><div class='cr'><div class='vertical-center'>$17<br>for<br>sure</div></div><div class='respDivL'><div class='vertical-center'><font style='color:orange'>(E)</font></div></div><div class='respDivR'><div class='vertical-center'>(I)</div></div></div>","null","$17","$43","1","17","43",""
"html-keyboard-response","7","49065","0.0-5.0-1.1","63eaa9f8f0637c961dcfc277","bdp_rd","Sat Mar 25 2023 21:05:48 GMT-1000 (Hawaii-Aleutian Standard Time)","213325","","null","","","","FIX","","<div class='trialBorder'><div class='vertical-center'><img style='vertical-align:center; align:center' src=img/fixation3.jpg></div></div>","null","","","","","",""
"html-keyboard-response","8","51195","0.0-5.0-2.1","63eaa9f8f0637c961dcfc277","bdp_rd","Sat Mar 25 2023 21:05:48 GMT-1000 (Hawaii-Aleutian Standard Time)","213325","","2127","","","","offer","","<div class='trialBorder'><div class='vertical-center'><img style='vertical-align:center; align:center' src=img/fixation3.jpg></div><div class='cl'><div class='vertical-center'>$14<br>for<br>sure</div></div><div class='cr'><div class='vertical-center'>$22<br>with a<br>50% chance</div></div><div class='respDivL'><div class='vertical-center'>(E)</div></div><div class='respDivR'><div class='vertical-center'>(I)</div></div></div>","E","$14","$22","0","14","22","SURE"
"html-keyboard-response","9","51456","0.0-5.0-3.1","63eaa9f8f0637c961dcfc277","bdp_rd","Sat Mar 25 2023 21:05:48 GMT-1000 (Hawaii-Aleutian Standard Time)","213325","","null","","","","offerFB","","<div class='trialBorder'><div class='vertical-center'><img style='vertical-align:center; align:center' src=img/fixation3.jpg></div><div class='cl'><div class='vertical-center'><font style='color:orange'>$14<br>for<br>sure</font></div></div><div class='cr'><div class='vertical-center'>$22<br>with a<br>50% chance</div></div><div class='respDivL'><div class='vertical-center'><font style='color:orange'>(E)</font></div></div><div class='respDivR'><div class='vertical-center'>(I)</div></div></div>","null","$14","$22","0","14","22",""
"html-keyboard-response","10","51960","0.0-5.0-1.2","63eaa9f8f0637c961dcfc277","bdp_rd","Sat Mar 25 2023 21:05:48 GMT-1000 (Hawaii-Aleutian Standard Time)","213325","","null","","","","FIX","","<div class='trialBorder'><div class='vertical-center'><img style='vertical-align:center; align:center' src=img/fixation3.jpg></div></div>","null","","","","","",""
"html-keyboard-response","11","54110","0.0-5.0-2.2","63eaa9f8f0637c961dcfc277","bdp_rd","Sat Mar 25 2023 21:05:48 GMT-1000 (Hawaii-Aleutian Standard Time)","213325","","2148","","","","offer","","<div class='trialBorder'><div class='vertical-center'><img style='vertical-align:center; align:center' src=img/fixation3.jpg></div><div class='cl'><div class='vertical-center'>$1<br>for<br>sure</div></div><div class='cr'><div class='vertical-center'>$33<br>with a<br>50% chance</div></div><div class='respDivL'><div class='vertical-center'>(E)</div></div><div class='respDivR'><div class='vertical-center'>(I)</div></div></div>","I","$1","$33","0","1","33","RISKY"
"html-keyboard-response","12","54366","0.0-5.0-3.2","63eaa9f8f0637c961dcfc277","bdp_rd","Sat Mar 25 2023 21:05:48 GMT-1000 (Hawaii-Aleutian Standard Time)","213325","","null","","","","offerFB","","<div class='trialBorder'><div class='vertical-center'><img style='vertical-align:center; align:center' src=img/fixation3.jpg></div><div class='cl'><div class='vertical-center'>$1<br>for<br>sure</div></div><div class='cr'><div class='vertical-center'><font style='color:orange'>$33<br>with a<br>50% chance</font></div></div><div class='respDivL'><div class='vertical-center'>(E)</div></div><div class='respDivR'><div class='vertical-center'><font style='color:orange'>(I)</font></div></div></div>","null","$1","$33","0","1","33",""
"html-keyboard-response","13","54874","0.0-5.0-1.3","63eaa9f8f0637c961dcfc277","bdp_rd","Sat Mar 25 2023 21:05:48 GMT-1000 (Hawaii-Aleutian Standard Time)","213325","","null","","","","FIX","","<div class='trialBorder'><div class='vertical-center'><img style='vertical-align:center; align:center' src=img/fixation3.jpg></div></div>","null","","","","","",""
"html-keyboard-response","14","57171","0.0-5.0-2.3","63eaa9f8f0637c961dcfc277","bdp_rd","Sat Mar 25 2023 21:05:48 GMT-1000 (Hawaii-Aleutian Standard Time)","213325","","2295","","","","offer","","<div class='trialBorder'><div class='vertical-center'><img style='vertical-align:center; align:center' src=img/fixation3.jpg></div><div class='cl'><div class='vertical-center'>$41<br>with a<br>50% chance</div></div><div class='cr'><div class='vertical-center'>$13<br>for<br>sure</div></div><div class='respDivL'><div class='vertical-center'>(E)</div></div><div class='respDivR'><div class='vertical-center'>(I)</div></div></div>","E","$13","$41","1","13","41","RISKY"
"html-keyboard-response","15","57425","0.0-5.0-3.3","63eaa9f8f0637c961dcfc277","bdp_rd","Sat Mar 25 2023 21:05:48 GMT-1000 (Hawaii-Aleutian Standard Time)","213325","","null","","","","offerFB","","<div class='trialBorder'><div class='vertical-center'><img style='vertical-align:center; align:center' src=img/fixation3.jpg></div><div class='cl'><div class='vertical-center'><font style='color:orange'>$41<br>with a<br>50% chance</font></div></div><div class='cr'><div class='vertical-center'>$13<br>for<br>sure</div></div><div class='respDivL'><div class='vertical-center'><font style='color:orange'>(E)</font></div></div><div class='respDivR'><div class='vertical-center'>(I)</div></div></div>","null","$13","$41","1","13","41",""
"html-keyboard-response","16","57931","0.0-5.0-1.4","63eaa9f8f0637c961dcfc277","bdp_rd","Sat Mar 25 2023 21:05:48 GMT-1000 (Hawaii-Aleutian Standard Time)","213325","","null","","","","FIX","","<div class='trialBorder'><div class='vertical-center'><img style='vertical-align:center; align:center' src=img/fixation3.jpg></div></div>","null","","","","","",""
"html-keyboard-response","17","60061","0.0-5.0-2.4","63eaa9f8f0637c961dcfc277","bdp_rd","Sat Mar 25 2023 21:05:48 GMT-1000 (Hawaii-Aleutian Standard Time)","213325","","2127","","","","offer","","<div class='trialBorder'><div class='vertical-center'><img style='vertical-align:center; align:center' src=img/fixation3.jpg></div><div class='cl'><div class='vertical-center'>$37<br>for<br>sure</div></div><div class='cr'><div class='vertical-center'>$44<br>with a<br>50% chance</div></div><div class='respDivL'><div class='vertical-center'>(E)</div></div><div class='respDivR'><div class='vertical-center'>(I)</div></div></div>","E","$37","$44","0","37","44","SURE"
"html-keyboard-response","18","60318","0.0-5.0-3.4","63eaa9f8f0637c961dcfc277","bdp_rd","Sat Mar 25 2023 21:05:48 GMT-1000 (Hawaii-Aleutian Standard Time)","213325","","null","","","","offerFB","","<div class='trialBorder'><div class='vertical-center'><img style='vertical-align:center; align:center' src=img/fixation3.jpg></div><div class='cl'><div class='vertical-center'><font style='color:orange'>$37<br>for<br>sure</font></div></div><div class='cr'><div class='vertical-center'>$44<br>with a<br>50% chance</div></div><div class='respDivL'><div class='vertical-center'><font style='color:orange'>(E)</font></div></div><div class='respDivR'><div class='vertical-center'>(I)</div></div></div>","null","$37","$44","0","37","44",""
"html-keyboard-response","19","60823","0.0-5.0-1.5","63eaa9f8f0637c961dcfc277","bdp_rd","Sat Mar 25 2023 21:05:48 GMT-1000 (Hawaii-Aleutian Standard Time)","213325","","null","","","","FIX","","<div class='trialBorder'><div class='vertical-center'><img style='vertical-align:center; align:center' src=img/fixation3.jpg></div></div>","null","","","","","",""
"html-keyboard-response","20","63136","0.0-5.0-2.5","63eaa9f8f0637c961dcfc277","bdp_rd","Sat Mar 25 2023 21:05:48 GMT-1000 (Hawaii-Aleutian Standard Time)","213325","","2310","","","","offer","","<div class='trialBorder'><div class='vertical-center'><img style='vertical-align:center; align:center' src=img/fixation3.jpg></div><div class='cl'><div class='vertical-center'>$30<br>for<br>sure</div></div><div class='cr'><div class='vertical-center'>$68<br>with a<br>50% chance</div></div><div class='respDivL'><div class='vertical-center'>(E)</div></div><div class='respDivR'><div class='vertical-center'>(I)</div></div></div>","I","$30","$68","0","30","68","RISKY"
"html-keyboard-response","21","63392","0.0-5.0-3.5","63eaa9f8f0637c961dcfc277","bdp_rd","Sat Mar 25 2023 21:05:48 GMT-1000 (Hawaii-Aleutian Standard Time)","213325","","null","","","","offerFB","","<div class='trialBorder'><div class='vertical-center'><img style='vertical-align:center; align:center' src=img/fixation3.jpg></div><div class='cl'><div class='vertical-center'>$30<br>for<br>sure</div></div><div class='cr'><div class='vertical-center'><font style='color:orange'>$68<br>with a<br>50% chance</font></div></div><div class='respDivL'><div class='vertical-center'>(E)</div></div><div class='respDivR'><div class='vertical-center'><font style='color:orange'>(I)</font></div></div></div>","null","$30","$68","0","30","68",""
"html-keyboard-response","22","63895","0.0-5.0-1.6","63eaa9f8f0637c961dcfc277","bdp_rd","Sat Mar 25 2023 21:05:48 GMT-1000 (Hawaii-Aleutian Standard Time)","213325","","null","","","","FIX","","<div class='trialBorder'><div class='vertical-center'><img style='vertical-align:center; align:center' src=img/fixation3.jpg></div></div>","null","","","","","",""
"html-keyboard-response","23","66042","0.0-5.0-2.6","63eaa9f8f0637c961dcfc277","bdp_rd","Sat Mar 25 2023 21:05:48 GMT-1000 (Hawaii-Aleutian Standard Time)","213325","","2145","","","","offer","","<div class='trialBorder'><div class='vertical-center'><img style='vertical-align:center; align:center' src=img/fixation3.jpg></div><div class='cl'><div class='vertical-center'>$20<br>for<br>sure</div></div><div class='cr'><div class='vertical-center'>$37<br>with a<br>50% chance</div></div><div class='respDivL'><div class='vertical-center'>(E)</div></div><div class='respDivR'><div class='vertical-center'>(I)</div></div></div>","E","$20","$37","0","20","37","SURE"
"html-keyboard-response","24","66297","0.0-5.0-3.6","63eaa9f8f0637c961dcfc277","bdp_rd","Sat Mar 25 2023 21:05:48 GMT-1000 (Hawaii-Aleutian Standard Time)","213325","","null","","","","offerFB","","<div class='trialBorder'><div class='vertical-center'><img style='vertical-align:center; align:center' src=img/fixation3.jpg></div><div class='cl'><div class='vertical-center'><font style='color:orange'>$20<br>for<br>sure</font></div></div><div class='cr'><div class='vertical-center'>$37<br>with a<br>50% chance</div></div><div class='respDivL'><div class='vertical-center'><font style='color:orange'>(E)</font></div></div><div class='respDivR'><div class='vertical-center'>(I)</div></div></div>","null","$20","$37","0","20","37",""
"html-keyboard-response","25","66800","0.0-5.0-1.7","63eaa9f8f0637c961dcfc277","bdp_rd","Sat Mar 25 2023 21:05:48 GMT-1000 (Hawaii-Aleutian Standard Time)","213325","","null","","","","FIX","","<div class='trialBorder'><div class='vertical-center'><img style='vertical-align:center; align:center' src=img/fixation3.jpg></div></div>","null","","","","","",""
"html-keyboard-response","26","68599","0.0-5.0-2.7","63eaa9f8f0637c961dcfc277","bdp_rd","Sat Mar 25 2023 21:05:48 GMT-1000 (Hawaii-Aleutian Standard Time)","213325","","1797","","","","offer","","<div class='trialBorder'><div class='vertical-center'><img style='vertical-align:center; align:center' src=img/fixation3.jpg></div><div class='cl'><div class='vertical-center'>$28<br>for<br>sure</div></div><div class='cr'><div class='vertical-center'>$89<br>with a<br>50% chance</div></div><div class='respDivL'><div class='vertical-center'>(E)</div></div><div class='respDivR'><div class='vertical-center'>(I)</div></div></div>","I","$28","$89","0","28","89","RISKY"
"html-keyboard-response","27","68859","0.0-5.0-3.7","63eaa9f8f0637c961dcfc277","bdp_rd","Sat Mar 25 2023 21:05:48 GMT-1000 (Hawaii-Aleutian Standard Time)","213325","","null","","","","offerFB","","<div class='trialBorder'><div class='vertical-center'><img style='vertical-align:center; align:center' src=img/fixation3.jpg></div><div class='cl'><div class='vertical-center'>$28<br>for<br>sure</div></div><div class='cr'><div class='vertical-center'><font style='color:orange'>$89<br>with a<br>50% chance</font></div></div><div class='respDivL'><div class='vertical-center'>(E)</div></div><div class='respDivR'><div class='vertical-center'><font style='color:orange'>(I)</font></div></div></div>","null","$28","$89","0","28","89",""
"html-keyboard-response","28","69367","0.0-5.0-1.8","63eaa9f8f0637c961dcfc277","bdp_rd","Sat Mar 25 2023 21:05:48 GMT-1000 (Hawaii-Aleutian Standard Time)","213325","","null","","","","FIX","","<div class='trialBorder'><div class='vertical-center'><img style='vertical-align:center; align:center' src=img/fixation3.jpg></div></div>","null","","","","","",""
"html-keyboard-response","29","73467","0.0-5.0-2.8","63eaa9f8f0637c961dcfc277","bdp_rd","Sat Mar 25 2023 21:05:48 GMT-1000 (Hawaii-Aleutian Standard Time)","213325","","4098","","","","offer","","<div class='trialBorder'><div class='vertical-center'><img style='vertical-align:center; align:center' src=img/fixation3.jpg></div><div class='cl'><div class='vertical-center'>$51<br>with a<br>50% chance</div></div><div class='cr'><div class='vertical-center'>$19<br>for<br>sure</div></div><div class='respDivL'><div class='vertical-center'>(E)</div></div><div class='respDivR'><div class='vertical-center'>(I)</div></div></div>","E","$19","$51","1","19","51","RISKY"
"html-keyboard-response","30","73725","0.0-5.0-3.8","63eaa9f8f0637c961dcfc277","bdp_rd","Sat Mar 25 2023 21:05:48 GMT-1000 (Hawaii-Aleutian Standard Time)","213325","","null","","","","offerFB","","<div class='trialBorder'><div class='vertical-center'><img style='vertical-align:center; align:center' src=img/fixation3.jpg></div><div class='cl'><div class='vertical-center'><font style='color:orange'>$51<br>with a<br>50% chance</font></div></div><div class='cr'><div class='vertical-center'>$19<br>for<br>sure</div></div><div class='respDivL'><div class='vertical-center'><font style='color:orange'>(E)</font></div></div><div class='respDivR'><div class='vertical-center'>(I)</div></div></div>","null","$19","$51","1","19","51",""
"html-keyboard-response","31","74228","0.0-5.0-1.9","63eaa9f8f0637c961dcfc277","bdp_rd","Sat Mar 25 2023 21:05:48 GMT-1000 (Hawaii-Aleutian Standard Time)","213325","","null","","","","FIX","","<div class='trialBorder'><div class='vertical-center'><img style='vertical-align:center; align:center' src=img/fixation3.jpg></div></div>","null","","","","","",""
"html-keyboard-response","32","75630","0.0-5.0-2.9","63eaa9f8f0637c961dcfc277","bdp_rd","Sat Mar 25 2023 21:05:48 GMT-1000 (Hawaii-Aleutian Standard Time)","213325","","1400","","","","offer","","<div class='trialBorder'><div class='vertical-center'><img style='vertical-align:center; align:center' src=img/fixation3.jpg></div><div class='cl'><div class='vertical-center'>$62<br>with a<br>50% chance</div></div><div class='cr'><div class='vertical-center'>$11<br>for<br>sure</div></div><div class='respDivL'><div class='vertical-center'>(E)</div></div><div class='respDivR'><div class='vertical-center'>(I)</div></div></div>","E","$11","$62","1","11","62","RISKY"
"html-keyboard-response","33","75887","0.0-5.0-3.9","63eaa9f8f0637c961dcfc277","bdp_rd","Sat Mar 25 2023 21:05:48 GMT-1000 (Hawaii-Aleutian Standard Time)","213325","","null","","","","offerFB","","<div class='trialBorder'><div class='vertical-center'><img style='vertical-align:center; align:center' src=img/fixation3.jpg></div><div class='cl'><div class='vertical-center'><font style='color:orange'>$62<br>with a<br>50% chance</font></div></div><div class='cr'><div class='vertical-center'>$11<br>for<br>sure</div></div><div class='respDivL'><div class='vertical-center'><font style='color:orange'>(E)</font></div></div><div class='respDivR'><div class='vertical-center'>(I)</div></div></div>","null","$11","$62","1","11","62",""
"html-keyboard-response","34","76397","0.0-5.0-1.10","63eaa9f8f0637c961dcfc277","bdp_rd","Sat Mar 25 2023 21:05:48 GMT-1000 (Hawaii-Aleutian Standard Time)","213325","","null","","","","FIX","","<div class='trialBorder'><div class='vertical-center'><img style='vertical-align:center; align:center' src=img/fixation3.jpg></div></div>","null","","","","","",""
"html-keyboard-response","35","77972","0.0-5.0-2.10","63eaa9f8f0637c961dcfc277","bdp_rd","Sat Mar 25 2023 21:05:48 GMT-1000 (Hawaii-Aleutian Standard Time)","213325","","1572","","","","offer","","<div class='trialBorder'><div class='vertical-center'><img style='vertical-align:center; align:center' src=img/fixation3.jpg></div><div class='cl'><div class='vertical-center'>$92<br>with a<br>50% chance</div></div><div class='cr'><div class='vertical-center'>$26<br>for<br>sure</div></div><div class='respDivL'><div class='vertical-center'>(E)</div></div><div class='respDivR'><div class='vertical-center'>(I)</div></div></div>","E","$26","$92","1","26","92","RISKY"
"html-keyboard-response","36","78229","0.0-5.0-3.10","63eaa9f8f0637c961dcfc277","bdp_rd","Sat Mar 25 2023 21:05:48 GMT-1000 (Hawaii-Aleutian Standard Time)","213325","","null","","","","offerFB","","<div class='trialBorder'><div class='vertical-center'><img style='vertical-align:center; align:center' src=img/fixation3.jpg></div><div class='cl'><div class='vertical-center'><font style='color:orange'>$92<br>with a<br>50% chance</font></div></div><div class='cr'><div class='vertical-center'>$26<br>for<br>sure</div></div><div class='respDivL'><div class='vertical-center'><font style='color:orange'>(E)</font></div></div><div class='respDivR'><div class='vertical-center'>(I)</div></div></div>","null","$26","$92","1","26","92",""
"html-keyboard-response","37","78739","0.0-5.0-1.11","63eaa9f8f0637c961dcfc277","bdp_rd","Sat Mar 25 2023 21:05:48 GMT-1000 (Hawaii-Aleutian Standard Time)","213325","","null","","","","FIX","","<div class='trialBorder'><div class='vertical-center'><img style='vertical-align:center; align:center' src=img/fixation3.jpg></div></div>","null","","","","","",""
"html-keyboard-response","38","80421","0.0-5.0-2.11","63eaa9f8f0637c961dcfc277","bdp_rd","Sat Mar 25 2023 21:05:48 GMT-1000 (Hawaii-Aleutian Standard Time)","213325","","1680","","","","offer","","<div class='trialBorder'><div class='vertical-center'><img style='vertical-align:center; align:center' src=img/fixation3.jpg></div><div class='cl'><div class='vertical-center'>$21<br>for<br>sure</div></div><div class='cr'><div class='vertical-center'>$25<br>with a<br>50% chance</div></div><div class='respDivL'><div class='vertical-center'>(E)</div></div><div class='respDivR'><div class='vertical-center'>(I)</div></div></div>","E","$21","$25","0","21","25","SURE"
"html-keyboard-response","39","80676","0.0-5.0-3.11","63eaa9f8f0637c961dcfc277","bdp_rd","Sat Mar 25 2023 21:05:48 GMT-1000 (Hawaii-Aleutian Standard Time)","213325","","null","","","","offerFB","","<div class='trialBorder'><div class='vertical-center'><img style='vertical-align:center; align:center' src=img/fixation3.jpg></div><div class='cl'><div class='vertical-center'><font style='color:orange'>$21<br>for<br>sure</font></div></div><div class='cr'><div class='vertical-center'>$25<br>with a<br>50% chance</div></div><div class='respDivL'><div class='vertical-center'><font style='color:orange'>(E)</font></div></div><div class='respDivR'><div class='vertical-center'>(I)</div></div></div>","null","$21","$25","0","21","25",""
"html-keyboard-response","40","81180","0.0-5.0-1.12","63eaa9f8f0637c961dcfc277","bdp_rd","Sat Mar 25 2023 21:05:48 GMT-1000 (Hawaii-Aleutian Standard Time)","213325","","null","","","","FIX","","<div class='trialBorder'><div class='vertical-center'><img style='vertical-align:center; align:center' src=img/fixation3.jpg></div></div>","null","","","","","",""
"html-keyboard-response","41","83345","0.0-5.0-2.12","63eaa9f8f0637c961dcfc277","bdp_rd","Sat Mar 25 2023 21:05:48 GMT-1000 (Hawaii-Aleutian Standard Time)","213325","","2163","","","","offer","","<div class='trialBorder'><div class='vertical-center'><img style='vertical-align:center; align:center' src=img/fixation3.jpg></div><div class='cl'><div class='vertical-center'>$10<br>for<br>sure</div></div><div class='cr'><div class='vertical-center'>$19<br>with a<br>50% chance</div></div><div class='respDivL'><div class='vertical-center'>(E)</div></div><div class='respDivR'><div class='vertical-center'>(I)</div></div></div>","E","$10","$19","0","10","19","SURE"
"html-keyboard-response","42","83610","0.0-5.0-3.12","63eaa9f8f0637c961dcfc277","bdp_rd","Sat Mar 25 2023 21:05:48 GMT-1000 (Hawaii-Aleutian Standard Time)","213325","","null","","","","offerFB","","<div class='trialBorder'><div class='vertical-center'><img style='vertical-align:center; align:center' src=img/fixation3.jpg></div><div class='cl'><div class='vertical-center'><font style='color:orange'>$10<br>for<br>sure</font></div></div><div class='cr'><div class='vertical-center'>$19<br>with a<br>50% chance</div></div><div class='respDivL'><div class='vertical-center'><font style='color:orange'>(E)</font></div></div><div class='respDivR'><div class='vertical-center'>(I)</div></div></div>","null","$10","$19","0","10","19",""
"html-keyboard-response","43","84119","0.0-5.0-1.13","63eaa9f8f0637c961dcfc277","bdp_rd","Sat Mar 25 2023 21:05:48 GMT-1000 (Hawaii-Aleutian Standard Time)","213325","","null","","","","FIX","","<div class='trialBorder'><div class='vertical-center'><img style='vertical-align:center; align:center' src=img/fixation3.jpg></div></div>","null","","","","","",""
"html-keyboard-response","44","86442","0.0-5.0-2.13","63eaa9f8f0637c961dcfc277","bdp_rd","Sat Mar 25 2023 21:05:48 GMT-1000 (Hawaii-Aleutian Standard Time)","213325","","2321","","","","offer","","<div class='trialBorder'><div class='vertical-center'><img style='vertical-align:center; align:center' src=img/fixation3.jpg></div><div class='cl'><div class='vertical-center'>$45<br>for<br>sure</div></div><div class='cr'><div class='vertical-center'>$86<br>with a<br>50% chance</div></div><div class='respDivL'><div class='vertical-center'>(E)</div></div><div class='respDivR'><div class='vertical-center'>(I)</div></div></div>","E","$45","$86","0","45","86","SURE"
"html-keyboard-response","45","86699","0.0-5.0-3.13","63eaa9f8f0637c961dcfc277","bdp_rd","Sat Mar 25 2023 21:05:48 GMT-1000 (Hawaii-Aleutian Standard Time)","213325","","null","","","","offerFB","","<div class='trialBorder'><div class='vertical-center'><img style='vertical-align:center; align:center' src=img/fixation3.jpg></div><div class='cl'><div class='vertical-center'><font style='color:orange'>$45<br>for<br>sure</font></div></div><div class='cr'><div class='vertical-center'>$86<br>with a<br>50% chance</div></div><div class='respDivL'><div class='vertical-center'><font style='color:orange'>(E)</font></div></div><div class='respDivR'><div class='vertical-center'>(I)</div></div></div>","null","$45","$86","0","45","86",""
"html-keyboard-response","46","87201","0.0-5.0-1.14","63eaa9f8f0637c961dcfc277","bdp_rd","Sat Mar 25 2023 21:05:48 GMT-1000 (Hawaii-Aleutian Standard Time)","213325","","null","","","","FIX","","<div class='trialBorder'><div class='vertical-center'><img style='vertical-align:center; align:center' src=img/fixation3.jpg></div></div>","null","","","","","",""
"html-keyboard-response","47","89154","0.0-5.0-2.14","63eaa9f8f0637c961dcfc277","bdp_rd","Sat Mar 25 2023 21:05:48 GMT-1000 (Hawaii-Aleutian Standard Time)","213325","","1949","","","","offer","","<div class='trialBorder'><div class='vertical-center'><img style='vertical-align:center; align:center' src=img/fixation3.jpg></div><div class='cl'><div class='vertical-center'>$24<br>for<br>sure</div></div><div class='cr'><div class='vertical-center'>$70<br>with a<br>50% chance</div></div><div class='respDivL'><div class='vertical-center'>(E)</div></div><div class='respDivR'><div class='vertical-center'>(I)</div></div></div>","I","$24","$70","0","24","70","RISKY"
"html-keyboard-response","48","89408","0.0-5.0-3.14","63eaa9f8f0637c961dcfc277","bdp_rd","Sat Mar 25 2023 21:05:48 GMT-1000 (Hawaii-Aleutian Standard Time)","213325","","null","","","","offerFB","","<div class='trialBorder'><div class='vertical-center'><img style='vertical-align:center; align:center' src=img/fixation3.jpg></div><div class='cl'><div class='vertical-center'>$24<br>for<br>sure</div></div><div class='cr'><div class='vertical-center'><font style='color:orange'>$70<br>with a<br>50% chance</font></div></div><div class='respDivL'><div class='vertical-center'>(E)</div></div><div class='respDivR'><div class='vertical-center'><font style='color:orange'>(I)</font></div></div></div>","null","$24","$70","0","24","70",""
"html-keyboard-response","49","89911","0.0-5.0-1.15","63eaa9f8f0637c961dcfc277","bdp_rd","Sat Mar 25 2023 21:05:48 GMT-1000 (Hawaii-Aleutian Standard Time)","213325","","null","","","","FIX","","<div class='trialBorder'><div class='vertical-center'><img style='vertical-align:center; align:center' src=img/fixation3.jpg></div></div>","null","","","","","",""
"html-keyboard-response","50","91590","0.0-5.0-2.15","63eaa9f8f0637c961dcfc277","bdp_rd","Sat Mar 25 2023 21:05:48 GMT-1000 (Hawaii-Aleutian Standard Time)","213325","","1676","","","","offer","","<div class='trialBorder'><div class='vertical-center'><img style='vertical-align:center; align:center' src=img/fixation3.jpg></div><div class='cl'><div class='vertical-center'>$1<br>for<br>sure</div></div><div class='cr'><div class='vertical-center'>$30<br>with a<br>50% chance</div></div><div class='respDivL'><div class='vertical-center'>(E)</div></div><div class='respDivR'><div class='vertical-center'>(I)</div></div></div>","I","$1","$30","0","1","30","RISKY"
"html-keyboard-response","51","91847","0.0-5.0-3.15","63eaa9f8f0637c961dcfc277","bdp_rd","Sat Mar 25 2023 21:05:48 GMT-1000 (Hawaii-Aleutian Standard Time)","213325","","null","","","","offerFB","","<div class='trialBorder'><div class='vertical-center'><img style='vertical-align:center; align:center' src=img/fixation3.jpg></div><div class='cl'><div class='vertical-center'>$1<br>for<br>sure</div></div><div class='cr'><div class='vertical-center'><font style='color:orange'>$30<br>with a<br>50% chance</font></div></div><div class='respDivL'><div class='vertical-center'>(E)</div></div><div class='respDivR'><div class='vertical-center'><font style='color:orange'>(I)</font></div></div></div>","null","$1","$30","0","1","30",""
"html-keyboard-response","52","92355","0.0-5.0-1.16","63eaa9f8f0637c961dcfc277","bdp_rd","Sat Mar 25 2023 21:05:48 GMT-1000 (Hawaii-Aleutian Standard Time)","213325","","null","","","","FIX","","<div class='trialBorder'><div class='vertical-center'><img style='vertical-align:center; align:center' src=img/fixation3.jpg></div></div>","null","","","","","",""
"html-keyboard-response","53","98789","0.0-5.0-2.16","63eaa9f8f0637c961dcfc277","bdp_rd","Sat Mar 25 2023 21:05:48 GMT-1000 (Hawaii-Aleutian Standard Time)","213325","","6432","","","","offer","","<div class='trialBorder'><div class='vertical-center'><img style='vertical-align:center; align:center' src=img/fixation3.jpg></div><div class='cl'><div class='vertical-center'>$38<br>with a<br>50% chance</div></div><div class='cr'><div class='vertical-center'>$16<br>for<br>sure</div></div><div class='respDivL'><div class='vertical-center'>(E)</div></div><div class='respDivR'><div class='vertical-center'>(I)</div></div></div>","E","$16","$38","1","16","38","RISKY"
"html-keyboard-response","54","99047","0.0-5.0-3.16","63eaa9f8f0637c961dcfc277","bdp_rd","Sat Mar 25 2023 21:05:48 GMT-1000 (Hawaii-Aleutian Standard Time)","213325","","null","","","","offerFB","","<div class='trialBorder'><div class='vertical-center'><img style='vertical-align:center; align:center' src=img/fixation3.jpg></div><div class='cl'><div class='vertical-center'><font style='color:orange'>$38<br>with a<br>50% chance</font></div></div><div class='cr'><div class='vertical-center'>$16<br>for<br>sure</div></div><div class='respDivL'><div class='vertical-center'><font style='color:orange'>(E)</font></div></div><div class='respDivR'><div class='vertical-center'>(I)</div></div></div>","null","$16","$38","1","16","38",""
"html-keyboard-response","55","99556","0.0-5.0-1.17","63eaa9f8f0637c961dcfc277","bdp_rd","Sat Mar 25 2023 21:05:48 GMT-1000 (Hawaii-Aleutian Standard Time)","213325","","null","","","","FIX","","<div class='trialBorder'><div class='vertical-center'><img style='vertical-align:center; align:center' src=img/fixation3.jpg></div></div>","null","","","","","",""
"html-keyboard-response","56","100736","0.0-5.0-2.17","63eaa9f8f0637c961dcfc277","bdp_rd","Sat Mar 25 2023 21:05:48 GMT-1000 (Hawaii-Aleutian Standard Time)","213325","","1177","","","","offer","","<div class='trialBorder'><div class='vertical-center'><img style='vertical-align:center; align:center' src=img/fixation3.jpg></div><div class='cl'><div class='vertical-center'>$98<br>with a<br>50% chance</div></div><div class='cr'><div class='vertical-center'>$53<br>for<br>sure</div></div><div class='respDivL'><div class='vertical-center'>(E)</div></div><div class='respDivR'><div class='vertical-center'>(I)</div></div></div>","E","$53","$98","1","53","98","RISKY"
"html-keyboard-response","57","100991","0.0-5.0-3.17","63eaa9f8f0637c961dcfc277","bdp_rd","Sat Mar 25 2023 21:05:48 GMT-1000 (Hawaii-Aleutian Standard Time)","213325","","null","","","","offerFB","","<div class='trialBorder'><div class='vertical-center'><img style='vertical-align:center; align:center' src=img/fixation3.jpg></div><div class='cl'><div class='vertical-center'><font style='color:orange'>$98<br>with a<br>50% chance</font></div></div><div class='cr'><div class='vertical-center'>$53<br>for<br>sure</div></div><div class='respDivL'><div class='vertical-center'><font style='color:orange'>(E)</font></div></div><div class='respDivR'><div class='vertical-center'>(I)</div></div></div>","null","$53","$98","1","53","98",""
"html-keyboard-response","58","101500","0.0-5.0-1.18","63eaa9f8f0637c961dcfc277","bdp_rd","Sat Mar 25 2023 21:05:48 GMT-1000 (Hawaii-Aleutian Standard Time)","213325","","null","","","","FIX","","<div class='trialBorder'><div class='vertical-center'><img style='vertical-align:center; align:center' src=img/fixation3.jpg></div></div>","null","","","","","",""
"html-keyboard-response","59","103635","0.0-5.0-2.18","63eaa9f8f0637c961dcfc277","bdp_rd","Sat Mar 25 2023 21:05:48 GMT-1000 (Hawaii-Aleutian Standard Time)","213325","","2132","","","","offer","","<div class='trialBorder'><div class='vertical-center'><img style='vertical-align:center; align:center' src=img/fixation3.jpg></div><div class='cl'><div class='vertical-center'>$48<br>with a<br>50% chance</div></div><div class='cr'><div class='vertical-center'>$34<br>for<br>sure</div></div><div class='respDivL'><div class='vertical-center'>(E)</div></div><div class='respDivR'><div class='vertical-center'>(I)</div></div></div>","I","$34","$48","1","34","48","SURE"
"html-keyboard-response","60","103896","0.0-5.0-3.18","63eaa9f8f0637c961dcfc277","bdp_rd","Sat Mar 25 2023 21:05:48 GMT-1000 (Hawaii-Aleutian Standard Time)","213325","","null","","","","offerFB","","<div class='trialBorder'><div class='vertical-center'><img style='vertical-align:center; align:center' src=img/fixation3.jpg></div><div class='cl'><div class='vertical-center'>$48<br>with a<br>50% chance</div></div><div class='cr'><div class='vertical-center'><font style='color:orange'>$34<br>for<br>sure</font></div></div><div class='respDivL'><div class='vertical-center'>(E)</div></div><div class='respDivR'><div class='vertical-center'><font style='color:orange'>(I)</font></div></div></div>","null","$34","$48","1","34","48",""
"html-keyboard-response","61","104406","0.0-5.0-1.19","63eaa9f8f0637c961dcfc277","bdp_rd","Sat Mar 25 2023 21:05:48 GMT-1000 (Hawaii-Aleutian Standard Time)","213325","","null","","","","FIX","","<div class='trialBorder'><div class='vertical-center'><img style='vertical-align:center; align:center' src=img/fixation3.jpg></div></div>","null","","","","","",""
"html-keyboard-response","62","105678","0.0-5.0-2.19","63eaa9f8f0637c961dcfc277","bdp_rd","Sat Mar 25 2023 21:05:48 GMT-1000 (Hawaii-Aleutian Standard Time)","213325","","1270","","","","offer","","<div class='trialBorder'><div class='vertical-center'><img style='vertical-align:center; align:center' src=img/fixation3.jpg></div><div class='cl'><div class='vertical-center'>$64<br>with a<br>50% chance</div></div><div class='cr'><div class='vertical-center'>$2<br>for<br>sure</div></div><div class='respDivL'><div class='vertical-center'>(E)</div></div><div class='respDivR'><div class='vertical-center'>(I)</div></div></div>","E","$2","$64","1","2","64","RISKY"
"html-keyboard-response","63","105936","0.0-5.0-3.19","63eaa9f8f0637c961dcfc277","bdp_rd","Sat Mar 25 2023 21:05:48 GMT-1000 (Hawaii-Aleutian Standard Time)","213325","","null","","","","offerFB","","<div class='trialBorder'><div class='vertical-center'><img style='vertical-align:center; align:center' src=img/fixation3.jpg></div><div class='cl'><div class='vertical-center'><font style='color:orange'>$64<br>with a<br>50% chance</font></div></div><div class='cr'><div class='vertical-center'>$2<br>for<br>sure</div></div><div class='respDivL'><div class='vertical-center'><font style='color:orange'>(E)</font></div></div><div class='respDivR'><div class='vertical-center'>(I)</div></div></div>","null","$2","$64","1","2","64",""
"html-keyboard-response","64","106452","0.0-5.0-1.20","63eaa9f8f0637c961dcfc277","bdp_rd","Sat Mar 25 2023 21:05:48 GMT-1000 (Hawaii-Aleutian Standard Time)","213325","","null","","","","FIX","","<div class='trialBorder'><div class='vertical-center'><img style='vertical-align:center; align:center' src=img/fixation3.jpg></div></div>","null","","","","","",""
"html-keyboard-response","65","109407","0.0-5.0-2.20","63eaa9f8f0637c961dcfc277","bdp_rd","Sat Mar 25 2023 21:05:48 GMT-1000 (Hawaii-Aleutian Standard Time)","213325","","2953","","","","offer","","<div class='trialBorder'><div class='vertical-center'><img style='vertical-align:center; align:center' src=img/fixation3.jpg></div><div class='cl'><div class='vertical-center'>$54<br>with a<br>50% chance</div></div><div class='cr'><div class='vertical-center'>$25<br>for<br>sure</div></div><div class='respDivL'><div class='vertical-center'>(E)</div></div><div class='respDivR'><div class='vertical-center'>(I)</div></div></div>","E","$25","$54","1","25","54","RISKY"
"html-keyboard-response","66","109665","0.0-5.0-3.20","63eaa9f8f0637c961dcfc277","bdp_rd","Sat Mar 25 2023 21:05:48 GMT-1000 (Hawaii-Aleutian Standard Time)","213325","","null","","","","offerFB","","<div class='trialBorder'><div class='vertical-center'><img style='vertical-align:center; align:center' src=img/fixation3.jpg></div><div class='cl'><div class='vertical-center'><font style='color:orange'>$54<br>with a<br>50% chance</font></div></div><div class='cr'><div class='vertical-center'>$25<br>for<br>sure</div></div><div class='respDivL'><div class='vertical-center'><font style='color:orange'>(E)</font></div></div><div class='respDivR'><div class='vertical-center'>(I)</div></div></div>","null","$25","$54","1","25","54",""
"html-keyboard-response","67","110167","0.0-5.0-1.21","63eaa9f8f0637c961dcfc277","bdp_rd","Sat Mar 25 2023 21:05:48 GMT-1000 (Hawaii-Aleutian Standard Time)","213325","","null","","","","FIX","","<div class='trialBorder'><div class='vertical-center'><img style='vertical-align:center; align:center' src=img/fixation3.jpg></div></div>","null","","","","","",""
"html-keyboard-response","68","113265","0.0-5.0-2.21","63eaa9f8f0637c961dcfc277","bdp_rd","Sat Mar 25 2023 21:05:48 GMT-1000 (Hawaii-Aleutian Standard Time)","213325","","3096","","","","offer","","<div class='trialBorder'><div class='vertical-center'><img style='vertical-align:center; align:center' src=img/fixation3.jpg></div><div class='cl'><div class='vertical-center'>$15<br>for<br>sure</div></div><div class='cr'><div class='vertical-center'>$31<br>with a<br>50% chance</div></div><div class='respDivL'><div class='vertical-center'>(E)</div></div><div class='respDivR'><div class='vertical-center'>(I)</div></div></div>","I","$15","$31","0","15","31","RISKY"
"html-keyboard-response","69","113522","0.0-5.0-3.21","63eaa9f8f0637c961dcfc277","bdp_rd","Sat Mar 25 2023 21:05:48 GMT-1000 (Hawaii-Aleutian Standard Time)","213325","","null","","","","offerFB","","<div class='trialBorder'><div class='vertical-center'><img style='vertical-align:center; align:center' src=img/fixation3.jpg></div><div class='cl'><div class='vertical-center'>$15<br>for<br>sure</div></div><div class='cr'><div class='vertical-center'><font style='color:orange'>$31<br>with a<br>50% chance</font></div></div><div class='respDivL'><div class='vertical-center'>(E)</div></div><div class='respDivR'><div class='vertical-center'><font style='color:orange'>(I)</font></div></div></div>","null","$15","$31","0","15","31",""
"html-keyboard-response","70","114032","0.0-5.0-1.22","63eaa9f8f0637c961dcfc277","bdp_rd","Sat Mar 25 2023 21:05:48 GMT-1000 (Hawaii-Aleutian Standard Time)","213325","","null","","","","FIX","","<div class='trialBorder'><div class='vertical-center'><img style='vertical-align:center; align:center' src=img/fixation3.jpg></div></div>","null","","","","","",""
"html-keyboard-response","71","115649","0.0-5.0-2.22","63eaa9f8f0637c961dcfc277","bdp_rd","Sat Mar 25 2023 21:05:48 GMT-1000 (Hawaii-Aleutian Standard Time)","213325","","1615","","","","offer","","<div class='trialBorder'><div class='vertical-center'><img style='vertical-align:center; align:center' src=img/fixation3.jpg></div><div class='cl'><div class='vertical-center'>$69<br>with a<br>50% chance</div></div><div class='cr'><div class='vertical-center'>$58<br>for<br>sure</div></div><div class='respDivL'><div class='vertical-center'>(E)</div></div><div class='respDivR'><div class='vertical-center'>(I)</div></div></div>","I","$58","$69","1","58","69","SURE"
"html-keyboard-response","72","115910","0.0-5.0-3.22","63eaa9f8f0637c961dcfc277","bdp_rd","Sat Mar 25 2023 21:05:48 GMT-1000 (Hawaii-Aleutian Standard Time)","213325","","null","","","","offerFB","","<div class='trialBorder'><div class='vertical-center'><img style='vertical-align:center; align:center' src=img/fixation3.jpg></div><div class='cl'><div class='vertical-center'>$69<br>with a<br>50% chance</div></div><div class='cr'><div class='vertical-center'><font style='color:orange'>$58<br>for<br>sure</font></div></div><div class='respDivL'><div class='vertical-center'>(E)</div></div><div class='respDivR'><div class='vertical-center'><font style='color:orange'>(I)</font></div></div></div>","null","$58","$69","1","58","69",""
"html-keyboard-response","73","116413","0.0-5.0-1.23","63eaa9f8f0637c961dcfc277","bdp_rd","Sat Mar 25 2023 21:05:48 GMT-1000 (Hawaii-Aleutian Standard Time)","213325","","null","","","","FIX","","<div class='trialBorder'><div class='vertical-center'><img style='vertical-align:center; align:center' src=img/fixation3.jpg></div></div>","null","","","","","",""
"html-keyboard-response","74","117595","0.0-5.0-2.23","63eaa9f8f0637c961dcfc277","bdp_rd","Sat Mar 25 2023 21:05:48 GMT-1000 (Hawaii-Aleutian Standard Time)","213325","","1179","","","","offer","","<div class='trialBorder'><div class='vertical-center'><img style='vertical-align:center; align:center' src=img/fixation3.jpg></div><div class='cl'><div class='vertical-center'>$32<br>with a<br>50% chance</div></div><div class='cr'><div class='vertical-center'>$9<br>for<br>sure</div></div><div class='respDivL'><div class='vertical-center'>(E)</div></div><div class='respDivR'><div class='vertical-center'>(I)</div></div></div>","E","$9","$32","1","9","32","RISKY"
"html-keyboard-response","75","117853","0.0-5.0-3.23","63eaa9f8f0637c961dcfc277","bdp_rd","Sat Mar 25 2023 21:05:48 GMT-1000 (Hawaii-Aleutian Standard Time)","213325","","null","","","","offerFB","","<div class='trialBorder'><div class='vertical-center'><img style='vertical-align:center; align:center' src=img/fixation3.jpg></div><div class='cl'><div class='vertical-center'><font style='color:orange'>$32<br>with a<br>50% chance</font></div></div><div class='cr'><div class='vertical-center'>$9<br>for<br>sure</div></div><div class='respDivL'><div class='vertical-center'><font style='color:orange'>(E)</font></div></div><div class='respDivR'><div class='vertical-center'>(I)</div></div></div>","null","$9","$32","1","9","32",""
"html-keyboard-response","76","118362","0.0-5.0-1.24","63eaa9f8f0637c961dcfc277","bdp_rd","Sat Mar 25 2023 21:05:48 GMT-1000 (Hawaii-Aleutian Standard Time)","213325","","null","","","","FIX","","<div class='trialBorder'><div class='vertical-center'><img style='vertical-align:center; align:center' src=img/fixation3.jpg></div></div>","null","","","","","",""
"html-keyboard-response","77","119742","0.0-5.0-2.24","63eaa9f8f0637c961dcfc277","bdp_rd","Sat Mar 25 2023 21:05:48 GMT-1000 (Hawaii-Aleutian Standard Time)","213325","","1378","","","","offer","","<div class='trialBorder'><div class='vertical-center'><img style='vertical-align:center; align:center' src=img/fixation3.jpg></div><div class='cl'><div class='vertical-center'>$5<br>for<br>sure</div></div><div class='cr'><div class='vertical-center'>$50<br>with a<br>50% chance</div></div><div class='respDivL'><div class='vertical-center'>(E)</div></div><div class='respDivR'><div class='vertical-center'>(I)</div></div></div>","I","$5","$50","0","5","50","RISKY"
"html-keyboard-response","78","120009","0.0-5.0-3.24","63eaa9f8f0637c961dcfc277","bdp_rd","Sat Mar 25 2023 21:05:48 GMT-1000 (Hawaii-Aleutian Standard Time)","213325","","null","","","","offerFB","","<div class='trialBorder'><div class='vertical-center'><img style='vertical-align:center; align:center' src=img/fixation3.jpg></div><div class='cl'><div class='vertical-center'>$5<br>for<br>sure</div></div><div class='cr'><div class='vertical-center'><font style='color:orange'>$50<br>with a<br>50% chance</font></div></div><div class='respDivL'><div class='vertical-center'>(E)</div></div><div class='respDivR'><div class='vertical-center'><font style='color:orange'>(I)</font></div></div></div>","null","$5","$50","0","5","50",""
"html-keyboard-response","79","120512","0.0-5.0-1.25","63eaa9f8f0637c961dcfc277","bdp_rd","Sat Mar 25 2023 21:05:48 GMT-1000 (Hawaii-Aleutian Standard Time)","213325","","null","","","","FIX","","<div class='trialBorder'><div class='vertical-center'><img style='vertical-align:center; align:center' src=img/fixation3.jpg></div></div>","null","","","","","",""
"html-keyboard-response","80","122332","0.0-5.0-2.25","63eaa9f8f0637c961dcfc277","bdp_rd","Sat Mar 25 2023 21:05:48 GMT-1000 (Hawaii-Aleutian Standard Time)","213325","","1818","","","","offer","","<div class='trialBorder'><div class='vertical-center'><img style='vertical-align:center; align:center' src=img/fixation3.jpg></div><div class='cl'><div class='vertical-center'>$8<br>for<br>sure</div></div><div class='cr'><div class='vertical-center'>$23<br>with a<br>50% chance</div></div><div class='respDivL'><div class='vertical-center'>(E)</div></div><div class='respDivR'><div class='vertical-center'>(I)</div></div></div>","I","$8","$23","0","8","23","RISKY"
"html-keyboard-response","81","122586","0.0-5.0-3.25","63eaa9f8f0637c961dcfc277","bdp_rd","Sat Mar 25 2023 21:05:48 GMT-1000 (Hawaii-Aleutian Standard Time)","213325","","null","","","","offerFB","","<div class='trialBorder'><div class='vertical-center'><img style='vertical-align:center; align:center' src=img/fixation3.jpg></div><div class='cl'><div class='vertical-center'>$8<br>for<br>sure</div></div><div class='cr'><div class='vertical-center'><font style='color:orange'>$23<br>with a<br>50% chance</font></div></div><div class='respDivL'><div class='vertical-center'>(E)</div></div><div class='respDivR'><div class='vertical-center'><font style='color:orange'>(I)</font></div></div></div>","null","$8","$23","0","8","23",""
"html-keyboard-response","82","123096","0.0-5.0-1.26","63eaa9f8f0637c961dcfc277","bdp_rd","Sat Mar 25 2023 21:05:48 GMT-1000 (Hawaii-Aleutian Standard Time)","213325","","null","","","","FIX","","<div class='trialBorder'><div class='vertical-center'><img style='vertical-align:center; align:center' src=img/fixation3.jpg></div></div>","null","","","","","",""
"html-keyboard-response","83","124754","0.0-5.0-2.26","63eaa9f8f0637c961dcfc277","bdp_rd","Sat Mar 25 2023 21:05:48 GMT-1000 (Hawaii-Aleutian Standard Time)","213325","","1656","","","","offer","","<div class='trialBorder'><div class='vertical-center'><img style='vertical-align:center; align:center' src=img/fixation3.jpg></div><div class='cl'><div class='vertical-center'>$20<br>for<br>sure</div></div><div class='cr'><div class='vertical-center'>$80<br>with a<br>50% chance</div></div><div class='respDivL'><div class='vertical-center'>(E)</div></div><div class='respDivR'><div class='vertical-center'>(I)</div></div></div>","I","$20","$80","0","20","80","RISKY"
"html-keyboard-response","84","125014","0.0-5.0-3.26","63eaa9f8f0637c961dcfc277","bdp_rd","Sat Mar 25 2023 21:05:48 GMT-1000 (Hawaii-Aleutian Standard Time)","213325","","null","","","","offerFB","","<div class='trialBorder'><div class='vertical-center'><img style='vertical-align:center; align:center' src=img/fixation3.jpg></div><div class='cl'><div class='vertical-center'>$20<br>for<br>sure</div></div><div class='cr'><div class='vertical-center'><font style='color:orange'>$80<br>with a<br>50% chance</font></div></div><div class='respDivL'><div class='vertical-center'>(E)</div></div><div class='respDivR'><div class='vertical-center'><font style='color:orange'>(I)</font></div></div></div>","null","$20","$80","0","20","80",""
"html-keyboard-response","85","125517","0.0-5.0-1.27","63eaa9f8f0637c961dcfc277","bdp_rd","Sat Mar 25 2023 21:05:48 GMT-1000 (Hawaii-Aleutian Standard Time)","213325","","null","","","","FIX","","<div class='trialBorder'><div class='vertical-center'><img style='vertical-align:center; align:center' src=img/fixation3.jpg></div></div>","null","","","","","",""
"html-keyboard-response","86","126742","0.0-5.0-2.27","63eaa9f8f0637c961dcfc277","bdp_rd","Sat Mar 25 2023 21:05:48 GMT-1000 (Hawaii-Aleutian Standard Time)","213325","","1222","","","","offer","","<div class='trialBorder'><div class='vertical-center'><img style='vertical-align:center; align:center' src=img/fixation3.jpg></div><div class='cl'><div class='vertical-center'>$71<br>with a<br>50% chance</div></div><div class='cr'><div class='vertical-center'>$7<br>for<br>sure</div></div><div class='respDivL'><div class='vertical-center'>(E)</div></div><div class='respDivR'><div class='vertical-center'>(I)</div></div></div>","E","$7","$71","1","7","71","RISKY"
"html-keyboard-response","87","126999","0.0-5.0-3.27","63eaa9f8f0637c961dcfc277","bdp_rd","Sat Mar 25 2023 21:05:48 GMT-1000 (Hawaii-Aleutian Standard Time)","213325","","null","","","","offerFB","","<div class='trialBorder'><div class='vertical-center'><img style='vertical-align:center; align:center' src=img/fixation3.jpg></div><div class='cl'><div class='vertical-center'><font style='color:orange'>$71<br>with a<br>50% chance</font></div></div><div class='cr'><div class='vertical-center'>$7<br>for<br>sure</div></div><div class='respDivL'><div class='vertical-center'><font style='color:orange'>(E)</font></div></div><div class='respDivR'><div class='vertical-center'>(I)</div></div></div>","null","$7","$71","1","7","71",""
"html-keyboard-response","88","127507","0.0-5.0-1.28","63eaa9f8f0637c961dcfc277","bdp_rd","Sat Mar 25 2023 21:05:48 GMT-1000 (Hawaii-Aleutian Standard Time)","213325","","null","","","","FIX","","<div class='trialBorder'><div class='vertical-center'><img style='vertical-align:center; align:center' src=img/fixation3.jpg></div></div>","null","","","","","",""
"html-keyboard-response","89","128979","0.0-5.0-2.28","63eaa9f8f0637c961dcfc277","bdp_rd","Sat Mar 25 2023 21:05:48 GMT-1000 (Hawaii-Aleutian Standard Time)","213325","","1468","","","","offer","","<div class='trialBorder'><div class='vertical-center'><img style='vertical-align:center; align:center' src=img/fixation3.jpg></div><div class='cl'><div class='vertical-center'>$81<br>with a<br>50% chance</div></div><div class='cr'><div class='vertical-center'>$39<br>for<br>sure</div></div><div class='respDivL'><div class='vertical-center'>(E)</div></div><div class='respDivR'><div class='vertical-center'>(I)</div></div></div>","E","$39","$81","1","39","81","RISKY"
"html-keyboard-response","90","129237","0.0-5.0-3.28","63eaa9f8f0637c961dcfc277","bdp_rd","Sat Mar 25 2023 21:05:48 GMT-1000 (Hawaii-Aleutian Standard Time)","213325","","null","","","","offerFB","","<div class='trialBorder'><div class='vertical-center'><img style='vertical-align:center; align:center' src=img/fixation3.jpg></div><div class='cl'><div class='vertical-center'><font style='color:orange'>$81<br>with a<br>50% chance</font></div></div><div class='cr'><div class='vertical-center'>$39<br>for<br>sure</div></div><div class='respDivL'><div class='vertical-center'><font style='color:orange'>(E)</font></div></div><div class='respDivR'><div class='vertical-center'>(I)</div></div></div>","null","$39","$81","1","39","81",""
"html-keyboard-response","91","129751","0.0-5.0-1.29","63eaa9f8f0637c961dcfc277","bdp_rd","Sat Mar 25 2023 21:05:48 GMT-1000 (Hawaii-Aleutian Standard Time)","213325","","null","","","","FIX","","<div class='trialBorder'><div class='vertical-center'><img style='vertical-align:center; align:center' src=img/fixation3.jpg></div></div>","null","","","","","",""
"html-keyboard-response","92","132159","0.0-5.0-2.29","63eaa9f8f0637c961dcfc277","bdp_rd","Sat Mar 25 2023 21:05:48 GMT-1000 (Hawaii-Aleutian Standard Time)","213325","","2406","","","","offer","","<div class='trialBorder'><div class='vertical-center'><img style='vertical-align:center; align:center' src=img/fixation3.jpg></div><div class='cl'><div class='vertical-center'>$36<br>with a<br>50% chance</div></div><div class='cr'><div class='vertical-center'>$18<br>for<br>sure</div></div><div class='respDivL'><div class='vertical-center'>(E)</div></div><div class='respDivR'><div class='vertical-center'>(I)</div></div></div>","E","$18","$36","1","18","36","RISKY"
"html-keyboard-response","93","132424","0.0-5.0-3.29","63eaa9f8f0637c961dcfc277","bdp_rd","Sat Mar 25 2023 21:05:48 GMT-1000 (Hawaii-Aleutian Standard Time)","213325","","null","","","","offerFB","","<div class='trialBorder'><div class='vertical-center'><img style='vertical-align:center; align:center' src=img/fixation3.jpg></div><div class='cl'><div class='vertical-center'><font style='color:orange'>$36<br>with a<br>50% chance</font></div></div><div class='cr'><div class='vertical-center'>$18<br>for<br>sure</div></div><div class='respDivL'><div class='vertical-center'><font style='color:orange'>(E)</font></div></div><div class='respDivR'><div class='vertical-center'>(I)</div></div></div>","null","$18","$36","1","18","36",""
"html-keyboard-response","94","132934","0.0-5.0-1.30","63eaa9f8f0637c961dcfc277","bdp_rd","Sat Mar 25 2023 21:05:48 GMT-1000 (Hawaii-Aleutian Standard Time)","213325","","null","","","","FIX","","<div class='trialBorder'><div class='vertical-center'><img style='vertical-align:center; align:center' src=img/fixation3.jpg></div></div>","null","","","","","",""
"html-keyboard-response","95","134887","0.0-5.0-2.30","63eaa9f8f0637c961dcfc277","bdp_rd","Sat Mar 25 2023 21:05:48 GMT-1000 (Hawaii-Aleutian Standard Time)","213325","","1951","","","","offer","","<div class='trialBorder'><div class='vertical-center'><img style='vertical-align:center; align:center' src=img/fixation3.jpg></div><div class='cl'><div class='vertical-center'>$35<br>with a<br>50% chance</div></div><div class='cr'><div class='vertical-center'>$12<br>for<br>sure</div></div><div class='respDivL'><div class='vertical-center'>(E)</div></div><div class='respDivR'><div class='vertical-center'>(I)</div></div></div>","E","$12","$35","1","12","35","RISKY"
"html-keyboard-response","96","135144","0.0-5.0-3.30","63eaa9f8f0637c961dcfc277","bdp_rd","Sat Mar 25 2023 21:05:48 GMT-1000 (Hawaii-Aleutian Standard Time)","213325","","null","","","","offerFB","","<div class='trialBorder'><div class='vertical-center'><img style='vertical-align:center; align:center' src=img/fixation3.jpg></div><div class='cl'><div class='vertical-center'><font style='color:orange'>$35<br>with a<br>50% chance</font></div></div><div class='cr'><div class='vertical-center'>$12<br>for<br>sure</div></div><div class='respDivL'><div class='vertical-center'><font style='color:orange'>(E)</font></div></div><div class='respDivR'><div class='vertical-center'>(I)</div></div></div>","null","$12","$35","1","12","35",""
"html-keyboard-response","97","135653","0.0-5.0-1.31","63eaa9f8f0637c961dcfc277","bdp_rd","Sat Mar 25 2023 21:05:48 GMT-1000 (Hawaii-Aleutian Standard Time)","213325","","null","","","","FIX","","<div class='trialBorder'><div class='vertical-center'><img style='vertical-align:center; align:center' src=img/fixation3.jpg></div></div>","null","","","","","",""
"html-keyboard-response","98","136871","0.0-5.0-2.31","63eaa9f8f0637c961dcfc277","bdp_rd","Sat Mar 25 2023 21:05:48 GMT-1000 (Hawaii-Aleutian Standard Time)","213325","","1215","","","","offer","","<div class='trialBorder'><div class='vertical-center'><img style='vertical-align:center; align:center' src=img/fixation3.jpg></div><div class='cl'><div class='vertical-center'>$18<br>with a<br>50% chance</div></div><div class='cr'><div class='vertical-center'>$9<br>for<br>sure</div></div><div class='respDivL'><div class='vertical-center'>(E)</div></div><div class='respDivR'><div class='vertical-center'>(I)</div></div></div>","I","$9","$18","1","9","18","SURE"
"html-keyboard-response","99","137128","0.0-5.0-3.31","63eaa9f8f0637c961dcfc277","bdp_rd","Sat Mar 25 2023 21:05:48 GMT-1000 (Hawaii-Aleutian Standard Time)","213325","","null","","","","offerFB","","<div class='trialBorder'><div class='vertical-center'><img style='vertical-align:center; align:center' src=img/fixation3.jpg></div><div class='cl'><div class='vertical-center'>$18<br>with a<br>50% chance</div></div><div class='cr'><div class='vertical-center'><font style='color:orange'>$9<br>for<br>sure</font></div></div><div class='respDivL'><div class='vertical-center'>(E)</div></div><div class='respDivR'><div class='vertical-center'><font style='color:orange'>(I)</font></div></div></div>","null","$9","$18","1","9","18",""
"html-keyboard-response","100","137638","0.0-5.0-1.32","63eaa9f8f0637c961dcfc277","bdp_rd","Sat Mar 25 2023 21:05:48 GMT-1000 (Hawaii-Aleutian Standard Time)","213325","","null","","","","FIX","","<div class='trialBorder'><div class='vertical-center'><img style='vertical-align:center; align:center' src=img/fixation3.jpg></div></div>","null","","","","","",""
"html-keyboard-response","101","139877","0.0-5.0-2.32","63eaa9f8f0637c961dcfc277","bdp_rd","Sat Mar 25 2023 21:05:48 GMT-1000 (Hawaii-Aleutian Standard Time)","213325","","2237","","","","offer","","<div class='trialBorder'><div class='vertical-center'><img style='vertical-align:center; align:center' src=img/fixation3.jpg></div><div class='cl'><div class='vertical-center'>$4<br>for<br>sure</div></div><div class='cr'><div class='vertical-center'>$11<br>with a<br>50% chance</div></div><div class='respDivL'><div class='vertical-center'>(E)</div></div><div class='respDivR'><div class='vertical-center'>(I)</div></div></div>","I","$4","$11","0","4","11","RISKY"
"html-keyboard-response","102","140134","0.0-5.0-3.32","63eaa9f8f0637c961dcfc277","bdp_rd","Sat Mar 25 2023 21:05:48 GMT-1000 (Hawaii-Aleutian Standard Time)","213325","","null","","","","offerFB","","<div class='trialBorder'><div class='vertical-center'><img style='vertical-align:center; align:center' src=img/fixation3.jpg></div><div class='cl'><div class='vertical-center'>$4<br>for<br>sure</div></div><div class='cr'><div class='vertical-center'><font style='color:orange'>$11<br>with a<br>50% chance</font></div></div><div class='respDivL'><div class='vertical-center'>(E)</div></div><div class='respDivR'><div class='vertical-center'><font style='color:orange'>(I)</font></div></div></div>","null","$4","$11","0","4","11",""
"html-keyboard-response","103","140652","0.0-5.0-1.33","63eaa9f8f0637c961dcfc277","bdp_rd","Sat Mar 25 2023 21:05:48 GMT-1000 (Hawaii-Aleutian Standard Time)","213325","","null","","","","FIX","","<div class='trialBorder'><div class='vertical-center'><img style='vertical-align:center; align:center' src=img/fixation3.jpg></div></div>","null","","","","","",""
"html-keyboard-response","104","141903","0.0-5.0-2.33","63eaa9f8f0637c961dcfc277","bdp_rd","Sat Mar 25 2023 21:05:48 GMT-1000 (Hawaii-Aleutian Standard Time)","213325","","1249","","","","offer","","<div class='trialBorder'><div class='vertical-center'><img style='vertical-align:center; align:center' src=img/fixation3.jpg></div><div class='cl'><div class='vertical-center'>$65<br>with a<br>50% chance</div></div><div class='cr'><div class='vertical-center'>$46<br>for<br>sure</div></div><div class='respDivL'><div class='vertical-center'>(E)</div></div><div class='respDivR'><div class='vertical-center'>(I)</div></div></div>","E","$46","$65","1","46","65","RISKY"
"html-keyboard-response","105","142160","0.0-5.0-3.33","63eaa9f8f0637c961dcfc277","bdp_rd","Sat Mar 25 2023 21:05:48 GMT-1000 (Hawaii-Aleutian Standard Time)","213325","","null","","","","offerFB","","<div class='trialBorder'><div class='vertical-center'><img style='vertical-align:center; align:center' src=img/fixation3.jpg></div><div class='cl'><div class='vertical-center'><font style='color:orange'>$65<br>with a<br>50% chance</font></div></div><div class='cr'><div class='vertical-center'>$46<br>for<br>sure</div></div><div class='respDivL'><div class='vertical-center'><font style='color:orange'>(E)</font></div></div><div class='respDivR'><div class='vertical-center'>(I)</div></div></div>","null","$46","$65","1","46","65",""
"html-keyboard-response","106","142664","0.0-5.0-1.34","63eaa9f8f0637c961dcfc277","bdp_rd","Sat Mar 25 2023 21:05:48 GMT-1000 (Hawaii-Aleutian Standard Time)","213325","","null","","","","FIX","","<div class='trialBorder'><div class='vertical-center'><img style='vertical-align:center; align:center' src=img/fixation3.jpg></div></div>","null","","","","","",""
"html-keyboard-response","107","144117","0.0-5.0-2.34","63eaa9f8f0637c961dcfc277","bdp_rd","Sat Mar 25 2023 21:05:48 GMT-1000 (Hawaii-Aleutian Standard Time)","213325","","1450","","","","offer","","<div class='trialBorder'><div class='vertical-center'><img style='vertical-align:center; align:center' src=img/fixation3.jpg></div><div class='cl'><div class='vertical-center'>$21<br>with a<br>50% chance</div></div><div class='cr'><div class='vertical-center'>$2<br>for<br>sure</div></div><div class='respDivL'><div class='vertical-center'>(E)</div></div><div class='respDivR'><div class='vertical-center'>(I)</div></div></div>","E","$2","$21","1","2","21","RISKY"
"html-keyboard-response","108","144370","0.0-5.0-3.34","63eaa9f8f0637c961dcfc277","bdp_rd","Sat Mar 25 2023 21:05:48 GMT-1000 (Hawaii-Aleutian Standard Time)","213325","","null","","","","offerFB","","<div class='trialBorder'><div class='vertical-center'><img style='vertical-align:center; align:center' src=img/fixation3.jpg></div><div class='cl'><div class='vertical-center'><font style='color:orange'>$21<br>with a<br>50% chance</font></div></div><div class='cr'><div class='vertical-center'>$2<br>for<br>sure</div></div><div class='respDivL'><div class='vertical-center'><font style='color:orange'>(E)</font></div></div><div class='respDivR'><div class='vertical-center'>(I)</div></div></div>","null","$2","$21","1","2","21",""
"html-keyboard-response","109","144877","0.0-5.0-1.35","63eaa9f8f0637c961dcfc277","bdp_rd","Sat Mar 25 2023 21:05:48 GMT-1000 (Hawaii-Aleutian Standard Time)","213325","","null","","","","FIX","","<div class='trialBorder'><div class='vertical-center'><img style='vertical-align:center; align:center' src=img/fixation3.jpg></div></div>","null","","","","","",""
"html-keyboard-response","110","147412","0.0-5.0-2.35","63eaa9f8f0637c961dcfc277","bdp_rd","Sat Mar 25 2023 21:05:48 GMT-1000 (Hawaii-Aleutian Standard Time)","213325","","2533","","","","offer","","<div class='trialBorder'><div class='vertical-center'><img style='vertical-align:center; align:center' src=img/fixation3.jpg></div><div class='cl'><div class='vertical-center'>$11<br>for<br>sure</div></div><div class='cr'><div class='vertical-center'>$26<br>with a<br>50% chance</div></div><div class='respDivL'><div class='vertical-center'>(E)</div></div><div class='respDivR'><div class='vertical-center'>(I)</div></div></div>","I","$11","$26","0","11","26","RISKY"
"html-keyboard-response","111","147665","0.0-5.0-3.35","63eaa9f8f0637c961dcfc277","bdp_rd","Sat Mar 25 2023 21:05:48 GMT-1000 (Hawaii-Aleutian Standard Time)","213325","","null","","","","offerFB","","<div class='trialBorder'><div class='vertical-center'><img style='vertical-align:center; align:center' src=img/fixation3.jpg></div><div class='cl'><div class='vertical-center'>$11<br>for<br>sure</div></div><div class='cr'><div class='vertical-center'><font style='color:orange'>$26<br>with a<br>50% chance</font></div></div><div class='respDivL'><div class='vertical-center'>(E)</div></div><div class='respDivR'><div class='vertical-center'><font style='color:orange'>(I)</font></div></div></div>","null","$11","$26","0","11","26",""
"html-keyboard-response","112","148175","0.0-5.0-1.36","63eaa9f8f0637c961dcfc277","bdp_rd","Sat Mar 25 2023 21:05:48 GMT-1000 (Hawaii-Aleutian Standard Time)","213325","","null","","","","FIX","","<div class='trialBorder'><div class='vertical-center'><img style='vertical-align:center; align:center' src=img/fixation3.jpg></div></div>","null","","","","","",""
"html-keyboard-response","113","150873","0.0-5.0-2.36","63eaa9f8f0637c961dcfc277","bdp_rd","Sat Mar 25 2023 21:05:48 GMT-1000 (Hawaii-Aleutian Standard Time)","213325","","2696","","","","offer","","<div class='trialBorder'><div class='vertical-center'><img style='vertical-align:center; align:center' src=img/fixation3.jpg></div><div class='cl'><div class='vertical-center'>$16<br>for<br>sure</div></div><div class='cr'><div class='vertical-center'>$28<br>with a<br>50% chance</div></div><div class='respDivL'><div class='vertical-center'>(E)</div></div><div class='respDivR'><div class='vertical-center'>(I)</div></div></div>","I","$16","$28","0","16","28","RISKY"
"html-keyboard-response","114","151128","0.0-5.0-3.36","63eaa9f8f0637c961dcfc277","bdp_rd","Sat Mar 25 2023 21:05:48 GMT-1000 (Hawaii-Aleutian Standard Time)","213325","","null","","","","offerFB","","<div class='trialBorder'><div class='vertical-center'><img style='vertical-align:center; align:center' src=img/fixation3.jpg></div><div class='cl'><div class='vertical-center'>$16<br>for<br>sure</div></div><div class='cr'><div class='vertical-center'><font style='color:orange'>$28<br>with a<br>50% chance</font></div></div><div class='respDivL'><div class='vertical-center'>(E)</div></div><div class='respDivR'><div class='vertical-center'><font style='color:orange'>(I)</font></div></div></div>","null","$16","$28","0","16","28",""
"html-keyboard-response","115","151630","0.0-5.0-1.37","63eaa9f8f0637c961dcfc277","bdp_rd","Sat Mar 25 2023 21:05:48 GMT-1000 (Hawaii-Aleutian Standard Time)","213325","","null","","","","FIX","","<div class='trialBorder'><div class='vertical-center'><img style='vertical-align:center; align:center' src=img/fixation3.jpg></div></div>","null","","","","","",""
"html-keyboard-response","116","153184","0.0-5.0-2.37","63eaa9f8f0637c961dcfc277","bdp_rd","Sat Mar 25 2023 21:05:48 GMT-1000 (Hawaii-Aleutian Standard Time)","213325","","1551","","","","offer","","<div class='trialBorder'><div class='vertical-center'><img style='vertical-align:center; align:center' src=img/fixation3.jpg></div><div class='cl'><div class='vertical-center'>$47<br>with a<br>50% chance</div></div><div class='cr'><div class='vertical-center'>$27<br>for<br>sure</div></div><div class='respDivL'><div class='vertical-center'>(E)</div></div><div class='respDivR'><div class='vertical-center'>(I)</div></div></div>","E","$27","$47","1","27","47","RISKY"
"html-keyboard-response","117","153445","0.0-5.0-3.37","63eaa9f8f0637c961dcfc277","bdp_rd","Sat Mar 25 2023 21:05:48 GMT-1000 (Hawaii-Aleutian Standard Time)","213325","","null","","","","offerFB","","<div class='trialBorder'><div class='vertical-center'><img style='vertical-align:center; align:center' src=img/fixation3.jpg></div><div class='cl'><div class='vertical-center'><font style='color:orange'>$47<br>with a<br>50% chance</font></div></div><div class='cr'><div class='vertical-center'>$27<br>for<br>sure</div></div><div class='respDivL'><div class='vertical-center'><font style='color:orange'>(E)</font></div></div><div class='respDivR'><div class='vertical-center'>(I)</div></div></div>","null","$27","$47","1","27","47",""
"html-keyboard-response","118","153947","0.0-5.0-1.38","63eaa9f8f0637c961dcfc277","bdp_rd","Sat Mar 25 2023 21:05:48 GMT-1000 (Hawaii-Aleutian Standard Time)","213325","","null","","","","FIX","","<div class='trialBorder'><div class='vertical-center'><img style='vertical-align:center; align:center' src=img/fixation3.jpg></div></div>","null","","","","","",""
"html-keyboard-response","119","156235","0.0-5.0-2.38","63eaa9f8f0637c961dcfc277","bdp_rd","Sat Mar 25 2023 21:05:48 GMT-1000 (Hawaii-Aleutian Standard Time)","213325","","2285","","","","offer","","<div class='trialBorder'><div class='vertical-center'><img style='vertical-align:center; align:center' src=img/fixation3.jpg></div><div class='cl'><div class='vertical-center'>$6<br>for<br>sure</div></div><div class='cr'><div class='vertical-center'>$15<br>with a<br>50% chance</div></div><div class='respDivL'><div class='vertical-center'>(E)</div></div><div class='respDivR'><div class='vertical-center'>(I)</div></div></div>","I","$6","$15","0","6","15","RISKY"
"html-keyboard-response","120","156504","0.0-5.0-3.38","63eaa9f8f0637c961dcfc277","bdp_rd","Sat Mar 25 2023 21:05:48 GMT-1000 (Hawaii-Aleutian Standard Time)","213325","","null","","","","offerFB","","<div class='trialBorder'><div class='vertical-center'><img style='vertical-align:center; align:center' src=img/fixation3.jpg></div><div class='cl'><div class='vertical-center'>$6<br>for<br>sure</div></div><div class='cr'><div class='vertical-center'><font style='color:orange'>$15<br>with a<br>50% chance</font></div></div><div class='respDivL'><div class='vertical-center'>(E)</div></div><div class='respDivR'><div class='vertical-center'><font style='color:orange'>(I)</font></div></div></div>","null","$6","$15","0","6","15",""
"html-keyboard-response","121","157008","0.0-5.0-1.39","63eaa9f8f0637c961dcfc277","bdp_rd","Sat Mar 25 2023 21:05:48 GMT-1000 (Hawaii-Aleutian Standard Time)","213325","","null","","","","FIX","","<div class='trialBorder'><div class='vertical-center'><img style='vertical-align:center; align:center' src=img/fixation3.jpg></div></div>","null","","","","","",""
"html-keyboard-response","122","159882","0.0-5.0-2.39","63eaa9f8f0637c961dcfc277","bdp_rd","Sat Mar 25 2023 21:05:48 GMT-1000 (Hawaii-Aleutian Standard Time)","213325","","2872","","","","offer","","<div class='trialBorder'><div class='vertical-center'><img style='vertical-align:center; align:center' src=img/fixation3.jpg></div><div class='cl'><div class='vertical-center'>$22<br>for<br>sure</div></div><div class='cr'><div class='vertical-center'>$42<br>with a<br>50% chance</div></div><div class='respDivL'><div class='vertical-center'>(E)</div></div><div class='respDivR'><div class='vertical-center'>(I)</div></div></div>","I","$22","$42","0","22","42","RISKY"
"html-keyboard-response","123","160138","0.0-5.0-3.39","63eaa9f8f0637c961dcfc277","bdp_rd","Sat Mar 25 2023 21:05:48 GMT-1000 (Hawaii-Aleutian Standard Time)","213325","","null","","","","offerFB","","<div class='trialBorder'><div class='vertical-center'><img style='vertical-align:center; align:center' src=img/fixation3.jpg></div><div class='cl'><div class='vertical-center'>$22<br>for<br>sure</div></div><div class='cr'><div class='vertical-center'><font style='color:orange'>$42<br>with a<br>50% chance</font></div></div><div class='respDivL'><div class='vertical-center'>(E)</div></div><div class='respDivR'><div class='vertical-center'><font style='color:orange'>(I)</font></div></div></div>","null","$22","$42","0","22","42",""
"html-keyboard-response","124","160641","0.0-5.0-1.40","63eaa9f8f0637c961dcfc277","bdp_rd","Sat Mar 25 2023 21:05:48 GMT-1000 (Hawaii-Aleutian Standard Time)","213325","","null","","","","FIX","","<div class='trialBorder'><div class='vertical-center'><img style='vertical-align:center; align:center' src=img/fixation3.jpg></div></div>","null","","","","","",""
"html-keyboard-response","125","163568","0.0-5.0-2.40","63eaa9f8f0637c961dcfc277","bdp_rd","Sat Mar 25 2023 21:05:48 GMT-1000 (Hawaii-Aleutian Standard Time)","213325","","2924","","","","offer","","<div class='trialBorder'><div class='vertical-center'><img style='vertical-align:center; align:center' src=img/fixation3.jpg></div><div class='cl'><div class='vertical-center'>$29<br>with a<br>50% chance</div></div><div class='cr'><div class='vertical-center'>$14<br>for<br>sure</div></div><div class='respDivL'><div class='vertical-center'>(E)</div></div><div class='respDivR'><div class='vertical-center'>(I)</div></div></div>","E","$14","$29","1","14","29","RISKY"
"html-keyboard-response","126","163827","0.0-5.0-3.40","63eaa9f8f0637c961dcfc277","bdp_rd","Sat Mar 25 2023 21:05:48 GMT-1000 (Hawaii-Aleutian Standard Time)","213325","","null","","","","offerFB","","<div class='trialBorder'><div class='vertical-center'><img style='vertical-align:center; align:center' src=img/fixation3.jpg></div><div class='cl'><div class='vertical-center'><font style='color:orange'>$29<br>with a<br>50% chance</font></div></div><div class='cr'><div class='vertical-center'>$14<br>for<br>sure</div></div><div class='respDivL'><div class='vertical-center'><font style='color:orange'>(E)</font></div></div><div class='respDivR'><div class='vertical-center'>(I)</div></div></div>","null","$14","$29","1","14","29",""
"html-keyboard-response","127","164337","0.0-5.0-1.41","63eaa9f8f0637c961dcfc277","bdp_rd","Sat Mar 25 2023 21:05:48 GMT-1000 (Hawaii-Aleutian Standard Time)","213325","","null","","","","FIX","","<div class='trialBorder'><div class='vertical-center'><img style='vertical-align:center; align:center' src=img/fixation3.jpg></div></div>","null","","","","","",""
"html-keyboard-response","128","166012","0.0-5.0-2.41","63eaa9f8f0637c961dcfc277","bdp_rd","Sat Mar 25 2023 21:05:48 GMT-1000 (Hawaii-Aleutian Standard Time)","213325","","1674","","","","offer","","<div class='trialBorder'><div class='vertical-center'><img style='vertical-align:center; align:center' src=img/fixation3.jpg></div><div class='cl'><div class='vertical-center'>$46<br>with a<br>50% chance</div></div><div class='cr'><div class='vertical-center'>$29<br>for<br>sure</div></div><div class='respDivL'><div class='vertical-center'>(E)</div></div><div class='respDivR'><div class='vertical-center'>(I)</div></div></div>","E","$29","$46","1","29","46","RISKY"
"html-keyboard-response","129","166269","0.0-5.0-3.41","63eaa9f8f0637c961dcfc277","bdp_rd","Sat Mar 25 2023 21:05:48 GMT-1000 (Hawaii-Aleutian Standard Time)","213325","","null","","","","offerFB","","<div class='trialBorder'><div class='vertical-center'><img style='vertical-align:center; align:center' src=img/fixation3.jpg></div><div class='cl'><div class='vertical-center'><font style='color:orange'>$46<br>with a<br>50% chance</font></div></div><div class='cr'><div class='vertical-center'>$29<br>for<br>sure</div></div><div class='respDivL'><div class='vertical-center'><font style='color:orange'>(E)</font></div></div><div class='respDivR'><div class='vertical-center'>(I)</div></div></div>","null","$29","$46","1","29","46",""
"html-keyboard-response","130","166772","0.0-5.0-1.42","63eaa9f8f0637c961dcfc277","bdp_rd","Sat Mar 25 2023 21:05:48 GMT-1000 (Hawaii-Aleutian Standard Time)","213325","","null","","","","FIX","","<div class='trialBorder'><div class='vertical-center'><img style='vertical-align:center; align:center' src=img/fixation3.jpg></div></div>","null","","","","","",""
"html-keyboard-response","131","167928","0.0-5.0-2.42","63eaa9f8f0637c961dcfc277","bdp_rd","Sat Mar 25 2023 21:05:48 GMT-1000 (Hawaii-Aleutian Standard Time)","213325","","1154","","","","offer","","<div class='trialBorder'><div class='vertical-center'><img style='vertical-align:center; align:center' src=img/fixation3.jpg></div><div class='cl'><div class='vertical-center'>$73<br>with a<br>50% chance</div></div><div class='cr'><div class='vertical-center'>$42<br>for<br>sure</div></div><div class='respDivL'><div class='vertical-center'>(E)</div></div><div class='respDivR'><div class='vertical-center'>(I)</div></div></div>","E","$42","$73","1","42","73","RISKY"
"html-keyboard-response","132","168193","0.0-5.0-3.42","63eaa9f8f0637c961dcfc277","bdp_rd","Sat Mar 25 2023 21:05:48 GMT-1000 (Hawaii-Aleutian Standard Time)","213325","","null","","","","offerFB","","<div class='trialBorder'><div class='vertical-center'><img style='vertical-align:center; align:center' src=img/fixation3.jpg></div><div class='cl'><div class='vertical-center'><font style='color:orange'>$73<br>with a<br>50% chance</font></div></div><div class='cr'><div class='vertical-center'>$42<br>for<br>sure</div></div><div class='respDivL'><div class='vertical-center'><font style='color:orange'>(E)</font></div></div><div class='respDivR'><div class='vertical-center'>(I)</div></div></div>","null","$42","$73","1","42","73",""
"html-keyboard-response","133","168702","0.0-5.0-1.43","63eaa9f8f0637c961dcfc277","bdp_rd","Sat Mar 25 2023 21:05:48 GMT-1000 (Hawaii-Aleutian Standard Time)","213325","","null","","","","FIX","","<div class='trialBorder'><div class='vertical-center'><img style='vertical-align:center; align:center' src=img/fixation3.jpg></div></div>","null","","","","","",""
"html-keyboard-response","134","170378","0.0-5.0-2.43","63eaa9f8f0637c961dcfc277","bdp_rd","Sat Mar 25 2023 21:05:48 GMT-1000 (Hawaii-Aleutian Standard Time)","213325","","1673","","","","offer","","<div class='trialBorder'><div class='vertical-center'><img style='vertical-align:center; align:center' src=img/fixation3.jpg></div><div class='cl'><div class='vertical-center'>$15<br>for<br>sure</div></div><div class='cr'><div class='vertical-center'>$34<br>with a<br>50% chance</div></div><div class='respDivL'><div class='vertical-center'>(E)</div></div><div class='respDivR'><div class='vertical-center'>(I)</div></div></div>","I","$15","$34","0","15","34","RISKY"
"html-keyboard-response","135","170635","0.0-5.0-3.43","63eaa9f8f0637c961dcfc277","bdp_rd","Sat Mar 25 2023 21:05:48 GMT-1000 (Hawaii-Aleutian Standard Time)","213325","","null","","","","offerFB","","<div class='trialBorder'><div class='vertical-center'><img style='vertical-align:center; align:center' src=img/fixation3.jpg></div><div class='cl'><div class='vertical-center'>$15<br>for<br>sure</div></div><div class='cr'><div class='vertical-center'><font style='color:orange'>$34<br>with a<br>50% chance</font></div></div><div class='respDivL'><div class='vertical-center'>(E)</div></div><div class='respDivR'><div class='vertical-center'><font style='color:orange'>(I)</font></div></div></div>","null","$15","$34","0","15","34",""
"html-keyboard-response","136","171139","0.0-5.0-1.44","63eaa9f8f0637c961dcfc277","bdp_rd","Sat Mar 25 2023 21:05:48 GMT-1000 (Hawaii-Aleutian Standard Time)","213325","","null","","","","FIX","","<div class='trialBorder'><div class='vertical-center'><img style='vertical-align:center; align:center' src=img/fixation3.jpg></div></div>","null","","","","","",""
"html-keyboard-response","137","172279","0.0-5.0-2.44","63eaa9f8f0637c961dcfc277","bdp_rd","Sat Mar 25 2023 21:05:48 GMT-1000 (Hawaii-Aleutian Standard Time)","213325","","1138","","","","offer","","<div class='trialBorder'><div class='vertical-center'><img style='vertical-align:center; align:center' src=img/fixation3.jpg></div><div class='cl'><div class='vertical-center'>$45<br>with a<br>50% chance</div></div><div class='cr'><div class='vertical-center'>$8<br>for<br>sure</div></div><div class='respDivL'><div class='vertical-center'>(E)</div></div><div class='respDivR'><div class='vertical-center'>(I)</div></div></div>","E","$8","$45","1","8","45","RISKY"
"html-keyboard-response","138","172533","0.0-5.0-3.44","63eaa9f8f0637c961dcfc277","bdp_rd","Sat Mar 25 2023 21:05:48 GMT-1000 (Hawaii-Aleutian Standard Time)","213325","","null","","","","offerFB","","<div class='trialBorder'><div class='vertical-center'><img style='vertical-align:center; align:center' src=img/fixation3.jpg></div><div class='cl'><div class='vertical-center'><font style='color:orange'>$45<br>with a<br>50% chance</font></div></div><div class='cr'><div class='vertical-center'>$8<br>for<br>sure</div></div><div class='respDivL'><div class='vertical-center'><font style='color:orange'>(E)</font></div></div><div class='respDivR'><div class='vertical-center'>(I)</div></div></div>","null","$8","$45","1","8","45",""
"html-keyboard-response","139","173037","0.0-5.0-1.45","63eaa9f8f0637c961dcfc277","bdp_rd","Sat Mar 25 2023 21:05:48 GMT-1000 (Hawaii-Aleutian Standard Time)","213325","","null","","","","FIX","","<div class='trialBorder'><div class='vertical-center'><img style='vertical-align:center; align:center' src=img/fixation3.jpg></div></div>","null","","","","","",""
"html-keyboard-response","140","174223","0.0-5.0-2.45","63eaa9f8f0637c961dcfc277","bdp_rd","Sat Mar 25 2023 21:05:48 GMT-1000 (Hawaii-Aleutian Standard Time)","213325","","1183","","","","offer","","<div class='trialBorder'><div class='vertical-center'><img style='vertical-align:center; align:center' src=img/fixation3.jpg></div><div class='cl'><div class='vertical-center'>$100<br>with a<br>50% chance</div></div><div class='cr'><div class='vertical-center'>$63<br>for<br>sure</div></div><div class='respDivL'><div class='vertical-center'>(E)</div></div><div class='respDivR'><div class='vertical-center'>(I)</div></div></div>","E","$63","$100","1","63","10","RISKY"
"html-keyboard-response","141","174486","0.0-5.0-3.45","63eaa9f8f0637c961dcfc277","bdp_rd","Sat Mar 25 2023 21:05:48 GMT-1000 (Hawaii-Aleutian Standard Time)","213325","","null","","","","offerFB","","<div class='trialBorder'><div class='vertical-center'><img style='vertical-align:center; align:center' src=img/fixation3.jpg></div><div class='cl'><div class='vertical-center'><font style='color:orange'>$100<br>with a<br>50% chance</font></div></div><div class='cr'><div class='vertical-center'>$63<br>for<br>sure</div></div><div class='respDivL'><div class='vertical-center'><font style='color:orange'>(E)</font></div></div><div class='respDivR'><div class='vertical-center'>(I)</div></div></div>","null","$63","$100","1","63","10",""
"html-keyboard-response","142","174989","0.0-5.0-1.46","63eaa9f8f0637c961dcfc277","bdp_rd","Sat Mar 25 2023 21:05:48 GMT-1000 (Hawaii-Aleutian Standard Time)","213325","","null","","","","FIX","","<div class='trialBorder'><div class='vertical-center'><img style='vertical-align:center; align:center' src=img/fixation3.jpg></div></div>","null","","","","","",""
"html-keyboard-response","143","176644","0.0-5.0-2.46","63eaa9f8f0637c961dcfc277","bdp_rd","Sat Mar 25 2023 21:05:48 GMT-1000 (Hawaii-Aleutian Standard Time)","213325","","1653","","","","offer","","<div class='trialBorder'><div class='vertical-center'><img style='vertical-align:center; align:center' src=img/fixation3.jpg></div><div class='cl'><div class='vertical-center'>$33<br>for<br>sure</div></div><div class='cr'><div class='vertical-center'>$66<br>with a<br>50% chance</div></div><div class='respDivL'><div class='vertical-center'>(E)</div></div><div class='respDivR'><div class='vertical-center'>(I)</div></div></div>","I","$33","$66","0","33","66","RISKY"
"html-keyboard-response","144","176904","0.0-5.0-3.46","63eaa9f8f0637c961dcfc277","bdp_rd","Sat Mar 25 2023 21:05:48 GMT-1000 (Hawaii-Aleutian Standard Time)","213325","","null","","","","offerFB","","<div class='trialBorder'><div class='vertical-center'><img style='vertical-align:center; align:center' src=img/fixation3.jpg></div><div class='cl'><div class='vertical-center'>$33<br>for<br>sure</div></div><div class='cr'><div class='vertical-center'><font style='color:orange'>$66<br>with a<br>50% chance</font></div></div><div class='respDivL'><div class='vertical-center'>(E)</div></div><div class='respDivR'><div class='vertical-center'><font style='color:orange'>(I)</font></div></div></div>","null","$33","$66","0","33","66",""
"html-keyboard-response","145","177407","0.0-5.0-1.47","63eaa9f8f0637c961dcfc277","bdp_rd","Sat Mar 25 2023 21:05:48 GMT-1000 (Hawaii-Aleutian Standard Time)","213325","","null","","","","FIX","","<div class='trialBorder'><div class='vertical-center'><img style='vertical-align:center; align:center' src=img/fixation3.jpg></div></div>","null","","","","","",""
"html-keyboard-response","146","180702","0.0-5.0-2.47","63eaa9f8f0637c961dcfc277","bdp_rd","Sat Mar 25 2023 21:05:48 GMT-1000 (Hawaii-Aleutian Standard Time)","213325","","3293","","","","offer","","<div class='trialBorder'><div class='vertical-center'><img style='vertical-align:center; align:center' src=img/fixation3.jpg></div><div class='cl'><div class='vertical-center'>$12<br>for<br>sure</div></div><div class='cr'><div class='vertical-center'>$27<br>with a<br>50% chance</div></div><div class='respDivL'><div class='vertical-center'>(E)</div></div><div class='respDivR'><div class='vertical-center'>(I)</div></div></div>","I","$12","$27","0","12","27","RISKY"
"html-keyboard-response","147","180964","0.0-5.0-3.47","63eaa9f8f0637c961dcfc277","bdp_rd","Sat Mar 25 2023 21:05:48 GMT-1000 (Hawaii-Aleutian Standard Time)","213325","","null","","","","offerFB","","<div class='trialBorder'><div class='vertical-center'><img style='vertical-align:center; align:center' src=img/fixation3.jpg></div><div class='cl'><div class='vertical-center'>$12<br>for<br>sure</div></div><div class='cr'><div class='vertical-center'><font style='color:orange'>$27<br>with a<br>50% chance</font></div></div><div class='respDivL'><div class='vertical-center'>(E)</div></div><div class='respDivR'><div class='vertical-center'><font style='color:orange'>(I)</font></div></div></div>","null","$12","$27","0","12","27",""
"html-keyboard-response","148","181472","0.0-5.0-1.48","63eaa9f8f0637c961dcfc277","bdp_rd","Sat Mar 25 2023 21:05:48 GMT-1000 (Hawaii-Aleutian Standard Time)","213325","","null","","","","FIX","","<div class='trialBorder'><div class='vertical-center'><img style='vertical-align:center; align:center' src=img/fixation3.jpg></div></div>","null","","","","","",""
"html-keyboard-response","149","182438","0.0-5.0-2.48","63eaa9f8f0637c961dcfc277","bdp_rd","Sat Mar 25 2023 21:05:48 GMT-1000 (Hawaii-Aleutian Standard Time)","213325","","963","","","","offer","","<div class='trialBorder'><div class='vertical-center'><img style='vertical-align:center; align:center' src=img/fixation3.jpg></div><div class='cl'><div class='vertical-center'>$95<br>with a<br>50% chance</div></div><div class='cr'><div class='vertical-center'>$40<br>for<br>sure</div></div><div class='respDivL'><div class='vertical-center'>(E)</div></div><div class='respDivR'><div class='vertical-center'>(I)</div></div></div>","E","$40","$95","1","40","95","RISKY"
"html-keyboard-response","150","182697","0.0-5.0-3.48","63eaa9f8f0637c961dcfc277","bdp_rd","Sat Mar 25 2023 21:05:48 GMT-1000 (Hawaii-Aleutian Standard Time)","213325","","null","","","","offerFB","","<div class='trialBorder'><div class='vertical-center'><img style='vertical-align:center; align:center' src=img/fixation3.jpg></div><div class='cl'><div class='vertical-center'><font style='color:orange'>$95<br>with a<br>50% chance</font></div></div><div class='cr'><div class='vertical-center'>$40<br>for<br>sure</div></div><div class='respDivL'><div class='vertical-center'><font style='color:orange'>(E)</font></div></div><div class='respDivR'><div class='vertical-center'>(I)</div></div></div>","null","$40","$95","1","40","95",""
"html-keyboard-response","151","183207","0.0-5.0-1.49","63eaa9f8f0637c961dcfc277","bdp_rd","Sat Mar 25 2023 21:05:48 GMT-1000 (Hawaii-Aleutian Standard Time)","213325","","null","","","","FIX","","<div class='trialBorder'><div class='vertical-center'><img style='vertical-align:center; align:center' src=img/fixation3.jpg></div></div>","null","","","","","",""
"html-keyboard-response","152","184690","0.0-5.0-2.49","63eaa9f8f0637c961dcfc277","bdp_rd","Sat Mar 25 2023 21:05:48 GMT-1000 (Hawaii-Aleutian Standard Time)","213325","","1480","","","","offer","","<div class='trialBorder'><div class='vertical-center'><img style='vertical-align:center; align:center' src=img/fixation3.jpg></div><div class='cl'><div class='vertical-center'>$18<br>for<br>sure</div></div><div class='cr'><div class='vertical-center'>$39<br>with a<br>50% chance</div></div><div class='respDivL'><div class='vertical-center'>(E)</div></div><div class='respDivR'><div class='vertical-center'>(I)</div></div></div>","I","$18","$39","0","18","39","RISKY"
"html-keyboard-response","153","184949","0.0-5.0-3.49","63eaa9f8f0637c961dcfc277","bdp_rd","Sat Mar 25 2023 21:05:48 GMT-1000 (Hawaii-Aleutian Standard Time)","213325","","null","","","","offerFB","","<div class='trialBorder'><div class='vertical-center'><img style='vertical-align:center; align:center' src=img/fixation3.jpg></div><div class='cl'><div class='vertical-center'>$18<br>for<br>sure</div></div><div class='cr'><div class='vertical-center'><font style='color:orange'>$39<br>with a<br>50% chance</font></div></div><div class='respDivL'><div class='vertical-center'>(E)</div></div><div class='respDivR'><div class='vertical-center'><font style='color:orange'>(I)</font></div></div></div>","null","$18","$39","0","18","39",""
"html-keyboard-response","154","185451","0.0-5.0-1.50","63eaa9f8f0637c961dcfc277","bdp_rd","Sat Mar 25 2023 21:05:48 GMT-1000 (Hawaii-Aleutian Standard Time)","213325","","null","","","","FIX","","<div class='trialBorder'><div class='vertical-center'><img style='vertical-align:center; align:center' src=img/fixation3.jpg></div></div>","null","","","","","",""
"html-keyboard-response","155","186670","0.0-5.0-2.50","63eaa9f8f0637c961dcfc277","bdp_rd","Sat Mar 25 2023 21:05:48 GMT-1000 (Hawaii-Aleutian Standard Time)","213325","","1216","","","","offer","","<div class='trialBorder'><div class='vertical-center'><img style='vertical-align:center; align:center' src=img/fixation3.jpg></div><div class='cl'><div class='vertical-center'>$31<br>for<br>sure</div></div><div class='cr'><div class='vertical-center'>$78<br>with a<br>50% chance</div></div><div class='respDivL'><div class='vertical-center'>(E)</div></div><div class='respDivR'><div class='vertical-center'>(I)</div></div></div>","I","$31","$78","0","31","78","RISKY"
"html-keyboard-response","156","186930","0.0-5.0-3.50","63eaa9f8f0637c961dcfc277","bdp_rd","Sat Mar 25 2023 21:05:48 GMT-1000 (Hawaii-Aleutian Standard Time)","213325","","null","","","","offerFB","","<div class='trialBorder'><div class='vertical-center'><img style='vertical-align:center; align:center' src=img/fixation3.jpg></div><div class='cl'><div class='vertical-center'>$31<br>for<br>sure</div></div><div class='cr'><div class='vertical-center'><font style='color:orange'>$78<br>with a<br>50% chance</font></div></div><div class='respDivL'><div class='vertical-center'>(E)</div></div><div class='respDivR'><div class='vertical-center'><font style='color:orange'>(I)</font></div></div></div>","null","$31","$78","0","31","78",""
"html-keyboard-response","157","187440","0.0-5.0-1.51","63eaa9f8f0637c961dcfc277","bdp_rd","Sat Mar 25 2023 21:05:48 GMT-1000 (Hawaii-Aleutian Standard Time)","213325","","null","","","","FIX","","<div class='trialBorder'><div class='vertical-center'><img style='vertical-align:center; align:center' src=img/fixation3.jpg></div></div>","null","","","","","",""
"html-keyboard-response","158","188966","0.0-5.0-2.51","63eaa9f8f0637c961dcfc277","bdp_rd","Sat Mar 25 2023 21:05:48 GMT-1000 (Hawaii-Aleutian Standard Time)","213325","","1524","","","","offer","","<div class='trialBorder'><div class='vertical-center'><img style='vertical-align:center; align:center' src=img/fixation3.jpg></div><div class='cl'><div class='vertical-center'>$7<br>for<br>sure</div></div><div class='cr'><div class='vertical-center'>$10<br>with a<br>50% chance</div></div><div class='respDivL'><div class='vertical-center'>(E)</div></div><div class='respDivR'><div class='vertical-center'>(I)</div></div></div>","E","$7","$10","0","7","10","SURE"
"html-keyboard-response","159","189222","0.0-5.0-3.51","63eaa9f8f0637c961dcfc277","bdp_rd","Sat Mar 25 2023 21:05:48 GMT-1000 (Hawaii-Aleutian Standard Time)","213325","","null","","","","offerFB","","<div class='trialBorder'><div class='vertical-center'><img style='vertical-align:center; align:center' src=img/fixation3.jpg></div><div class='cl'><div class='vertical-center'><font style='color:orange'>$7<br>for<br>sure</font></div></div><div class='cr'><div class='vertical-center'>$10<br>with a<br>50% chance</div></div><div class='respDivL'><div class='vertical-center'><font style='color:orange'>(E)</font></div></div><div class='respDivR'><div class='vertical-center'>(I)</div></div></div>","null","$7","$10","0","7","10",""
"html-keyboard-response","160","189730","0.0-5.0-1.52","63eaa9f8f0637c961dcfc277","bdp_rd","Sat Mar 25 2023 21:05:48 GMT-1000 (Hawaii-Aleutian Standard Time)","213325","","null","","","","FIX","","<div class='trialBorder'><div class='vertical-center'><img style='vertical-align:center; align:center' src=img/fixation3.jpg></div></div>","null","","","","","",""
"html-keyboard-response","161","192412","0.0-5.0-2.52","63eaa9f8f0637c961dcfc277","bdp_rd","Sat Mar 25 2023 21:05:48 GMT-1000 (Hawaii-Aleutian Standard Time)","213325","","2680","","","","offer","","<div class='trialBorder'><div class='vertical-center'><img style='vertical-align:center; align:center' src=img/fixation3.jpg></div><div class='cl'><div class='vertical-center'>$13<br>with a<br>50% chance</div></div><div class='cr'><div class='vertical-center'>$6<br>for<br>sure</div></div><div class='respDivL'><div class='vertical-center'>(E)</div></div><div class='respDivR'><div class='vertical-center'>(I)</div></div></div>","E","$6","$13","1","6","13","RISKY"
"html-keyboard-response","162","192671","0.0-5.0-3.52","63eaa9f8f0637c961dcfc277","bdp_rd","Sat Mar 25 2023 21:05:48 GMT-1000 (Hawaii-Aleutian Standard Time)","213325","","null","","","","offerFB","","<div class='trialBorder'><div class='vertical-center'><img style='vertical-align:center; align:center' src=img/fixation3.jpg></div><div class='cl'><div class='vertical-center'><font style='color:orange'>$13<br>with a<br>50% chance</font></div></div><div class='cr'><div class='vertical-center'>$6<br>for<br>sure</div></div><div class='respDivL'><div class='vertical-center'><font style='color:orange'>(E)</font></div></div><div class='respDivR'><div class='vertical-center'>(I)</div></div></div>","null","$6","$13","1","6","13",""
"html-keyboard-response","163","193179","0.0-5.0-1.53","63eaa9f8f0637c961dcfc277","bdp_rd","Sat Mar 25 2023 21:05:48 GMT-1000 (Hawaii-Aleutian Standard Time)","213325","","null","","","","FIX","","<div class='trialBorder'><div class='vertical-center'><img style='vertical-align:center; align:center' src=img/fixation3.jpg></div></div>","null","","","","","",""
"html-keyboard-response","164","197459","0.0-5.0-2.53","63eaa9f8f0637c961dcfc277","bdp_rd","Sat Mar 25 2023 21:05:48 GMT-1000 (Hawaii-Aleutian Standard Time)","213325","","4278","","","","offer","","<div class='trialBorder'><div class='vertical-center'><img style='vertical-align:center; align:center' src=img/fixation3.jpg></div><div class='cl'><div class='vertical-center'>$13<br>for<br>sure</div></div><div class='cr'><div class='vertical-center'>$24<br>with a<br>50% chance</div></div><div class='respDivL'><div class='vertical-center'>(E)</div></div><div class='respDivR'><div class='vertical-center'>(I)</div></div></div>","E","$13","$24","0","13","24","SURE"
"html-keyboard-response","165","197717","0.0-5.0-3.53","63eaa9f8f0637c961dcfc277","bdp_rd","Sat Mar 25 2023 21:05:48 GMT-1000 (Hawaii-Aleutian Standard Time)","213325","","null","","","","offerFB","","<div class='trialBorder'><div class='vertical-center'><img style='vertical-align:center; align:center' src=img/fixation3.jpg></div><div class='cl'><div class='vertical-center'><font style='color:orange'>$13<br>for<br>sure</font></div></div><div class='cr'><div class='vertical-center'>$24<br>with a<br>50% chance</div></div><div class='respDivL'><div class='vertical-center'><font style='color:orange'>(E)</font></div></div><div class='respDivR'><div class='vertical-center'>(I)</div></div></div>","null","$13","$24","0","13","24",""
"html-keyboard-response","166","198227","0.0-5.0-1.54","63eaa9f8f0637c961dcfc277","bdp_rd","Sat Mar 25 2023 21:05:48 GMT-1000 (Hawaii-Aleutian Standard Time)","213325","","null","","","","FIX","","<div class='trialBorder'><div class='vertical-center'><img style='vertical-align:center; align:center' src=img/fixation3.jpg></div></div>","null","","","","","",""
"html-keyboard-response","167","200562","0.0-5.0-2.54","63eaa9f8f0637c961dcfc277","bdp_rd","Sat Mar 25 2023 21:05:48 GMT-1000 (Hawaii-Aleutian Standard Time)","213325","","2333","","","","offer","","<div class='trialBorder'><div class='vertical-center'><img style='vertical-align:center; align:center' src=img/fixation3.jpg></div><div class='cl'><div class='vertical-center'>$14<br>with a<br>50% chance</div></div><div class='cr'><div class='vertical-center'>$4<br>for<br>sure</div></div><div class='respDivL'><div class='vertical-center'>(E)</div></div><div class='respDivR'><div class='vertical-center'>(I)</div></div></div>","E","$4","$14","1","4","14","RISKY"
"html-keyboard-response","168","200820","0.0-5.0-3.54","63eaa9f8f0637c961dcfc277","bdp_rd","Sat Mar 25 2023 21:05:48 GMT-1000 (Hawaii-Aleutian Standard Time)","213325","","null","","","","offerFB","","<div class='trialBorder'><div class='vertical-center'><img style='vertical-align:center; align:center' src=img/fixation3.jpg></div><div class='cl'><div class='vertical-center'><font style='color:orange'>$14<br>with a<br>50% chance</font></div></div><div class='cr'><div class='vertical-center'>$4<br>for<br>sure</div></div><div class='respDivL'><div class='vertical-center'><font style='color:orange'>(E)</font></div></div><div class='respDivR'><div class='vertical-center'>(I)</div></div></div>","null","$4","$14","1","4","14",""
"html-keyboard-response","169","201329","0.0-5.0-1.55","63eaa9f8f0637c961dcfc277","bdp_rd","Sat Mar 25 2023 21:05:48 GMT-1000 (Hawaii-Aleutian Standard Time)","213325","","null","","","","FIX","","<div class='trialBorder'><div class='vertical-center'><img style='vertical-align:center; align:center' src=img/fixation3.jpg></div></div>","null","","","","","",""
"html-keyboard-response","170","203578","0.0-5.0-2.55","63eaa9f8f0637c961dcfc277","bdp_rd","Sat Mar 25 2023 21:05:48 GMT-1000 (Hawaii-Aleutian Standard Time)","213325","","2245","","","","offer","","<div class='trialBorder'><div class='vertical-center'><img style='vertical-align:center; align:center' src=img/fixation3.jpg></div><div class='cl'><div class='vertical-center'>$5<br>for<br>sure</div></div><div class='cr'><div class='vertical-center'>$16<br>with a<br>50% chance</div></div><div class='respDivL'><div class='vertical-center'>(E)</div></div><div class='respDivR'><div class='vertical-center'>(I)</div></div></div>","I","$5","$16","0","5","16","RISKY"
"html-keyboard-response","171","203839","0.0-5.0-3.55","63eaa9f8f0637c961dcfc277","bdp_rd","Sat Mar 25 2023 21:05:48 GMT-1000 (Hawaii-Aleutian Standard Time)","213325","","null","","","","offerFB","","<div class='trialBorder'><div class='vertical-center'><img style='vertical-align:center; align:center' src=img/fixation3.jpg></div><div class='cl'><div class='vertical-center'>$5<br>for<br>sure</div></div><div class='cr'><div class='vertical-center'><font style='color:orange'>$16<br>with a<br>50% chance</font></div></div><div class='respDivL'><div class='vertical-center'>(E)</div></div><div class='respDivR'><div class='vertical-center'><font style='color:orange'>(I)</font></div></div></div>","null","$5","$16","0","5","16",""
