"trial_type","trial_index","time_elapsed","internal_node_id","subject_id","task","startTime","totalTime","view_history","rt","event","trial","time","trialtype","success","stimulus","key_press","sureOffer","riskyOffer","riskyLeft","sureAmt","riskyAmt","chosen"
"pavlovia","0","5","0.0-0.0","63ead6f452e11793b2f8dab8","bdp_rd","Sat Mar 25 2023 16:45:02 GMT-0700 (Pacific Daylight Time)","169807","","","","","","","","","","","","","","",""
"instructions","1","2081","0.0-1.0","63ead6f452e11793b2f8dab8","bdp_rd","Sat Mar 25 2023 16:45:02 GMT-0700 (Pacific Daylight Time)","169807","[{""page_index"":0,""viewing_time"":2075}]","2075","","","","","","","","","","","","",""
"","","","","63ead6f452e11793b2f8dab8","bdp_rd","Sat Mar 25 2023 16:45:02 GMT-0700 (Pacific Daylight Time)","169807","","","fullscreenenter","2","3524","fullscreenenter","","","","","","","","",""
"fullscreen","2","4505","0.0-2.0","63ead6f452e11793b2f8dab8","bdp_rd","Sat Mar 25 2023 16:45:02 GMT-0700 (Pacific Daylight Time)","169807","","","","","","","true","","","","","","","",""
"instructions","3","23381","0.0-4.0","63ead6f452e11793b2f8dab8","bdp_rd","Sat Mar 25 2023 16:45:02 GMT-0700 (Pacific Daylight Time)","169807","[{""page_index"":0,""viewing_time"":12606},{""page_index"":1,""viewing_time"":4872},{""page_index"":2,""viewing_time"":1396}]","18874","","","","","","","","","","","","",""
"html-keyboard-response","4","23885","0.0-5.0-1.0","63ead6f452e11793b2f8dab8","bdp_rd","Sat Mar 25 2023 16:45:02 GMT-0700 (Pacific Daylight Time)","169807","","null","","","","FIX","","<div class='trialBorder'><div class='vertical-center'><img style='vertical-align:center; align:center' src=img/fixation3.jpg></div></div>","null","","","","","",""
"html-keyboard-response","5","26354","0.0-5.0-2.0","63ead6f452e11793b2f8dab8","bdp_rd","Sat Mar 25 2023 16:45:02 GMT-0700 (Pacific Daylight Time)","169807","","2467","","","","offer","","<div class='trialBorder'><div class='vertical-center'><img style='vertical-align:center; align:center' src=img/fixation3.jpg></div><div class='cl'><div class='vertical-center'>$22<br>for<br>sure</div></div><div class='cr'><div class='vertical-center'>$42<br>with a<br>50% chance</div></div><div class='respDivL'><div class='vertical-center'>(E)</div></div><div class='respDivR'><div class='vertical-center'>(I)</div></div></div>","E","$22","$42","0","22","42","SURE"
"html-keyboard-response","6","26607","0.0-5.0-3.0","63ead6f452e11793b2f8dab8","bdp_rd","Sat Mar 25 2023 16:45:02 GMT-0700 (Pacific Daylight Time)","169807","","null","","","","offerFB","","<div class='trialBorder'><div class='vertical-center'><img style='vertical-align:center; align:center' src=img/fixation3.jpg></div><div class='cl'><div class='vertical-center'><font style='color:orange'>$22<br>for<br>sure</font></div></div><div class='cr'><div class='vertical-center'>$42<br>with a<br>50% chance</div></div><div class='respDivL'><div class='vertical-center'><font style='color:orange'>(E)</font></div></div><div class='respDivR'><div class='vertical-center'>(I)</div></div></div>","null","$22","$42","0","22","42",""
"html-keyboard-response","7","27109","0.0-5.0-1.1","63ead6f452e11793b2f8dab8","bdp_rd","Sat Mar 25 2023 16:45:02 GMT-0700 (Pacific Daylight Time)","169807","","null","","","","FIX","","<div class='trialBorder'><div class='vertical-center'><img style='vertical-align:center; align:center' src=img/fixation3.jpg></div></div>","null","","","","","",""
"html-keyboard-response","8","29893","0.0-5.0-2.1","63ead6f452e11793b2f8dab8","bdp_rd","Sat Mar 25 2023 16:45:02 GMT-0700 (Pacific Daylight Time)","169807","","2782","","","","offer","","<div class='trialBorder'><div class='vertical-center'><img style='vertical-align:center; align:center' src=img/fixation3.jpg></div><div class='cl'><div class='vertical-center'>$25<br>for<br>sure</div></div><div class='cr'><div class='vertical-center'>$54<br>with a<br>50% chance</div></div><div class='respDivL'><div class='vertical-center'>(E)</div></div><div class='respDivR'><div class='vertical-center'>(I)</div></div></div>","E","$25","$54","0","25","54","SURE"
"html-keyboard-response","9","30145","0.0-5.0-3.1","63ead6f452e11793b2f8dab8","bdp_rd","Sat Mar 25 2023 16:45:02 GMT-0700 (Pacific Daylight Time)","169807","","null","","","","offerFB","","<div class='trialBorder'><div class='vertical-center'><img style='vertical-align:center; align:center' src=img/fixation3.jpg></div><div class='cl'><div class='vertical-center'><font style='color:orange'>$25<br>for<br>sure</font></div></div><div class='cr'><div class='vertical-center'>$54<br>with a<br>50% chance</div></div><div class='respDivL'><div class='vertical-center'><font style='color:orange'>(E)</font></div></div><div class='respDivR'><div class='vertical-center'>(I)</div></div></div>","null","$25","$54","0","25","54",""
"html-keyboard-response","10","30648","0.0-5.0-1.2","63ead6f452e11793b2f8dab8","bdp_rd","Sat Mar 25 2023 16:45:02 GMT-0700 (Pacific Daylight Time)","169807","","null","","","","FIX","","<div class='trialBorder'><div class='vertical-center'><img style='vertical-align:center; align:center' src=img/fixation3.jpg></div></div>","null","","","","","",""
"html-keyboard-response","11","31682","0.0-5.0-2.2","63ead6f452e11793b2f8dab8","bdp_rd","Sat Mar 25 2023 16:45:02 GMT-0700 (Pacific Daylight Time)","169807","","1032","","","","offer","","<div class='trialBorder'><div class='vertical-center'><img style='vertical-align:center; align:center' src=img/fixation3.jpg></div><div class='cl'><div class='vertical-center'>$11<br>for<br>sure</div></div><div class='cr'><div class='vertical-center'>$62<br>with a<br>50% chance</div></div><div class='respDivL'><div class='vertical-center'>(E)</div></div><div class='respDivR'><div class='vertical-center'>(I)</div></div></div>","I","$11","$62","0","11","62","RISKY"
"html-keyboard-response","12","31935","0.0-5.0-3.2","63ead6f452e11793b2f8dab8","bdp_rd","Sat Mar 25 2023 16:45:02 GMT-0700 (Pacific Daylight Time)","169807","","null","","","","offerFB","","<div class='trialBorder'><div class='vertical-center'><img style='vertical-align:center; align:center' src=img/fixation3.jpg></div><div class='cl'><div class='vertical-center'>$11<br>for<br>sure</div></div><div class='cr'><div class='vertical-center'><font style='color:orange'>$62<br>with a<br>50% chance</font></div></div><div class='respDivL'><div class='vertical-center'>(E)</div></div><div class='respDivR'><div class='vertical-center'><font style='color:orange'>(I)</font></div></div></div>","null","$11","$62","0","11","62",""
"html-keyboard-response","13","32437","0.0-5.0-1.3","63ead6f452e11793b2f8dab8","bdp_rd","Sat Mar 25 2023 16:45:02 GMT-0700 (Pacific Daylight Time)","169807","","null","","","","FIX","","<div class='trialBorder'><div class='vertical-center'><img style='vertical-align:center; align:center' src=img/fixation3.jpg></div></div>","null","","","","","",""
"html-keyboard-response","14","33022","0.0-5.0-2.3","63ead6f452e11793b2f8dab8","bdp_rd","Sat Mar 25 2023 16:45:02 GMT-0700 (Pacific Daylight Time)","169807","","583","","","","offer","","<div class='trialBorder'><div class='vertical-center'><img style='vertical-align:center; align:center' src=img/fixation3.jpg></div><div class='cl'><div class='vertical-center'>$20<br>for<br>sure</div></div><div class='cr'><div class='vertical-center'>$80<br>with a<br>50% chance</div></div><div class='respDivL'><div class='vertical-center'>(E)</div></div><div class='respDivR'><div class='vertical-center'>(I)</div></div></div>","E","$20","$80","0","20","80","SURE"
"html-keyboard-response","15","33274","0.0-5.0-3.3","63ead6f452e11793b2f8dab8","bdp_rd","Sat Mar 25 2023 16:45:02 GMT-0700 (Pacific Daylight Time)","169807","","null","","","","offerFB","","<div class='trialBorder'><div class='vertical-center'><img style='vertical-align:center; align:center' src=img/fixation3.jpg></div><div class='cl'><div class='vertical-center'><font style='color:orange'>$20<br>for<br>sure</font></div></div><div class='cr'><div class='vertical-center'>$80<br>with a<br>50% chance</div></div><div class='respDivL'><div class='vertical-center'><font style='color:orange'>(E)</font></div></div><div class='respDivR'><div class='vertical-center'>(I)</div></div></div>","null","$20","$80","0","20","80",""
"html-keyboard-response","16","33776","0.0-5.0-1.4","63ead6f452e11793b2f8dab8","bdp_rd","Sat Mar 25 2023 16:45:02 GMT-0700 (Pacific Daylight Time)","169807","","null","","","","FIX","","<div class='trialBorder'><div class='vertical-center'><img style='vertical-align:center; align:center' src=img/fixation3.jpg></div></div>","null","","","","","",""
"html-keyboard-response","17","36927","0.0-5.0-2.4","63ead6f452e11793b2f8dab8","bdp_rd","Sat Mar 25 2023 16:45:02 GMT-0700 (Pacific Daylight Time)","169807","","3149","","","","offer","","<div class='trialBorder'><div class='vertical-center'><img style='vertical-align:center; align:center' src=img/fixation3.jpg></div><div class='cl'><div class='vertical-center'>$89<br>with a<br>50% chance</div></div><div class='cr'><div class='vertical-center'>$28<br>for<br>sure</div></div><div class='respDivL'><div class='vertical-center'>(E)</div></div><div class='respDivR'><div class='vertical-center'>(I)</div></div></div>","I","$28","$89","1","28","89","SURE"
"html-keyboard-response","18","37180","0.0-5.0-3.4","63ead6f452e11793b2f8dab8","bdp_rd","Sat Mar 25 2023 16:45:02 GMT-0700 (Pacific Daylight Time)","169807","","null","","","","offerFB","","<div class='trialBorder'><div class='vertical-center'><img style='vertical-align:center; align:center' src=img/fixation3.jpg></div><div class='cl'><div class='vertical-center'>$89<br>with a<br>50% chance</div></div><div class='cr'><div class='vertical-center'><font style='color:orange'>$28<br>for<br>sure</font></div></div><div class='respDivL'><div class='vertical-center'>(E)</div></div><div class='respDivR'><div class='vertical-center'><font style='color:orange'>(I)</font></div></div></div>","null","$28","$89","1","28","89",""
"html-keyboard-response","19","37683","0.0-5.0-1.5","63ead6f452e11793b2f8dab8","bdp_rd","Sat Mar 25 2023 16:45:02 GMT-0700 (Pacific Daylight Time)","169807","","null","","","","FIX","","<div class='trialBorder'><div class='vertical-center'><img style='vertical-align:center; align:center' src=img/fixation3.jpg></div></div>","null","","","","","",""
"html-keyboard-response","20","40815","0.0-5.0-2.5","63ead6f452e11793b2f8dab8","bdp_rd","Sat Mar 25 2023 16:45:02 GMT-0700 (Pacific Daylight Time)","169807","","3130","","","","offer","","<div class='trialBorder'><div class='vertical-center'><img style='vertical-align:center; align:center' src=img/fixation3.jpg></div><div class='cl'><div class='vertical-center'>$6<br>for<br>sure</div></div><div class='cr'><div class='vertical-center'>$15<br>with a<br>50% chance</div></div><div class='respDivL'><div class='vertical-center'>(E)</div></div><div class='respDivR'><div class='vertical-center'>(I)</div></div></div>","E","$6","$15","0","6","15","SURE"
"html-keyboard-response","21","41069","0.0-5.0-3.5","63ead6f452e11793b2f8dab8","bdp_rd","Sat Mar 25 2023 16:45:02 GMT-0700 (Pacific Daylight Time)","169807","","null","","","","offerFB","","<div class='trialBorder'><div class='vertical-center'><img style='vertical-align:center; align:center' src=img/fixation3.jpg></div><div class='cl'><div class='vertical-center'><font style='color:orange'>$6<br>for<br>sure</font></div></div><div class='cr'><div class='vertical-center'>$15<br>with a<br>50% chance</div></div><div class='respDivL'><div class='vertical-center'><font style='color:orange'>(E)</font></div></div><div class='respDivR'><div class='vertical-center'>(I)</div></div></div>","null","$6","$15","0","6","15",""
"html-keyboard-response","22","41572","0.0-5.0-1.6","63ead6f452e11793b2f8dab8","bdp_rd","Sat Mar 25 2023 16:45:02 GMT-0700 (Pacific Daylight Time)","169807","","null","","","","FIX","","<div class='trialBorder'><div class='vertical-center'><img style='vertical-align:center; align:center' src=img/fixation3.jpg></div></div>","null","","","","","",""
"html-keyboard-response","23","42772","0.0-5.0-2.6","63ead6f452e11793b2f8dab8","bdp_rd","Sat Mar 25 2023 16:45:02 GMT-0700 (Pacific Daylight Time)","169807","","1198","","","","offer","","<div class='trialBorder'><div class='vertical-center'><img style='vertical-align:center; align:center' src=img/fixation3.jpg></div><div class='cl'><div class='vertical-center'>$32<br>with a<br>50% chance</div></div><div class='cr'><div class='vertical-center'>$9<br>for<br>sure</div></div><div class='respDivL'><div class='vertical-center'>(E)</div></div><div class='respDivR'><div class='vertical-center'>(I)</div></div></div>","I","$9","$32","1","9","32","SURE"
"html-keyboard-response","24","43024","0.0-5.0-3.6","63ead6f452e11793b2f8dab8","bdp_rd","Sat Mar 25 2023 16:45:02 GMT-0700 (Pacific Daylight Time)","169807","","null","","","","offerFB","","<div class='trialBorder'><div class='vertical-center'><img style='vertical-align:center; align:center' src=img/fixation3.jpg></div><div class='cl'><div class='vertical-center'>$32<br>with a<br>50% chance</div></div><div class='cr'><div class='vertical-center'><font style='color:orange'>$9<br>for<br>sure</font></div></div><div class='respDivL'><div class='vertical-center'>(E)</div></div><div class='respDivR'><div class='vertical-center'><font style='color:orange'>(I)</font></div></div></div>","null","$9","$32","1","9","32",""
"html-keyboard-response","25","43526","0.0-5.0-1.7","63ead6f452e11793b2f8dab8","bdp_rd","Sat Mar 25 2023 16:45:02 GMT-0700 (Pacific Daylight Time)","169807","","null","","","","FIX","","<div class='trialBorder'><div class='vertical-center'><img style='vertical-align:center; align:center' src=img/fixation3.jpg></div></div>","null","","","","","",""
"html-keyboard-response","26","44368","0.0-5.0-2.7","63ead6f452e11793b2f8dab8","bdp_rd","Sat Mar 25 2023 16:45:02 GMT-0700 (Pacific Daylight Time)","169807","","840","","","","offer","","<div class='trialBorder'><div class='vertical-center'><img style='vertical-align:center; align:center' src=img/fixation3.jpg></div><div class='cl'><div class='vertical-center'>$42<br>for<br>sure</div></div><div class='cr'><div class='vertical-center'>$73<br>with a<br>50% chance</div></div><div class='respDivL'><div class='vertical-center'>(E)</div></div><div class='respDivR'><div class='vertical-center'>(I)</div></div></div>","E","$42","$73","0","42","73","SURE"
"html-keyboard-response","27","44621","0.0-5.0-3.7","63ead6f452e11793b2f8dab8","bdp_rd","Sat Mar 25 2023 16:45:02 GMT-0700 (Pacific Daylight Time)","169807","","null","","","","offerFB","","<div class='trialBorder'><div class='vertical-center'><img style='vertical-align:center; align:center' src=img/fixation3.jpg></div><div class='cl'><div class='vertical-center'><font style='color:orange'>$42<br>for<br>sure</font></div></div><div class='cr'><div class='vertical-center'>$73<br>with a<br>50% chance</div></div><div class='respDivL'><div class='vertical-center'><font style='color:orange'>(E)</font></div></div><div class='respDivR'><div class='vertical-center'>(I)</div></div></div>","null","$42","$73","0","42","73",""
"html-keyboard-response","28","45122","0.0-5.0-1.8","63ead6f452e11793b2f8dab8","bdp_rd","Sat Mar 25 2023 16:45:02 GMT-0700 (Pacific Daylight Time)","169807","","null","","","","FIX","","<div class='trialBorder'><div class='vertical-center'><img style='vertical-align:center; align:center' src=img/fixation3.jpg></div></div>","null","","","","","",""
"html-keyboard-response","29","45941","0.0-5.0-2.8","63ead6f452e11793b2f8dab8","bdp_rd","Sat Mar 25 2023 16:45:02 GMT-0700 (Pacific Daylight Time)","169807","","818","","","","offer","","<div class='trialBorder'><div class='vertical-center'><img style='vertical-align:center; align:center' src=img/fixation3.jpg></div><div class='cl'><div class='vertical-center'>$65<br>with a<br>50% chance</div></div><div class='cr'><div class='vertical-center'>$46<br>for<br>sure</div></div><div class='respDivL'><div class='vertical-center'>(E)</div></div><div class='respDivR'><div class='vertical-center'>(I)</div></div></div>","I","$46","$65","1","46","65","SURE"
"html-keyboard-response","30","46194","0.0-5.0-3.8","63ead6f452e11793b2f8dab8","bdp_rd","Sat Mar 25 2023 16:45:02 GMT-0700 (Pacific Daylight Time)","169807","","null","","","","offerFB","","<div class='trialBorder'><div class='vertical-center'><img style='vertical-align:center; align:center' src=img/fixation3.jpg></div><div class='cl'><div class='vertical-center'>$65<br>with a<br>50% chance</div></div><div class='cr'><div class='vertical-center'><font style='color:orange'>$46<br>for<br>sure</font></div></div><div class='respDivL'><div class='vertical-center'>(E)</div></div><div class='respDivR'><div class='vertical-center'><font style='color:orange'>(I)</font></div></div></div>","null","$46","$65","1","46","65",""
"html-keyboard-response","31","46695","0.0-5.0-1.9","63ead6f452e11793b2f8dab8","bdp_rd","Sat Mar 25 2023 16:45:02 GMT-0700 (Pacific Daylight Time)","169807","","null","","","","FIX","","<div class='trialBorder'><div class='vertical-center'><img style='vertical-align:center; align:center' src=img/fixation3.jpg></div></div>","null","","","","","",""
"html-keyboard-response","32","47689","0.0-5.0-2.9","63ead6f452e11793b2f8dab8","bdp_rd","Sat Mar 25 2023 16:45:02 GMT-0700 (Pacific Daylight Time)","169807","","992","","","","offer","","<div class='trialBorder'><div class='vertical-center'><img style='vertical-align:center; align:center' src=img/fixation3.jpg></div><div class='cl'><div class='vertical-center'>$14<br>for<br>sure</div></div><div class='cr'><div class='vertical-center'>$22<br>with a<br>50% chance</div></div><div class='respDivL'><div class='vertical-center'>(E)</div></div><div class='respDivR'><div class='vertical-center'>(I)</div></div></div>","E","$14","$22","0","14","22","SURE"
"html-keyboard-response","33","47941","0.0-5.0-3.9","63ead6f452e11793b2f8dab8","bdp_rd","Sat Mar 25 2023 16:45:02 GMT-0700 (Pacific Daylight Time)","169807","","null","","","","offerFB","","<div class='trialBorder'><div class='vertical-center'><img style='vertical-align:center; align:center' src=img/fixation3.jpg></div><div class='cl'><div class='vertical-center'><font style='color:orange'>$14<br>for<br>sure</font></div></div><div class='cr'><div class='vertical-center'>$22<br>with a<br>50% chance</div></div><div class='respDivL'><div class='vertical-center'><font style='color:orange'>(E)</font></div></div><div class='respDivR'><div class='vertical-center'>(I)</div></div></div>","null","$14","$22","0","14","22",""
"html-keyboard-response","34","48444","0.0-5.0-1.10","63ead6f452e11793b2f8dab8","bdp_rd","Sat Mar 25 2023 16:45:02 GMT-0700 (Pacific Daylight Time)","169807","","null","","","","FIX","","<div class='trialBorder'><div class='vertical-center'><img style='vertical-align:center; align:center' src=img/fixation3.jpg></div></div>","null","","","","","",""
"html-keyboard-response","35","49321","0.0-5.0-2.10","63ead6f452e11793b2f8dab8","bdp_rd","Sat Mar 25 2023 16:45:02 GMT-0700 (Pacific Daylight Time)","169807","","875","","","","offer","","<div class='trialBorder'><div class='vertical-center'><img style='vertical-align:center; align:center' src=img/fixation3.jpg></div><div class='cl'><div class='vertical-center'>$15<br>for<br>sure</div></div><div class='cr'><div class='vertical-center'>$34<br>with a<br>50% chance</div></div><div class='respDivL'><div class='vertical-center'>(E)</div></div><div class='respDivR'><div class='vertical-center'>(I)</div></div></div>","E","$15","$34","0","15","34","SURE"
"html-keyboard-response","36","49573","0.0-5.0-3.10","63ead6f452e11793b2f8dab8","bdp_rd","Sat Mar 25 2023 16:45:02 GMT-0700 (Pacific Daylight Time)","169807","","null","","","","offerFB","","<div class='trialBorder'><div class='vertical-center'><img style='vertical-align:center; align:center' src=img/fixation3.jpg></div><div class='cl'><div class='vertical-center'><font style='color:orange'>$15<br>for<br>sure</font></div></div><div class='cr'><div class='vertical-center'>$34<br>with a<br>50% chance</div></div><div class='respDivL'><div class='vertical-center'><font style='color:orange'>(E)</font></div></div><div class='respDivR'><div class='vertical-center'>(I)</div></div></div>","null","$15","$34","0","15","34",""
"html-keyboard-response","37","50075","0.0-5.0-1.11","63ead6f452e11793b2f8dab8","bdp_rd","Sat Mar 25 2023 16:45:02 GMT-0700 (Pacific Daylight Time)","169807","","null","","","","FIX","","<div class='trialBorder'><div class='vertical-center'><img style='vertical-align:center; align:center' src=img/fixation3.jpg></div></div>","null","","","","","",""
"html-keyboard-response","38","50693","0.0-5.0-2.11","63ead6f452e11793b2f8dab8","bdp_rd","Sat Mar 25 2023 16:45:02 GMT-0700 (Pacific Daylight Time)","169807","","616","","","","offer","","<div class='trialBorder'><div class='vertical-center'><img style='vertical-align:center; align:center' src=img/fixation3.jpg></div><div class='cl'><div class='vertical-center'>$21<br>for<br>sure</div></div><div class='cr'><div class='vertical-center'>$25<br>with a<br>50% chance</div></div><div class='respDivL'><div class='vertical-center'>(E)</div></div><div class='respDivR'><div class='vertical-center'>(I)</div></div></div>","E","$21","$25","0","21","25","SURE"
"html-keyboard-response","39","50945","0.0-5.0-3.11","63ead6f452e11793b2f8dab8","bdp_rd","Sat Mar 25 2023 16:45:02 GMT-0700 (Pacific Daylight Time)","169807","","null","","","","offerFB","","<div class='trialBorder'><div class='vertical-center'><img style='vertical-align:center; align:center' src=img/fixation3.jpg></div><div class='cl'><div class='vertical-center'><font style='color:orange'>$21<br>for<br>sure</font></div></div><div class='cr'><div class='vertical-center'>$25<br>with a<br>50% chance</div></div><div class='respDivL'><div class='vertical-center'><font style='color:orange'>(E)</font></div></div><div class='respDivR'><div class='vertical-center'>(I)</div></div></div>","null","$21","$25","0","21","25",""
"html-keyboard-response","40","51447","0.0-5.0-1.12","63ead6f452e11793b2f8dab8","bdp_rd","Sat Mar 25 2023 16:45:02 GMT-0700 (Pacific Daylight Time)","169807","","null","","","","FIX","","<div class='trialBorder'><div class='vertical-center'><img style='vertical-align:center; align:center' src=img/fixation3.jpg></div></div>","null","","","","","",""
"html-keyboard-response","41","53479","0.0-5.0-2.12","63ead6f452e11793b2f8dab8","bdp_rd","Sat Mar 25 2023 16:45:02 GMT-0700 (Pacific Daylight Time)","169807","","2031","","","","offer","","<div class='trialBorder'><div class='vertical-center'><img style='vertical-align:center; align:center' src=img/fixation3.jpg></div><div class='cl'><div class='vertical-center'>$40<br>for<br>sure</div></div><div class='cr'><div class='vertical-center'>$95<br>with a<br>50% chance</div></div><div class='respDivL'><div class='vertical-center'>(E)</div></div><div class='respDivR'><div class='vertical-center'>(I)</div></div></div>","E","$40","$95","0","40","95","SURE"
"html-keyboard-response","42","53732","0.0-5.0-3.12","63ead6f452e11793b2f8dab8","bdp_rd","Sat Mar 25 2023 16:45:02 GMT-0700 (Pacific Daylight Time)","169807","","null","","","","offerFB","","<div class='trialBorder'><div class='vertical-center'><img style='vertical-align:center; align:center' src=img/fixation3.jpg></div><div class='cl'><div class='vertical-center'><font style='color:orange'>$40<br>for<br>sure</font></div></div><div class='cr'><div class='vertical-center'>$95<br>with a<br>50% chance</div></div><div class='respDivL'><div class='vertical-center'><font style='color:orange'>(E)</font></div></div><div class='respDivR'><div class='vertical-center'>(I)</div></div></div>","null","$40","$95","0","40","95",""
"html-keyboard-response","43","54234","0.0-5.0-1.13","63ead6f452e11793b2f8dab8","bdp_rd","Sat Mar 25 2023 16:45:02 GMT-0700 (Pacific Daylight Time)","169807","","null","","","","FIX","","<div class='trialBorder'><div class='vertical-center'><img style='vertical-align:center; align:center' src=img/fixation3.jpg></div></div>","null","","","","","",""
"html-keyboard-response","44","55508","0.0-5.0-2.13","63ead6f452e11793b2f8dab8","bdp_rd","Sat Mar 25 2023 16:45:02 GMT-0700 (Pacific Daylight Time)","169807","","1272","","","","offer","","<div class='trialBorder'><div class='vertical-center'><img style='vertical-align:center; align:center' src=img/fixation3.jpg></div><div class='cl'><div class='vertical-center'>$58<br>for<br>sure</div></div><div class='cr'><div class='vertical-center'>$69<br>with a<br>50% chance</div></div><div class='respDivL'><div class='vertical-center'>(E)</div></div><div class='respDivR'><div class='vertical-center'>(I)</div></div></div>","E","$58","$69","0","58","69","SURE"
"html-keyboard-response","45","55759","0.0-5.0-3.13","63ead6f452e11793b2f8dab8","bdp_rd","Sat Mar 25 2023 16:45:02 GMT-0700 (Pacific Daylight Time)","169807","","null","","","","offerFB","","<div class='trialBorder'><div class='vertical-center'><img style='vertical-align:center; align:center' src=img/fixation3.jpg></div><div class='cl'><div class='vertical-center'><font style='color:orange'>$58<br>for<br>sure</font></div></div><div class='cr'><div class='vertical-center'>$69<br>with a<br>50% chance</div></div><div class='respDivL'><div class='vertical-center'><font style='color:orange'>(E)</font></div></div><div class='respDivR'><div class='vertical-center'>(I)</div></div></div>","null","$58","$69","0","58","69",""
"html-keyboard-response","46","56262","0.0-5.0-1.14","63ead6f452e11793b2f8dab8","bdp_rd","Sat Mar 25 2023 16:45:02 GMT-0700 (Pacific Daylight Time)","169807","","null","","","","FIX","","<div class='trialBorder'><div class='vertical-center'><img style='vertical-align:center; align:center' src=img/fixation3.jpg></div></div>","null","","","","","",""
"html-keyboard-response","47","58185","0.0-5.0-2.14","63ead6f452e11793b2f8dab8","bdp_rd","Sat Mar 25 2023 16:45:02 GMT-0700 (Pacific Daylight Time)","169807","","1922","","","","offer","","<div class='trialBorder'><div class='vertical-center'><img style='vertical-align:center; align:center' src=img/fixation3.jpg></div><div class='cl'><div class='vertical-center'>$21<br>with a<br>50% chance</div></div><div class='cr'><div class='vertical-center'>$2<br>for<br>sure</div></div><div class='respDivL'><div class='vertical-center'>(E)</div></div><div class='respDivR'><div class='vertical-center'>(I)</div></div></div>","E","$2","$21","1","2","21","RISKY"
"html-keyboard-response","48","58438","0.0-5.0-3.14","63ead6f452e11793b2f8dab8","bdp_rd","Sat Mar 25 2023 16:45:02 GMT-0700 (Pacific Daylight Time)","169807","","null","","","","offerFB","","<div class='trialBorder'><div class='vertical-center'><img style='vertical-align:center; align:center' src=img/fixation3.jpg></div><div class='cl'><div class='vertical-center'><font style='color:orange'>$21<br>with a<br>50% chance</font></div></div><div class='cr'><div class='vertical-center'>$2<br>for<br>sure</div></div><div class='respDivL'><div class='vertical-center'><font style='color:orange'>(E)</font></div></div><div class='respDivR'><div class='vertical-center'>(I)</div></div></div>","null","$2","$21","1","2","21",""
"html-keyboard-response","49","58940","0.0-5.0-1.15","63ead6f452e11793b2f8dab8","bdp_rd","Sat Mar 25 2023 16:45:02 GMT-0700 (Pacific Daylight Time)","169807","","null","","","","FIX","","<div class='trialBorder'><div class='vertical-center'><img style='vertical-align:center; align:center' src=img/fixation3.jpg></div></div>","null","","","","","",""
"html-keyboard-response","50","60983","0.0-5.0-2.15","63ead6f452e11793b2f8dab8","bdp_rd","Sat Mar 25 2023 16:45:02 GMT-0700 (Pacific Daylight Time)","169807","","2041","","","","offer","","<div class='trialBorder'><div class='vertical-center'><img style='vertical-align:center; align:center' src=img/fixation3.jpg></div><div class='cl'><div class='vertical-center'>$12<br>with a<br>50% chance</div></div><div class='cr'><div class='vertical-center'>$3<br>for<br>sure</div></div><div class='respDivL'><div class='vertical-center'>(E)</div></div><div class='respDivR'><div class='vertical-center'>(I)</div></div></div>","E","$3","$12","1","3","12","RISKY"
"html-keyboard-response","51","61236","0.0-5.0-3.15","63ead6f452e11793b2f8dab8","bdp_rd","Sat Mar 25 2023 16:45:02 GMT-0700 (Pacific Daylight Time)","169807","","null","","","","offerFB","","<div class='trialBorder'><div class='vertical-center'><img style='vertical-align:center; align:center' src=img/fixation3.jpg></div><div class='cl'><div class='vertical-center'><font style='color:orange'>$12<br>with a<br>50% chance</font></div></div><div class='cr'><div class='vertical-center'>$3<br>for<br>sure</div></div><div class='respDivL'><div class='vertical-center'><font style='color:orange'>(E)</font></div></div><div class='respDivR'><div class='vertical-center'>(I)</div></div></div>","null","$3","$12","1","3","12",""
"html-keyboard-response","52","61739","0.0-5.0-1.16","63ead6f452e11793b2f8dab8","bdp_rd","Sat Mar 25 2023 16:45:02 GMT-0700 (Pacific Daylight Time)","169807","","null","","","","FIX","","<div class='trialBorder'><div class='vertical-center'><img style='vertical-align:center; align:center' src=img/fixation3.jpg></div></div>","null","","","","","",""
"html-keyboard-response","53","64523","0.0-5.0-2.16","63ead6f452e11793b2f8dab8","bdp_rd","Sat Mar 25 2023 16:45:02 GMT-0700 (Pacific Daylight Time)","169807","","2782","","","","offer","","<div class='trialBorder'><div class='vertical-center'><img style='vertical-align:center; align:center' src=img/fixation3.jpg></div><div class='cl'><div class='vertical-center'>$47<br>with a<br>50% chance</div></div><div class='cr'><div class='vertical-center'>$27<br>for<br>sure</div></div><div class='respDivL'><div class='vertical-center'>(E)</div></div><div class='respDivR'><div class='vertical-center'>(I)</div></div></div>","I","$27","$47","1","27","47","SURE"
"html-keyboard-response","54","64778","0.0-5.0-3.16","63ead6f452e11793b2f8dab8","bdp_rd","Sat Mar 25 2023 16:45:02 GMT-0700 (Pacific Daylight Time)","169807","","null","","","","offerFB","","<div class='trialBorder'><div class='vertical-center'><img style='vertical-align:center; align:center' src=img/fixation3.jpg></div><div class='cl'><div class='vertical-center'>$47<br>with a<br>50% chance</div></div><div class='cr'><div class='vertical-center'><font style='color:orange'>$27<br>for<br>sure</font></div></div><div class='respDivL'><div class='vertical-center'>(E)</div></div><div class='respDivR'><div class='vertical-center'><font style='color:orange'>(I)</font></div></div></div>","null","$27","$47","1","27","47",""
"html-keyboard-response","55","65280","0.0-5.0-1.17","63ead6f452e11793b2f8dab8","bdp_rd","Sat Mar 25 2023 16:45:02 GMT-0700 (Pacific Daylight Time)","169807","","null","","","","FIX","","<div class='trialBorder'><div class='vertical-center'><img style='vertical-align:center; align:center' src=img/fixation3.jpg></div></div>","null","","","","","",""
"html-keyboard-response","56","67402","0.0-5.0-2.17","63ead6f452e11793b2f8dab8","bdp_rd","Sat Mar 25 2023 16:45:02 GMT-0700 (Pacific Daylight Time)","169807","","2119","","","","offer","","<div class='trialBorder'><div class='vertical-center'><img style='vertical-align:center; align:center' src=img/fixation3.jpg></div><div class='cl'><div class='vertical-center'>$53<br>for<br>sure</div></div><div class='cr'><div class='vertical-center'>$98<br>with a<br>50% chance</div></div><div class='respDivL'><div class='vertical-center'>(E)</div></div><div class='respDivR'><div class='vertical-center'>(I)</div></div></div>","E","$53","$98","0","53","98","SURE"
"html-keyboard-response","57","67656","0.0-5.0-3.17","63ead6f452e11793b2f8dab8","bdp_rd","Sat Mar 25 2023 16:45:02 GMT-0700 (Pacific Daylight Time)","169807","","null","","","","offerFB","","<div class='trialBorder'><div class='vertical-center'><img style='vertical-align:center; align:center' src=img/fixation3.jpg></div><div class='cl'><div class='vertical-center'><font style='color:orange'>$53<br>for<br>sure</font></div></div><div class='cr'><div class='vertical-center'>$98<br>with a<br>50% chance</div></div><div class='respDivL'><div class='vertical-center'><font style='color:orange'>(E)</font></div></div><div class='respDivR'><div class='vertical-center'>(I)</div></div></div>","null","$53","$98","0","53","98",""
"html-keyboard-response","58","68158","0.0-5.0-1.18","63ead6f452e11793b2f8dab8","bdp_rd","Sat Mar 25 2023 16:45:02 GMT-0700 (Pacific Daylight Time)","169807","","null","","","","FIX","","<div class='trialBorder'><div class='vertical-center'><img style='vertical-align:center; align:center' src=img/fixation3.jpg></div></div>","null","","","","","",""
"html-keyboard-response","59","69289","0.0-5.0-2.18","63ead6f452e11793b2f8dab8","bdp_rd","Sat Mar 25 2023 16:45:02 GMT-0700 (Pacific Daylight Time)","169807","","1128","","","","offer","","<div class='trialBorder'><div class='vertical-center'><img style='vertical-align:center; align:center' src=img/fixation3.jpg></div><div class='cl'><div class='vertical-center'>$1<br>for<br>sure</div></div><div class='cr'><div class='vertical-center'>$30<br>with a<br>50% chance</div></div><div class='respDivL'><div class='vertical-center'>(E)</div></div><div class='respDivR'><div class='vertical-center'>(I)</div></div></div>","I","$1","$30","0","1","30","RISKY"
"html-keyboard-response","60","69543","0.0-5.0-3.18","63ead6f452e11793b2f8dab8","bdp_rd","Sat Mar 25 2023 16:45:02 GMT-0700 (Pacific Daylight Time)","169807","","null","","","","offerFB","","<div class='trialBorder'><div class='vertical-center'><img style='vertical-align:center; align:center' src=img/fixation3.jpg></div><div class='cl'><div class='vertical-center'>$1<br>for<br>sure</div></div><div class='cr'><div class='vertical-center'><font style='color:orange'>$30<br>with a<br>50% chance</font></div></div><div class='respDivL'><div class='vertical-center'>(E)</div></div><div class='respDivR'><div class='vertical-center'><font style='color:orange'>(I)</font></div></div></div>","null","$1","$30","0","1","30",""
"html-keyboard-response","61","70044","0.0-5.0-1.19","63ead6f452e11793b2f8dab8","bdp_rd","Sat Mar 25 2023 16:45:02 GMT-0700 (Pacific Daylight Time)","169807","","null","","","","FIX","","<div class='trialBorder'><div class='vertical-center'><img style='vertical-align:center; align:center' src=img/fixation3.jpg></div></div>","null","","","","","",""
"html-keyboard-response","62","70860","0.0-5.0-2.19","63ead6f452e11793b2f8dab8","bdp_rd","Sat Mar 25 2023 16:45:02 GMT-0700 (Pacific Daylight Time)","169807","","813","","","","offer","","<div class='trialBorder'><div class='vertical-center'><img style='vertical-align:center; align:center' src=img/fixation3.jpg></div><div class='cl'><div class='vertical-center'>$2<br>for<br>sure</div></div><div class='cr'><div class='vertical-center'>$64<br>with a<br>50% chance</div></div><div class='respDivL'><div class='vertical-center'>(E)</div></div><div class='respDivR'><div class='vertical-center'>(I)</div></div></div>","I","$2","$64","0","2","64","RISKY"
"html-keyboard-response","63","71113","0.0-5.0-3.19","63ead6f452e11793b2f8dab8","bdp_rd","Sat Mar 25 2023 16:45:02 GMT-0700 (Pacific Daylight Time)","169807","","null","","","","offerFB","","<div class='trialBorder'><div class='vertical-center'><img style='vertical-align:center; align:center' src=img/fixation3.jpg></div><div class='cl'><div class='vertical-center'>$2<br>for<br>sure</div></div><div class='cr'><div class='vertical-center'><font style='color:orange'>$64<br>with a<br>50% chance</font></div></div><div class='respDivL'><div class='vertical-center'>(E)</div></div><div class='respDivR'><div class='vertical-center'><font style='color:orange'>(I)</font></div></div></div>","null","$2","$64","0","2","64",""
"html-keyboard-response","64","71615","0.0-5.0-1.20","63ead6f452e11793b2f8dab8","bdp_rd","Sat Mar 25 2023 16:45:02 GMT-0700 (Pacific Daylight Time)","169807","","null","","","","FIX","","<div class='trialBorder'><div class='vertical-center'><img style='vertical-align:center; align:center' src=img/fixation3.jpg></div></div>","null","","","","","",""
"html-keyboard-response","65","72580","0.0-5.0-2.20","63ead6f452e11793b2f8dab8","bdp_rd","Sat Mar 25 2023 16:45:02 GMT-0700 (Pacific Daylight Time)","169807","","963","","","","offer","","<div class='trialBorder'><div class='vertical-center'><img style='vertical-align:center; align:center' src=img/fixation3.jpg></div><div class='cl'><div class='vertical-center'>$38<br>with a<br>50% chance</div></div><div class='cr'><div class='vertical-center'>$16<br>for<br>sure</div></div><div class='respDivL'><div class='vertical-center'>(E)</div></div><div class='respDivR'><div class='vertical-center'>(I)</div></div></div>","I","$16","$38","1","16","38","SURE"
"html-keyboard-response","66","72834","0.0-5.0-3.20","63ead6f452e11793b2f8dab8","bdp_rd","Sat Mar 25 2023 16:45:02 GMT-0700 (Pacific Daylight Time)","169807","","null","","","","offerFB","","<div class='trialBorder'><div class='vertical-center'><img style='vertical-align:center; align:center' src=img/fixation3.jpg></div><div class='cl'><div class='vertical-center'>$38<br>with a<br>50% chance</div></div><div class='cr'><div class='vertical-center'><font style='color:orange'>$16<br>for<br>sure</font></div></div><div class='respDivL'><div class='vertical-center'>(E)</div></div><div class='respDivR'><div class='vertical-center'><font style='color:orange'>(I)</font></div></div></div>","null","$16","$38","1","16","38",""
"html-keyboard-response","67","73337","0.0-5.0-1.21","63ead6f452e11793b2f8dab8","bdp_rd","Sat Mar 25 2023 16:45:02 GMT-0700 (Pacific Daylight Time)","169807","","null","","","","FIX","","<div class='trialBorder'><div class='vertical-center'><img style='vertical-align:center; align:center' src=img/fixation3.jpg></div></div>","null","","","","","",""
"html-keyboard-response","68","74750","0.0-5.0-2.21","63ead6f452e11793b2f8dab8","bdp_rd","Sat Mar 25 2023 16:45:02 GMT-0700 (Pacific Daylight Time)","169807","","1411","","","","offer","","<div class='trialBorder'><div class='vertical-center'><img style='vertical-align:center; align:center' src=img/fixation3.jpg></div><div class='cl'><div class='vertical-center'>$31<br>for<br>sure</div></div><div class='cr'><div class='vertical-center'>$78<br>with a<br>50% chance</div></div><div class='respDivL'><div class='vertical-center'>(E)</div></div><div class='respDivR'><div class='vertical-center'>(I)</div></div></div>","E","$31","$78","0","31","78","SURE"
"html-keyboard-response","69","75004","0.0-5.0-3.21","63ead6f452e11793b2f8dab8","bdp_rd","Sat Mar 25 2023 16:45:02 GMT-0700 (Pacific Daylight Time)","169807","","null","","","","offerFB","","<div class='trialBorder'><div class='vertical-center'><img style='vertical-align:center; align:center' src=img/fixation3.jpg></div><div class='cl'><div class='vertical-center'><font style='color:orange'>$31<br>for<br>sure</font></div></div><div class='cr'><div class='vertical-center'>$78<br>with a<br>50% chance</div></div><div class='respDivL'><div class='vertical-center'><font style='color:orange'>(E)</font></div></div><div class='respDivR'><div class='vertical-center'>(I)</div></div></div>","null","$31","$78","0","31","78",""
"html-keyboard-response","70","75507","0.0-5.0-1.22","63ead6f452e11793b2f8dab8","bdp_rd","Sat Mar 25 2023 16:45:02 GMT-0700 (Pacific Daylight Time)","169807","","null","","","","FIX","","<div class='trialBorder'><div class='vertical-center'><img style='vertical-align:center; align:center' src=img/fixation3.jpg></div></div>","null","","","","","",""
"html-keyboard-response","71","77050","0.0-5.0-2.22","63ead6f452e11793b2f8dab8","bdp_rd","Sat Mar 25 2023 16:45:02 GMT-0700 (Pacific Daylight Time)","169807","","1541","","","","offer","","<div class='trialBorder'><div class='vertical-center'><img style='vertical-align:center; align:center' src=img/fixation3.jpg></div><div class='cl'><div class='vertical-center'>$24<br>with a<br>50% chance</div></div><div class='cr'><div class='vertical-center'>$13<br>for<br>sure</div></div><div class='respDivL'><div class='vertical-center'>(E)</div></div><div class='respDivR'><div class='vertical-center'>(I)</div></div></div>","E","$13","$24","1","13","24","RISKY"
"html-keyboard-response","72","77303","0.0-5.0-3.22","63ead6f452e11793b2f8dab8","bdp_rd","Sat Mar 25 2023 16:45:02 GMT-0700 (Pacific Daylight Time)","169807","","null","","","","offerFB","","<div class='trialBorder'><div class='vertical-center'><img style='vertical-align:center; align:center' src=img/fixation3.jpg></div><div class='cl'><div class='vertical-center'><font style='color:orange'>$24<br>with a<br>50% chance</font></div></div><div class='cr'><div class='vertical-center'>$13<br>for<br>sure</div></div><div class='respDivL'><div class='vertical-center'><font style='color:orange'>(E)</font></div></div><div class='respDivR'><div class='vertical-center'>(I)</div></div></div>","null","$13","$24","1","13","24",""
"html-keyboard-response","73","77806","0.0-5.0-1.23","63ead6f452e11793b2f8dab8","bdp_rd","Sat Mar 25 2023 16:45:02 GMT-0700 (Pacific Daylight Time)","169807","","null","","","","FIX","","<div class='trialBorder'><div class='vertical-center'><img style='vertical-align:center; align:center' src=img/fixation3.jpg></div></div>","null","","","","","",""
"html-keyboard-response","74","79903","0.0-5.0-2.23","63ead6f452e11793b2f8dab8","bdp_rd","Sat Mar 25 2023 16:45:02 GMT-0700 (Pacific Daylight Time)","169807","","2094","","","","offer","","<div class='trialBorder'><div class='vertical-center'><img style='vertical-align:center; align:center' src=img/fixation3.jpg></div><div class='cl'><div class='vertical-center'>$71<br>with a<br>50% chance</div></div><div class='cr'><div class='vertical-center'>$7<br>for<br>sure</div></div><div class='respDivL'><div class='vertical-center'>(E)</div></div><div class='respDivR'><div class='vertical-center'>(I)</div></div></div>","E","$7","$71","1","7","71","RISKY"
"html-keyboard-response","75","80156","0.0-5.0-3.23","63ead6f452e11793b2f8dab8","bdp_rd","Sat Mar 25 2023 16:45:02 GMT-0700 (Pacific Daylight Time)","169807","","null","","","","offerFB","","<div class='trialBorder'><div class='vertical-center'><img style='vertical-align:center; align:center' src=img/fixation3.jpg></div><div class='cl'><div class='vertical-center'><font style='color:orange'>$71<br>with a<br>50% chance</font></div></div><div class='cr'><div class='vertical-center'>$7<br>for<br>sure</div></div><div class='respDivL'><div class='vertical-center'><font style='color:orange'>(E)</font></div></div><div class='respDivR'><div class='vertical-center'>(I)</div></div></div>","null","$7","$71","1","7","71",""
"html-keyboard-response","76","80658","0.0-5.0-1.24","63ead6f452e11793b2f8dab8","bdp_rd","Sat Mar 25 2023 16:45:02 GMT-0700 (Pacific Daylight Time)","169807","","null","","","","FIX","","<div class='trialBorder'><div class='vertical-center'><img style='vertical-align:center; align:center' src=img/fixation3.jpg></div></div>","null","","","","","",""
"html-keyboard-response","77","82472","0.0-5.0-2.24","63ead6f452e11793b2f8dab8","bdp_rd","Sat Mar 25 2023 16:45:02 GMT-0700 (Pacific Daylight Time)","169807","","1813","","","","offer","","<div class='trialBorder'><div class='vertical-center'><img style='vertical-align:center; align:center' src=img/fixation3.jpg></div><div class='cl'><div class='vertical-center'>$17<br>with a<br>50% chance</div></div><div class='cr'><div class='vertical-center'>$3<br>for<br>sure</div></div><div class='respDivL'><div class='vertical-center'>(E)</div></div><div class='respDivR'><div class='vertical-center'>(I)</div></div></div>","E","$3","$17","1","3","17","RISKY"
"html-keyboard-response","78","82725","0.0-5.0-3.24","63ead6f452e11793b2f8dab8","bdp_rd","Sat Mar 25 2023 16:45:02 GMT-0700 (Pacific Daylight Time)","169807","","null","","","","offerFB","","<div class='trialBorder'><div class='vertical-center'><img style='vertical-align:center; align:center' src=img/fixation3.jpg></div><div class='cl'><div class='vertical-center'><font style='color:orange'>$17<br>with a<br>50% chance</font></div></div><div class='cr'><div class='vertical-center'>$3<br>for<br>sure</div></div><div class='respDivL'><div class='vertical-center'><font style='color:orange'>(E)</font></div></div><div class='respDivR'><div class='vertical-center'>(I)</div></div></div>","null","$3","$17","1","3","17",""
"html-keyboard-response","79","83227","0.0-5.0-1.25","63ead6f452e11793b2f8dab8","bdp_rd","Sat Mar 25 2023 16:45:02 GMT-0700 (Pacific Daylight Time)","169807","","null","","","","FIX","","<div class='trialBorder'><div class='vertical-center'><img style='vertical-align:center; align:center' src=img/fixation3.jpg></div></div>","null","","","","","",""
"html-keyboard-response","80","84817","0.0-5.0-2.25","63ead6f452e11793b2f8dab8","bdp_rd","Sat Mar 25 2023 16:45:02 GMT-0700 (Pacific Daylight Time)","169807","","1588","","","","offer","","<div class='trialBorder'><div class='vertical-center'><img style='vertical-align:center; align:center' src=img/fixation3.jpg></div><div class='cl'><div class='vertical-center'>$22<br>for<br>sure</div></div><div class='cr'><div class='vertical-center'>$59<br>with a<br>50% chance</div></div><div class='respDivL'><div class='vertical-center'>(E)</div></div><div class='respDivR'><div class='vertical-center'>(I)</div></div></div>","E","$22","$59","0","22","59","SURE"
"html-keyboard-response","81","85071","0.0-5.0-3.25","63ead6f452e11793b2f8dab8","bdp_rd","Sat Mar 25 2023 16:45:02 GMT-0700 (Pacific Daylight Time)","169807","","null","","","","offerFB","","<div class='trialBorder'><div class='vertical-center'><img style='vertical-align:center; align:center' src=img/fixation3.jpg></div><div class='cl'><div class='vertical-center'><font style='color:orange'>$22<br>for<br>sure</font></div></div><div class='cr'><div class='vertical-center'>$59<br>with a<br>50% chance</div></div><div class='respDivL'><div class='vertical-center'><font style='color:orange'>(E)</font></div></div><div class='respDivR'><div class='vertical-center'>(I)</div></div></div>","null","$22","$59","0","22","59",""
"html-keyboard-response","82","85572","0.0-5.0-1.26","63ead6f452e11793b2f8dab8","bdp_rd","Sat Mar 25 2023 16:45:02 GMT-0700 (Pacific Daylight Time)","169807","","null","","","","FIX","","<div class='trialBorder'><div class='vertical-center'><img style='vertical-align:center; align:center' src=img/fixation3.jpg></div></div>","null","","","","","",""
"html-keyboard-response","83","86335","0.0-5.0-2.26","63ead6f452e11793b2f8dab8","bdp_rd","Sat Mar 25 2023 16:45:02 GMT-0700 (Pacific Daylight Time)","169807","","760","","","","offer","","<div class='trialBorder'><div class='vertical-center'><img style='vertical-align:center; align:center' src=img/fixation3.jpg></div><div class='cl'><div class='vertical-center'>$18<br>for<br>sure</div></div><div class='cr'><div class='vertical-center'>$39<br>with a<br>50% chance</div></div><div class='respDivL'><div class='vertical-center'>(E)</div></div><div class='respDivR'><div class='vertical-center'>(I)</div></div></div>","E","$18","$39","0","18","39","SURE"
"html-keyboard-response","84","86587","0.0-5.0-3.26","63ead6f452e11793b2f8dab8","bdp_rd","Sat Mar 25 2023 16:45:02 GMT-0700 (Pacific Daylight Time)","169807","","null","","","","offerFB","","<div class='trialBorder'><div class='vertical-center'><img style='vertical-align:center; align:center' src=img/fixation3.jpg></div><div class='cl'><div class='vertical-center'><font style='color:orange'>$18<br>for<br>sure</font></div></div><div class='cr'><div class='vertical-center'>$39<br>with a<br>50% chance</div></div><div class='respDivL'><div class='vertical-center'><font style='color:orange'>(E)</font></div></div><div class='respDivR'><div class='vertical-center'>(I)</div></div></div>","null","$18","$39","0","18","39",""
"html-keyboard-response","85","87089","0.0-5.0-1.27","63ead6f452e11793b2f8dab8","bdp_rd","Sat Mar 25 2023 16:45:02 GMT-0700 (Pacific Daylight Time)","169807","","null","","","","FIX","","<div class='trialBorder'><div class='vertical-center'><img style='vertical-align:center; align:center' src=img/fixation3.jpg></div></div>","null","","","","","",""
"html-keyboard-response","86","88261","0.0-5.0-2.27","63ead6f452e11793b2f8dab8","bdp_rd","Sat Mar 25 2023 16:45:02 GMT-0700 (Pacific Daylight Time)","169807","","1169","","","","offer","","<div class='trialBorder'><div class='vertical-center'><img style='vertical-align:center; align:center' src=img/fixation3.jpg></div><div class='cl'><div class='vertical-center'>$8<br>for<br>sure</div></div><div class='cr'><div class='vertical-center'>$23<br>with a<br>50% chance</div></div><div class='respDivL'><div class='vertical-center'>(E)</div></div><div class='respDivR'><div class='vertical-center'>(I)</div></div></div>","E","$8","$23","0","8","23","SURE"
"html-keyboard-response","87","88513","0.0-5.0-3.27","63ead6f452e11793b2f8dab8","bdp_rd","Sat Mar 25 2023 16:45:02 GMT-0700 (Pacific Daylight Time)","169807","","null","","","","offerFB","","<div class='trialBorder'><div class='vertical-center'><img style='vertical-align:center; align:center' src=img/fixation3.jpg></div><div class='cl'><div class='vertical-center'><font style='color:orange'>$8<br>for<br>sure</font></div></div><div class='cr'><div class='vertical-center'>$23<br>with a<br>50% chance</div></div><div class='respDivL'><div class='vertical-center'><font style='color:orange'>(E)</font></div></div><div class='respDivR'><div class='vertical-center'>(I)</div></div></div>","null","$8","$23","0","8","23",""
"html-keyboard-response","88","89016","0.0-5.0-1.28","63ead6f452e11793b2f8dab8","bdp_rd","Sat Mar 25 2023 16:45:02 GMT-0700 (Pacific Daylight Time)","169807","","null","","","","FIX","","<div class='trialBorder'><div class='vertical-center'><img style='vertical-align:center; align:center' src=img/fixation3.jpg></div></div>","null","","","","","",""
"html-keyboard-response","89","90542","0.0-5.0-2.28","63ead6f452e11793b2f8dab8","bdp_rd","Sat Mar 25 2023 16:45:02 GMT-0700 (Pacific Daylight Time)","169807","","1523","","","","offer","","<div class='trialBorder'><div class='vertical-center'><img style='vertical-align:center; align:center' src=img/fixation3.jpg></div><div class='cl'><div class='vertical-center'>$51<br>with a<br>50% chance</div></div><div class='cr'><div class='vertical-center'>$19<br>for<br>sure</div></div><div class='respDivL'><div class='vertical-center'>(E)</div></div><div class='respDivR'><div class='vertical-center'>(I)</div></div></div>","I","$19","$51","1","19","51","SURE"
"html-keyboard-response","90","90793","0.0-5.0-3.28","63ead6f452e11793b2f8dab8","bdp_rd","Sat Mar 25 2023 16:45:02 GMT-0700 (Pacific Daylight Time)","169807","","null","","","","offerFB","","<div class='trialBorder'><div class='vertical-center'><img style='vertical-align:center; align:center' src=img/fixation3.jpg></div><div class='cl'><div class='vertical-center'>$51<br>with a<br>50% chance</div></div><div class='cr'><div class='vertical-center'><font style='color:orange'>$19<br>for<br>sure</font></div></div><div class='respDivL'><div class='vertical-center'>(E)</div></div><div class='respDivR'><div class='vertical-center'><font style='color:orange'>(I)</font></div></div></div>","null","$19","$51","1","19","51",""
"html-keyboard-response","91","91295","0.0-5.0-1.29","63ead6f452e11793b2f8dab8","bdp_rd","Sat Mar 25 2023 16:45:02 GMT-0700 (Pacific Daylight Time)","169807","","null","","","","FIX","","<div class='trialBorder'><div class='vertical-center'><img style='vertical-align:center; align:center' src=img/fixation3.jpg></div></div>","null","","","","","",""
"html-keyboard-response","92","93143","0.0-5.0-2.29","63ead6f452e11793b2f8dab8","bdp_rd","Sat Mar 25 2023 16:45:02 GMT-0700 (Pacific Daylight Time)","169807","","1846","","","","offer","","<div class='trialBorder'><div class='vertical-center'><img style='vertical-align:center; align:center' src=img/fixation3.jpg></div><div class='cl'><div class='vertical-center'>$11<br>with a<br>50% chance</div></div><div class='cr'><div class='vertical-center'>$4<br>for<br>sure</div></div><div class='respDivL'><div class='vertical-center'>(E)</div></div><div class='respDivR'><div class='vertical-center'>(I)</div></div></div>","I","$4","$11","1","4","11","SURE"
"html-keyboard-response","93","93395","0.0-5.0-3.29","63ead6f452e11793b2f8dab8","bdp_rd","Sat Mar 25 2023 16:45:02 GMT-0700 (Pacific Daylight Time)","169807","","null","","","","offerFB","","<div class='trialBorder'><div class='vertical-center'><img style='vertical-align:center; align:center' src=img/fixation3.jpg></div><div class='cl'><div class='vertical-center'>$11<br>with a<br>50% chance</div></div><div class='cr'><div class='vertical-center'><font style='color:orange'>$4<br>for<br>sure</font></div></div><div class='respDivL'><div class='vertical-center'>(E)</div></div><div class='respDivR'><div class='vertical-center'><font style='color:orange'>(I)</font></div></div></div>","null","$4","$11","1","4","11",""
"html-keyboard-response","94","93897","0.0-5.0-1.30","63ead6f452e11793b2f8dab8","bdp_rd","Sat Mar 25 2023 16:45:02 GMT-0700 (Pacific Daylight Time)","169807","","null","","","","FIX","","<div class='trialBorder'><div class='vertical-center'><img style='vertical-align:center; align:center' src=img/fixation3.jpg></div></div>","null","","","","","",""
"html-keyboard-response","95","95188","0.0-5.0-2.30","63ead6f452e11793b2f8dab8","bdp_rd","Sat Mar 25 2023 16:45:02 GMT-0700 (Pacific Daylight Time)","169807","","1287","","","","offer","","<div class='trialBorder'><div class='vertical-center'><img style='vertical-align:center; align:center' src=img/fixation3.jpg></div><div class='cl'><div class='vertical-center'>$33<br>with a<br>50% chance</div></div><div class='cr'><div class='vertical-center'>$1<br>for<br>sure</div></div><div class='respDivL'><div class='vertical-center'>(E)</div></div><div class='respDivR'><div class='vertical-center'>(I)</div></div></div>","E","$1","$33","1","1","33","RISKY"
"html-keyboard-response","96","95441","0.0-5.0-3.30","63ead6f452e11793b2f8dab8","bdp_rd","Sat Mar 25 2023 16:45:02 GMT-0700 (Pacific Daylight Time)","169807","","null","","","","offerFB","","<div class='trialBorder'><div class='vertical-center'><img style='vertical-align:center; align:center' src=img/fixation3.jpg></div><div class='cl'><div class='vertical-center'><font style='color:orange'>$33<br>with a<br>50% chance</font></div></div><div class='cr'><div class='vertical-center'>$1<br>for<br>sure</div></div><div class='respDivL'><div class='vertical-center'><font style='color:orange'>(E)</font></div></div><div class='respDivR'><div class='vertical-center'>(I)</div></div></div>","null","$1","$33","1","1","33",""
"html-keyboard-response","97","95943","0.0-5.0-1.31","63ead6f452e11793b2f8dab8","bdp_rd","Sat Mar 25 2023 16:45:02 GMT-0700 (Pacific Daylight Time)","169807","","null","","","","FIX","","<div class='trialBorder'><div class='vertical-center'><img style='vertical-align:center; align:center' src=img/fixation3.jpg></div></div>","null","","","","","",""
"html-keyboard-response","98","97594","0.0-5.0-2.31","63ead6f452e11793b2f8dab8","bdp_rd","Sat Mar 25 2023 16:45:02 GMT-0700 (Pacific Daylight Time)","169807","","1648","","","","offer","","<div class='trialBorder'><div class='vertical-center'><img style='vertical-align:center; align:center' src=img/fixation3.jpg></div><div class='cl'><div class='vertical-center'>$63<br>for<br>sure</div></div><div class='cr'><div class='vertical-center'>$100<br>with a<br>50% chance</div></div><div class='respDivL'><div class='vertical-center'>(E)</div></div><div class='respDivR'><div class='vertical-center'>(I)</div></div></div>","E","$63","$100","0","63","10","SURE"
"html-keyboard-response","99","97846","0.0-5.0-3.31","63ead6f452e11793b2f8dab8","bdp_rd","Sat Mar 25 2023 16:45:02 GMT-0700 (Pacific Daylight Time)","169807","","null","","","","offerFB","","<div class='trialBorder'><div class='vertical-center'><img style='vertical-align:center; align:center' src=img/fixation3.jpg></div><div class='cl'><div class='vertical-center'><font style='color:orange'>$63<br>for<br>sure</font></div></div><div class='cr'><div class='vertical-center'>$100<br>with a<br>50% chance</div></div><div class='respDivL'><div class='vertical-center'><font style='color:orange'>(E)</font></div></div><div class='respDivR'><div class='vertical-center'>(I)</div></div></div>","null","$63","$100","0","63","10",""
"html-keyboard-response","100","98348","0.0-5.0-1.32","63ead6f452e11793b2f8dab8","bdp_rd","Sat Mar 25 2023 16:45:02 GMT-0700 (Pacific Daylight Time)","169807","","null","","","","FIX","","<div class='trialBorder'><div class='vertical-center'><img style='vertical-align:center; align:center' src=img/fixation3.jpg></div></div>","null","","","","","",""
"html-keyboard-response","101","99392","0.0-5.0-2.32","63ead6f452e11793b2f8dab8","bdp_rd","Sat Mar 25 2023 16:45:02 GMT-0700 (Pacific Daylight Time)","169807","","1042","","","","offer","","<div class='trialBorder'><div class='vertical-center'><img style='vertical-align:center; align:center' src=img/fixation3.jpg></div><div class='cl'><div class='vertical-center'>$14<br>for<br>sure</div></div><div class='cr'><div class='vertical-center'>$29<br>with a<br>50% chance</div></div><div class='respDivL'><div class='vertical-center'>(E)</div></div><div class='respDivR'><div class='vertical-center'>(I)</div></div></div>","E","$14","$29","0","14","29","SURE"
"html-keyboard-response","102","99645","0.0-5.0-3.32","63ead6f452e11793b2f8dab8","bdp_rd","Sat Mar 25 2023 16:45:02 GMT-0700 (Pacific Daylight Time)","169807","","null","","","","offerFB","","<div class='trialBorder'><div class='vertical-center'><img style='vertical-align:center; align:center' src=img/fixation3.jpg></div><div class='cl'><div class='vertical-center'><font style='color:orange'>$14<br>for<br>sure</font></div></div><div class='cr'><div class='vertical-center'>$29<br>with a<br>50% chance</div></div><div class='respDivL'><div class='vertical-center'><font style='color:orange'>(E)</font></div></div><div class='respDivR'><div class='vertical-center'>(I)</div></div></div>","null","$14","$29","0","14","29",""
"html-keyboard-response","103","100147","0.0-5.0-1.33","63ead6f452e11793b2f8dab8","bdp_rd","Sat Mar 25 2023 16:45:02 GMT-0700 (Pacific Daylight Time)","169807","","null","","","","FIX","","<div class='trialBorder'><div class='vertical-center'><img style='vertical-align:center; align:center' src=img/fixation3.jpg></div></div>","null","","","","","",""
"html-keyboard-response","104","101759","0.0-5.0-2.33","63ead6f452e11793b2f8dab8","bdp_rd","Sat Mar 25 2023 16:45:02 GMT-0700 (Pacific Daylight Time)","169807","","1610","","","","offer","","<div class='trialBorder'><div class='vertical-center'><img style='vertical-align:center; align:center' src=img/fixation3.jpg></div><div class='cl'><div class='vertical-center'>$26<br>with a<br>50% chance</div></div><div class='cr'><div class='vertical-center'>$11<br>for<br>sure</div></div><div class='respDivL'><div class='vertical-center'>(E)</div></div><div class='respDivR'><div class='vertical-center'>(I)</div></div></div>","I","$11","$26","1","11","26","SURE"
"html-keyboard-response","105","102011","0.0-5.0-3.33","63ead6f452e11793b2f8dab8","bdp_rd","Sat Mar 25 2023 16:45:02 GMT-0700 (Pacific Daylight Time)","169807","","null","","","","offerFB","","<div class='trialBorder'><div class='vertical-center'><img style='vertical-align:center; align:center' src=img/fixation3.jpg></div><div class='cl'><div class='vertical-center'>$26<br>with a<br>50% chance</div></div><div class='cr'><div class='vertical-center'><font style='color:orange'>$11<br>for<br>sure</font></div></div><div class='respDivL'><div class='vertical-center'>(E)</div></div><div class='respDivR'><div class='vertical-center'><font style='color:orange'>(I)</font></div></div></div>","null","$11","$26","1","11","26",""
"html-keyboard-response","106","102514","0.0-5.0-1.34","63ead6f452e11793b2f8dab8","bdp_rd","Sat Mar 25 2023 16:45:02 GMT-0700 (Pacific Daylight Time)","169807","","null","","","","FIX","","<div class='trialBorder'><div class='vertical-center'><img style='vertical-align:center; align:center' src=img/fixation3.jpg></div></div>","null","","","","","",""
"html-keyboard-response","107","104410","0.0-5.0-2.34","63ead6f452e11793b2f8dab8","bdp_rd","Sat Mar 25 2023 16:45:02 GMT-0700 (Pacific Daylight Time)","169807","","1894","","","","offer","","<div class='trialBorder'><div class='vertical-center'><img style='vertical-align:center; align:center' src=img/fixation3.jpg></div><div class='cl'><div class='vertical-center'>$68<br>with a<br>50% chance</div></div><div class='cr'><div class='vertical-center'>$30<br>for<br>sure</div></div><div class='respDivL'><div class='vertical-center'>(E)</div></div><div class='respDivR'><div class='vertical-center'>(I)</div></div></div>","I","$30","$68","1","30","68","SURE"
"html-keyboard-response","108","104663","0.0-5.0-3.34","63ead6f452e11793b2f8dab8","bdp_rd","Sat Mar 25 2023 16:45:02 GMT-0700 (Pacific Daylight Time)","169807","","null","","","","offerFB","","<div class='trialBorder'><div class='vertical-center'><img style='vertical-align:center; align:center' src=img/fixation3.jpg></div><div class='cl'><div class='vertical-center'>$68<br>with a<br>50% chance</div></div><div class='cr'><div class='vertical-center'><font style='color:orange'>$30<br>for<br>sure</font></div></div><div class='respDivL'><div class='vertical-center'>(E)</div></div><div class='respDivR'><div class='vertical-center'><font style='color:orange'>(I)</font></div></div></div>","null","$30","$68","1","30","68",""
"html-keyboard-response","109","105166","0.0-5.0-1.35","63ead6f452e11793b2f8dab8","bdp_rd","Sat Mar 25 2023 16:45:02 GMT-0700 (Pacific Daylight Time)","169807","","null","","","","FIX","","<div class='trialBorder'><div class='vertical-center'><img style='vertical-align:center; align:center' src=img/fixation3.jpg></div></div>","null","","","","","",""
"html-keyboard-response","110","107258","0.0-5.0-2.35","63ead6f452e11793b2f8dab8","bdp_rd","Sat Mar 25 2023 16:45:02 GMT-0700 (Pacific Daylight Time)","169807","","2090","","","","offer","","<div class='trialBorder'><div class='vertical-center'><img style='vertical-align:center; align:center' src=img/fixation3.jpg></div><div class='cl'><div class='vertical-center'>$18<br>for<br>sure</div></div><div class='cr'><div class='vertical-center'>$36<br>with a<br>50% chance</div></div><div class='respDivL'><div class='vertical-center'>(E)</div></div><div class='respDivR'><div class='vertical-center'>(I)</div></div></div>","E","$18","$36","0","18","36","SURE"
"html-keyboard-response","111","107510","0.0-5.0-3.35","63ead6f452e11793b2f8dab8","bdp_rd","Sat Mar 25 2023 16:45:02 GMT-0700 (Pacific Daylight Time)","169807","","null","","","","offerFB","","<div class='trialBorder'><div class='vertical-center'><img style='vertical-align:center; align:center' src=img/fixation3.jpg></div><div class='cl'><div class='vertical-center'><font style='color:orange'>$18<br>for<br>sure</font></div></div><div class='cr'><div class='vertical-center'>$36<br>with a<br>50% chance</div></div><div class='respDivL'><div class='vertical-center'><font style='color:orange'>(E)</font></div></div><div class='respDivR'><div class='vertical-center'>(I)</div></div></div>","null","$18","$36","0","18","36",""
"html-keyboard-response","112","108011","0.0-5.0-1.36","63ead6f452e11793b2f8dab8","bdp_rd","Sat Mar 25 2023 16:45:02 GMT-0700 (Pacific Daylight Time)","169807","","null","","","","FIX","","<div class='trialBorder'><div class='vertical-center'><img style='vertical-align:center; align:center' src=img/fixation3.jpg></div></div>","null","","","","","",""
"html-keyboard-response","113","109558","0.0-5.0-2.36","63ead6f452e11793b2f8dab8","bdp_rd","Sat Mar 25 2023 16:45:02 GMT-0700 (Pacific Daylight Time)","169807","","1546","","","","offer","","<div class='trialBorder'><div class='vertical-center'><img style='vertical-align:center; align:center' src=img/fixation3.jpg></div><div class='cl'><div class='vertical-center'>$34<br>for<br>sure</div></div><div class='cr'><div class='vertical-center'>$48<br>with a<br>50% chance</div></div><div class='respDivL'><div class='vertical-center'>(E)</div></div><div class='respDivR'><div class='vertical-center'>(I)</div></div></div>","E","$34","$48","0","34","48","SURE"
"html-keyboard-response","114","109811","0.0-5.0-3.36","63ead6f452e11793b2f8dab8","bdp_rd","Sat Mar 25 2023 16:45:02 GMT-0700 (Pacific Daylight Time)","169807","","null","","","","offerFB","","<div class='trialBorder'><div class='vertical-center'><img style='vertical-align:center; align:center' src=img/fixation3.jpg></div><div class='cl'><div class='vertical-center'><font style='color:orange'>$34<br>for<br>sure</font></div></div><div class='cr'><div class='vertical-center'>$48<br>with a<br>50% chance</div></div><div class='respDivL'><div class='vertical-center'><font style='color:orange'>(E)</font></div></div><div class='respDivR'><div class='vertical-center'>(I)</div></div></div>","null","$34","$48","0","34","48",""
"html-keyboard-response","115","110313","0.0-5.0-1.37","63ead6f452e11793b2f8dab8","bdp_rd","Sat Mar 25 2023 16:45:02 GMT-0700 (Pacific Daylight Time)","169807","","null","","","","FIX","","<div class='trialBorder'><div class='vertical-center'><img style='vertical-align:center; align:center' src=img/fixation3.jpg></div></div>","null","","","","","",""
"html-keyboard-response","116","111432","0.0-5.0-2.37","63ead6f452e11793b2f8dab8","bdp_rd","Sat Mar 25 2023 16:45:02 GMT-0700 (Pacific Daylight Time)","169807","","1116","","","","offer","","<div class='trialBorder'><div class='vertical-center'><img style='vertical-align:center; align:center' src=img/fixation3.jpg></div><div class='cl'><div class='vertical-center'>$19<br>with a<br>50% chance</div></div><div class='cr'><div class='vertical-center'>$10<br>for<br>sure</div></div><div class='respDivL'><div class='vertical-center'>(E)</div></div><div class='respDivR'><div class='vertical-center'>(I)</div></div></div>","I","$10","$19","1","10","19","SURE"
"html-keyboard-response","117","111685","0.0-5.0-3.37","63ead6f452e11793b2f8dab8","bdp_rd","Sat Mar 25 2023 16:45:02 GMT-0700 (Pacific Daylight Time)","169807","","null","","","","offerFB","","<div class='trialBorder'><div class='vertical-center'><img style='vertical-align:center; align:center' src=img/fixation3.jpg></div><div class='cl'><div class='vertical-center'>$19<br>with a<br>50% chance</div></div><div class='cr'><div class='vertical-center'><font style='color:orange'>$10<br>for<br>sure</font></div></div><div class='respDivL'><div class='vertical-center'>(E)</div></div><div class='respDivR'><div class='vertical-center'><font style='color:orange'>(I)</font></div></div></div>","null","$10","$19","1","10","19",""
"html-keyboard-response","118","112188","0.0-5.0-1.38","63ead6f452e11793b2f8dab8","bdp_rd","Sat Mar 25 2023 16:45:02 GMT-0700 (Pacific Daylight Time)","169807","","null","","","","FIX","","<div class='trialBorder'><div class='vertical-center'><img style='vertical-align:center; align:center' src=img/fixation3.jpg></div></div>","null","","","","","",""
"html-keyboard-response","119","113580","0.0-5.0-2.38","63ead6f452e11793b2f8dab8","bdp_rd","Sat Mar 25 2023 16:45:02 GMT-0700 (Pacific Daylight Time)","169807","","1390","","","","offer","","<div class='trialBorder'><div class='vertical-center'><img style='vertical-align:center; align:center' src=img/fixation3.jpg></div><div class='cl'><div class='vertical-center'>$43<br>with a<br>50% chance</div></div><div class='cr'><div class='vertical-center'>$17<br>for<br>sure</div></div><div class='respDivL'><div class='vertical-center'>(E)</div></div><div class='respDivR'><div class='vertical-center'>(I)</div></div></div>","I","$17","$43","1","17","43","SURE"
"html-keyboard-response","120","113831","0.0-5.0-3.38","63ead6f452e11793b2f8dab8","bdp_rd","Sat Mar 25 2023 16:45:02 GMT-0700 (Pacific Daylight Time)","169807","","null","","","","offerFB","","<div class='trialBorder'><div class='vertical-center'><img style='vertical-align:center; align:center' src=img/fixation3.jpg></div><div class='cl'><div class='vertical-center'>$43<br>with a<br>50% chance</div></div><div class='cr'><div class='vertical-center'><font style='color:orange'>$17<br>for<br>sure</font></div></div><div class='respDivL'><div class='vertical-center'>(E)</div></div><div class='respDivR'><div class='vertical-center'><font style='color:orange'>(I)</font></div></div></div>","null","$17","$43","1","17","43",""
"html-keyboard-response","121","114333","0.0-5.0-1.39","63ead6f452e11793b2f8dab8","bdp_rd","Sat Mar 25 2023 16:45:02 GMT-0700 (Pacific Daylight Time)","169807","","null","","","","FIX","","<div class='trialBorder'><div class='vertical-center'><img style='vertical-align:center; align:center' src=img/fixation3.jpg></div></div>","null","","","","","",""
"html-keyboard-response","122","115328","0.0-5.0-2.39","63ead6f452e11793b2f8dab8","bdp_rd","Sat Mar 25 2023 16:45:02 GMT-0700 (Pacific Daylight Time)","169807","","994","","","","offer","","<div class='trialBorder'><div class='vertical-center'><img style='vertical-align:center; align:center' src=img/fixation3.jpg></div><div class='cl'><div class='vertical-center'>$10<br>with a<br>50% chance</div></div><div class='cr'><div class='vertical-center'>$7<br>for<br>sure</div></div><div class='respDivL'><div class='vertical-center'>(E)</div></div><div class='respDivR'><div class='vertical-center'>(I)</div></div></div>","E","$7","$10","1","7","10","RISKY"
"html-keyboard-response","123","115581","0.0-5.0-3.39","63ead6f452e11793b2f8dab8","bdp_rd","Sat Mar 25 2023 16:45:02 GMT-0700 (Pacific Daylight Time)","169807","","null","","","","offerFB","","<div class='trialBorder'><div class='vertical-center'><img style='vertical-align:center; align:center' src=img/fixation3.jpg></div><div class='cl'><div class='vertical-center'><font style='color:orange'>$10<br>with a<br>50% chance</font></div></div><div class='cr'><div class='vertical-center'>$7<br>for<br>sure</div></div><div class='respDivL'><div class='vertical-center'><font style='color:orange'>(E)</font></div></div><div class='respDivR'><div class='vertical-center'>(I)</div></div></div>","null","$7","$10","1","7","10",""
"html-keyboard-response","124","116083","0.0-5.0-1.40","63ead6f452e11793b2f8dab8","bdp_rd","Sat Mar 25 2023 16:45:02 GMT-0700 (Pacific Daylight Time)","169807","","null","","","","FIX","","<div class='trialBorder'><div class='vertical-center'><img style='vertical-align:center; align:center' src=img/fixation3.jpg></div></div>","null","","","","","",""
"html-keyboard-response","125","118058","0.0-5.0-2.40","63ead6f452e11793b2f8dab8","bdp_rd","Sat Mar 25 2023 16:45:02 GMT-0700 (Pacific Daylight Time)","169807","","1973","","","","offer","","<div class='trialBorder'><div class='vertical-center'><img style='vertical-align:center; align:center' src=img/fixation3.jpg></div><div class='cl'><div class='vertical-center'>$4<br>for<br>sure</div></div><div class='cr'><div class='vertical-center'>$14<br>with a<br>50% chance</div></div><div class='respDivL'><div class='vertical-center'>(E)</div></div><div class='respDivR'><div class='vertical-center'>(I)</div></div></div>","E","$4","$14","0","4","14","SURE"
"html-keyboard-response","126","118311","0.0-5.0-3.40","63ead6f452e11793b2f8dab8","bdp_rd","Sat Mar 25 2023 16:45:02 GMT-0700 (Pacific Daylight Time)","169807","","null","","","","offerFB","","<div class='trialBorder'><div class='vertical-center'><img style='vertical-align:center; align:center' src=img/fixation3.jpg></div><div class='cl'><div class='vertical-center'><font style='color:orange'>$4<br>for<br>sure</font></div></div><div class='cr'><div class='vertical-center'>$14<br>with a<br>50% chance</div></div><div class='respDivL'><div class='vertical-center'><font style='color:orange'>(E)</font></div></div><div class='respDivR'><div class='vertical-center'>(I)</div></div></div>","null","$4","$14","0","4","14",""
"html-keyboard-response","127","118813","0.0-5.0-1.41","63ead6f452e11793b2f8dab8","bdp_rd","Sat Mar 25 2023 16:45:02 GMT-0700 (Pacific Daylight Time)","169807","","null","","","","FIX","","<div class='trialBorder'><div class='vertical-center'><img style='vertical-align:center; align:center' src=img/fixation3.jpg></div></div>","null","","","","","",""
"html-keyboard-response","128","120932","0.0-5.0-2.41","63ead6f452e11793b2f8dab8","bdp_rd","Sat Mar 25 2023 16:45:02 GMT-0700 (Pacific Daylight Time)","169807","","2117","","","","offer","","<div class='trialBorder'><div class='vertical-center'><img style='vertical-align:center; align:center' src=img/fixation3.jpg></div><div class='cl'><div class='vertical-center'>$8<br>for<br>sure</div></div><div class='cr'><div class='vertical-center'>$45<br>with a<br>50% chance</div></div><div class='respDivL'><div class='vertical-center'>(E)</div></div><div class='respDivR'><div class='vertical-center'>(I)</div></div></div>","I","$8","$45","0","8","45","RISKY"
"html-keyboard-response","129","121184","0.0-5.0-3.41","63ead6f452e11793b2f8dab8","bdp_rd","Sat Mar 25 2023 16:45:02 GMT-0700 (Pacific Daylight Time)","169807","","null","","","","offerFB","","<div class='trialBorder'><div class='vertical-center'><img style='vertical-align:center; align:center' src=img/fixation3.jpg></div><div class='cl'><div class='vertical-center'>$8<br>for<br>sure</div></div><div class='cr'><div class='vertical-center'><font style='color:orange'>$45<br>with a<br>50% chance</font></div></div><div class='respDivL'><div class='vertical-center'>(E)</div></div><div class='respDivR'><div class='vertical-center'><font style='color:orange'>(I)</font></div></div></div>","null","$8","$45","0","8","45",""
"html-keyboard-response","130","121686","0.0-5.0-1.42","63ead6f452e11793b2f8dab8","bdp_rd","Sat Mar 25 2023 16:45:02 GMT-0700 (Pacific Daylight Time)","169807","","null","","","","FIX","","<div class='trialBorder'><div class='vertical-center'><img style='vertical-align:center; align:center' src=img/fixation3.jpg></div></div>","null","","","","","",""
"html-keyboard-response","131","122395","0.0-5.0-2.42","63ead6f452e11793b2f8dab8","bdp_rd","Sat Mar 25 2023 16:45:02 GMT-0700 (Pacific Daylight Time)","169807","","707","","","","offer","","<div class='trialBorder'><div class='vertical-center'><img style='vertical-align:center; align:center' src=img/fixation3.jpg></div><div class='cl'><div class='vertical-center'>$18<br>with a<br>50% chance</div></div><div class='cr'><div class='vertical-center'>$9<br>for<br>sure</div></div><div class='respDivL'><div class='vertical-center'>(E)</div></div><div class='respDivR'><div class='vertical-center'>(I)</div></div></div>","E","$9","$18","1","9","18","RISKY"
"html-keyboard-response","132","122649","0.0-5.0-3.42","63ead6f452e11793b2f8dab8","bdp_rd","Sat Mar 25 2023 16:45:02 GMT-0700 (Pacific Daylight Time)","169807","","null","","","","offerFB","","<div class='trialBorder'><div class='vertical-center'><img style='vertical-align:center; align:center' src=img/fixation3.jpg></div><div class='cl'><div class='vertical-center'><font style='color:orange'>$18<br>with a<br>50% chance</font></div></div><div class='cr'><div class='vertical-center'>$9<br>for<br>sure</div></div><div class='respDivL'><div class='vertical-center'><font style='color:orange'>(E)</font></div></div><div class='respDivR'><div class='vertical-center'>(I)</div></div></div>","null","$9","$18","1","9","18",""
"html-keyboard-response","133","123151","0.0-5.0-1.43","63ead6f452e11793b2f8dab8","bdp_rd","Sat Mar 25 2023 16:45:02 GMT-0700 (Pacific Daylight Time)","169807","","null","","","","FIX","","<div class='trialBorder'><div class='vertical-center'><img style='vertical-align:center; align:center' src=img/fixation3.jpg></div></div>","null","","","","","",""
"html-keyboard-response","134","125228","0.0-5.0-2.43","63ead6f452e11793b2f8dab8","bdp_rd","Sat Mar 25 2023 16:45:02 GMT-0700 (Pacific Daylight Time)","169807","","2075","","","","offer","","<div class='trialBorder'><div class='vertical-center'><img style='vertical-align:center; align:center' src=img/fixation3.jpg></div><div class='cl'><div class='vertical-center'>$10<br>for<br>sure</div></div><div class='cr'><div class='vertical-center'>$40<br>with a<br>50% chance</div></div><div class='respDivL'><div class='vertical-center'>(E)</div></div><div class='respDivR'><div class='vertical-center'>(I)</div></div></div>","I","$10","$40","0","10","40","RISKY"
"html-keyboard-response","135","125482","0.0-5.0-3.43","63ead6f452e11793b2f8dab8","bdp_rd","Sat Mar 25 2023 16:45:02 GMT-0700 (Pacific Daylight Time)","169807","","null","","","","offerFB","","<div class='trialBorder'><div class='vertical-center'><img style='vertical-align:center; align:center' src=img/fixation3.jpg></div><div class='cl'><div class='vertical-center'>$10<br>for<br>sure</div></div><div class='cr'><div class='vertical-center'><font style='color:orange'>$40<br>with a<br>50% chance</font></div></div><div class='respDivL'><div class='vertical-center'>(E)</div></div><div class='respDivR'><div class='vertical-center'><font style='color:orange'>(I)</font></div></div></div>","null","$10","$40","0","10","40",""
"html-keyboard-response","136","125985","0.0-5.0-1.44","63ead6f452e11793b2f8dab8","bdp_rd","Sat Mar 25 2023 16:45:02 GMT-0700 (Pacific Daylight Time)","169807","","null","","","","FIX","","<div class='trialBorder'><div class='vertical-center'><img style='vertical-align:center; align:center' src=img/fixation3.jpg></div></div>","null","","","","","",""
"html-keyboard-response","137","127176","0.0-5.0-2.44","63ead6f452e11793b2f8dab8","bdp_rd","Sat Mar 25 2023 16:45:02 GMT-0700 (Pacific Daylight Time)","169807","","1188","","","","offer","","<div class='trialBorder'><div class='vertical-center'><img style='vertical-align:center; align:center' src=img/fixation3.jpg></div><div class='cl'><div class='vertical-center'>$16<br>with a<br>50% chance</div></div><div class='cr'><div class='vertical-center'>$5<br>for<br>sure</div></div><div class='respDivL'><div class='vertical-center'>(E)</div></div><div class='respDivR'><div class='vertical-center'>(I)</div></div></div>","E","$5","$16","1","5","16","RISKY"
"html-keyboard-response","138","127428","0.0-5.0-3.44","63ead6f452e11793b2f8dab8","bdp_rd","Sat Mar 25 2023 16:45:02 GMT-0700 (Pacific Daylight Time)","169807","","null","","","","offerFB","","<div class='trialBorder'><div class='vertical-center'><img style='vertical-align:center; align:center' src=img/fixation3.jpg></div><div class='cl'><div class='vertical-center'><font style='color:orange'>$16<br>with a<br>50% chance</font></div></div><div class='cr'><div class='vertical-center'>$5<br>for<br>sure</div></div><div class='respDivL'><div class='vertical-center'><font style='color:orange'>(E)</font></div></div><div class='respDivR'><div class='vertical-center'>(I)</div></div></div>","null","$5","$16","1","5","16",""
"html-keyboard-response","139","127929","0.0-5.0-1.45","63ead6f452e11793b2f8dab8","bdp_rd","Sat Mar 25 2023 16:45:02 GMT-0700 (Pacific Daylight Time)","169807","","null","","","","FIX","","<div class='trialBorder'><div class='vertical-center'><img style='vertical-align:center; align:center' src=img/fixation3.jpg></div></div>","null","","","","","",""
"html-keyboard-response","140","131008","0.0-5.0-2.45","63ead6f452e11793b2f8dab8","bdp_rd","Sat Mar 25 2023 16:45:02 GMT-0700 (Pacific Daylight Time)","169807","","3076","","","","offer","","<div class='trialBorder'><div class='vertical-center'><img style='vertical-align:center; align:center' src=img/fixation3.jpg></div><div class='cl'><div class='vertical-center'>$81<br>with a<br>50% chance</div></div><div class='cr'><div class='vertical-center'>$39<br>for<br>sure</div></div><div class='respDivL'><div class='vertical-center'>(E)</div></div><div class='respDivR'><div class='vertical-center'>(I)</div></div></div>","I","$39","$81","1","39","81","SURE"
"html-keyboard-response","141","131262","0.0-5.0-3.45","63ead6f452e11793b2f8dab8","bdp_rd","Sat Mar 25 2023 16:45:02 GMT-0700 (Pacific Daylight Time)","169807","","null","","","","offerFB","","<div class='trialBorder'><div class='vertical-center'><img style='vertical-align:center; align:center' src=img/fixation3.jpg></div><div class='cl'><div class='vertical-center'>$81<br>with a<br>50% chance</div></div><div class='cr'><div class='vertical-center'><font style='color:orange'>$39<br>for<br>sure</font></div></div><div class='respDivL'><div class='vertical-center'>(E)</div></div><div class='respDivR'><div class='vertical-center'><font style='color:orange'>(I)</font></div></div></div>","null","$39","$81","1","39","81",""
"html-keyboard-response","142","131763","0.0-5.0-1.46","63ead6f452e11793b2f8dab8","bdp_rd","Sat Mar 25 2023 16:45:02 GMT-0700 (Pacific Daylight Time)","169807","","null","","","","FIX","","<div class='trialBorder'><div class='vertical-center'><img style='vertical-align:center; align:center' src=img/fixation3.jpg></div></div>","null","","","","","",""
"html-keyboard-response","143","134800","0.0-5.0-2.46","63ead6f452e11793b2f8dab8","bdp_rd","Sat Mar 25 2023 16:45:02 GMT-0700 (Pacific Daylight Time)","169807","","3035","","","","offer","","<div class='trialBorder'><div class='vertical-center'><img style='vertical-align:center; align:center' src=img/fixation3.jpg></div><div class='cl'><div class='vertical-center'>$24<br>for<br>sure</div></div><div class='cr'><div class='vertical-center'>$70<br>with a<br>50% chance</div></div><div class='respDivL'><div class='vertical-center'>(E)</div></div><div class='respDivR'><div class='vertical-center'>(I)</div></div></div>","E","$24","$70","0","24","70","SURE"
"html-keyboard-response","144","135054","0.0-5.0-3.46","63ead6f452e11793b2f8dab8","bdp_rd","Sat Mar 25 2023 16:45:02 GMT-0700 (Pacific Daylight Time)","169807","","null","","","","offerFB","","<div class='trialBorder'><div class='vertical-center'><img style='vertical-align:center; align:center' src=img/fixation3.jpg></div><div class='cl'><div class='vertical-center'><font style='color:orange'>$24<br>for<br>sure</font></div></div><div class='cr'><div class='vertical-center'>$70<br>with a<br>50% chance</div></div><div class='respDivL'><div class='vertical-center'><font style='color:orange'>(E)</font></div></div><div class='respDivR'><div class='vertical-center'>(I)</div></div></div>","null","$24","$70","0","24","70",""
"html-keyboard-response","145","135555","0.0-5.0-1.47","63ead6f452e11793b2f8dab8","bdp_rd","Sat Mar 25 2023 16:45:02 GMT-0700 (Pacific Daylight Time)","169807","","null","","","","FIX","","<div class='trialBorder'><div class='vertical-center'><img style='vertical-align:center; align:center' src=img/fixation3.jpg></div></div>","null","","","","","",""
"html-keyboard-response","146","136660","0.0-5.0-2.47","63ead6f452e11793b2f8dab8","bdp_rd","Sat Mar 25 2023 16:45:02 GMT-0700 (Pacific Daylight Time)","169807","","1104","","","","offer","","<div class='trialBorder'><div class='vertical-center'><img style='vertical-align:center; align:center' src=img/fixation3.jpg></div><div class='cl'><div class='vertical-center'>$20<br>for<br>sure</div></div><div class='cr'><div class='vertical-center'>$37<br>with a<br>50% chance</div></div><div class='respDivL'><div class='vertical-center'>(E)</div></div><div class='respDivR'><div class='vertical-center'>(I)</div></div></div>","E","$20","$37","0","20","37","SURE"
"html-keyboard-response","147","136914","0.0-5.0-3.47","63ead6f452e11793b2f8dab8","bdp_rd","Sat Mar 25 2023 16:45:02 GMT-0700 (Pacific Daylight Time)","169807","","null","","","","offerFB","","<div class='trialBorder'><div class='vertical-center'><img style='vertical-align:center; align:center' src=img/fixation3.jpg></div><div class='cl'><div class='vertical-center'><font style='color:orange'>$20<br>for<br>sure</font></div></div><div class='cr'><div class='vertical-center'>$37<br>with a<br>50% chance</div></div><div class='respDivL'><div class='vertical-center'><font style='color:orange'>(E)</font></div></div><div class='respDivR'><div class='vertical-center'>(I)</div></div></div>","null","$20","$37","0","20","37",""
"html-keyboard-response","148","137417","0.0-5.0-1.48","63ead6f452e11793b2f8dab8","bdp_rd","Sat Mar 25 2023 16:45:02 GMT-0700 (Pacific Daylight Time)","169807","","null","","","","FIX","","<div class='trialBorder'><div class='vertical-center'><img style='vertical-align:center; align:center' src=img/fixation3.jpg></div></div>","null","","","","","",""
"html-keyboard-response","149","141306","0.0-5.0-2.48","63ead6f452e11793b2f8dab8","bdp_rd","Sat Mar 25 2023 16:45:02 GMT-0700 (Pacific Daylight Time)","169807","","3888","","","","offer","","<div class='trialBorder'><div class='vertical-center'><img style='vertical-align:center; align:center' src=img/fixation3.jpg></div><div class='cl'><div class='vertical-center'>$92<br>with a<br>50% chance</div></div><div class='cr'><div class='vertical-center'>$26<br>for<br>sure</div></div><div class='respDivL'><div class='vertical-center'>(E)</div></div><div class='respDivR'><div class='vertical-center'>(I)</div></div></div>","I","$26","$92","1","26","92","SURE"
"html-keyboard-response","150","141559","0.0-5.0-3.48","63ead6f452e11793b2f8dab8","bdp_rd","Sat Mar 25 2023 16:45:02 GMT-0700 (Pacific Daylight Time)","169807","","null","","","","offerFB","","<div class='trialBorder'><div class='vertical-center'><img style='vertical-align:center; align:center' src=img/fixation3.jpg></div><div class='cl'><div class='vertical-center'>$92<br>with a<br>50% chance</div></div><div class='cr'><div class='vertical-center'><font style='color:orange'>$26<br>for<br>sure</font></div></div><div class='respDivL'><div class='vertical-center'>(E)</div></div><div class='respDivR'><div class='vertical-center'><font style='color:orange'>(I)</font></div></div></div>","null","$26","$92","1","26","92",""
"html-keyboard-response","151","142061","0.0-5.0-1.49","63ead6f452e11793b2f8dab8","bdp_rd","Sat Mar 25 2023 16:45:02 GMT-0700 (Pacific Daylight Time)","169807","","null","","","","FIX","","<div class='trialBorder'><div class='vertical-center'><img style='vertical-align:center; align:center' src=img/fixation3.jpg></div></div>","null","","","","","",""
"html-keyboard-response","152","143481","0.0-5.0-2.49","63ead6f452e11793b2f8dab8","bdp_rd","Sat Mar 25 2023 16:45:02 GMT-0700 (Pacific Daylight Time)","169807","","1418","","","","offer","","<div class='trialBorder'><div class='vertical-center'><img style='vertical-align:center; align:center' src=img/fixation3.jpg></div><div class='cl'><div class='vertical-center'>$41<br>with a<br>50% chance</div></div><div class='cr'><div class='vertical-center'>$13<br>for<br>sure</div></div><div class='respDivL'><div class='vertical-center'>(E)</div></div><div class='respDivR'><div class='vertical-center'>(I)</div></div></div>","I","$13","$41","1","13","41","SURE"
"html-keyboard-response","153","143733","0.0-5.0-3.49","63ead6f452e11793b2f8dab8","bdp_rd","Sat Mar 25 2023 16:45:02 GMT-0700 (Pacific Daylight Time)","169807","","null","","","","offerFB","","<div class='trialBorder'><div class='vertical-center'><img style='vertical-align:center; align:center' src=img/fixation3.jpg></div><div class='cl'><div class='vertical-center'>$41<br>with a<br>50% chance</div></div><div class='cr'><div class='vertical-center'><font style='color:orange'>$13<br>for<br>sure</font></div></div><div class='respDivL'><div class='vertical-center'>(E)</div></div><div class='respDivR'><div class='vertical-center'><font style='color:orange'>(I)</font></div></div></div>","null","$13","$41","1","13","41",""
"html-keyboard-response","154","144235","0.0-5.0-1.50","63ead6f452e11793b2f8dab8","bdp_rd","Sat Mar 25 2023 16:45:02 GMT-0700 (Pacific Daylight Time)","169807","","null","","","","FIX","","<div class='trialBorder'><div class='vertical-center'><img style='vertical-align:center; align:center' src=img/fixation3.jpg></div></div>","null","","","","","",""
"html-keyboard-response","155","147617","0.0-5.0-2.50","63ead6f452e11793b2f8dab8","bdp_rd","Sat Mar 25 2023 16:45:02 GMT-0700 (Pacific Daylight Time)","169807","","3380","","","","offer","","<div class='trialBorder'><div class='vertical-center'><img style='vertical-align:center; align:center' src=img/fixation3.jpg></div><div class='cl'><div class='vertical-center'>$13<br>with a<br>50% chance</div></div><div class='cr'><div class='vertical-center'>$6<br>for<br>sure</div></div><div class='respDivL'><div class='vertical-center'>(E)</div></div><div class='respDivR'><div class='vertical-center'>(I)</div></div></div>","I","$6","$13","1","6","13","SURE"
"html-keyboard-response","156","147869","0.0-5.0-3.50","63ead6f452e11793b2f8dab8","bdp_rd","Sat Mar 25 2023 16:45:02 GMT-0700 (Pacific Daylight Time)","169807","","null","","","","offerFB","","<div class='trialBorder'><div class='vertical-center'><img style='vertical-align:center; align:center' src=img/fixation3.jpg></div><div class='cl'><div class='vertical-center'>$13<br>with a<br>50% chance</div></div><div class='cr'><div class='vertical-center'><font style='color:orange'>$6<br>for<br>sure</font></div></div><div class='respDivL'><div class='vertical-center'>(E)</div></div><div class='respDivR'><div class='vertical-center'><font style='color:orange'>(I)</font></div></div></div>","null","$6","$13","1","6","13",""
"html-keyboard-response","157","148371","0.0-5.0-1.51","63ead6f452e11793b2f8dab8","bdp_rd","Sat Mar 25 2023 16:45:02 GMT-0700 (Pacific Daylight Time)","169807","","null","","","","FIX","","<div class='trialBorder'><div class='vertical-center'><img style='vertical-align:center; align:center' src=img/fixation3.jpg></div></div>","null","","","","","",""
"html-keyboard-response","158","149726","0.0-5.0-2.51","63ead6f452e11793b2f8dab8","bdp_rd","Sat Mar 25 2023 16:45:02 GMT-0700 (Pacific Daylight Time)","169807","","1352","","","","offer","","<div class='trialBorder'><div class='vertical-center'><img style='vertical-align:center; align:center' src=img/fixation3.jpg></div><div class='cl'><div class='vertical-center'>$86<br>with a<br>50% chance</div></div><div class='cr'><div class='vertical-center'>$45<br>for<br>sure</div></div><div class='respDivL'><div class='vertical-center'>(E)</div></div><div class='respDivR'><div class='vertical-center'>(I)</div></div></div>","I","$45","$86","1","45","86","SURE"
"html-keyboard-response","159","149978","0.0-5.0-3.51","63ead6f452e11793b2f8dab8","bdp_rd","Sat Mar 25 2023 16:45:02 GMT-0700 (Pacific Daylight Time)","169807","","null","","","","offerFB","","<div class='trialBorder'><div class='vertical-center'><img style='vertical-align:center; align:center' src=img/fixation3.jpg></div><div class='cl'><div class='vertical-center'>$86<br>with a<br>50% chance</div></div><div class='cr'><div class='vertical-center'><font style='color:orange'>$45<br>for<br>sure</font></div></div><div class='respDivL'><div class='vertical-center'>(E)</div></div><div class='respDivR'><div class='vertical-center'><font style='color:orange'>(I)</font></div></div></div>","null","$45","$86","1","45","86",""
"html-keyboard-response","160","150480","0.0-5.0-1.52","63ead6f452e11793b2f8dab8","bdp_rd","Sat Mar 25 2023 16:45:02 GMT-0700 (Pacific Daylight Time)","169807","","null","","","","FIX","","<div class='trialBorder'><div class='vertical-center'><img style='vertical-align:center; align:center' src=img/fixation3.jpg></div></div>","null","","","","","",""
"html-keyboard-response","161","151990","0.0-5.0-2.52","63ead6f452e11793b2f8dab8","bdp_rd","Sat Mar 25 2023 16:45:02 GMT-0700 (Pacific Daylight Time)","169807","","1507","","","","offer","","<div class='trialBorder'><div class='vertical-center'><img style='vertical-align:center; align:center' src=img/fixation3.jpg></div><div class='cl'><div class='vertical-center'>$66<br>with a<br>50% chance</div></div><div class='cr'><div class='vertical-center'>$33<br>for<br>sure</div></div><div class='respDivL'><div class='vertical-center'>(E)</div></div><div class='respDivR'><div class='vertical-center'>(I)</div></div></div>","I","$33","$66","1","33","66","SURE"
"html-keyboard-response","162","152245","0.0-5.0-3.52","63ead6f452e11793b2f8dab8","bdp_rd","Sat Mar 25 2023 16:45:02 GMT-0700 (Pacific Daylight Time)","169807","","null","","","","offerFB","","<div class='trialBorder'><div class='vertical-center'><img style='vertical-align:center; align:center' src=img/fixation3.jpg></div><div class='cl'><div class='vertical-center'>$66<br>with a<br>50% chance</div></div><div class='cr'><div class='vertical-center'><font style='color:orange'>$33<br>for<br>sure</font></div></div><div class='respDivL'><div class='vertical-center'>(E)</div></div><div class='respDivR'><div class='vertical-center'><font style='color:orange'>(I)</font></div></div></div>","null","$33","$66","1","33","66",""
"html-keyboard-response","163","152747","0.0-5.0-1.53","63ead6f452e11793b2f8dab8","bdp_rd","Sat Mar 25 2023 16:45:02 GMT-0700 (Pacific Daylight Time)","169807","","null","","","","FIX","","<div class='trialBorder'><div class='vertical-center'><img style='vertical-align:center; align:center' src=img/fixation3.jpg></div></div>","null","","","","","",""
"html-keyboard-response","164","153723","0.0-5.0-2.53","63ead6f452e11793b2f8dab8","bdp_rd","Sat Mar 25 2023 16:45:02 GMT-0700 (Pacific Daylight Time)","169807","","975","","","","offer","","<div class='trialBorder'><div class='vertical-center'><img style='vertical-align:center; align:center' src=img/fixation3.jpg></div><div class='cl'><div class='vertical-center'>$31<br>with a<br>50% chance</div></div><div class='cr'><div class='vertical-center'>$15<br>for<br>sure</div></div><div class='respDivL'><div class='vertical-center'>(E)</div></div><div class='respDivR'><div class='vertical-center'>(I)</div></div></div>","I","$15","$31","1","15","31","SURE"
"html-keyboard-response","165","153976","0.0-5.0-3.53","63ead6f452e11793b2f8dab8","bdp_rd","Sat Mar 25 2023 16:45:02 GMT-0700 (Pacific Daylight Time)","169807","","null","","","","offerFB","","<div class='trialBorder'><div class='vertical-center'><img style='vertical-align:center; align:center' src=img/fixation3.jpg></div><div class='cl'><div class='vertical-center'>$31<br>with a<br>50% chance</div></div><div class='cr'><div class='vertical-center'><font style='color:orange'>$15<br>for<br>sure</font></div></div><div class='respDivL'><div class='vertical-center'>(E)</div></div><div class='respDivR'><div class='vertical-center'><font style='color:orange'>(I)</font></div></div></div>","null","$15","$31","1","15","31",""
"html-keyboard-response","166","154478","0.0-5.0-1.54","63ead6f452e11793b2f8dab8","bdp_rd","Sat Mar 25 2023 16:45:02 GMT-0700 (Pacific Daylight Time)","169807","","null","","","","FIX","","<div class='trialBorder'><div class='vertical-center'><img style='vertical-align:center; align:center' src=img/fixation3.jpg></div></div>","null","","","","","",""
"html-keyboard-response","167","156267","0.0-5.0-2.54","63ead6f452e11793b2f8dab8","bdp_rd","Sat Mar 25 2023 16:45:02 GMT-0700 (Pacific Daylight Time)","169807","","1788","","","","offer","","<div class='trialBorder'><div class='vertical-center'><img style='vertical-align:center; align:center' src=img/fixation3.jpg></div><div class='cl'><div class='vertical-center'>$16<br>for<br>sure</div></div><div class='cr'><div class='vertical-center'>$28<br>with a<br>50% chance</div></div><div class='respDivL'><div class='vertical-center'>(E)</div></div><div class='respDivR'><div class='vertical-center'>(I)</div></div></div>","E","$16","$28","0","16","28","SURE"
"html-keyboard-response","168","156520","0.0-5.0-3.54","63ead6f452e11793b2f8dab8","bdp_rd","Sat Mar 25 2023 16:45:02 GMT-0700 (Pacific Daylight Time)","169807","","null","","","","offerFB","","<div class='trialBorder'><div class='vertical-center'><img style='vertical-align:center; align:center' src=img/fixation3.jpg></div><div class='cl'><div class='vertical-center'><font style='color:orange'>$16<br>for<br>sure</font></div></div><div class='cr'><div class='vertical-center'>$28<br>with a<br>50% chance</div></div><div class='respDivL'><div class='vertical-center'><font style='color:orange'>(E)</font></div></div><div class='respDivR'><div class='vertical-center'>(I)</div></div></div>","null","$16","$28","0","16","28",""
"html-keyboard-response","169","157023","0.0-5.0-1.55","63ead6f452e11793b2f8dab8","bdp_rd","Sat Mar 25 2023 16:45:02 GMT-0700 (Pacific Daylight Time)","169807","","null","","","","FIX","","<div class='trialBorder'><div class='vertical-center'><img style='vertical-align:center; align:center' src=img/fixation3.jpg></div></div>","null","","","","","",""
"html-keyboard-response","170","158098","0.0-5.0-2.55","63ead6f452e11793b2f8dab8","bdp_rd","Sat Mar 25 2023 16:45:02 GMT-0700 (Pacific Daylight Time)","169807","","1072","","","","offer","","<div class='trialBorder'><div class='vertical-center'><img style='vertical-align:center; align:center' src=img/fixation3.jpg></div><div class='cl'><div class='vertical-center'>$50<br>with a<br>50% chance</div></div><div class='cr'><div class='vertical-center'>$5<br>for<br>sure</div></div><div class='respDivL'><div class='vertical-center'>(E)</div></div><div class='respDivR'><div class='vertical-center'>(I)</div></div></div>","E","$5","$50","1","5","50","RISKY"
"html-keyboard-response","171","158351","0.0-5.0-3.55","63ead6f452e11793b2f8dab8","bdp_rd","Sat Mar 25 2023 16:45:02 GMT-0700 (Pacific Daylight Time)","169807","","null","","","","offerFB","","<div class='trialBorder'><div class='vertical-center'><img style='vertical-align:center; align:center' src=img/fixation3.jpg></div><div class='cl'><div class='vertical-center'><font style='color:orange'>$50<br>with a<br>50% chance</font></div></div><div class='cr'><div class='vertical-center'>$5<br>for<br>sure</div></div><div class='respDivL'><div class='vertical-center'><font style='color:orange'>(E)</font></div></div><div class='respDivR'><div class='vertical-center'>(I)</div></div></div>","null","$5","$50","1","5","50",""
"html-keyboard-response","172","158853","0.0-5.0-1.56","63ead6f452e11793b2f8dab8","bdp_rd","Sat Mar 25 2023 16:45:02 GMT-0700 (Pacific Daylight Time)","169807","","null","","","","FIX","","<div class='trialBorder'><div class='vertical-center'><img style='vertical-align:center; align:center' src=img/fixation3.jpg></div></div>","null","","","","","",""
"html-keyboard-response","173","160186","0.0-5.0-2.56","63ead6f452e11793b2f8dab8","bdp_rd","Sat Mar 25 2023 16:45:02 GMT-0700 (Pacific Daylight Time)","169807","","1330","","","","offer","","<div class='trialBorder'><div class='vertical-center'><img style='vertical-align:center; align:center' src=img/fixation3.jpg></div><div class='cl'><div class='vertical-center'>$12<br>for<br>sure</div></div><div class='cr'><div class='vertical-center'>$27<br>with a<br>50% chance</div></div><div class='respDivL'><div class='vertical-center'>(E)</div></div><div class='respDivR'><div class='vertical-center'>(I)</div></div></div>","E","$12","$27","0","12","27","SURE"
