"trial_type","trial_index","time_elapsed","internal_node_id","subject_id","task","startTime","totalTime","view_history","rt","event","trial","time","trialtype","success","stimulus","key_press","sureOffer","riskyOffer","riskyLeft","sureAmt","riskyAmt","chosen"
"pavlovia","0","3","0.0-0.0","640415971520c41606ca4389","bdp_rd","Sat Mar 25 2023 22:51:23 GMT-0400 (Eastern Daylight Time)","168100","","","","","","","","","","","","","","",""
"instructions","1","1862","0.0-1.0","640415971520c41606ca4389","bdp_rd","Sat Mar 25 2023 22:51:23 GMT-0400 (Eastern Daylight Time)","168100","[{""page_index"":0,""viewing_time"":1859}]","1859","","","","","","","","","","","","",""
"","","","","640415971520c41606ca4389","bdp_rd","Sat Mar 25 2023 22:51:23 GMT-0400 (Eastern Daylight Time)","168100","","","fullscreenenter","2","4563","fullscreenenter","","","","","","","","",""
"fullscreen","2","5544","0.0-2.0","640415971520c41606ca4389","bdp_rd","Sat Mar 25 2023 22:51:23 GMT-0400 (Eastern Daylight Time)","168100","","","","","","","true","","","","","","","",""
"instructions","3","36216","0.0-4.0","640415971520c41606ca4389","bdp_rd","Sat Mar 25 2023 22:51:23 GMT-0400 (Eastern Daylight Time)","168100","[{""page_index"":0,""viewing_time"":21184},{""page_index"":1,""viewing_time"":3975},{""page_index"":2,""viewing_time"":5513}]","30672","","","","","","","","","","","","",""
"html-keyboard-response","4","36718","0.0-5.0-1.0","640415971520c41606ca4389","bdp_rd","Sat Mar 25 2023 22:51:23 GMT-0400 (Eastern Daylight Time)","168100","","null","","","","FIX","","<div class='trialBorder'><div class='vertical-center'><img style='vertical-align:center; align:center' src=img/fixation3.jpg></div></div>","null","","","","","",""
"html-keyboard-response","5","40689","0.0-5.0-2.0","640415971520c41606ca4389","bdp_rd","Sat Mar 25 2023 22:51:23 GMT-0400 (Eastern Daylight Time)","168100","","3971","","","","offer","","<div class='trialBorder'><div class='vertical-center'><img style='vertical-align:center; align:center' src=img/fixation3.jpg></div><div class='cl'><div class='vertical-center'>$8<br>for<br>sure</div></div><div class='cr'><div class='vertical-center'>$45<br>with a<br>50% chance</div></div><div class='respDivL'><div class='vertical-center'>(E)</div></div><div class='respDivR'><div class='vertical-center'>(I)</div></div></div>","I","$8","$45","0","8","45","RISKY"
"html-keyboard-response","6","40941","0.0-5.0-3.0","640415971520c41606ca4389","bdp_rd","Sat Mar 25 2023 22:51:23 GMT-0400 (Eastern Daylight Time)","168100","","null","","","","offerFB","","<div class='trialBorder'><div class='vertical-center'><img style='vertical-align:center; align:center' src=img/fixation3.jpg></div><div class='cl'><div class='vertical-center'>$8<br>for<br>sure</div></div><div class='cr'><div class='vertical-center'><font style='color:orange'>$45<br>with a<br>50% chance</font></div></div><div class='respDivL'><div class='vertical-center'>(E)</div></div><div class='respDivR'><div class='vertical-center'><font style='color:orange'>(I)</font></div></div></div>","null","$8","$45","0","8","45",""
"html-keyboard-response","7","41443","0.0-5.0-1.1","640415971520c41606ca4389","bdp_rd","Sat Mar 25 2023 22:51:23 GMT-0400 (Eastern Daylight Time)","168100","","null","","","","FIX","","<div class='trialBorder'><div class='vertical-center'><img style='vertical-align:center; align:center' src=img/fixation3.jpg></div></div>","null","","","","","",""
"html-keyboard-response","8","43486","0.0-5.0-2.1","640415971520c41606ca4389","bdp_rd","Sat Mar 25 2023 22:51:23 GMT-0400 (Eastern Daylight Time)","168100","","2043","","","","offer","","<div class='trialBorder'><div class='vertical-center'><img style='vertical-align:center; align:center' src=img/fixation3.jpg></div><div class='cl'><div class='vertical-center'>$38<br>with a<br>50% chance</div></div><div class='cr'><div class='vertical-center'>$16<br>for<br>sure</div></div><div class='respDivL'><div class='vertical-center'>(E)</div></div><div class='respDivR'><div class='vertical-center'>(I)</div></div></div>","E","$16","$38","1","16","38","RISKY"
"html-keyboard-response","9","43737","0.0-5.0-3.1","640415971520c41606ca4389","bdp_rd","Sat Mar 25 2023 22:51:23 GMT-0400 (Eastern Daylight Time)","168100","","null","","","","offerFB","","<div class='trialBorder'><div class='vertical-center'><img style='vertical-align:center; align:center' src=img/fixation3.jpg></div><div class='cl'><div class='vertical-center'><font style='color:orange'>$38<br>with a<br>50% chance</font></div></div><div class='cr'><div class='vertical-center'>$16<br>for<br>sure</div></div><div class='respDivL'><div class='vertical-center'><font style='color:orange'>(E)</font></div></div><div class='respDivR'><div class='vertical-center'>(I)</div></div></div>","null","$16","$38","1","16","38",""
"html-keyboard-response","10","44239","0.0-5.0-1.2","640415971520c41606ca4389","bdp_rd","Sat Mar 25 2023 22:51:23 GMT-0400 (Eastern Daylight Time)","168100","","null","","","","FIX","","<div class='trialBorder'><div class='vertical-center'><img style='vertical-align:center; align:center' src=img/fixation3.jpg></div></div>","null","","","","","",""
"html-keyboard-response","11","46479","0.0-5.0-2.2","640415971520c41606ca4389","bdp_rd","Sat Mar 25 2023 22:51:23 GMT-0400 (Eastern Daylight Time)","168100","","2239","","","","offer","","<div class='trialBorder'><div class='vertical-center'><img style='vertical-align:center; align:center' src=img/fixation3.jpg></div><div class='cl'><div class='vertical-center'>$14<br>for<br>sure</div></div><div class='cr'><div class='vertical-center'>$22<br>with a<br>50% chance</div></div><div class='respDivL'><div class='vertical-center'>(E)</div></div><div class='respDivR'><div class='vertical-center'>(I)</div></div></div>","E","$14","$22","0","14","22","SURE"
"html-keyboard-response","12","46731","0.0-5.0-3.2","640415971520c41606ca4389","bdp_rd","Sat Mar 25 2023 22:51:23 GMT-0400 (Eastern Daylight Time)","168100","","null","","","","offerFB","","<div class='trialBorder'><div class='vertical-center'><img style='vertical-align:center; align:center' src=img/fixation3.jpg></div><div class='cl'><div class='vertical-center'><font style='color:orange'>$14<br>for<br>sure</font></div></div><div class='cr'><div class='vertical-center'>$22<br>with a<br>50% chance</div></div><div class='respDivL'><div class='vertical-center'><font style='color:orange'>(E)</font></div></div><div class='respDivR'><div class='vertical-center'>(I)</div></div></div>","null","$14","$22","0","14","22",""
"html-keyboard-response","13","47232","0.0-5.0-1.3","640415971520c41606ca4389","bdp_rd","Sat Mar 25 2023 22:51:23 GMT-0400 (Eastern Daylight Time)","168100","","null","","","","FIX","","<div class='trialBorder'><div class='vertical-center'><img style='vertical-align:center; align:center' src=img/fixation3.jpg></div></div>","null","","","","","",""
"html-keyboard-response","14","48866","0.0-5.0-2.3","640415971520c41606ca4389","bdp_rd","Sat Mar 25 2023 22:51:23 GMT-0400 (Eastern Daylight Time)","168100","","1633","","","","offer","","<div class='trialBorder'><div class='vertical-center'><img style='vertical-align:center; align:center' src=img/fixation3.jpg></div><div class='cl'><div class='vertical-center'>$42<br>with a<br>50% chance</div></div><div class='cr'><div class='vertical-center'>$22<br>for<br>sure</div></div><div class='respDivL'><div class='vertical-center'>(E)</div></div><div class='respDivR'><div class='vertical-center'>(I)</div></div></div>","E","$22","$42","1","22","42","RISKY"
"html-keyboard-response","15","49118","0.0-5.0-3.3","640415971520c41606ca4389","bdp_rd","Sat Mar 25 2023 22:51:23 GMT-0400 (Eastern Daylight Time)","168100","","null","","","","offerFB","","<div class='trialBorder'><div class='vertical-center'><img style='vertical-align:center; align:center' src=img/fixation3.jpg></div><div class='cl'><div class='vertical-center'><font style='color:orange'>$42<br>with a<br>50% chance</font></div></div><div class='cr'><div class='vertical-center'>$22<br>for<br>sure</div></div><div class='respDivL'><div class='vertical-center'><font style='color:orange'>(E)</font></div></div><div class='respDivR'><div class='vertical-center'>(I)</div></div></div>","null","$22","$42","1","22","42",""
"html-keyboard-response","16","49619","0.0-5.0-1.4","640415971520c41606ca4389","bdp_rd","Sat Mar 25 2023 22:51:23 GMT-0400 (Eastern Daylight Time)","168100","","null","","","","FIX","","<div class='trialBorder'><div class='vertical-center'><img style='vertical-align:center; align:center' src=img/fixation3.jpg></div></div>","null","","","","","",""
"html-keyboard-response","17","50781","0.0-5.0-2.4","640415971520c41606ca4389","bdp_rd","Sat Mar 25 2023 22:51:23 GMT-0400 (Eastern Daylight Time)","168100","","1160","","","","offer","","<div class='trialBorder'><div class='vertical-center'><img style='vertical-align:center; align:center' src=img/fixation3.jpg></div><div class='cl'><div class='vertical-center'>$42<br>for<br>sure</div></div><div class='cr'><div class='vertical-center'>$73<br>with a<br>50% chance</div></div><div class='respDivL'><div class='vertical-center'>(E)</div></div><div class='respDivR'><div class='vertical-center'>(I)</div></div></div>","I","$42","$73","0","42","73","RISKY"
"html-keyboard-response","18","51033","0.0-5.0-3.4","640415971520c41606ca4389","bdp_rd","Sat Mar 25 2023 22:51:23 GMT-0400 (Eastern Daylight Time)","168100","","null","","","","offerFB","","<div class='trialBorder'><div class='vertical-center'><img style='vertical-align:center; align:center' src=img/fixation3.jpg></div><div class='cl'><div class='vertical-center'>$42<br>for<br>sure</div></div><div class='cr'><div class='vertical-center'><font style='color:orange'>$73<br>with a<br>50% chance</font></div></div><div class='respDivL'><div class='vertical-center'>(E)</div></div><div class='respDivR'><div class='vertical-center'><font style='color:orange'>(I)</font></div></div></div>","null","$42","$73","0","42","73",""
"html-keyboard-response","19","51534","0.0-5.0-1.5","640415971520c41606ca4389","bdp_rd","Sat Mar 25 2023 22:51:23 GMT-0400 (Eastern Daylight Time)","168100","","null","","","","FIX","","<div class='trialBorder'><div class='vertical-center'><img style='vertical-align:center; align:center' src=img/fixation3.jpg></div></div>","null","","","","","",""
"html-keyboard-response","20","53119","0.0-5.0-2.5","640415971520c41606ca4389","bdp_rd","Sat Mar 25 2023 22:51:23 GMT-0400 (Eastern Daylight Time)","168100","","1585","","","","offer","","<div class='trialBorder'><div class='vertical-center'><img style='vertical-align:center; align:center' src=img/fixation3.jpg></div><div class='cl'><div class='vertical-center'>$35<br>with a<br>50% chance</div></div><div class='cr'><div class='vertical-center'>$12<br>for<br>sure</div></div><div class='respDivL'><div class='vertical-center'>(E)</div></div><div class='respDivR'><div class='vertical-center'>(I)</div></div></div>","E","$12","$35","1","12","35","RISKY"
"html-keyboard-response","21","53371","0.0-5.0-3.5","640415971520c41606ca4389","bdp_rd","Sat Mar 25 2023 22:51:23 GMT-0400 (Eastern Daylight Time)","168100","","null","","","","offerFB","","<div class='trialBorder'><div class='vertical-center'><img style='vertical-align:center; align:center' src=img/fixation3.jpg></div><div class='cl'><div class='vertical-center'><font style='color:orange'>$35<br>with a<br>50% chance</font></div></div><div class='cr'><div class='vertical-center'>$12<br>for<br>sure</div></div><div class='respDivL'><div class='vertical-center'><font style='color:orange'>(E)</font></div></div><div class='respDivR'><div class='vertical-center'>(I)</div></div></div>","null","$12","$35","1","12","35",""
"html-keyboard-response","22","53871","0.0-5.0-1.6","640415971520c41606ca4389","bdp_rd","Sat Mar 25 2023 22:51:23 GMT-0400 (Eastern Daylight Time)","168100","","null","","","","FIX","","<div class='trialBorder'><div class='vertical-center'><img style='vertical-align:center; align:center' src=img/fixation3.jpg></div></div>","null","","","","","",""
"html-keyboard-response","23","55738","0.0-5.0-2.6","640415971520c41606ca4389","bdp_rd","Sat Mar 25 2023 22:51:23 GMT-0400 (Eastern Daylight Time)","168100","","1866","","","","offer","","<div class='trialBorder'><div class='vertical-center'><img style='vertical-align:center; align:center' src=img/fixation3.jpg></div><div class='cl'><div class='vertical-center'>$11<br>for<br>sure</div></div><div class='cr'><div class='vertical-center'>$26<br>with a<br>50% chance</div></div><div class='respDivL'><div class='vertical-center'>(E)</div></div><div class='respDivR'><div class='vertical-center'>(I)</div></div></div>","I","$11","$26","0","11","26","RISKY"
"html-keyboard-response","24","55990","0.0-5.0-3.6","640415971520c41606ca4389","bdp_rd","Sat Mar 25 2023 22:51:23 GMT-0400 (Eastern Daylight Time)","168100","","null","","","","offerFB","","<div class='trialBorder'><div class='vertical-center'><img style='vertical-align:center; align:center' src=img/fixation3.jpg></div><div class='cl'><div class='vertical-center'>$11<br>for<br>sure</div></div><div class='cr'><div class='vertical-center'><font style='color:orange'>$26<br>with a<br>50% chance</font></div></div><div class='respDivL'><div class='vertical-center'>(E)</div></div><div class='respDivR'><div class='vertical-center'><font style='color:orange'>(I)</font></div></div></div>","null","$11","$26","0","11","26",""
"html-keyboard-response","25","56491","0.0-5.0-1.7","640415971520c41606ca4389","bdp_rd","Sat Mar 25 2023 22:51:23 GMT-0400 (Eastern Daylight Time)","168100","","null","","","","FIX","","<div class='trialBorder'><div class='vertical-center'><img style='vertical-align:center; align:center' src=img/fixation3.jpg></div></div>","null","","","","","",""
"html-keyboard-response","26","57899","0.0-5.0-2.7","640415971520c41606ca4389","bdp_rd","Sat Mar 25 2023 22:51:23 GMT-0400 (Eastern Daylight Time)","168100","","1408","","","","offer","","<div class='trialBorder'><div class='vertical-center'><img style='vertical-align:center; align:center' src=img/fixation3.jpg></div><div class='cl'><div class='vertical-center'>$17<br>with a<br>50% chance</div></div><div class='cr'><div class='vertical-center'>$3<br>for<br>sure</div></div><div class='respDivL'><div class='vertical-center'>(E)</div></div><div class='respDivR'><div class='vertical-center'>(I)</div></div></div>","E","$3","$17","1","3","17","RISKY"
"html-keyboard-response","27","58151","0.0-5.0-3.7","640415971520c41606ca4389","bdp_rd","Sat Mar 25 2023 22:51:23 GMT-0400 (Eastern Daylight Time)","168100","","null","","","","offerFB","","<div class='trialBorder'><div class='vertical-center'><img style='vertical-align:center; align:center' src=img/fixation3.jpg></div><div class='cl'><div class='vertical-center'><font style='color:orange'>$17<br>with a<br>50% chance</font></div></div><div class='cr'><div class='vertical-center'>$3<br>for<br>sure</div></div><div class='respDivL'><div class='vertical-center'><font style='color:orange'>(E)</font></div></div><div class='respDivR'><div class='vertical-center'>(I)</div></div></div>","null","$3","$17","1","3","17",""
"html-keyboard-response","28","58652","0.0-5.0-1.8","640415971520c41606ca4389","bdp_rd","Sat Mar 25 2023 22:51:23 GMT-0400 (Eastern Daylight Time)","168100","","null","","","","FIX","","<div class='trialBorder'><div class='vertical-center'><img style='vertical-align:center; align:center' src=img/fixation3.jpg></div></div>","null","","","","","",""
"html-keyboard-response","29","60210","0.0-5.0-2.8","640415971520c41606ca4389","bdp_rd","Sat Mar 25 2023 22:51:23 GMT-0400 (Eastern Daylight Time)","168100","","1556","","","","offer","","<div class='trialBorder'><div class='vertical-center'><img style='vertical-align:center; align:center' src=img/fixation3.jpg></div><div class='cl'><div class='vertical-center'>$47<br>with a<br>50% chance</div></div><div class='cr'><div class='vertical-center'>$27<br>for<br>sure</div></div><div class='respDivL'><div class='vertical-center'>(E)</div></div><div class='respDivR'><div class='vertical-center'>(I)</div></div></div>","E","$27","$47","1","27","47","RISKY"
"html-keyboard-response","30","60462","0.0-5.0-3.8","640415971520c41606ca4389","bdp_rd","Sat Mar 25 2023 22:51:23 GMT-0400 (Eastern Daylight Time)","168100","","null","","","","offerFB","","<div class='trialBorder'><div class='vertical-center'><img style='vertical-align:center; align:center' src=img/fixation3.jpg></div><div class='cl'><div class='vertical-center'><font style='color:orange'>$47<br>with a<br>50% chance</font></div></div><div class='cr'><div class='vertical-center'>$27<br>for<br>sure</div></div><div class='respDivL'><div class='vertical-center'><font style='color:orange'>(E)</font></div></div><div class='respDivR'><div class='vertical-center'>(I)</div></div></div>","null","$27","$47","1","27","47",""
"html-keyboard-response","31","60963","0.0-5.0-1.9","640415971520c41606ca4389","bdp_rd","Sat Mar 25 2023 22:51:23 GMT-0400 (Eastern Daylight Time)","168100","","null","","","","FIX","","<div class='trialBorder'><div class='vertical-center'><img style='vertical-align:center; align:center' src=img/fixation3.jpg></div></div>","null","","","","","",""
"html-keyboard-response","32","62223","0.0-5.0-2.9","640415971520c41606ca4389","bdp_rd","Sat Mar 25 2023 22:51:23 GMT-0400 (Eastern Daylight Time)","168100","","1259","","","","offer","","<div class='trialBorder'><div class='vertical-center'><img style='vertical-align:center; align:center' src=img/fixation3.jpg></div><div class='cl'><div class='vertical-center'>$95<br>with a<br>50% chance</div></div><div class='cr'><div class='vertical-center'>$40<br>for<br>sure</div></div><div class='respDivL'><div class='vertical-center'>(E)</div></div><div class='respDivR'><div class='vertical-center'>(I)</div></div></div>","E","$40","$95","1","40","95","RISKY"
"html-keyboard-response","33","62474","0.0-5.0-3.9","640415971520c41606ca4389","bdp_rd","Sat Mar 25 2023 22:51:23 GMT-0400 (Eastern Daylight Time)","168100","","null","","","","offerFB","","<div class='trialBorder'><div class='vertical-center'><img style='vertical-align:center; align:center' src=img/fixation3.jpg></div><div class='cl'><div class='vertical-center'><font style='color:orange'>$95<br>with a<br>50% chance</font></div></div><div class='cr'><div class='vertical-center'>$40<br>for<br>sure</div></div><div class='respDivL'><div class='vertical-center'><font style='color:orange'>(E)</font></div></div><div class='respDivR'><div class='vertical-center'>(I)</div></div></div>","null","$40","$95","1","40","95",""
"html-keyboard-response","34","62975","0.0-5.0-1.10","640415971520c41606ca4389","bdp_rd","Sat Mar 25 2023 22:51:23 GMT-0400 (Eastern Daylight Time)","168100","","null","","","","FIX","","<div class='trialBorder'><div class='vertical-center'><img style='vertical-align:center; align:center' src=img/fixation3.jpg></div></div>","null","","","","","",""
"html-keyboard-response","35","64239","0.0-5.0-2.10","640415971520c41606ca4389","bdp_rd","Sat Mar 25 2023 22:51:23 GMT-0400 (Eastern Daylight Time)","168100","","1263","","","","offer","","<div class='trialBorder'><div class='vertical-center'><img style='vertical-align:center; align:center' src=img/fixation3.jpg></div><div class='cl'><div class='vertical-center'>$10<br>for<br>sure</div></div><div class='cr'><div class='vertical-center'>$19<br>with a<br>50% chance</div></div><div class='respDivL'><div class='vertical-center'>(E)</div></div><div class='respDivR'><div class='vertical-center'>(I)</div></div></div>","I","$10","$19","0","10","19","RISKY"
"html-keyboard-response","36","64490","0.0-5.0-3.10","640415971520c41606ca4389","bdp_rd","Sat Mar 25 2023 22:51:23 GMT-0400 (Eastern Daylight Time)","168100","","null","","","","offerFB","","<div class='trialBorder'><div class='vertical-center'><img style='vertical-align:center; align:center' src=img/fixation3.jpg></div><div class='cl'><div class='vertical-center'>$10<br>for<br>sure</div></div><div class='cr'><div class='vertical-center'><font style='color:orange'>$19<br>with a<br>50% chance</font></div></div><div class='respDivL'><div class='vertical-center'>(E)</div></div><div class='respDivR'><div class='vertical-center'><font style='color:orange'>(I)</font></div></div></div>","null","$10","$19","0","10","19",""
"html-keyboard-response","37","64991","0.0-5.0-1.11","640415971520c41606ca4389","bdp_rd","Sat Mar 25 2023 22:51:23 GMT-0400 (Eastern Daylight Time)","168100","","null","","","","FIX","","<div class='trialBorder'><div class='vertical-center'><img style='vertical-align:center; align:center' src=img/fixation3.jpg></div></div>","null","","","","","",""
"html-keyboard-response","38","65983","0.0-5.0-2.11","640415971520c41606ca4389","bdp_rd","Sat Mar 25 2023 22:51:23 GMT-0400 (Eastern Daylight Time)","168100","","991","","","","offer","","<div class='trialBorder'><div class='vertical-center'><img style='vertical-align:center; align:center' src=img/fixation3.jpg></div><div class='cl'><div class='vertical-center'>$33<br>with a<br>50% chance</div></div><div class='cr'><div class='vertical-center'>$1<br>for<br>sure</div></div><div class='respDivL'><div class='vertical-center'>(E)</div></div><div class='respDivR'><div class='vertical-center'>(I)</div></div></div>","E","$1","$33","1","1","33","RISKY"
"html-keyboard-response","39","66235","0.0-5.0-3.11","640415971520c41606ca4389","bdp_rd","Sat Mar 25 2023 22:51:23 GMT-0400 (Eastern Daylight Time)","168100","","null","","","","offerFB","","<div class='trialBorder'><div class='vertical-center'><img style='vertical-align:center; align:center' src=img/fixation3.jpg></div><div class='cl'><div class='vertical-center'><font style='color:orange'>$33<br>with a<br>50% chance</font></div></div><div class='cr'><div class='vertical-center'>$1<br>for<br>sure</div></div><div class='respDivL'><div class='vertical-center'><font style='color:orange'>(E)</font></div></div><div class='respDivR'><div class='vertical-center'>(I)</div></div></div>","null","$1","$33","1","1","33",""
"html-keyboard-response","40","66736","0.0-5.0-1.12","640415971520c41606ca4389","bdp_rd","Sat Mar 25 2023 22:51:23 GMT-0400 (Eastern Daylight Time)","168100","","null","","","","FIX","","<div class='trialBorder'><div class='vertical-center'><img style='vertical-align:center; align:center' src=img/fixation3.jpg></div></div>","null","","","","","",""
"html-keyboard-response","41","68151","0.0-5.0-2.12","640415971520c41606ca4389","bdp_rd","Sat Mar 25 2023 22:51:23 GMT-0400 (Eastern Daylight Time)","168100","","1415","","","","offer","","<div class='trialBorder'><div class='vertical-center'><img style='vertical-align:center; align:center' src=img/fixation3.jpg></div><div class='cl'><div class='vertical-center'>$66<br>with a<br>50% chance</div></div><div class='cr'><div class='vertical-center'>$33<br>for<br>sure</div></div><div class='respDivL'><div class='vertical-center'>(E)</div></div><div class='respDivR'><div class='vertical-center'>(I)</div></div></div>","E","$33","$66","1","33","66","RISKY"
"html-keyboard-response","42","68403","0.0-5.0-3.12","640415971520c41606ca4389","bdp_rd","Sat Mar 25 2023 22:51:23 GMT-0400 (Eastern Daylight Time)","168100","","null","","","","offerFB","","<div class='trialBorder'><div class='vertical-center'><img style='vertical-align:center; align:center' src=img/fixation3.jpg></div><div class='cl'><div class='vertical-center'><font style='color:orange'>$66<br>with a<br>50% chance</font></div></div><div class='cr'><div class='vertical-center'>$33<br>for<br>sure</div></div><div class='respDivL'><div class='vertical-center'><font style='color:orange'>(E)</font></div></div><div class='respDivR'><div class='vertical-center'>(I)</div></div></div>","null","$33","$66","1","33","66",""
"html-keyboard-response","43","68904","0.0-5.0-1.13","640415971520c41606ca4389","bdp_rd","Sat Mar 25 2023 22:51:23 GMT-0400 (Eastern Daylight Time)","168100","","null","","","","FIX","","<div class='trialBorder'><div class='vertical-center'><img style='vertical-align:center; align:center' src=img/fixation3.jpg></div></div>","null","","","","","",""
"html-keyboard-response","44","69998","0.0-5.0-2.13","640415971520c41606ca4389","bdp_rd","Sat Mar 25 2023 22:51:23 GMT-0400 (Eastern Daylight Time)","168100","","1093","","","","offer","","<div class='trialBorder'><div class='vertical-center'><img style='vertical-align:center; align:center' src=img/fixation3.jpg></div><div class='cl'><div class='vertical-center'>$1<br>for<br>sure</div></div><div class='cr'><div class='vertical-center'>$30<br>with a<br>50% chance</div></div><div class='respDivL'><div class='vertical-center'>(E)</div></div><div class='respDivR'><div class='vertical-center'>(I)</div></div></div>","I","$1","$30","0","1","30","RISKY"
"html-keyboard-response","45","70250","0.0-5.0-3.13","640415971520c41606ca4389","bdp_rd","Sat Mar 25 2023 22:51:23 GMT-0400 (Eastern Daylight Time)","168100","","null","","","","offerFB","","<div class='trialBorder'><div class='vertical-center'><img style='vertical-align:center; align:center' src=img/fixation3.jpg></div><div class='cl'><div class='vertical-center'>$1<br>for<br>sure</div></div><div class='cr'><div class='vertical-center'><font style='color:orange'>$30<br>with a<br>50% chance</font></div></div><div class='respDivL'><div class='vertical-center'>(E)</div></div><div class='respDivR'><div class='vertical-center'><font style='color:orange'>(I)</font></div></div></div>","null","$1","$30","0","1","30",""
"html-keyboard-response","46","70751","0.0-5.0-1.14","640415971520c41606ca4389","bdp_rd","Sat Mar 25 2023 22:51:23 GMT-0400 (Eastern Daylight Time)","168100","","null","","","","FIX","","<div class='trialBorder'><div class='vertical-center'><img style='vertical-align:center; align:center' src=img/fixation3.jpg></div></div>","null","","","","","",""
"html-keyboard-response","47","71941","0.0-5.0-2.14","640415971520c41606ca4389","bdp_rd","Sat Mar 25 2023 22:51:23 GMT-0400 (Eastern Daylight Time)","168100","","1189","","","","offer","","<div class='trialBorder'><div class='vertical-center'><img style='vertical-align:center; align:center' src=img/fixation3.jpg></div><div class='cl'><div class='vertical-center'>$5<br>for<br>sure</div></div><div class='cr'><div class='vertical-center'>$50<br>with a<br>50% chance</div></div><div class='respDivL'><div class='vertical-center'>(E)</div></div><div class='respDivR'><div class='vertical-center'>(I)</div></div></div>","I","$5","$50","0","5","50","RISKY"
"html-keyboard-response","48","72194","0.0-5.0-3.14","640415971520c41606ca4389","bdp_rd","Sat Mar 25 2023 22:51:23 GMT-0400 (Eastern Daylight Time)","168100","","null","","","","offerFB","","<div class='trialBorder'><div class='vertical-center'><img style='vertical-align:center; align:center' src=img/fixation3.jpg></div><div class='cl'><div class='vertical-center'>$5<br>for<br>sure</div></div><div class='cr'><div class='vertical-center'><font style='color:orange'>$50<br>with a<br>50% chance</font></div></div><div class='respDivL'><div class='vertical-center'>(E)</div></div><div class='respDivR'><div class='vertical-center'><font style='color:orange'>(I)</font></div></div></div>","null","$5","$50","0","5","50",""
"html-keyboard-response","49","72694","0.0-5.0-1.15","640415971520c41606ca4389","bdp_rd","Sat Mar 25 2023 22:51:23 GMT-0400 (Eastern Daylight Time)","168100","","null","","","","FIX","","<div class='trialBorder'><div class='vertical-center'><img style='vertical-align:center; align:center' src=img/fixation3.jpg></div></div>","null","","","","","",""
"html-keyboard-response","50","74433","0.0-5.0-2.15","640415971520c41606ca4389","bdp_rd","Sat Mar 25 2023 22:51:23 GMT-0400 (Eastern Daylight Time)","168100","","1738","","","","offer","","<div class='trialBorder'><div class='vertical-center'><img style='vertical-align:center; align:center' src=img/fixation3.jpg></div><div class='cl'><div class='vertical-center'>$12<br>with a<br>50% chance</div></div><div class='cr'><div class='vertical-center'>$3<br>for<br>sure</div></div><div class='respDivL'><div class='vertical-center'>(E)</div></div><div class='respDivR'><div class='vertical-center'>(I)</div></div></div>","I","$3","$12","1","3","12","SURE"
"html-keyboard-response","51","74684","0.0-5.0-3.15","640415971520c41606ca4389","bdp_rd","Sat Mar 25 2023 22:51:23 GMT-0400 (Eastern Daylight Time)","168100","","null","","","","offerFB","","<div class='trialBorder'><div class='vertical-center'><img style='vertical-align:center; align:center' src=img/fixation3.jpg></div><div class='cl'><div class='vertical-center'>$12<br>with a<br>50% chance</div></div><div class='cr'><div class='vertical-center'><font style='color:orange'>$3<br>for<br>sure</font></div></div><div class='respDivL'><div class='vertical-center'>(E)</div></div><div class='respDivR'><div class='vertical-center'><font style='color:orange'>(I)</font></div></div></div>","null","$3","$12","1","3","12",""
"html-keyboard-response","52","75186","0.0-5.0-1.16","640415971520c41606ca4389","bdp_rd","Sat Mar 25 2023 22:51:23 GMT-0400 (Eastern Daylight Time)","168100","","null","","","","FIX","","<div class='trialBorder'><div class='vertical-center'><img style='vertical-align:center; align:center' src=img/fixation3.jpg></div></div>","null","","","","","",""
"html-keyboard-response","53","77322","0.0-5.0-2.16","640415971520c41606ca4389","bdp_rd","Sat Mar 25 2023 22:51:23 GMT-0400 (Eastern Daylight Time)","168100","","2134","","","","offer","","<div class='trialBorder'><div class='vertical-center'><img style='vertical-align:center; align:center' src=img/fixation3.jpg></div><div class='cl'><div class='vertical-center'>$2<br>for<br>sure</div></div><div class='cr'><div class='vertical-center'>$21<br>with a<br>50% chance</div></div><div class='respDivL'><div class='vertical-center'>(E)</div></div><div class='respDivR'><div class='vertical-center'>(I)</div></div></div>","I","$2","$21","0","2","21","RISKY"
"html-keyboard-response","54","77573","0.0-5.0-3.16","640415971520c41606ca4389","bdp_rd","Sat Mar 25 2023 22:51:23 GMT-0400 (Eastern Daylight Time)","168100","","null","","","","offerFB","","<div class='trialBorder'><div class='vertical-center'><img style='vertical-align:center; align:center' src=img/fixation3.jpg></div><div class='cl'><div class='vertical-center'>$2<br>for<br>sure</div></div><div class='cr'><div class='vertical-center'><font style='color:orange'>$21<br>with a<br>50% chance</font></div></div><div class='respDivL'><div class='vertical-center'>(E)</div></div><div class='respDivR'><div class='vertical-center'><font style='color:orange'>(I)</font></div></div></div>","null","$2","$21","0","2","21",""
"html-keyboard-response","55","78074","0.0-5.0-1.17","640415971520c41606ca4389","bdp_rd","Sat Mar 25 2023 22:51:23 GMT-0400 (Eastern Daylight Time)","168100","","null","","","","FIX","","<div class='trialBorder'><div class='vertical-center'><img style='vertical-align:center; align:center' src=img/fixation3.jpg></div></div>","null","","","","","",""
"html-keyboard-response","56","80095","0.0-5.0-2.17","640415971520c41606ca4389","bdp_rd","Sat Mar 25 2023 22:51:23 GMT-0400 (Eastern Daylight Time)","168100","","2020","","","","offer","","<div class='trialBorder'><div class='vertical-center'><img style='vertical-align:center; align:center' src=img/fixation3.jpg></div><div class='cl'><div class='vertical-center'>$14<br>with a<br>50% chance</div></div><div class='cr'><div class='vertical-center'>$4<br>for<br>sure</div></div><div class='respDivL'><div class='vertical-center'>(E)</div></div><div class='respDivR'><div class='vertical-center'>(I)</div></div></div>","I","$4","$14","1","4","14","SURE"
"html-keyboard-response","57","80347","0.0-5.0-3.17","640415971520c41606ca4389","bdp_rd","Sat Mar 25 2023 22:51:23 GMT-0400 (Eastern Daylight Time)","168100","","null","","","","offerFB","","<div class='trialBorder'><div class='vertical-center'><img style='vertical-align:center; align:center' src=img/fixation3.jpg></div><div class='cl'><div class='vertical-center'>$14<br>with a<br>50% chance</div></div><div class='cr'><div class='vertical-center'><font style='color:orange'>$4<br>for<br>sure</font></div></div><div class='respDivL'><div class='vertical-center'>(E)</div></div><div class='respDivR'><div class='vertical-center'><font style='color:orange'>(I)</font></div></div></div>","null","$4","$14","1","4","14",""
"html-keyboard-response","58","80849","0.0-5.0-1.18","640415971520c41606ca4389","bdp_rd","Sat Mar 25 2023 22:51:23 GMT-0400 (Eastern Daylight Time)","168100","","null","","","","FIX","","<div class='trialBorder'><div class='vertical-center'><img style='vertical-align:center; align:center' src=img/fixation3.jpg></div></div>","null","","","","","",""
"html-keyboard-response","59","81790","0.0-5.0-2.18","640415971520c41606ca4389","bdp_rd","Sat Mar 25 2023 22:51:23 GMT-0400 (Eastern Daylight Time)","168100","","940","","","","offer","","<div class='trialBorder'><div class='vertical-center'><img style='vertical-align:center; align:center' src=img/fixation3.jpg></div><div class='cl'><div class='vertical-center'>$68<br>with a<br>50% chance</div></div><div class='cr'><div class='vertical-center'>$30<br>for<br>sure</div></div><div class='respDivL'><div class='vertical-center'>(E)</div></div><div class='respDivR'><div class='vertical-center'>(I)</div></div></div>","E","$30","$68","1","30","68","RISKY"
"html-keyboard-response","60","82042","0.0-5.0-3.18","640415971520c41606ca4389","bdp_rd","Sat Mar 25 2023 22:51:23 GMT-0400 (Eastern Daylight Time)","168100","","null","","","","offerFB","","<div class='trialBorder'><div class='vertical-center'><img style='vertical-align:center; align:center' src=img/fixation3.jpg></div><div class='cl'><div class='vertical-center'><font style='color:orange'>$68<br>with a<br>50% chance</font></div></div><div class='cr'><div class='vertical-center'>$30<br>for<br>sure</div></div><div class='respDivL'><div class='vertical-center'><font style='color:orange'>(E)</font></div></div><div class='respDivR'><div class='vertical-center'>(I)</div></div></div>","null","$30","$68","1","30","68",""
"html-keyboard-response","61","82544","0.0-5.0-1.19","640415971520c41606ca4389","bdp_rd","Sat Mar 25 2023 22:51:23 GMT-0400 (Eastern Daylight Time)","168100","","null","","","","FIX","","<div class='trialBorder'><div class='vertical-center'><img style='vertical-align:center; align:center' src=img/fixation3.jpg></div></div>","null","","","","","",""
"html-keyboard-response","62","83554","0.0-5.0-2.19","640415971520c41606ca4389","bdp_rd","Sat Mar 25 2023 22:51:23 GMT-0400 (Eastern Daylight Time)","168100","","1010","","","","offer","","<div class='trialBorder'><div class='vertical-center'><img style='vertical-align:center; align:center' src=img/fixation3.jpg></div><div class='cl'><div class='vertical-center'>$92<br>with a<br>50% chance</div></div><div class='cr'><div class='vertical-center'>$26<br>for<br>sure</div></div><div class='respDivL'><div class='vertical-center'>(E)</div></div><div class='respDivR'><div class='vertical-center'>(I)</div></div></div>","E","$26","$92","1","26","92","RISKY"
"html-keyboard-response","63","83805","0.0-5.0-3.19","640415971520c41606ca4389","bdp_rd","Sat Mar 25 2023 22:51:23 GMT-0400 (Eastern Daylight Time)","168100","","null","","","","offerFB","","<div class='trialBorder'><div class='vertical-center'><img style='vertical-align:center; align:center' src=img/fixation3.jpg></div><div class='cl'><div class='vertical-center'><font style='color:orange'>$92<br>with a<br>50% chance</font></div></div><div class='cr'><div class='vertical-center'>$26<br>for<br>sure</div></div><div class='respDivL'><div class='vertical-center'><font style='color:orange'>(E)</font></div></div><div class='respDivR'><div class='vertical-center'>(I)</div></div></div>","null","$26","$92","1","26","92",""
"html-keyboard-response","64","84307","0.0-5.0-1.20","640415971520c41606ca4389","bdp_rd","Sat Mar 25 2023 22:51:23 GMT-0400 (Eastern Daylight Time)","168100","","null","","","","FIX","","<div class='trialBorder'><div class='vertical-center'><img style='vertical-align:center; align:center' src=img/fixation3.jpg></div></div>","null","","","","","",""
"html-keyboard-response","65","85601","0.0-5.0-2.20","640415971520c41606ca4389","bdp_rd","Sat Mar 25 2023 22:51:23 GMT-0400 (Eastern Daylight Time)","168100","","1293","","","","offer","","<div class='trialBorder'><div class='vertical-center'><img style='vertical-align:center; align:center' src=img/fixation3.jpg></div><div class='cl'><div class='vertical-center'>$28<br>for<br>sure</div></div><div class='cr'><div class='vertical-center'>$89<br>with a<br>50% chance</div></div><div class='respDivL'><div class='vertical-center'>(E)</div></div><div class='respDivR'><div class='vertical-center'>(I)</div></div></div>","I","$28","$89","0","28","89","RISKY"
"html-keyboard-response","66","85852","0.0-5.0-3.20","640415971520c41606ca4389","bdp_rd","Sat Mar 25 2023 22:51:23 GMT-0400 (Eastern Daylight Time)","168100","","null","","","","offerFB","","<div class='trialBorder'><div class='vertical-center'><img style='vertical-align:center; align:center' src=img/fixation3.jpg></div><div class='cl'><div class='vertical-center'>$28<br>for<br>sure</div></div><div class='cr'><div class='vertical-center'><font style='color:orange'>$89<br>with a<br>50% chance</font></div></div><div class='respDivL'><div class='vertical-center'>(E)</div></div><div class='respDivR'><div class='vertical-center'><font style='color:orange'>(I)</font></div></div></div>","null","$28","$89","0","28","89",""
"html-keyboard-response","67","86354","0.0-5.0-1.21","640415971520c41606ca4389","bdp_rd","Sat Mar 25 2023 22:51:23 GMT-0400 (Eastern Daylight Time)","168100","","null","","","","FIX","","<div class='trialBorder'><div class='vertical-center'><img style='vertical-align:center; align:center' src=img/fixation3.jpg></div></div>","null","","","","","",""
"html-keyboard-response","68","88009","0.0-5.0-2.21","640415971520c41606ca4389","bdp_rd","Sat Mar 25 2023 22:51:23 GMT-0400 (Eastern Daylight Time)","168100","","1655","","","","offer","","<div class='trialBorder'><div class='vertical-center'><img style='vertical-align:center; align:center' src=img/fixation3.jpg></div><div class='cl'><div class='vertical-center'>$11<br>with a<br>50% chance</div></div><div class='cr'><div class='vertical-center'>$4<br>for<br>sure</div></div><div class='respDivL'><div class='vertical-center'>(E)</div></div><div class='respDivR'><div class='vertical-center'>(I)</div></div></div>","I","$4","$11","1","4","11","SURE"
"html-keyboard-response","69","88261","0.0-5.0-3.21","640415971520c41606ca4389","bdp_rd","Sat Mar 25 2023 22:51:23 GMT-0400 (Eastern Daylight Time)","168100","","null","","","","offerFB","","<div class='trialBorder'><div class='vertical-center'><img style='vertical-align:center; align:center' src=img/fixation3.jpg></div><div class='cl'><div class='vertical-center'>$11<br>with a<br>50% chance</div></div><div class='cr'><div class='vertical-center'><font style='color:orange'>$4<br>for<br>sure</font></div></div><div class='respDivL'><div class='vertical-center'>(E)</div></div><div class='respDivR'><div class='vertical-center'><font style='color:orange'>(I)</font></div></div></div>","null","$4","$11","1","4","11",""
"html-keyboard-response","70","88763","0.0-5.0-1.22","640415971520c41606ca4389","bdp_rd","Sat Mar 25 2023 22:51:23 GMT-0400 (Eastern Daylight Time)","168100","","null","","","","FIX","","<div class='trialBorder'><div class='vertical-center'><img style='vertical-align:center; align:center' src=img/fixation3.jpg></div></div>","null","","","","","",""
"html-keyboard-response","71","90409","0.0-5.0-2.22","640415971520c41606ca4389","bdp_rd","Sat Mar 25 2023 22:51:23 GMT-0400 (Eastern Daylight Time)","168100","","1646","","","","offer","","<div class='trialBorder'><div class='vertical-center'><img style='vertical-align:center; align:center' src=img/fixation3.jpg></div><div class='cl'><div class='vertical-center'>$23<br>with a<br>50% chance</div></div><div class='cr'><div class='vertical-center'>$8<br>for<br>sure</div></div><div class='respDivL'><div class='vertical-center'>(E)</div></div><div class='respDivR'><div class='vertical-center'>(I)</div></div></div>","E","$8","$23","1","8","23","RISKY"
"html-keyboard-response","72","90661","0.0-5.0-3.22","640415971520c41606ca4389","bdp_rd","Sat Mar 25 2023 22:51:23 GMT-0400 (Eastern Daylight Time)","168100","","null","","","","offerFB","","<div class='trialBorder'><div class='vertical-center'><img style='vertical-align:center; align:center' src=img/fixation3.jpg></div><div class='cl'><div class='vertical-center'><font style='color:orange'>$23<br>with a<br>50% chance</font></div></div><div class='cr'><div class='vertical-center'>$8<br>for<br>sure</div></div><div class='respDivL'><div class='vertical-center'><font style='color:orange'>(E)</font></div></div><div class='respDivR'><div class='vertical-center'>(I)</div></div></div>","null","$8","$23","1","8","23",""
"html-keyboard-response","73","91162","0.0-5.0-1.23","640415971520c41606ca4389","bdp_rd","Sat Mar 25 2023 22:51:23 GMT-0400 (Eastern Daylight Time)","168100","","null","","","","FIX","","<div class='trialBorder'><div class='vertical-center'><img style='vertical-align:center; align:center' src=img/fixation3.jpg></div></div>","null","","","","","",""
"html-keyboard-response","74","92465","0.0-5.0-2.23","640415971520c41606ca4389","bdp_rd","Sat Mar 25 2023 22:51:23 GMT-0400 (Eastern Daylight Time)","168100","","1303","","","","offer","","<div class='trialBorder'><div class='vertical-center'><img style='vertical-align:center; align:center' src=img/fixation3.jpg></div><div class='cl'><div class='vertical-center'>$53<br>for<br>sure</div></div><div class='cr'><div class='vertical-center'>$98<br>with a<br>50% chance</div></div><div class='respDivL'><div class='vertical-center'>(E)</div></div><div class='respDivR'><div class='vertical-center'>(I)</div></div></div>","I","$53","$98","0","53","98","RISKY"
"html-keyboard-response","75","92717","0.0-5.0-3.23","640415971520c41606ca4389","bdp_rd","Sat Mar 25 2023 22:51:23 GMT-0400 (Eastern Daylight Time)","168100","","null","","","","offerFB","","<div class='trialBorder'><div class='vertical-center'><img style='vertical-align:center; align:center' src=img/fixation3.jpg></div><div class='cl'><div class='vertical-center'>$53<br>for<br>sure</div></div><div class='cr'><div class='vertical-center'><font style='color:orange'>$98<br>with a<br>50% chance</font></div></div><div class='respDivL'><div class='vertical-center'>(E)</div></div><div class='respDivR'><div class='vertical-center'><font style='color:orange'>(I)</font></div></div></div>","null","$53","$98","0","53","98",""
"html-keyboard-response","76","93218","0.0-5.0-1.24","640415971520c41606ca4389","bdp_rd","Sat Mar 25 2023 22:51:23 GMT-0400 (Eastern Daylight Time)","168100","","null","","","","FIX","","<div class='trialBorder'><div class='vertical-center'><img style='vertical-align:center; align:center' src=img/fixation3.jpg></div></div>","null","","","","","",""
"html-keyboard-response","77","94204","0.0-5.0-2.24","640415971520c41606ca4389","bdp_rd","Sat Mar 25 2023 22:51:23 GMT-0400 (Eastern Daylight Time)","168100","","985","","","","offer","","<div class='trialBorder'><div class='vertical-center'><img style='vertical-align:center; align:center' src=img/fixation3.jpg></div><div class='cl'><div class='vertical-center'>$54<br>with a<br>50% chance</div></div><div class='cr'><div class='vertical-center'>$25<br>for<br>sure</div></div><div class='respDivL'><div class='vertical-center'>(E)</div></div><div class='respDivR'><div class='vertical-center'>(I)</div></div></div>","E","$25","$54","1","25","54","RISKY"
"html-keyboard-response","78","94455","0.0-5.0-3.24","640415971520c41606ca4389","bdp_rd","Sat Mar 25 2023 22:51:23 GMT-0400 (Eastern Daylight Time)","168100","","null","","","","offerFB","","<div class='trialBorder'><div class='vertical-center'><img style='vertical-align:center; align:center' src=img/fixation3.jpg></div><div class='cl'><div class='vertical-center'><font style='color:orange'>$54<br>with a<br>50% chance</font></div></div><div class='cr'><div class='vertical-center'>$25<br>for<br>sure</div></div><div class='respDivL'><div class='vertical-center'><font style='color:orange'>(E)</font></div></div><div class='respDivR'><div class='vertical-center'>(I)</div></div></div>","null","$25","$54","1","25","54",""
"html-keyboard-response","79","94956","0.0-5.0-1.25","640415971520c41606ca4389","bdp_rd","Sat Mar 25 2023 22:51:23 GMT-0400 (Eastern Daylight Time)","168100","","null","","","","FIX","","<div class='trialBorder'><div class='vertical-center'><img style='vertical-align:center; align:center' src=img/fixation3.jpg></div></div>","null","","","","","",""
"html-keyboard-response","80","96183","0.0-5.0-2.25","640415971520c41606ca4389","bdp_rd","Sat Mar 25 2023 22:51:23 GMT-0400 (Eastern Daylight Time)","168100","","1226","","","","offer","","<div class='trialBorder'><div class='vertical-center'><img style='vertical-align:center; align:center' src=img/fixation3.jpg></div><div class='cl'><div class='vertical-center'>$9<br>for<br>sure</div></div><div class='cr'><div class='vertical-center'>$18<br>with a<br>50% chance</div></div><div class='respDivL'><div class='vertical-center'>(E)</div></div><div class='respDivR'><div class='vertical-center'>(I)</div></div></div>","E","$9","$18","0","9","18","SURE"
"html-keyboard-response","81","96436","0.0-5.0-3.25","640415971520c41606ca4389","bdp_rd","Sat Mar 25 2023 22:51:23 GMT-0400 (Eastern Daylight Time)","168100","","null","","","","offerFB","","<div class='trialBorder'><div class='vertical-center'><img style='vertical-align:center; align:center' src=img/fixation3.jpg></div><div class='cl'><div class='vertical-center'><font style='color:orange'>$9<br>for<br>sure</font></div></div><div class='cr'><div class='vertical-center'>$18<br>with a<br>50% chance</div></div><div class='respDivL'><div class='vertical-center'><font style='color:orange'>(E)</font></div></div><div class='respDivR'><div class='vertical-center'>(I)</div></div></div>","null","$9","$18","0","9","18",""
"html-keyboard-response","82","96937","0.0-5.0-1.26","640415971520c41606ca4389","bdp_rd","Sat Mar 25 2023 22:51:23 GMT-0400 (Eastern Daylight Time)","168100","","null","","","","FIX","","<div class='trialBorder'><div class='vertical-center'><img style='vertical-align:center; align:center' src=img/fixation3.jpg></div></div>","null","","","","","",""
"html-keyboard-response","83","98103","0.0-5.0-2.26","640415971520c41606ca4389","bdp_rd","Sat Mar 25 2023 22:51:23 GMT-0400 (Eastern Daylight Time)","168100","","1165","","","","offer","","<div class='trialBorder'><div class='vertical-center'><img style='vertical-align:center; align:center' src=img/fixation3.jpg></div><div class='cl'><div class='vertical-center'>$7<br>for<br>sure</div></div><div class='cr'><div class='vertical-center'>$10<br>with a<br>50% chance</div></div><div class='respDivL'><div class='vertical-center'>(E)</div></div><div class='respDivR'><div class='vertical-center'>(I)</div></div></div>","E","$7","$10","0","7","10","SURE"
"html-keyboard-response","84","98355","0.0-5.0-3.26","640415971520c41606ca4389","bdp_rd","Sat Mar 25 2023 22:51:23 GMT-0400 (Eastern Daylight Time)","168100","","null","","","","offerFB","","<div class='trialBorder'><div class='vertical-center'><img style='vertical-align:center; align:center' src=img/fixation3.jpg></div><div class='cl'><div class='vertical-center'><font style='color:orange'>$7<br>for<br>sure</font></div></div><div class='cr'><div class='vertical-center'>$10<br>with a<br>50% chance</div></div><div class='respDivL'><div class='vertical-center'><font style='color:orange'>(E)</font></div></div><div class='respDivR'><div class='vertical-center'>(I)</div></div></div>","null","$7","$10","0","7","10",""
"html-keyboard-response","85","98857","0.0-5.0-1.27","640415971520c41606ca4389","bdp_rd","Sat Mar 25 2023 22:51:23 GMT-0400 (Eastern Daylight Time)","168100","","null","","","","FIX","","<div class='trialBorder'><div class='vertical-center'><img style='vertical-align:center; align:center' src=img/fixation3.jpg></div></div>","null","","","","","",""
"html-keyboard-response","86","100267","0.0-5.0-2.27","640415971520c41606ca4389","bdp_rd","Sat Mar 25 2023 22:51:23 GMT-0400 (Eastern Daylight Time)","168100","","1410","","","","offer","","<div class='trialBorder'><div class='vertical-center'><img style='vertical-align:center; align:center' src=img/fixation3.jpg></div><div class='cl'><div class='vertical-center'>$43<br>with a<br>50% chance</div></div><div class='cr'><div class='vertical-center'>$17<br>for<br>sure</div></div><div class='respDivL'><div class='vertical-center'>(E)</div></div><div class='respDivR'><div class='vertical-center'>(I)</div></div></div>","E","$17","$43","1","17","43","RISKY"
"html-keyboard-response","87","100519","0.0-5.0-3.27","640415971520c41606ca4389","bdp_rd","Sat Mar 25 2023 22:51:23 GMT-0400 (Eastern Daylight Time)","168100","","null","","","","offerFB","","<div class='trialBorder'><div class='vertical-center'><img style='vertical-align:center; align:center' src=img/fixation3.jpg></div><div class='cl'><div class='vertical-center'><font style='color:orange'>$43<br>with a<br>50% chance</font></div></div><div class='cr'><div class='vertical-center'>$17<br>for<br>sure</div></div><div class='respDivL'><div class='vertical-center'><font style='color:orange'>(E)</font></div></div><div class='respDivR'><div class='vertical-center'>(I)</div></div></div>","null","$17","$43","1","17","43",""
"html-keyboard-response","88","101020","0.0-5.0-1.28","640415971520c41606ca4389","bdp_rd","Sat Mar 25 2023 22:51:23 GMT-0400 (Eastern Daylight Time)","168100","","null","","","","FIX","","<div class='trialBorder'><div class='vertical-center'><img style='vertical-align:center; align:center' src=img/fixation3.jpg></div></div>","null","","","","","",""
"html-keyboard-response","89","102827","0.0-5.0-2.28","640415971520c41606ca4389","bdp_rd","Sat Mar 25 2023 22:51:23 GMT-0400 (Eastern Daylight Time)","168100","","1806","","","","offer","","<div class='trialBorder'><div class='vertical-center'><img style='vertical-align:center; align:center' src=img/fixation3.jpg></div><div class='cl'><div class='vertical-center'>$13<br>with a<br>50% chance</div></div><div class='cr'><div class='vertical-center'>$6<br>for<br>sure</div></div><div class='respDivL'><div class='vertical-center'>(E)</div></div><div class='respDivR'><div class='vertical-center'>(I)</div></div></div>","I","$6","$13","1","6","13","SURE"
"html-keyboard-response","90","103079","0.0-5.0-3.28","640415971520c41606ca4389","bdp_rd","Sat Mar 25 2023 22:51:23 GMT-0400 (Eastern Daylight Time)","168100","","null","","","","offerFB","","<div class='trialBorder'><div class='vertical-center'><img style='vertical-align:center; align:center' src=img/fixation3.jpg></div><div class='cl'><div class='vertical-center'>$13<br>with a<br>50% chance</div></div><div class='cr'><div class='vertical-center'><font style='color:orange'>$6<br>for<br>sure</font></div></div><div class='respDivL'><div class='vertical-center'>(E)</div></div><div class='respDivR'><div class='vertical-center'><font style='color:orange'>(I)</font></div></div></div>","null","$6","$13","1","6","13",""
"html-keyboard-response","91","103580","0.0-5.0-1.29","640415971520c41606ca4389","bdp_rd","Sat Mar 25 2023 22:51:23 GMT-0400 (Eastern Daylight Time)","168100","","null","","","","FIX","","<div class='trialBorder'><div class='vertical-center'><img style='vertical-align:center; align:center' src=img/fixation3.jpg></div></div>","null","","","","","",""
"html-keyboard-response","92","105552","0.0-5.0-2.29","640415971520c41606ca4389","bdp_rd","Sat Mar 25 2023 22:51:23 GMT-0400 (Eastern Daylight Time)","168100","","1970","","","","offer","","<div class='trialBorder'><div class='vertical-center'><img style='vertical-align:center; align:center' src=img/fixation3.jpg></div><div class='cl'><div class='vertical-center'>$58<br>for<br>sure</div></div><div class='cr'><div class='vertical-center'>$69<br>with a<br>50% chance</div></div><div class='respDivL'><div class='vertical-center'>(E)</div></div><div class='respDivR'><div class='vertical-center'>(I)</div></div></div>","E","$58","$69","0","58","69","SURE"
"html-keyboard-response","93","105804","0.0-5.0-3.29","640415971520c41606ca4389","bdp_rd","Sat Mar 25 2023 22:51:23 GMT-0400 (Eastern Daylight Time)","168100","","null","","","","offerFB","","<div class='trialBorder'><div class='vertical-center'><img style='vertical-align:center; align:center' src=img/fixation3.jpg></div><div class='cl'><div class='vertical-center'><font style='color:orange'>$58<br>for<br>sure</font></div></div><div class='cr'><div class='vertical-center'>$69<br>with a<br>50% chance</div></div><div class='respDivL'><div class='vertical-center'><font style='color:orange'>(E)</font></div></div><div class='respDivR'><div class='vertical-center'>(I)</div></div></div>","null","$58","$69","0","58","69",""
"html-keyboard-response","94","106305","0.0-5.0-1.30","640415971520c41606ca4389","bdp_rd","Sat Mar 25 2023 22:51:23 GMT-0400 (Eastern Daylight Time)","168100","","null","","","","FIX","","<div class='trialBorder'><div class='vertical-center'><img style='vertical-align:center; align:center' src=img/fixation3.jpg></div></div>","null","","","","","",""
"html-keyboard-response","95","107548","0.0-5.0-2.30","640415971520c41606ca4389","bdp_rd","Sat Mar 25 2023 22:51:23 GMT-0400 (Eastern Daylight Time)","168100","","1242","","","","offer","","<div class='trialBorder'><div class='vertical-center'><img style='vertical-align:center; align:center' src=img/fixation3.jpg></div><div class='cl'><div class='vertical-center'>$59<br>with a<br>50% chance</div></div><div class='cr'><div class='vertical-center'>$22<br>for<br>sure</div></div><div class='respDivL'><div class='vertical-center'>(E)</div></div><div class='respDivR'><div class='vertical-center'>(I)</div></div></div>","E","$22","$59","1","22","59","RISKY"
"html-keyboard-response","96","107800","0.0-5.0-3.30","640415971520c41606ca4389","bdp_rd","Sat Mar 25 2023 22:51:23 GMT-0400 (Eastern Daylight Time)","168100","","null","","","","offerFB","","<div class='trialBorder'><div class='vertical-center'><img style='vertical-align:center; align:center' src=img/fixation3.jpg></div><div class='cl'><div class='vertical-center'><font style='color:orange'>$59<br>with a<br>50% chance</font></div></div><div class='cr'><div class='vertical-center'>$22<br>for<br>sure</div></div><div class='respDivL'><div class='vertical-center'><font style='color:orange'>(E)</font></div></div><div class='respDivR'><div class='vertical-center'>(I)</div></div></div>","null","$22","$59","1","22","59",""
"html-keyboard-response","97","108301","0.0-5.0-1.31","640415971520c41606ca4389","bdp_rd","Sat Mar 25 2023 22:51:23 GMT-0400 (Eastern Daylight Time)","168100","","null","","","","FIX","","<div class='trialBorder'><div class='vertical-center'><img style='vertical-align:center; align:center' src=img/fixation3.jpg></div></div>","null","","","","","",""
"html-keyboard-response","98","109771","0.0-5.0-2.31","640415971520c41606ca4389","bdp_rd","Sat Mar 25 2023 22:51:23 GMT-0400 (Eastern Daylight Time)","168100","","1469","","","","offer","","<div class='trialBorder'><div class='vertical-center'><img style='vertical-align:center; align:center' src=img/fixation3.jpg></div><div class='cl'><div class='vertical-center'>$41<br>with a<br>50% chance</div></div><div class='cr'><div class='vertical-center'>$13<br>for<br>sure</div></div><div class='respDivL'><div class='vertical-center'>(E)</div></div><div class='respDivR'><div class='vertical-center'>(I)</div></div></div>","E","$13","$41","1","13","41","RISKY"
"html-keyboard-response","99","110022","0.0-5.0-3.31","640415971520c41606ca4389","bdp_rd","Sat Mar 25 2023 22:51:23 GMT-0400 (Eastern Daylight Time)","168100","","null","","","","offerFB","","<div class='trialBorder'><div class='vertical-center'><img style='vertical-align:center; align:center' src=img/fixation3.jpg></div><div class='cl'><div class='vertical-center'><font style='color:orange'>$41<br>with a<br>50% chance</font></div></div><div class='cr'><div class='vertical-center'>$13<br>for<br>sure</div></div><div class='respDivL'><div class='vertical-center'><font style='color:orange'>(E)</font></div></div><div class='respDivR'><div class='vertical-center'>(I)</div></div></div>","null","$13","$41","1","13","41",""
"html-keyboard-response","100","110524","0.0-5.0-1.32","640415971520c41606ca4389","bdp_rd","Sat Mar 25 2023 22:51:23 GMT-0400 (Eastern Daylight Time)","168100","","null","","","","FIX","","<div class='trialBorder'><div class='vertical-center'><img style='vertical-align:center; align:center' src=img/fixation3.jpg></div></div>","null","","","","","",""
"html-keyboard-response","101","111893","0.0-5.0-2.32","640415971520c41606ca4389","bdp_rd","Sat Mar 25 2023 22:51:23 GMT-0400 (Eastern Daylight Time)","168100","","1369","","","","offer","","<div class='trialBorder'><div class='vertical-center'><img style='vertical-align:center; align:center' src=img/fixation3.jpg></div><div class='cl'><div class='vertical-center'>$71<br>with a<br>50% chance</div></div><div class='cr'><div class='vertical-center'>$7<br>for<br>sure</div></div><div class='respDivL'><div class='vertical-center'>(E)</div></div><div class='respDivR'><div class='vertical-center'>(I)</div></div></div>","E","$7","$71","1","7","71","RISKY"
"html-keyboard-response","102","112146","0.0-5.0-3.32","640415971520c41606ca4389","bdp_rd","Sat Mar 25 2023 22:51:23 GMT-0400 (Eastern Daylight Time)","168100","","null","","","","offerFB","","<div class='trialBorder'><div class='vertical-center'><img style='vertical-align:center; align:center' src=img/fixation3.jpg></div><div class='cl'><div class='vertical-center'><font style='color:orange'>$71<br>with a<br>50% chance</font></div></div><div class='cr'><div class='vertical-center'>$7<br>for<br>sure</div></div><div class='respDivL'><div class='vertical-center'><font style='color:orange'>(E)</font></div></div><div class='respDivR'><div class='vertical-center'>(I)</div></div></div>","null","$7","$71","1","7","71",""
"html-keyboard-response","103","112647","0.0-5.0-1.33","640415971520c41606ca4389","bdp_rd","Sat Mar 25 2023 22:51:23 GMT-0400 (Eastern Daylight Time)","168100","","null","","","","FIX","","<div class='trialBorder'><div class='vertical-center'><img style='vertical-align:center; align:center' src=img/fixation3.jpg></div></div>","null","","","","","",""
"html-keyboard-response","104","113527","0.0-5.0-2.33","640415971520c41606ca4389","bdp_rd","Sat Mar 25 2023 22:51:23 GMT-0400 (Eastern Daylight Time)","168100","","880","","","","offer","","<div class='trialBorder'><div class='vertical-center'><img style='vertical-align:center; align:center' src=img/fixation3.jpg></div><div class='cl'><div class='vertical-center'>$20<br>for<br>sure</div></div><div class='cr'><div class='vertical-center'>$80<br>with a<br>50% chance</div></div><div class='respDivL'><div class='vertical-center'>(E)</div></div><div class='respDivR'><div class='vertical-center'>(I)</div></div></div>","I","$20","$80","0","20","80","RISKY"
"html-keyboard-response","105","113778","0.0-5.0-3.33","640415971520c41606ca4389","bdp_rd","Sat Mar 25 2023 22:51:23 GMT-0400 (Eastern Daylight Time)","168100","","null","","","","offerFB","","<div class='trialBorder'><div class='vertical-center'><img style='vertical-align:center; align:center' src=img/fixation3.jpg></div><div class='cl'><div class='vertical-center'>$20<br>for<br>sure</div></div><div class='cr'><div class='vertical-center'><font style='color:orange'>$80<br>with a<br>50% chance</font></div></div><div class='respDivL'><div class='vertical-center'>(E)</div></div><div class='respDivR'><div class='vertical-center'><font style='color:orange'>(I)</font></div></div></div>","null","$20","$80","0","20","80",""
"html-keyboard-response","106","114280","0.0-5.0-1.34","640415971520c41606ca4389","bdp_rd","Sat Mar 25 2023 22:51:23 GMT-0400 (Eastern Daylight Time)","168100","","null","","","","FIX","","<div class='trialBorder'><div class='vertical-center'><img style='vertical-align:center; align:center' src=img/fixation3.jpg></div></div>","null","","","","","",""
"html-keyboard-response","107","115301","0.0-5.0-2.34","640415971520c41606ca4389","bdp_rd","Sat Mar 25 2023 22:51:23 GMT-0400 (Eastern Daylight Time)","168100","","1021","","","","offer","","<div class='trialBorder'><div class='vertical-center'><img style='vertical-align:center; align:center' src=img/fixation3.jpg></div><div class='cl'><div class='vertical-center'>$51<br>with a<br>50% chance</div></div><div class='cr'><div class='vertical-center'>$19<br>for<br>sure</div></div><div class='respDivL'><div class='vertical-center'>(E)</div></div><div class='respDivR'><div class='vertical-center'>(I)</div></div></div>","E","$19","$51","1","19","51","RISKY"
"html-keyboard-response","108","115553","0.0-5.0-3.34","640415971520c41606ca4389","bdp_rd","Sat Mar 25 2023 22:51:23 GMT-0400 (Eastern Daylight Time)","168100","","null","","","","offerFB","","<div class='trialBorder'><div class='vertical-center'><img style='vertical-align:center; align:center' src=img/fixation3.jpg></div><div class='cl'><div class='vertical-center'><font style='color:orange'>$51<br>with a<br>50% chance</font></div></div><div class='cr'><div class='vertical-center'>$19<br>for<br>sure</div></div><div class='respDivL'><div class='vertical-center'><font style='color:orange'>(E)</font></div></div><div class='respDivR'><div class='vertical-center'>(I)</div></div></div>","null","$19","$51","1","19","51",""
"html-keyboard-response","109","116054","0.0-5.0-1.35","640415971520c41606ca4389","bdp_rd","Sat Mar 25 2023 22:51:23 GMT-0400 (Eastern Daylight Time)","168100","","null","","","","FIX","","<div class='trialBorder'><div class='vertical-center'><img style='vertical-align:center; align:center' src=img/fixation3.jpg></div></div>","null","","","","","",""
"html-keyboard-response","110","117236","0.0-5.0-2.35","640415971520c41606ca4389","bdp_rd","Sat Mar 25 2023 22:51:23 GMT-0400 (Eastern Daylight Time)","168100","","1181","","","","offer","","<div class='trialBorder'><div class='vertical-center'><img style='vertical-align:center; align:center' src=img/fixation3.jpg></div><div class='cl'><div class='vertical-center'>$6<br>for<br>sure</div></div><div class='cr'><div class='vertical-center'>$15<br>with a<br>50% chance</div></div><div class='respDivL'><div class='vertical-center'>(E)</div></div><div class='respDivR'><div class='vertical-center'>(I)</div></div></div>","E","$6","$15","0","6","15","SURE"
"html-keyboard-response","111","117487","0.0-5.0-3.35","640415971520c41606ca4389","bdp_rd","Sat Mar 25 2023 22:51:23 GMT-0400 (Eastern Daylight Time)","168100","","null","","","","offerFB","","<div class='trialBorder'><div class='vertical-center'><img style='vertical-align:center; align:center' src=img/fixation3.jpg></div><div class='cl'><div class='vertical-center'><font style='color:orange'>$6<br>for<br>sure</font></div></div><div class='cr'><div class='vertical-center'>$15<br>with a<br>50% chance</div></div><div class='respDivL'><div class='vertical-center'><font style='color:orange'>(E)</font></div></div><div class='respDivR'><div class='vertical-center'>(I)</div></div></div>","null","$6","$15","0","6","15",""
"html-keyboard-response","112","117988","0.0-5.0-1.36","640415971520c41606ca4389","bdp_rd","Sat Mar 25 2023 22:51:23 GMT-0400 (Eastern Daylight Time)","168100","","null","","","","FIX","","<div class='trialBorder'><div class='vertical-center'><img style='vertical-align:center; align:center' src=img/fixation3.jpg></div></div>","null","","","","","",""
"html-keyboard-response","113","119220","0.0-5.0-2.36","640415971520c41606ca4389","bdp_rd","Sat Mar 25 2023 22:51:23 GMT-0400 (Eastern Daylight Time)","168100","","1231","","","","offer","","<div class='trialBorder'><div class='vertical-center'><img style='vertical-align:center; align:center' src=img/fixation3.jpg></div><div class='cl'><div class='vertical-center'>$2<br>for<br>sure</div></div><div class='cr'><div class='vertical-center'>$64<br>with a<br>50% chance</div></div><div class='respDivL'><div class='vertical-center'>(E)</div></div><div class='respDivR'><div class='vertical-center'>(I)</div></div></div>","I","$2","$64","0","2","64","RISKY"
"html-keyboard-response","114","119471","0.0-5.0-3.36","640415971520c41606ca4389","bdp_rd","Sat Mar 25 2023 22:51:23 GMT-0400 (Eastern Daylight Time)","168100","","null","","","","offerFB","","<div class='trialBorder'><div class='vertical-center'><img style='vertical-align:center; align:center' src=img/fixation3.jpg></div><div class='cl'><div class='vertical-center'>$2<br>for<br>sure</div></div><div class='cr'><div class='vertical-center'><font style='color:orange'>$64<br>with a<br>50% chance</font></div></div><div class='respDivL'><div class='vertical-center'>(E)</div></div><div class='respDivR'><div class='vertical-center'><font style='color:orange'>(I)</font></div></div></div>","null","$2","$64","0","2","64",""
"html-keyboard-response","115","119972","0.0-5.0-1.37","640415971520c41606ca4389","bdp_rd","Sat Mar 25 2023 22:51:23 GMT-0400 (Eastern Daylight Time)","168100","","null","","","","FIX","","<div class='trialBorder'><div class='vertical-center'><img style='vertical-align:center; align:center' src=img/fixation3.jpg></div></div>","null","","","","","",""
"html-keyboard-response","116","120845","0.0-5.0-2.37","640415971520c41606ca4389","bdp_rd","Sat Mar 25 2023 22:51:23 GMT-0400 (Eastern Daylight Time)","168100","","872","","","","offer","","<div class='trialBorder'><div class='vertical-center'><img style='vertical-align:center; align:center' src=img/fixation3.jpg></div><div class='cl'><div class='vertical-center'>$78<br>with a<br>50% chance</div></div><div class='cr'><div class='vertical-center'>$31<br>for<br>sure</div></div><div class='respDivL'><div class='vertical-center'>(E)</div></div><div class='respDivR'><div class='vertical-center'>(I)</div></div></div>","E","$31","$78","1","31","78","RISKY"
"html-keyboard-response","117","121097","0.0-5.0-3.37","640415971520c41606ca4389","bdp_rd","Sat Mar 25 2023 22:51:23 GMT-0400 (Eastern Daylight Time)","168100","","null","","","","offerFB","","<div class='trialBorder'><div class='vertical-center'><img style='vertical-align:center; align:center' src=img/fixation3.jpg></div><div class='cl'><div class='vertical-center'><font style='color:orange'>$78<br>with a<br>50% chance</font></div></div><div class='cr'><div class='vertical-center'>$31<br>for<br>sure</div></div><div class='respDivL'><div class='vertical-center'><font style='color:orange'>(E)</font></div></div><div class='respDivR'><div class='vertical-center'>(I)</div></div></div>","null","$31","$78","1","31","78",""
"html-keyboard-response","118","121598","0.0-5.0-1.38","640415971520c41606ca4389","bdp_rd","Sat Mar 25 2023 22:51:23 GMT-0400 (Eastern Daylight Time)","168100","","null","","","","FIX","","<div class='trialBorder'><div class='vertical-center'><img style='vertical-align:center; align:center' src=img/fixation3.jpg></div></div>","null","","","","","",""
"html-keyboard-response","119","123209","0.0-5.0-2.38","640415971520c41606ca4389","bdp_rd","Sat Mar 25 2023 22:51:23 GMT-0400 (Eastern Daylight Time)","168100","","1610","","","","offer","","<div class='trialBorder'><div class='vertical-center'><img style='vertical-align:center; align:center' src=img/fixation3.jpg></div><div class='cl'><div class='vertical-center'>$37<br>for<br>sure</div></div><div class='cr'><div class='vertical-center'>$44<br>with a<br>50% chance</div></div><div class='respDivL'><div class='vertical-center'>(E)</div></div><div class='respDivR'><div class='vertical-center'>(I)</div></div></div>","E","$37","$44","0","37","44","SURE"
"html-keyboard-response","120","123461","0.0-5.0-3.38","640415971520c41606ca4389","bdp_rd","Sat Mar 25 2023 22:51:23 GMT-0400 (Eastern Daylight Time)","168100","","null","","","","offerFB","","<div class='trialBorder'><div class='vertical-center'><img style='vertical-align:center; align:center' src=img/fixation3.jpg></div><div class='cl'><div class='vertical-center'><font style='color:orange'>$37<br>for<br>sure</font></div></div><div class='cr'><div class='vertical-center'>$44<br>with a<br>50% chance</div></div><div class='respDivL'><div class='vertical-center'><font style='color:orange'>(E)</font></div></div><div class='respDivR'><div class='vertical-center'>(I)</div></div></div>","null","$37","$44","0","37","44",""
"html-keyboard-response","121","123963","0.0-5.0-1.39","640415971520c41606ca4389","bdp_rd","Sat Mar 25 2023 22:51:23 GMT-0400 (Eastern Daylight Time)","168100","","null","","","","FIX","","<div class='trialBorder'><div class='vertical-center'><img style='vertical-align:center; align:center' src=img/fixation3.jpg></div></div>","null","","","","","",""
"html-keyboard-response","122","125090","0.0-5.0-2.39","640415971520c41606ca4389","bdp_rd","Sat Mar 25 2023 22:51:23 GMT-0400 (Eastern Daylight Time)","168100","","1127","","","","offer","","<div class='trialBorder'><div class='vertical-center'><img style='vertical-align:center; align:center' src=img/fixation3.jpg></div><div class='cl'><div class='vertical-center'>$21<br>for<br>sure</div></div><div class='cr'><div class='vertical-center'>$25<br>with a<br>50% chance</div></div><div class='respDivL'><div class='vertical-center'>(E)</div></div><div class='respDivR'><div class='vertical-center'>(I)</div></div></div>","E","$21","$25","0","21","25","SURE"
"html-keyboard-response","123","125342","0.0-5.0-3.39","640415971520c41606ca4389","bdp_rd","Sat Mar 25 2023 22:51:23 GMT-0400 (Eastern Daylight Time)","168100","","null","","","","offerFB","","<div class='trialBorder'><div class='vertical-center'><img style='vertical-align:center; align:center' src=img/fixation3.jpg></div><div class='cl'><div class='vertical-center'><font style='color:orange'>$21<br>for<br>sure</font></div></div><div class='cr'><div class='vertical-center'>$25<br>with a<br>50% chance</div></div><div class='respDivL'><div class='vertical-center'><font style='color:orange'>(E)</font></div></div><div class='respDivR'><div class='vertical-center'>(I)</div></div></div>","null","$21","$25","0","21","25",""
"html-keyboard-response","124","125843","0.0-5.0-1.40","640415971520c41606ca4389","bdp_rd","Sat Mar 25 2023 22:51:23 GMT-0400 (Eastern Daylight Time)","168100","","null","","","","FIX","","<div class='trialBorder'><div class='vertical-center'><img style='vertical-align:center; align:center' src=img/fixation3.jpg></div></div>","null","","","","","",""
"html-keyboard-response","125","127329","0.0-5.0-2.40","640415971520c41606ca4389","bdp_rd","Sat Mar 25 2023 22:51:23 GMT-0400 (Eastern Daylight Time)","168100","","1486","","","","offer","","<div class='trialBorder'><div class='vertical-center'><img style='vertical-align:center; align:center' src=img/fixation3.jpg></div><div class='cl'><div class='vertical-center'>$36<br>with a<br>50% chance</div></div><div class='cr'><div class='vertical-center'>$18<br>for<br>sure</div></div><div class='respDivL'><div class='vertical-center'>(E)</div></div><div class='respDivR'><div class='vertical-center'>(I)</div></div></div>","E","$18","$36","1","18","36","RISKY"
"html-keyboard-response","126","127580","0.0-5.0-3.40","640415971520c41606ca4389","bdp_rd","Sat Mar 25 2023 22:51:23 GMT-0400 (Eastern Daylight Time)","168100","","null","","","","offerFB","","<div class='trialBorder'><div class='vertical-center'><img style='vertical-align:center; align:center' src=img/fixation3.jpg></div><div class='cl'><div class='vertical-center'><font style='color:orange'>$36<br>with a<br>50% chance</font></div></div><div class='cr'><div class='vertical-center'>$18<br>for<br>sure</div></div><div class='respDivL'><div class='vertical-center'><font style='color:orange'>(E)</font></div></div><div class='respDivR'><div class='vertical-center'>(I)</div></div></div>","null","$18","$36","1","18","36",""
"html-keyboard-response","127","128081","0.0-5.0-1.41","640415971520c41606ca4389","bdp_rd","Sat Mar 25 2023 22:51:23 GMT-0400 (Eastern Daylight Time)","168100","","null","","","","FIX","","<div class='trialBorder'><div class='vertical-center'><img style='vertical-align:center; align:center' src=img/fixation3.jpg></div></div>","null","","","","","",""
"html-keyboard-response","128","129571","0.0-5.0-2.41","640415971520c41606ca4389","bdp_rd","Sat Mar 25 2023 22:51:23 GMT-0400 (Eastern Daylight Time)","168100","","1488","","","","offer","","<div class='trialBorder'><div class='vertical-center'><img style='vertical-align:center; align:center' src=img/fixation3.jpg></div><div class='cl'><div class='vertical-center'>$9<br>for<br>sure</div></div><div class='cr'><div class='vertical-center'>$32<br>with a<br>50% chance</div></div><div class='respDivL'><div class='vertical-center'>(E)</div></div><div class='respDivR'><div class='vertical-center'>(I)</div></div></div>","I","$9","$32","0","9","32","RISKY"
"html-keyboard-response","129","129822","0.0-5.0-3.41","640415971520c41606ca4389","bdp_rd","Sat Mar 25 2023 22:51:23 GMT-0400 (Eastern Daylight Time)","168100","","null","","","","offerFB","","<div class='trialBorder'><div class='vertical-center'><img style='vertical-align:center; align:center' src=img/fixation3.jpg></div><div class='cl'><div class='vertical-center'>$9<br>for<br>sure</div></div><div class='cr'><div class='vertical-center'><font style='color:orange'>$32<br>with a<br>50% chance</font></div></div><div class='respDivL'><div class='vertical-center'>(E)</div></div><div class='respDivR'><div class='vertical-center'><font style='color:orange'>(I)</font></div></div></div>","null","$9","$32","0","9","32",""
"html-keyboard-response","130","130324","0.0-5.0-1.42","640415971520c41606ca4389","bdp_rd","Sat Mar 25 2023 22:51:23 GMT-0400 (Eastern Daylight Time)","168100","","null","","","","FIX","","<div class='trialBorder'><div class='vertical-center'><img style='vertical-align:center; align:center' src=img/fixation3.jpg></div></div>","null","","","","","",""
"html-keyboard-response","131","131412","0.0-5.0-2.42","640415971520c41606ca4389","bdp_rd","Sat Mar 25 2023 22:51:23 GMT-0400 (Eastern Daylight Time)","168100","","1087","","","","offer","","<div class='trialBorder'><div class='vertical-center'><img style='vertical-align:center; align:center' src=img/fixation3.jpg></div><div class='cl'><div class='vertical-center'>$11<br>for<br>sure</div></div><div class='cr'><div class='vertical-center'>$62<br>with a<br>50% chance</div></div><div class='respDivL'><div class='vertical-center'>(E)</div></div><div class='respDivR'><div class='vertical-center'>(I)</div></div></div>","I","$11","$62","0","11","62","RISKY"
"html-keyboard-response","132","131663","0.0-5.0-3.42","640415971520c41606ca4389","bdp_rd","Sat Mar 25 2023 22:51:23 GMT-0400 (Eastern Daylight Time)","168100","","null","","","","offerFB","","<div class='trialBorder'><div class='vertical-center'><img style='vertical-align:center; align:center' src=img/fixation3.jpg></div><div class='cl'><div class='vertical-center'>$11<br>for<br>sure</div></div><div class='cr'><div class='vertical-center'><font style='color:orange'>$62<br>with a<br>50% chance</font></div></div><div class='respDivL'><div class='vertical-center'>(E)</div></div><div class='respDivR'><div class='vertical-center'><font style='color:orange'>(I)</font></div></div></div>","null","$11","$62","0","11","62",""
"html-keyboard-response","133","132164","0.0-5.0-1.43","640415971520c41606ca4389","bdp_rd","Sat Mar 25 2023 22:51:23 GMT-0400 (Eastern Daylight Time)","168100","","null","","","","FIX","","<div class='trialBorder'><div class='vertical-center'><img style='vertical-align:center; align:center' src=img/fixation3.jpg></div></div>","null","","","","","",""
"html-keyboard-response","134","133330","0.0-5.0-2.43","640415971520c41606ca4389","bdp_rd","Sat Mar 25 2023 22:51:23 GMT-0400 (Eastern Daylight Time)","168100","","1165","","","","offer","","<div class='trialBorder'><div class='vertical-center'><img style='vertical-align:center; align:center' src=img/fixation3.jpg></div><div class='cl'><div class='vertical-center'>$18<br>for<br>sure</div></div><div class='cr'><div class='vertical-center'>$39<br>with a<br>50% chance</div></div><div class='respDivL'><div class='vertical-center'>(E)</div></div><div class='respDivR'><div class='vertical-center'>(I)</div></div></div>","I","$18","$39","0","18","39","RISKY"
"html-keyboard-response","135","133581","0.0-5.0-3.43","640415971520c41606ca4389","bdp_rd","Sat Mar 25 2023 22:51:23 GMT-0400 (Eastern Daylight Time)","168100","","null","","","","offerFB","","<div class='trialBorder'><div class='vertical-center'><img style='vertical-align:center; align:center' src=img/fixation3.jpg></div><div class='cl'><div class='vertical-center'>$18<br>for<br>sure</div></div><div class='cr'><div class='vertical-center'><font style='color:orange'>$39<br>with a<br>50% chance</font></div></div><div class='respDivL'><div class='vertical-center'>(E)</div></div><div class='respDivR'><div class='vertical-center'><font style='color:orange'>(I)</font></div></div></div>","null","$18","$39","0","18","39",""
"html-keyboard-response","136","134082","0.0-5.0-1.44","640415971520c41606ca4389","bdp_rd","Sat Mar 25 2023 22:51:23 GMT-0400 (Eastern Daylight Time)","168100","","null","","","","FIX","","<div class='trialBorder'><div class='vertical-center'><img style='vertical-align:center; align:center' src=img/fixation3.jpg></div></div>","null","","","","","",""
"html-keyboard-response","137","135432","0.0-5.0-2.44","640415971520c41606ca4389","bdp_rd","Sat Mar 25 2023 22:51:23 GMT-0400 (Eastern Daylight Time)","168100","","1349","","","","offer","","<div class='trialBorder'><div class='vertical-center'><img style='vertical-align:center; align:center' src=img/fixation3.jpg></div><div class='cl'><div class='vertical-center'>$34<br>for<br>sure</div></div><div class='cr'><div class='vertical-center'>$48<br>with a<br>50% chance</div></div><div class='respDivL'><div class='vertical-center'>(E)</div></div><div class='respDivR'><div class='vertical-center'>(I)</div></div></div>","E","$34","$48","0","34","48","SURE"
"html-keyboard-response","138","135684","0.0-5.0-3.44","640415971520c41606ca4389","bdp_rd","Sat Mar 25 2023 22:51:23 GMT-0400 (Eastern Daylight Time)","168100","","null","","","","offerFB","","<div class='trialBorder'><div class='vertical-center'><img style='vertical-align:center; align:center' src=img/fixation3.jpg></div><div class='cl'><div class='vertical-center'><font style='color:orange'>$34<br>for<br>sure</font></div></div><div class='cr'><div class='vertical-center'>$48<br>with a<br>50% chance</div></div><div class='respDivL'><div class='vertical-center'><font style='color:orange'>(E)</font></div></div><div class='respDivR'><div class='vertical-center'>(I)</div></div></div>","null","$34","$48","0","34","48",""
"html-keyboard-response","139","136185","0.0-5.0-1.45","640415971520c41606ca4389","bdp_rd","Sat Mar 25 2023 22:51:23 GMT-0400 (Eastern Daylight Time)","168100","","null","","","","FIX","","<div class='trialBorder'><div class='vertical-center'><img style='vertical-align:center; align:center' src=img/fixation3.jpg></div></div>","null","","","","","",""
"html-keyboard-response","140","137329","0.0-5.0-2.45","640415971520c41606ca4389","bdp_rd","Sat Mar 25 2023 22:51:23 GMT-0400 (Eastern Daylight Time)","168100","","1144","","","","offer","","<div class='trialBorder'><div class='vertical-center'><img style='vertical-align:center; align:center' src=img/fixation3.jpg></div><div class='cl'><div class='vertical-center'>$39<br>for<br>sure</div></div><div class='cr'><div class='vertical-center'>$81<br>with a<br>50% chance</div></div><div class='respDivL'><div class='vertical-center'>(E)</div></div><div class='respDivR'><div class='vertical-center'>(I)</div></div></div>","I","$39","$81","0","39","81","RISKY"
"html-keyboard-response","141","137581","0.0-5.0-3.45","640415971520c41606ca4389","bdp_rd","Sat Mar 25 2023 22:51:23 GMT-0400 (Eastern Daylight Time)","168100","","null","","","","offerFB","","<div class='trialBorder'><div class='vertical-center'><img style='vertical-align:center; align:center' src=img/fixation3.jpg></div><div class='cl'><div class='vertical-center'>$39<br>for<br>sure</div></div><div class='cr'><div class='vertical-center'><font style='color:orange'>$81<br>with a<br>50% chance</font></div></div><div class='respDivL'><div class='vertical-center'>(E)</div></div><div class='respDivR'><div class='vertical-center'><font style='color:orange'>(I)</font></div></div></div>","null","$39","$81","0","39","81",""
"html-keyboard-response","142","138083","0.0-5.0-1.46","640415971520c41606ca4389","bdp_rd","Sat Mar 25 2023 22:51:23 GMT-0400 (Eastern Daylight Time)","168100","","null","","","","FIX","","<div class='trialBorder'><div class='vertical-center'><img style='vertical-align:center; align:center' src=img/fixation3.jpg></div></div>","null","","","","","",""
"html-keyboard-response","143","139202","0.0-5.0-2.46","640415971520c41606ca4389","bdp_rd","Sat Mar 25 2023 22:51:23 GMT-0400 (Eastern Daylight Time)","168100","","1119","","","","offer","","<div class='trialBorder'><div class='vertical-center'><img style='vertical-align:center; align:center' src=img/fixation3.jpg></div><div class='cl'><div class='vertical-center'>$15<br>for<br>sure</div></div><div class='cr'><div class='vertical-center'>$34<br>with a<br>50% chance</div></div><div class='respDivL'><div class='vertical-center'>(E)</div></div><div class='respDivR'><div class='vertical-center'>(I)</div></div></div>","I","$15","$34","0","15","34","RISKY"
"html-keyboard-response","144","139454","0.0-5.0-3.46","640415971520c41606ca4389","bdp_rd","Sat Mar 25 2023 22:51:23 GMT-0400 (Eastern Daylight Time)","168100","","null","","","","offerFB","","<div class='trialBorder'><div class='vertical-center'><img style='vertical-align:center; align:center' src=img/fixation3.jpg></div><div class='cl'><div class='vertical-center'>$15<br>for<br>sure</div></div><div class='cr'><div class='vertical-center'><font style='color:orange'>$34<br>with a<br>50% chance</font></div></div><div class='respDivL'><div class='vertical-center'>(E)</div></div><div class='respDivR'><div class='vertical-center'><font style='color:orange'>(I)</font></div></div></div>","null","$15","$34","0","15","34",""
"html-keyboard-response","145","139956","0.0-5.0-1.47","640415971520c41606ca4389","bdp_rd","Sat Mar 25 2023 22:51:23 GMT-0400 (Eastern Daylight Time)","168100","","null","","","","FIX","","<div class='trialBorder'><div class='vertical-center'><img style='vertical-align:center; align:center' src=img/fixation3.jpg></div></div>","null","","","","","",""
"html-keyboard-response","146","141127","0.0-5.0-2.47","640415971520c41606ca4389","bdp_rd","Sat Mar 25 2023 22:51:23 GMT-0400 (Eastern Daylight Time)","168100","","1171","","","","offer","","<div class='trialBorder'><div class='vertical-center'><img style='vertical-align:center; align:center' src=img/fixation3.jpg></div><div class='cl'><div class='vertical-center'>$86<br>with a<br>50% chance</div></div><div class='cr'><div class='vertical-center'>$45<br>for<br>sure</div></div><div class='respDivL'><div class='vertical-center'>(E)</div></div><div class='respDivR'><div class='vertical-center'>(I)</div></div></div>","E","$45","$86","1","45","86","RISKY"
"html-keyboard-response","147","141379","0.0-5.0-3.47","640415971520c41606ca4389","bdp_rd","Sat Mar 25 2023 22:51:23 GMT-0400 (Eastern Daylight Time)","168100","","null","","","","offerFB","","<div class='trialBorder'><div class='vertical-center'><img style='vertical-align:center; align:center' src=img/fixation3.jpg></div><div class='cl'><div class='vertical-center'><font style='color:orange'>$86<br>with a<br>50% chance</font></div></div><div class='cr'><div class='vertical-center'>$45<br>for<br>sure</div></div><div class='respDivL'><div class='vertical-center'><font style='color:orange'>(E)</font></div></div><div class='respDivR'><div class='vertical-center'>(I)</div></div></div>","null","$45","$86","1","45","86",""
"html-keyboard-response","148","141881","0.0-5.0-1.48","640415971520c41606ca4389","bdp_rd","Sat Mar 25 2023 22:51:23 GMT-0400 (Eastern Daylight Time)","168100","","null","","","","FIX","","<div class='trialBorder'><div class='vertical-center'><img style='vertical-align:center; align:center' src=img/fixation3.jpg></div></div>","null","","","","","",""
"html-keyboard-response","149","143252","0.0-5.0-2.48","640415971520c41606ca4389","bdp_rd","Sat Mar 25 2023 22:51:23 GMT-0400 (Eastern Daylight Time)","168100","","1369","","","","offer","","<div class='trialBorder'><div class='vertical-center'><img style='vertical-align:center; align:center' src=img/fixation3.jpg></div><div class='cl'><div class='vertical-center'>$46<br>for<br>sure</div></div><div class='cr'><div class='vertical-center'>$65<br>with a<br>50% chance</div></div><div class='respDivL'><div class='vertical-center'>(E)</div></div><div class='respDivR'><div class='vertical-center'>(I)</div></div></div>","E","$46","$65","0","46","65","SURE"
"html-keyboard-response","150","143504","0.0-5.0-3.48","640415971520c41606ca4389","bdp_rd","Sat Mar 25 2023 22:51:23 GMT-0400 (Eastern Daylight Time)","168100","","null","","","","offerFB","","<div class='trialBorder'><div class='vertical-center'><img style='vertical-align:center; align:center' src=img/fixation3.jpg></div><div class='cl'><div class='vertical-center'><font style='color:orange'>$46<br>for<br>sure</font></div></div><div class='cr'><div class='vertical-center'>$65<br>with a<br>50% chance</div></div><div class='respDivL'><div class='vertical-center'><font style='color:orange'>(E)</font></div></div><div class='respDivR'><div class='vertical-center'>(I)</div></div></div>","null","$46","$65","0","46","65",""
"html-keyboard-response","151","144006","0.0-5.0-1.49","640415971520c41606ca4389","bdp_rd","Sat Mar 25 2023 22:51:23 GMT-0400 (Eastern Daylight Time)","168100","","null","","","","FIX","","<div class='trialBorder'><div class='vertical-center'><img style='vertical-align:center; align:center' src=img/fixation3.jpg></div></div>","null","","","","","",""
"html-keyboard-response","152","145570","0.0-5.0-2.49","640415971520c41606ca4389","bdp_rd","Sat Mar 25 2023 22:51:23 GMT-0400 (Eastern Daylight Time)","168100","","1563","","","","offer","","<div class='trialBorder'><div class='vertical-center'><img style='vertical-align:center; align:center' src=img/fixation3.jpg></div><div class='cl'><div class='vertical-center'>$100<br>with a<br>50% chance</div></div><div class='cr'><div class='vertical-center'>$63<br>for<br>sure</div></div><div class='respDivL'><div class='vertical-center'>(E)</div></div><div class='respDivR'><div class='vertical-center'>(I)</div></div></div>","I","$63","$100","1","63","10","SURE"
"html-keyboard-response","153","145822","0.0-5.0-3.49","640415971520c41606ca4389","bdp_rd","Sat Mar 25 2023 22:51:23 GMT-0400 (Eastern Daylight Time)","168100","","null","","","","offerFB","","<div class='trialBorder'><div class='vertical-center'><img style='vertical-align:center; align:center' src=img/fixation3.jpg></div><div class='cl'><div class='vertical-center'>$100<br>with a<br>50% chance</div></div><div class='cr'><div class='vertical-center'><font style='color:orange'>$63<br>for<br>sure</font></div></div><div class='respDivL'><div class='vertical-center'>(E)</div></div><div class='respDivR'><div class='vertical-center'><font style='color:orange'>(I)</font></div></div></div>","null","$63","$100","1","63","10",""
"html-keyboard-response","154","146324","0.0-5.0-1.50","640415971520c41606ca4389","bdp_rd","Sat Mar 25 2023 22:51:23 GMT-0400 (Eastern Daylight Time)","168100","","null","","","","FIX","","<div class='trialBorder'><div class='vertical-center'><img style='vertical-align:center; align:center' src=img/fixation3.jpg></div></div>","null","","","","","",""
"html-keyboard-response","155","148285","0.0-5.0-2.50","640415971520c41606ca4389","bdp_rd","Sat Mar 25 2023 22:51:23 GMT-0400 (Eastern Daylight Time)","168100","","1961","","","","offer","","<div class='trialBorder'><div class='vertical-center'><img style='vertical-align:center; align:center' src=img/fixation3.jpg></div><div class='cl'><div class='vertical-center'>$14<br>for<br>sure</div></div><div class='cr'><div class='vertical-center'>$29<br>with a<br>50% chance</div></div><div class='respDivL'><div class='vertical-center'>(E)</div></div><div class='respDivR'><div class='vertical-center'>(I)</div></div></div>","E","$14","$29","0","14","29","SURE"
"html-keyboard-response","156","148536","0.0-5.0-3.50","640415971520c41606ca4389","bdp_rd","Sat Mar 25 2023 22:51:23 GMT-0400 (Eastern Daylight Time)","168100","","null","","","","offerFB","","<div class='trialBorder'><div class='vertical-center'><img style='vertical-align:center; align:center' src=img/fixation3.jpg></div><div class='cl'><div class='vertical-center'><font style='color:orange'>$14<br>for<br>sure</font></div></div><div class='cr'><div class='vertical-center'>$29<br>with a<br>50% chance</div></div><div class='respDivL'><div class='vertical-center'><font style='color:orange'>(E)</font></div></div><div class='respDivR'><div class='vertical-center'>(I)</div></div></div>","null","$14","$29","0","14","29",""
"html-keyboard-response","157","149037","0.0-5.0-1.51","640415971520c41606ca4389","bdp_rd","Sat Mar 25 2023 22:51:23 GMT-0400 (Eastern Daylight Time)","168100","","null","","","","FIX","","<div class='trialBorder'><div class='vertical-center'><img style='vertical-align:center; align:center' src=img/fixation3.jpg></div></div>","null","","","","","",""
"html-keyboard-response","158","150415","0.0-5.0-2.51","640415971520c41606ca4389","bdp_rd","Sat Mar 25 2023 22:51:23 GMT-0400 (Eastern Daylight Time)","168100","","1376","","","","offer","","<div class='trialBorder'><div class='vertical-center'><img style='vertical-align:center; align:center' src=img/fixation3.jpg></div><div class='cl'><div class='vertical-center'>$70<br>with a<br>50% chance</div></div><div class='cr'><div class='vertical-center'>$24<br>for<br>sure</div></div><div class='respDivL'><div class='vertical-center'>(E)</div></div><div class='respDivR'><div class='vertical-center'>(I)</div></div></div>","E","$24","$70","1","24","70","RISKY"
"html-keyboard-response","159","150666","0.0-5.0-3.51","640415971520c41606ca4389","bdp_rd","Sat Mar 25 2023 22:51:23 GMT-0400 (Eastern Daylight Time)","168100","","null","","","","offerFB","","<div class='trialBorder'><div class='vertical-center'><img style='vertical-align:center; align:center' src=img/fixation3.jpg></div><div class='cl'><div class='vertical-center'><font style='color:orange'>$70<br>with a<br>50% chance</font></div></div><div class='cr'><div class='vertical-center'>$24<br>for<br>sure</div></div><div class='respDivL'><div class='vertical-center'><font style='color:orange'>(E)</font></div></div><div class='respDivR'><div class='vertical-center'>(I)</div></div></div>","null","$24","$70","1","24","70",""
"html-keyboard-response","160","151167","0.0-5.0-1.52","640415971520c41606ca4389","bdp_rd","Sat Mar 25 2023 22:51:23 GMT-0400 (Eastern Daylight Time)","168100","","null","","","","FIX","","<div class='trialBorder'><div class='vertical-center'><img style='vertical-align:center; align:center' src=img/fixation3.jpg></div></div>","null","","","","","",""
"html-keyboard-response","161","152496","0.0-5.0-2.52","640415971520c41606ca4389","bdp_rd","Sat Mar 25 2023 22:51:23 GMT-0400 (Eastern Daylight Time)","168100","","1328","","","","offer","","<div class='trialBorder'><div class='vertical-center'><img style='vertical-align:center; align:center' src=img/fixation3.jpg></div><div class='cl'><div class='vertical-center'>$16<br>with a<br>50% chance</div></div><div class='cr'><div class='vertical-center'>$5<br>for<br>sure</div></div><div class='respDivL'><div class='vertical-center'>(E)</div></div><div class='respDivR'><div class='vertical-center'>(I)</div></div></div>","E","$5","$16","1","5","16","RISKY"
"html-keyboard-response","162","152747","0.0-5.0-3.52","640415971520c41606ca4389","bdp_rd","Sat Mar 25 2023 22:51:23 GMT-0400 (Eastern Daylight Time)","168100","","null","","","","offerFB","","<div class='trialBorder'><div class='vertical-center'><img style='vertical-align:center; align:center' src=img/fixation3.jpg></div><div class='cl'><div class='vertical-center'><font style='color:orange'>$16<br>with a<br>50% chance</font></div></div><div class='cr'><div class='vertical-center'>$5<br>for<br>sure</div></div><div class='respDivL'><div class='vertical-center'><font style='color:orange'>(E)</font></div></div><div class='respDivR'><div class='vertical-center'>(I)</div></div></div>","null","$5","$16","1","5","16",""
"html-keyboard-response","163","153249","0.0-5.0-1.53","640415971520c41606ca4389","bdp_rd","Sat Mar 25 2023 22:51:23 GMT-0400 (Eastern Daylight Time)","168100","","null","","","","FIX","","<div class='trialBorder'><div class='vertical-center'><img style='vertical-align:center; align:center' src=img/fixation3.jpg></div></div>","null","","","","","",""
"html-keyboard-response","164","154864","0.0-5.0-2.53","640415971520c41606ca4389","bdp_rd","Sat Mar 25 2023 22:51:23 GMT-0400 (Eastern Daylight Time)","168100","","1614","","","","offer","","<div class='trialBorder'><div class='vertical-center'><img style='vertical-align:center; align:center' src=img/fixation3.jpg></div><div class='cl'><div class='vertical-center'>$29<br>for<br>sure</div></div><div class='cr'><div class='vertical-center'>$46<br>with a<br>50% chance</div></div><div class='respDivL'><div class='vertical-center'>(E)</div></div><div class='respDivR'><div class='vertical-center'>(I)</div></div></div>","I","$29","$46","0","29","46","RISKY"
"html-keyboard-response","165","155116","0.0-5.0-3.53","640415971520c41606ca4389","bdp_rd","Sat Mar 25 2023 22:51:23 GMT-0400 (Eastern Daylight Time)","168100","","null","","","","offerFB","","<div class='trialBorder'><div class='vertical-center'><img style='vertical-align:center; align:center' src=img/fixation3.jpg></div><div class='cl'><div class='vertical-center'>$29<br>for<br>sure</div></div><div class='cr'><div class='vertical-center'><font style='color:orange'>$46<br>with a<br>50% chance</font></div></div><div class='respDivL'><div class='vertical-center'>(E)</div></div><div class='respDivR'><div class='vertical-center'><font style='color:orange'>(I)</font></div></div></div>","null","$29","$46","0","29","46",""
"html-keyboard-response","166","155616","0.0-5.0-1.54","640415971520c41606ca4389","bdp_rd","Sat Mar 25 2023 22:51:23 GMT-0400 (Eastern Daylight Time)","168100","","null","","","","FIX","","<div class='trialBorder'><div class='vertical-center'><img style='vertical-align:center; align:center' src=img/fixation3.jpg></div></div>","null","","","","","",""
"html-keyboard-response","167","157396","0.0-5.0-2.54","640415971520c41606ca4389","bdp_rd","Sat Mar 25 2023 22:51:23 GMT-0400 (Eastern Daylight Time)","168100","","1778","","","","offer","","<div class='trialBorder'><div class='vertical-center'><img style='vertical-align:center; align:center' src=img/fixation3.jpg></div><div class='cl'><div class='vertical-center'>$27<br>with a<br>50% chance</div></div><div class='cr'><div class='vertical-center'>$12<br>for<br>sure</div></div><div class='respDivL'><div class='vertical-center'>(E)</div></div><div class='respDivR'><div class='vertical-center'>(I)</div></div></div>","I","$12","$27","1","12","27","SURE"
"html-keyboard-response","168","157647","0.0-5.0-3.54","640415971520c41606ca4389","bdp_rd","Sat Mar 25 2023 22:51:23 GMT-0400 (Eastern Daylight Time)","168100","","null","","","","offerFB","","<div class='trialBorder'><div class='vertical-center'><img style='vertical-align:center; align:center' src=img/fixation3.jpg></div><div class='cl'><div class='vertical-center'>$27<br>with a<br>50% chance</div></div><div class='cr'><div class='vertical-center'><font style='color:orange'>$12<br>for<br>sure</font></div></div><div class='respDivL'><div class='vertical-center'>(E)</div></div><div class='respDivR'><div class='vertical-center'><font style='color:orange'>(I)</font></div></div></div>","null","$12","$27","1","12","27",""
"html-keyboard-response","169","158147","0.0-5.0-1.55","640415971520c41606ca4389","bdp_rd","Sat Mar 25 2023 22:51:23 GMT-0400 (Eastern Daylight Time)","168100","","null","","","","FIX","","<div class='trialBorder'><div class='vertical-center'><img style='vertical-align:center; align:center' src=img/fixation3.jpg></div></div>","null","","","","","",""
"html-keyboard-response","170","159249","0.0-5.0-2.55","640415971520c41606ca4389","bdp_rd","Sat Mar 25 2023 22:51:23 GMT-0400 (Eastern Daylight Time)","168100","","1101","","","","offer","","<div class='trialBorder'><div class='vertical-center'><img style='vertical-align:center; align:center' src=img/fixation3.jpg></div><div class='cl'><div class='vertical-center'>$20<br>for<br>sure</div></div><div class='cr'><div class='vertical-center'>$37<br>with a<br>50% chance</div></div><div class='respDivL'><div class='vertical-center'>(E)</div></div><div class='respDivR'><div class='vertical-center'>(I)</div></div></div>","E","$20","$37","0","20","37","SURE"
"html-keyboard-response","171","159500","0.0-5.0-3.55","640415971520c41606ca4389","bdp_rd","Sat Mar 25 2023 22:51:23 GMT-0400 (Eastern Daylight Time)","168100","","null","","","","offerFB","","<div class='trialBorder'><div class='vertical-center'><img style='vertical-align:center; align:center' src=img/fixation3.jpg></div><div class='cl'><div class='vertical-center'><font style='color:orange'>$20<br>for<br>sure</font></div></div><div class='cr'><div class='vertical-center'>$37<br>with a<br>50% chance</div></div><div class='respDivL'><div class='vertical-center'><font style='color:orange'>(E)</font></div></div><div class='respDivR'><div class='vertical-center'>(I)</div></div></div>","null","$20","$37","0","20","37",""
"html-keyboard-response","172","160002","0.0-5.0-1.56","640415971520c41606ca4389","bdp_rd","Sat Mar 25 2023 22:51:23 GMT-0400 (Eastern Daylight Time)","168100","","null","","","","FIX","","<div class='trialBorder'><div class='vertical-center'><img style='vertical-align:center; align:center' src=img/fixation3.jpg></div></div>","null","","","","","",""
"html-keyboard-response","173","161171","0.0-5.0-2.56","640415971520c41606ca4389","bdp_rd","Sat Mar 25 2023 22:51:23 GMT-0400 (Eastern Daylight Time)","168100","","1169","","","","offer","","<div class='trialBorder'><div class='vertical-center'><img style='vertical-align:center; align:center' src=img/fixation3.jpg></div><div class='cl'><div class='vertical-center'>$13<br>for<br>sure</div></div><div class='cr'><div class='vertical-center'>$24<br>with a<br>50% chance</div></div><div class='respDivL'><div class='vertical-center'>(E)</div></div><div class='respDivR'><div class='vertical-center'>(I)</div></div></div>","E","$13","$24","0","13","24","SURE"
