"trial_type","trial_index","time_elapsed","internal_node_id","subject_id","task","startTime","totalTime","labels","view_history","rt","event","trial","time","trialtype","success","stimulus","key_press","arraySize","arrayFaces","arrayOutcomes","matchType","corrResp","trial_duration","targFace","targCol","targOutcome","corr"
"pavlovia","0","4","0.0-0.0","cdtest","bdp_wmem","Thu Feb 04 2021 11:33:57 GMT-0500 (Eastern Standard Time)","615996","Match,No Match","","","","","","","","","","","","","","","","","","",""
"instructions","1","4259","0.0-1.0","cdtest","bdp_wmem","Thu Feb 04 2021 11:33:57 GMT-0500 (Eastern Standard Time)","615996","Match,No Match","[{""page_index"":0,""viewing_time"":4254}]","4255","","","","","","","","","","","","","","","","",""
"","","","","cdtest","bdp_wmem","Thu Feb 04 2021 11:33:57 GMT-0500 (Eastern Standard Time)","615996","Match,No Match","","","fullscreenenter","2","6712","fullscreenenter","","","","","","","","","","","","",""
"fullscreen","2","7702","0.0-2.0","cdtest","bdp_wmem","Thu Feb 04 2021 11:33:57 GMT-0500 (Eastern Standard Time)","615996","Match,No Match","","","","","","","true","","","","","","","","","","","",""
"instructions","3","120292","0.0-4.0","cdtest","bdp_wmem","Thu Feb 04 2021 11:33:57 GMT-0500 (Eastern Standard Time)","615996","Match,No Match","[{""page_index"":0,""viewing_time"":55241},{""page_index"":1,""viewing_time"":26561},{""page_index"":2,""viewing_time"":16232},{""page_index"":3,""viewing_time"":4140},{""page_index"":4,""viewing_time"":10415}]","112589","","","","","","","","","","","","","","","","",""
"html-keyboard-response","4","120794","0.0-5.0-1.0","cdtest","bdp_wmem","Thu Feb 04 2021 11:33:57 GMT-0500 (Eastern Standard Time)","615996","Match,No Match","","null","","","","FIX","","<div class='trialBorder'><div class='vertical-center'><img src='img/fixation2_sml.jpg'</img></div></div>","null","","","","","","","","","",""
"html-keyboard-response","5","122296","0.0-5.0-2.0","cdtest","bdp_wmem","Thu Feb 04 2021 11:33:57 GMT-0500 (Eastern Standard Time)","615996","Match,No Match","","null","","","","ARRAY","","<div class='trialBorder'><div class='vertical-center'><img style='vertical-align:center; align:center' src='img/fixation2_sml.jpg'></div><div class='arrayDiv1'><div class='tc'><img class='introPic' src='trustrating_stim/white_mw013.bmp'><br><font color='green'><strong>Share</strong></font></div></div></div>","null","1","trustrating_stim/white_mw013.bmp","1","Match","e","1500","","","",""
"html-keyboard-response","6","126299","0.0-5.0-3.0","cdtest","bdp_wmem","Thu Feb 04 2021 11:33:57 GMT-0500 (Eastern Standard Time)","615996","Match,No Match","","null","","","","DELAY","","<div class='trialBorder'><div class='vertical-center'><img src='img/fixation2_sml.jpg'</img></div></div>","null","","","","","","","","","",""
"html-keyboard-response","7","127593","0.0-5.0-4.0","cdtest","bdp_wmem","Thu Feb 04 2021 11:33:57 GMT-0500 (Eastern Standard Time)","615996","Match,No Match","","1294","","","","TARGET","","<div class='trialBorder'><div class='targDiv'><div class='tc'><img class='introPic' src='trustrating_stim/white_mw013.bmp'><br><font color='green'><strong>Share</strong></font></div></div><div class='respDiv'><div class='respDivL'>Match<br>(e)</div><div class='respDivR'>No Match<br>(i)</div></div></div>","e","1","trustrating_stim/white_mw013.bmp","1","Match","e","","trustrating_stim/white_mw033.bmp","red","Keep","1"
"html-keyboard-response","8","128096","0.0-5.0-5.0","cdtest","bdp_wmem","Thu Feb 04 2021 11:33:57 GMT-0500 (Eastern Standard Time)","615996","Match,No Match","","null","","","","FEEDBACK","","<div class='trialBorder'><div class='vertical-center'><img src='img/correct.jpg'></div><div class='respDiv'><div class='respDivL'><font style='color:orange'>Match<br>(e)</font></div><div class='respDivR'>No Match<br>(i)</div></div></div>","null","","","","","","","","","",""
"html-keyboard-response","9","128598","0.0-5.0-1.1","cdtest","bdp_wmem","Thu Feb 04 2021 11:33:57 GMT-0500 (Eastern Standard Time)","615996","Match,No Match","","null","","","","FIX","","<div class='trialBorder'><div class='vertical-center'><img src='img/fixation2_sml.jpg'</img></div></div>","null","","","","","","","","","",""
"html-keyboard-response","10","130099","0.0-5.0-2.1","cdtest","bdp_wmem","Thu Feb 04 2021 11:33:57 GMT-0500 (Eastern Standard Time)","615996","Match,No Match","","null","","","","ARRAY","","<div class='trialBorder'><div class='vertical-center'><img style='vertical-align:center; align:center' src='img/fixation2_sml.jpg'></div><div class='arrayDiv1'><div class='tc'><img class='introPic' src='trustrating_stim/white_mw091.bmp'><br><font color='green'><strong>Share</strong></font></div></div></div>","null","1","trustrating_stim/white_mw091.bmp","1","noMatchFace","i","1500","","","",""
"html-keyboard-response","11","134100","0.0-5.0-3.1","cdtest","bdp_wmem","Thu Feb 04 2021 11:33:57 GMT-0500 (Eastern Standard Time)","615996","Match,No Match","","null","","","","DELAY","","<div class='trialBorder'><div class='vertical-center'><img src='img/fixation2_sml.jpg'</img></div></div>","null","","","","","","","","","",""
"html-keyboard-response","12","135328","0.0-5.0-4.1","cdtest","bdp_wmem","Thu Feb 04 2021 11:33:57 GMT-0500 (Eastern Standard Time)","615996","Match,No Match","","1228","","","","TARGET","","<div class='trialBorder'><div class='targDiv'><div class='tc'><img class='introPic' src='trustrating_stim/white_mw012.bmp'><br><font color='green'><strong>Share</strong></font></div></div><div class='respDiv'><div class='respDivL'>Match<br>(e)</div><div class='respDivR'>No Match<br>(i)</div></div></div>","i","1","trustrating_stim/white_mw091.bmp","1","noMatchFace","i","","trustrating_stim/white_mw033.bmp","red","Keep","1"
"html-keyboard-response","13","135831","0.0-5.0-5.1","cdtest","bdp_wmem","Thu Feb 04 2021 11:33:57 GMT-0500 (Eastern Standard Time)","615996","Match,No Match","","null","","","","FEEDBACK","","<div class='trialBorder'><div class='vertical-center'><img src='img/correct.jpg'></div><div class='respDiv'><div class='respDivL'>Match<br>(e)</div><div class='respDivR'><font style='color:orange'>No Match<br>(i)</font></div></div></div>","null","","","","","","","","","",""
"html-keyboard-response","14","136332","0.0-5.0-1.2","cdtest","bdp_wmem","Thu Feb 04 2021 11:33:57 GMT-0500 (Eastern Standard Time)","615996","Match,No Match","","null","","","","FIX","","<div class='trialBorder'><div class='vertical-center'><img src='img/fixation2_sml.jpg'</img></div></div>","null","","","","","","","","","",""
"html-keyboard-response","15","139334","0.0-5.0-2.2","cdtest","bdp_wmem","Thu Feb 04 2021 11:33:57 GMT-0500 (Eastern Standard Time)","615996","Match,No Match","","null","","","","ARRAY","","<div class='trialBorder'><div class='vertical-center'><img style='vertical-align:center; align:center' src='img/fixation2_sml.jpg'></div><div class='arrayDiv3'><div class='tl'><img class='introPic' src='trustrating_stim/white_mw015.bmp'><br><font color='green'><strong>Share</strong></font></div><div class='tc'><img class='introPic' src='trustrating_stim/white_mw013.bmp'><br><font color='red'><strong>Keep</strong></font></div><div class='tr'><img class='introPic' src='trustrating_stim/white_00050_931230_fa_edt.bmp'><br><font color='red'><strong>Keep</strong></font></div></div></div>","null","3","trustrating_stim/white_mw015.bmp,trustrating_stim/white_mw013.bmp,trustrating_stim/white_00050_931230_fa_edt.bmp","1,0,0","Match","e","3000","","","",""
"html-keyboard-response","16","143336","0.0-5.0-3.2","cdtest","bdp_wmem","Thu Feb 04 2021 11:33:57 GMT-0500 (Eastern Standard Time)","615996","Match,No Match","","null","","","","DELAY","","<div class='trialBorder'><div class='vertical-center'><img src='img/fixation2_sml.jpg'</img></div></div>","null","","","","","","","","","",""
"html-keyboard-response","17","144479","0.0-5.0-4.2","cdtest","bdp_wmem","Thu Feb 04 2021 11:33:57 GMT-0500 (Eastern Standard Time)","615996","Match,No Match","","1143","","","","TARGET","","<div class='trialBorder'><div class='targDiv'><div class='tc'><img class='introPic' src='trustrating_stim/white_00050_931230_fa_edt.bmp'><br><font color='red'><strong>Keep</strong></font></div></div><div class='respDiv'><div class='respDivL'>Match<br>(e)</div><div class='respDivR'>No Match<br>(i)</div></div></div>","i","3","trustrating_stim/white_mw015.bmp,trustrating_stim/white_mw013.bmp,trustrating_stim/white_00050_931230_fa_edt.bmp","1,0,0","Match","e","","trustrating_stim/white_mw033.bmp","red","Keep","0"
"html-keyboard-response","18","144980","0.0-5.0-5.2","cdtest","bdp_wmem","Thu Feb 04 2021 11:33:57 GMT-0500 (Eastern Standard Time)","615996","Match,No Match","","null","","","","FEEDBACK","","<div class='trialBorder'><div class='vertical-center'><img src='img/error.jpg'></div><div class='respDiv'><div class='respDivL'>Match<br>(e)</div><div class='respDivR'><font style='color:orange'>No Match<br>(i)</font></div></div></div>","null","","","","","","","","","",""
"html-keyboard-response","19","145481","0.0-5.0-1.3","cdtest","bdp_wmem","Thu Feb 04 2021 11:33:57 GMT-0500 (Eastern Standard Time)","615996","Match,No Match","","null","","","","FIX","","<div class='trialBorder'><div class='vertical-center'><img src='img/fixation2_sml.jpg'</img></div></div>","null","","","","","","","","","",""
"html-keyboard-response","20","148483","0.0-5.0-2.3","cdtest","bdp_wmem","Thu Feb 04 2021 11:33:57 GMT-0500 (Eastern Standard Time)","615996","Match,No Match","","null","","","","ARRAY","","<div class='trialBorder'><div class='vertical-center'><img style='vertical-align:center; align:center' src='img/fixation2_sml.jpg'></div><div class='arrayDiv3'><div class='tl'><img class='introPic' src='trustrating_stim/white_mw038.bmp'><br><font color='green'><strong>Share</strong></font></div><div class='tc'><img class='introPic' src='trustrating_stim/white_00807_941205_fb_edt.bmp'><br><font color='red'><strong>Keep</strong></font></div><div class='tr'><img class='introPic' src='trustrating_stim/white_mw092.bmp'><br><font color='green'><strong>Share</strong></font></div></div></div>","null","3","trustrating_stim/white_mw038.bmp,trustrating_stim/white_00807_941205_fb_edt.bmp,trustrating_stim/white_mw092.bmp","1,0,1","noMatchOutcome","i","3000","","","",""
"html-keyboard-response","21","152484","0.0-5.0-3.3","cdtest","bdp_wmem","Thu Feb 04 2021 11:33:57 GMT-0500 (Eastern Standard Time)","615996","Match,No Match","","null","","","","DELAY","","<div class='trialBorder'><div class='vertical-center'><img src='img/fixation2_sml.jpg'</img></div></div>","null","","","","","","","","","",""
"html-keyboard-response","22","154144","0.0-5.0-4.3","cdtest","bdp_wmem","Thu Feb 04 2021 11:33:57 GMT-0500 (Eastern Standard Time)","615996","Match,No Match","","1659","","","","TARGET","","<div class='trialBorder'><div class='targDiv'><div class='tc'><img class='introPic' src='trustrating_stim/white_mw038.bmp'><br><font color='red'><strong>Keep</strong></font></div></div><div class='respDiv'><div class='respDivL'>Match<br>(e)</div><div class='respDivR'>No Match<br>(i)</div></div></div>","i","3","trustrating_stim/white_mw038.bmp,trustrating_stim/white_00807_941205_fb_edt.bmp,trustrating_stim/white_mw092.bmp","1,0,1","noMatchOutcome","i","","trustrating_stim/white_mw033.bmp","red","Keep","1"
"html-keyboard-response","23","154645","0.0-5.0-5.3","cdtest","bdp_wmem","Thu Feb 04 2021 11:33:57 GMT-0500 (Eastern Standard Time)","615996","Match,No Match","","null","","","","FEEDBACK","","<div class='trialBorder'><div class='vertical-center'><img src='img/correct.jpg'></div><div class='respDiv'><div class='respDivL'>Match<br>(e)</div><div class='respDivR'><font style='color:orange'>No Match<br>(i)</font></div></div></div>","null","","","","","","","","","",""
"html-keyboard-response","24","155147","0.0-5.0-1.4","cdtest","bdp_wmem","Thu Feb 04 2021 11:33:57 GMT-0500 (Eastern Standard Time)","615996","Match,No Match","","null","","","","FIX","","<div class='trialBorder'><div class='vertical-center'><img src='img/fixation2_sml.jpg'</img></div></div>","null","","","","","","","","","",""
"html-keyboard-response","25","158149","0.0-5.0-2.4","cdtest","bdp_wmem","Thu Feb 04 2021 11:33:57 GMT-0500 (Eastern Standard Time)","615996","Match,No Match","","null","","","","ARRAY","","<div class='trialBorder'><div class='vertical-center'><img style='vertical-align:center; align:center' src='img/fixation2_sml.jpg'></div><div class='arrayDiv2'><div class='tl'><img class='introPic' src='trustrating_stim/white_mw003.bmp'><br><font color='green'><strong>Share</strong></font></div><div class='tr'><img class='introPic' src='trustrating_stim/white_00050_931230_fa_edt.bmp'><br><font color='red'><strong>Keep</strong></font></div></div></div>","null","2","trustrating_stim/white_mw003.bmp,trustrating_stim/white_00050_931230_fa_edt.bmp","1,0","Match","e","3000","","","",""
"html-keyboard-response","26","162151","0.0-5.0-3.4","cdtest","bdp_wmem","Thu Feb 04 2021 11:33:57 GMT-0500 (Eastern Standard Time)","615996","Match,No Match","","null","","","","DELAY","","<div class='trialBorder'><div class='vertical-center'><img src='img/fixation2_sml.jpg'</img></div></div>","null","","","","","","","","","",""
"html-keyboard-response","27","163548","0.0-5.0-4.4","cdtest","bdp_wmem","Thu Feb 04 2021 11:33:57 GMT-0500 (Eastern Standard Time)","615996","Match,No Match","","1397","","","","TARGET","","<div class='trialBorder'><div class='targDiv'><div class='tc'><img class='introPic' src='trustrating_stim/white_00050_931230_fa_edt.bmp'><br><font color='red'><strong>Keep</strong></font></div></div><div class='respDiv'><div class='respDivL'>Match<br>(e)</div><div class='respDivR'>No Match<br>(i)</div></div></div>","i","2","trustrating_stim/white_mw003.bmp,trustrating_stim/white_00050_931230_fa_edt.bmp","1,0","Match","e","","trustrating_stim/white_mw033.bmp","red","Keep","0"
"html-keyboard-response","28","164050","0.0-5.0-5.4","cdtest","bdp_wmem","Thu Feb 04 2021 11:33:57 GMT-0500 (Eastern Standard Time)","615996","Match,No Match","","null","","","","FEEDBACK","","<div class='trialBorder'><div class='vertical-center'><img src='img/error.jpg'></div><div class='respDiv'><div class='respDivL'>Match<br>(e)</div><div class='respDivR'><font style='color:orange'>No Match<br>(i)</font></div></div></div>","null","","","","","","","","","",""
"html-keyboard-response","29","164552","0.0-5.0-1.5","cdtest","bdp_wmem","Thu Feb 04 2021 11:33:57 GMT-0500 (Eastern Standard Time)","615996","Match,No Match","","null","","","","FIX","","<div class='trialBorder'><div class='vertical-center'><img src='img/fixation2_sml.jpg'</img></div></div>","null","","","","","","","","","",""
"html-keyboard-response","30","167553","0.0-5.0-2.5","cdtest","bdp_wmem","Thu Feb 04 2021 11:33:57 GMT-0500 (Eastern Standard Time)","615996","Match,No Match","","null","","","","ARRAY","","<div class='trialBorder'><div class='vertical-center'><img style='vertical-align:center; align:center' src='img/fixation2_sml.jpg'></div><div class='arrayDiv2'><div class='tl'><img class='introPic' src='trustrating_stim/white_mw092.bmp'><br><font color='green'><strong>Share</strong></font></div><div class='tr'><img class='introPic' src='trustrating_stim/white_mw003.bmp'><br><font color='red'><strong>Keep</strong></font></div></div></div>","null","2","trustrating_stim/white_mw092.bmp,trustrating_stim/white_mw003.bmp","1,0","noMatchOutcome","i","3000","","","",""
"html-keyboard-response","31","171555","0.0-5.0-3.5","cdtest","bdp_wmem","Thu Feb 04 2021 11:33:57 GMT-0500 (Eastern Standard Time)","615996","Match,No Match","","null","","","","DELAY","","<div class='trialBorder'><div class='vertical-center'><img src='img/fixation2_sml.jpg'</img></div></div>","null","","","","","","","","","",""
"html-keyboard-response","32","172639","0.0-5.0-4.5","cdtest","bdp_wmem","Thu Feb 04 2021 11:33:57 GMT-0500 (Eastern Standard Time)","615996","Match,No Match","","1084","","","","TARGET","","<div class='trialBorder'><div class='targDiv'><div class='tc'><img class='introPic' src='trustrating_stim/white_mw003.bmp'><br><font color='green'><strong>Share</strong></font></div></div><div class='respDiv'><div class='respDivL'>Match<br>(e)</div><div class='respDivR'>No Match<br>(i)</div></div></div>","e","2","trustrating_stim/white_mw092.bmp,trustrating_stim/white_mw003.bmp","1,0","noMatchOutcome","i","","trustrating_stim/white_mw033.bmp","red","Keep","0"
"html-keyboard-response","33","173140","0.0-5.0-5.5","cdtest","bdp_wmem","Thu Feb 04 2021 11:33:57 GMT-0500 (Eastern Standard Time)","615996","Match,No Match","","null","","","","FEEDBACK","","<div class='trialBorder'><div class='vertical-center'><img src='img/error.jpg'></div><div class='respDiv'><div class='respDivL'><font style='color:orange'>Match<br>(e)</font></div><div class='respDivR'>No Match<br>(i)</div></div></div>","null","","","","","","","","","",""
"instructions","34","181054","0.0-6.0","cdtest","bdp_wmem","Thu Feb 04 2021 11:33:57 GMT-0500 (Eastern Standard Time)","615996","Match,No Match","[{""page_index"":0,""viewing_time"":7914}]","7914","","","","","","","","","","","","","","","","",""
"html-keyboard-response","35","181555","0.0-7.0-1.0","cdtest","bdp_wmem","Thu Feb 04 2021 11:33:57 GMT-0500 (Eastern Standard Time)","615996","Match,No Match","","null","","","","FIX","","<div class='trialBorder'><div class='vertical-center'><img src='img/fixation2_sml.jpg'</img></div></div>","null","","","","","","","","","",""
"html-keyboard-response","36","184557","0.0-7.0-2.0","cdtest","bdp_wmem","Thu Feb 04 2021 11:33:57 GMT-0500 (Eastern Standard Time)","615996","Match,No Match","","null","","","","ARRAY","","<div class='trialBorder'><div class='vertical-center'><img style='vertical-align:center; align:center' src='img/fixation2_sml.jpg'></div><div class='arrayDiv3'><div class='tl'><img class='introPic' src='trustrating_stim/white_00807_941205_fb_edt.bmp'><br><font color='red'><strong>Keep</strong></font></div><div class='tc'><img class='introPic' src='trustrating_stim/white_mw015.bmp'><br><font color='green'><strong>Share</strong></font></div><div class='tr'><img class='introPic' src='trustrating_stim/white_mw038.bmp'><br><font color='red'><strong>Keep</strong></font></div></div></div>","null","3","trustrating_stim/white_00807_941205_fb_edt.bmp,trustrating_stim/white_mw015.bmp,trustrating_stim/white_mw038.bmp","0,1,0","noMatchFace","i","3000","","","",""
"html-keyboard-response","37","188559","0.0-7.0-3.0","cdtest","bdp_wmem","Thu Feb 04 2021 11:33:57 GMT-0500 (Eastern Standard Time)","615996","Match,No Match","","null","","","","DELAY","","<div class='trialBorder'><div class='vertical-center'><img src='img/fixation2_sml.jpg'</img></div></div>","null","","","","","","","","","",""
"html-keyboard-response","38","190967","0.0-7.0-4.0","cdtest","bdp_wmem","Thu Feb 04 2021 11:33:57 GMT-0500 (Eastern Standard Time)","615996","Match,No Match","","2407","","","","TARGET","","<div class='trialBorder'><div class='targDiv'><div class='tc'><img class='introPic' src='trustrating_stim/white_mw003.bmp'><br><font color='red'><strong>Keep</strong></font></div></div><div class='respDiv'><div class='respDivL'>Match<br>(e)</div><div class='respDivR'>No Match<br>(i)</div></div></div>","i","3","trustrating_stim/white_00807_941205_fb_edt.bmp,trustrating_stim/white_mw015.bmp,trustrating_stim/white_mw038.bmp","0,1,0","noMatchFace","i","","trustrating_stim/white_mw033.bmp","red","Keep","1"
"html-keyboard-response","39","191470","0.0-7.0-5.0","cdtest","bdp_wmem","Thu Feb 04 2021 11:33:57 GMT-0500 (Eastern Standard Time)","615996","Match,No Match","","null","","","","FEEDBACK","","<div class='trialBorder'><div class='vertical-center'><img src='img/correct.jpg'></div><div class='respDiv'><div class='respDivL'>Match<br>(e)</div><div class='respDivR'><font style='color:orange'>No Match<br>(i)</font></div></div></div>","null","","","","","","","","","",""
"html-keyboard-response","40","191973","0.0-7.0-1.1","cdtest","bdp_wmem","Thu Feb 04 2021 11:33:57 GMT-0500 (Eastern Standard Time)","615996","Match,No Match","","null","","","","FIX","","<div class='trialBorder'><div class='vertical-center'><img src='img/fixation2_sml.jpg'</img></div></div>","null","","","","","","","","","",""
"html-keyboard-response","41","194975","0.0-7.0-2.1","cdtest","bdp_wmem","Thu Feb 04 2021 11:33:57 GMT-0500 (Eastern Standard Time)","615996","Match,No Match","","null","","","","ARRAY","","<div class='trialBorder'><div class='vertical-center'><img style='vertical-align:center; align:center' src='img/fixation2_sml.jpg'></div><div class='arrayDiv2'><div class='tl'><img class='introPic' src='trustrating_stim/white_mw013.bmp'><br><font color='red'><strong>Keep</strong></font></div><div class='tr'><img class='introPic' src='trustrating_stim/white_mw091.bmp'><br><font color='green'><strong>Share</strong></font></div></div></div>","null","2","trustrating_stim/white_mw013.bmp,trustrating_stim/white_mw091.bmp","0,1","noMatchOutcome","i","3000","","","",""
"html-keyboard-response","42","198976","0.0-7.0-3.1","cdtest","bdp_wmem","Thu Feb 04 2021 11:33:57 GMT-0500 (Eastern Standard Time)","615996","Match,No Match","","null","","","","DELAY","","<div class='trialBorder'><div class='vertical-center'><img src='img/fixation2_sml.jpg'</img></div></div>","null","","","","","","","","","",""
"html-keyboard-response","43","200719","0.0-7.0-4.1","cdtest","bdp_wmem","Thu Feb 04 2021 11:33:57 GMT-0500 (Eastern Standard Time)","615996","Match,No Match","","1742","","","","TARGET","","<div class='trialBorder'><div class='targDiv'><div class='tc'><img class='introPic' src='trustrating_stim/white_mw091.bmp'><br><font color='red'><strong>Keep</strong></font></div></div><div class='respDiv'><div class='respDivL'>Match<br>(e)</div><div class='respDivR'>No Match<br>(i)</div></div></div>","i","2","trustrating_stim/white_mw013.bmp,trustrating_stim/white_mw091.bmp","0,1","noMatchOutcome","i","","trustrating_stim/white_mw033.bmp","red","Keep","1"
"html-keyboard-response","44","201222","0.0-7.0-5.1","cdtest","bdp_wmem","Thu Feb 04 2021 11:33:57 GMT-0500 (Eastern Standard Time)","615996","Match,No Match","","null","","","","FEEDBACK","","<div class='trialBorder'><div class='vertical-center'><img src='img/correct.jpg'></div><div class='respDiv'><div class='respDivL'>Match<br>(e)</div><div class='respDivR'><font style='color:orange'>No Match<br>(i)</font></div></div></div>","null","","","","","","","","","",""
"html-keyboard-response","45","201724","0.0-7.0-1.2","cdtest","bdp_wmem","Thu Feb 04 2021 11:33:57 GMT-0500 (Eastern Standard Time)","615996","Match,No Match","","null","","","","FIX","","<div class='trialBorder'><div class='vertical-center'><img src='img/fixation2_sml.jpg'</img></div></div>","null","","","","","","","","","",""
"html-keyboard-response","46","203226","0.0-7.0-2.2","cdtest","bdp_wmem","Thu Feb 04 2021 11:33:57 GMT-0500 (Eastern Standard Time)","615996","Match,No Match","","null","","","","ARRAY","","<div class='trialBorder'><div class='vertical-center'><img style='vertical-align:center; align:center' src='img/fixation2_sml.jpg'></div><div class='arrayDiv1'><div class='tc'><img class='introPic' src='trustrating_stim/white_mw033.bmp'><br><font color='green'><strong>Share</strong></font></div></div></div>","null","1","trustrating_stim/white_mw033.bmp","1","noMatchOutcome","i","1500","","","",""
"html-keyboard-response","47","207229","0.0-7.0-3.2","cdtest","bdp_wmem","Thu Feb 04 2021 11:33:57 GMT-0500 (Eastern Standard Time)","615996","Match,No Match","","null","","","","DELAY","","<div class='trialBorder'><div class='vertical-center'><img src='img/fixation2_sml.jpg'</img></div></div>","null","","","","","","","","","",""
"html-keyboard-response","48","208494","0.0-7.0-4.2","cdtest","bdp_wmem","Thu Feb 04 2021 11:33:57 GMT-0500 (Eastern Standard Time)","615996","Match,No Match","","1264","","","","TARGET","","<div class='trialBorder'><div class='targDiv'><div class='tc'><img class='introPic' src='trustrating_stim/white_mw033.bmp'><br><font color='red'><strong>Keep</strong></font></div></div><div class='respDiv'><div class='respDivL'>Match<br>(e)</div><div class='respDivR'>No Match<br>(i)</div></div></div>","i","1","trustrating_stim/white_mw033.bmp","1","noMatchOutcome","i","","trustrating_stim/white_mw033.bmp","red","Keep","1"
"html-keyboard-response","49","208998","0.0-7.0-5.2","cdtest","bdp_wmem","Thu Feb 04 2021 11:33:57 GMT-0500 (Eastern Standard Time)","615996","Match,No Match","","null","","","","FEEDBACK","","<div class='trialBorder'><div class='vertical-center'><img src='img/correct.jpg'></div><div class='respDiv'><div class='respDivL'>Match<br>(e)</div><div class='respDivR'><font style='color:orange'>No Match<br>(i)</font></div></div></div>","null","","","","","","","","","",""
"html-keyboard-response","50","209500","0.0-7.0-1.3","cdtest","bdp_wmem","Thu Feb 04 2021 11:33:57 GMT-0500 (Eastern Standard Time)","615996","Match,No Match","","null","","","","FIX","","<div class='trialBorder'><div class='vertical-center'><img src='img/fixation2_sml.jpg'</img></div></div>","null","","","","","","","","","",""
"html-keyboard-response","51","212503","0.0-7.0-2.3","cdtest","bdp_wmem","Thu Feb 04 2021 11:33:57 GMT-0500 (Eastern Standard Time)","615996","Match,No Match","","null","","","","ARRAY","","<div class='trialBorder'><div class='vertical-center'><img style='vertical-align:center; align:center' src='img/fixation2_sml.jpg'></div><div class='arrayDiv3'><div class='tl'><img class='introPic' src='trustrating_stim/white_mw015.bmp'><br><font color='green'><strong>Share</strong></font></div><div class='tc'><img class='introPic' src='trustrating_stim/white_mw013.bmp'><br><font color='red'><strong>Keep</strong></font></div><div class='tr'><img class='introPic' src='trustrating_stim/white_00050_931230_fa_edt.bmp'><br><font color='red'><strong>Keep</strong></font></div></div></div>","null","3","trustrating_stim/white_mw015.bmp,trustrating_stim/white_mw013.bmp,trustrating_stim/white_00050_931230_fa_edt.bmp","1,0,0","Match","e","3000","","","",""
"html-keyboard-response","52","216506","0.0-7.0-3.3","cdtest","bdp_wmem","Thu Feb 04 2021 11:33:57 GMT-0500 (Eastern Standard Time)","615996","Match,No Match","","null","","","","DELAY","","<div class='trialBorder'><div class='vertical-center'><img src='img/fixation2_sml.jpg'</img></div></div>","null","","","","","","","","","",""
"html-keyboard-response","53","218403","0.0-7.0-4.3","cdtest","bdp_wmem","Thu Feb 04 2021 11:33:57 GMT-0500 (Eastern Standard Time)","615996","Match,No Match","","1896","","","","TARGET","","<div class='trialBorder'><div class='targDiv'><div class='tc'><img class='introPic' src='trustrating_stim/white_00050_931230_fa_edt.bmp'><br><font color='red'><strong>Keep</strong></font></div></div><div class='respDiv'><div class='respDivL'>Match<br>(e)</div><div class='respDivR'>No Match<br>(i)</div></div></div>","e","3","trustrating_stim/white_mw015.bmp,trustrating_stim/white_mw013.bmp,trustrating_stim/white_00050_931230_fa_edt.bmp","1,0,0","Match","e","","trustrating_stim/white_mw033.bmp","red","Keep","1"
"html-keyboard-response","54","218907","0.0-7.0-5.3","cdtest","bdp_wmem","Thu Feb 04 2021 11:33:57 GMT-0500 (Eastern Standard Time)","615996","Match,No Match","","null","","","","FEEDBACK","","<div class='trialBorder'><div class='vertical-center'><img src='img/correct.jpg'></div><div class='respDiv'><div class='respDivL'><font style='color:orange'>Match<br>(e)</font></div><div class='respDivR'>No Match<br>(i)</div></div></div>","null","","","","","","","","","",""
"html-keyboard-response","55","219408","0.0-7.0-1.4","cdtest","bdp_wmem","Thu Feb 04 2021 11:33:57 GMT-0500 (Eastern Standard Time)","615996","Match,No Match","","null","","","","FIX","","<div class='trialBorder'><div class='vertical-center'><img src='img/fixation2_sml.jpg'</img></div></div>","null","","","","","","","","","",""
"html-keyboard-response","56","222410","0.0-7.0-2.4","cdtest","bdp_wmem","Thu Feb 04 2021 11:33:57 GMT-0500 (Eastern Standard Time)","615996","Match,No Match","","null","","","","ARRAY","","<div class='trialBorder'><div class='vertical-center'><img style='vertical-align:center; align:center' src='img/fixation2_sml.jpg'></div><div class='arrayDiv3'><div class='tl'><img class='introPic' src='trustrating_stim/white_mw013.bmp'><br><font color='green'><strong>Share</strong></font></div><div class='tc'><img class='introPic' src='trustrating_stim/white_00050_931230_fa_edt.bmp'><br><font color='red'><strong>Keep</strong></font></div><div class='tr'><img class='introPic' src='trustrating_stim/white_mw091.bmp'><br><font color='green'><strong>Share</strong></font></div></div></div>","null","3","trustrating_stim/white_mw013.bmp,trustrating_stim/white_00050_931230_fa_edt.bmp,trustrating_stim/white_mw091.bmp","1,0,1","noMatchOutcome","i","3000","","","",""
"html-keyboard-response","57","226412","0.0-7.0-3.4","cdtest","bdp_wmem","Thu Feb 04 2021 11:33:57 GMT-0500 (Eastern Standard Time)","615996","Match,No Match","","null","","","","DELAY","","<div class='trialBorder'><div class='vertical-center'><img src='img/fixation2_sml.jpg'</img></div></div>","null","","","","","","","","","",""
"html-keyboard-response","58","229147","0.0-7.0-4.4","cdtest","bdp_wmem","Thu Feb 04 2021 11:33:57 GMT-0500 (Eastern Standard Time)","615996","Match,No Match","","2734","","","","TARGET","","<div class='trialBorder'><div class='targDiv'><div class='tc'><img class='introPic' src='trustrating_stim/white_00050_931230_fa_edt.bmp'><br><font color='green'><strong>Share</strong></font></div></div><div class='respDiv'><div class='respDivL'>Match<br>(e)</div><div class='respDivR'>No Match<br>(i)</div></div></div>","e","3","trustrating_stim/white_mw013.bmp,trustrating_stim/white_00050_931230_fa_edt.bmp,trustrating_stim/white_mw091.bmp","1,0,1","noMatchOutcome","i","","trustrating_stim/white_mw033.bmp","red","Keep","0"
"html-keyboard-response","59","229651","0.0-7.0-5.4","cdtest","bdp_wmem","Thu Feb 04 2021 11:33:57 GMT-0500 (Eastern Standard Time)","615996","Match,No Match","","null","","","","FEEDBACK","","<div class='trialBorder'><div class='vertical-center'><img src='img/error.jpg'></div><div class='respDiv'><div class='respDivL'><font style='color:orange'>Match<br>(e)</font></div><div class='respDivR'>No Match<br>(i)</div></div></div>","null","","","","","","","","","",""
"html-keyboard-response","60","230153","0.0-7.0-1.5","cdtest","bdp_wmem","Thu Feb 04 2021 11:33:57 GMT-0500 (Eastern Standard Time)","615996","Match,No Match","","null","","","","FIX","","<div class='trialBorder'><div class='vertical-center'><img src='img/fixation2_sml.jpg'</img></div></div>","null","","","","","","","","","",""
"html-keyboard-response","61","233155","0.0-7.0-2.5","cdtest","bdp_wmem","Thu Feb 04 2021 11:33:57 GMT-0500 (Eastern Standard Time)","615996","Match,No Match","","null","","","","ARRAY","","<div class='trialBorder'><div class='vertical-center'><img style='vertical-align:center; align:center' src='img/fixation2_sml.jpg'></div><div class='arrayDiv2'><div class='tl'><img class='introPic' src='trustrating_stim/white_mw092.bmp'><br><font color='green'><strong>Share</strong></font></div><div class='tr'><img class='introPic' src='trustrating_stim/white_mw003.bmp'><br><font color='red'><strong>Keep</strong></font></div></div></div>","null","2","trustrating_stim/white_mw092.bmp,trustrating_stim/white_mw003.bmp","1,0","noMatchOutcome","i","3000","","","",""
"html-keyboard-response","62","237156","0.0-7.0-3.5","cdtest","bdp_wmem","Thu Feb 04 2021 11:33:57 GMT-0500 (Eastern Standard Time)","615996","Match,No Match","","null","","","","DELAY","","<div class='trialBorder'><div class='vertical-center'><img src='img/fixation2_sml.jpg'</img></div></div>","null","","","","","","","","","",""
"html-keyboard-response","63","238912","0.0-7.0-4.5","cdtest","bdp_wmem","Thu Feb 04 2021 11:33:57 GMT-0500 (Eastern Standard Time)","615996","Match,No Match","","1755","","","","TARGET","","<div class='trialBorder'><div class='targDiv'><div class='tc'><img class='introPic' src='trustrating_stim/white_mw003.bmp'><br><font color='green'><strong>Share</strong></font></div></div><div class='respDiv'><div class='respDivL'>Match<br>(e)</div><div class='respDivR'>No Match<br>(i)</div></div></div>","i","2","trustrating_stim/white_mw092.bmp,trustrating_stim/white_mw003.bmp","1,0","noMatchOutcome","i","","trustrating_stim/white_mw033.bmp","red","Keep","1"
"html-keyboard-response","64","239415","0.0-7.0-5.5","cdtest","bdp_wmem","Thu Feb 04 2021 11:33:57 GMT-0500 (Eastern Standard Time)","615996","Match,No Match","","null","","","","FEEDBACK","","<div class='trialBorder'><div class='vertical-center'><img src='img/correct.jpg'></div><div class='respDiv'><div class='respDivL'>Match<br>(e)</div><div class='respDivR'><font style='color:orange'>No Match<br>(i)</font></div></div></div>","null","","","","","","","","","",""
"html-keyboard-response","65","239916","0.0-7.0-1.6","cdtest","bdp_wmem","Thu Feb 04 2021 11:33:57 GMT-0500 (Eastern Standard Time)","615996","Match,No Match","","null","","","","FIX","","<div class='trialBorder'><div class='vertical-center'><img src='img/fixation2_sml.jpg'</img></div></div>","null","","","","","","","","","",""
"html-keyboard-response","66","242918","0.0-7.0-2.6","cdtest","bdp_wmem","Thu Feb 04 2021 11:33:57 GMT-0500 (Eastern Standard Time)","615996","Match,No Match","","null","","","","ARRAY","","<div class='trialBorder'><div class='vertical-center'><img style='vertical-align:center; align:center' src='img/fixation2_sml.jpg'></div><div class='arrayDiv3'><div class='tl'><img class='introPic' src='trustrating_stim/white_mw033.bmp'><br><font color='green'><strong>Share</strong></font></div><div class='tc'><img class='introPic' src='trustrating_stim/white_00050_931230_fa_edt.bmp'><br><font color='red'><strong>Keep</strong></font></div><div class='tr'><img class='introPic' src='trustrating_stim/white_mw070.bmp'><br><font color='red'><strong>Keep</strong></font></div></div></div>","null","3","trustrating_stim/white_mw033.bmp,trustrating_stim/white_00050_931230_fa_edt.bmp,trustrating_stim/white_mw070.bmp","1,0,0","Match","e","3000","","","",""
"html-keyboard-response","67","246920","0.0-7.0-3.6","cdtest","bdp_wmem","Thu Feb 04 2021 11:33:57 GMT-0500 (Eastern Standard Time)","615996","Match,No Match","","null","","","","DELAY","","<div class='trialBorder'><div class='vertical-center'><img src='img/fixation2_sml.jpg'</img></div></div>","null","","","","","","","","","",""
"html-keyboard-response","68","248810","0.0-7.0-4.6","cdtest","bdp_wmem","Thu Feb 04 2021 11:33:57 GMT-0500 (Eastern Standard Time)","615996","Match,No Match","","1887","","","","TARGET","","<div class='trialBorder'><div class='targDiv'><div class='tc'><img class='introPic' src='trustrating_stim/white_00050_931230_fa_edt.bmp'><br><font color='red'><strong>Keep</strong></font></div></div><div class='respDiv'><div class='respDivL'>Match<br>(e)</div><div class='respDivR'>No Match<br>(i)</div></div></div>","i","3","trustrating_stim/white_mw033.bmp,trustrating_stim/white_00050_931230_fa_edt.bmp,trustrating_stim/white_mw070.bmp","1,0,0","Match","e","","trustrating_stim/white_mw033.bmp","red","Keep","0"
"html-keyboard-response","69","249313","0.0-7.0-5.6","cdtest","bdp_wmem","Thu Feb 04 2021 11:33:57 GMT-0500 (Eastern Standard Time)","615996","Match,No Match","","null","","","","FEEDBACK","","<div class='trialBorder'><div class='vertical-center'><img src='img/error.jpg'></div><div class='respDiv'><div class='respDivL'>Match<br>(e)</div><div class='respDivR'><font style='color:orange'>No Match<br>(i)</font></div></div></div>","null","","","","","","","","","",""
"html-keyboard-response","70","249828","0.0-7.0-1.7","cdtest","bdp_wmem","Thu Feb 04 2021 11:33:57 GMT-0500 (Eastern Standard Time)","615996","Match,No Match","","null","","","","FIX","","<div class='trialBorder'><div class='vertical-center'><img src='img/fixation2_sml.jpg'</img></div></div>","null","","","","","","","","","",""
"html-keyboard-response","71","251331","0.0-7.0-2.7","cdtest","bdp_wmem","Thu Feb 04 2021 11:33:57 GMT-0500 (Eastern Standard Time)","615996","Match,No Match","","null","","","","ARRAY","","<div class='trialBorder'><div class='vertical-center'><img style='vertical-align:center; align:center' src='img/fixation2_sml.jpg'></div><div class='arrayDiv1'><div class='tc'><img class='introPic' src='trustrating_stim/white_mw070.bmp'><br><font color='green'><strong>Share</strong></font></div></div></div>","null","1","trustrating_stim/white_mw070.bmp","1","Match","e","1500","","","",""
"html-keyboard-response","72","255332","0.0-7.0-3.7","cdtest","bdp_wmem","Thu Feb 04 2021 11:33:57 GMT-0500 (Eastern Standard Time)","615996","Match,No Match","","null","","","","DELAY","","<div class='trialBorder'><div class='vertical-center'><img src='img/fixation2_sml.jpg'</img></div></div>","null","","","","","","","","","",""
"html-keyboard-response","73","256605","0.0-7.0-4.7","cdtest","bdp_wmem","Thu Feb 04 2021 11:33:57 GMT-0500 (Eastern Standard Time)","615996","Match,No Match","","1271","","","","TARGET","","<div class='trialBorder'><div class='targDiv'><div class='tc'><img class='introPic' src='trustrating_stim/white_mw070.bmp'><br><font color='green'><strong>Share</strong></font></div></div><div class='respDiv'><div class='respDivL'>Match<br>(e)</div><div class='respDivR'>No Match<br>(i)</div></div></div>","e","1","trustrating_stim/white_mw070.bmp","1","Match","e","","trustrating_stim/white_mw033.bmp","red","Keep","1"
"html-keyboard-response","74","257107","0.0-7.0-5.7","cdtest","bdp_wmem","Thu Feb 04 2021 11:33:57 GMT-0500 (Eastern Standard Time)","615996","Match,No Match","","null","","","","FEEDBACK","","<div class='trialBorder'><div class='vertical-center'><img src='img/correct.jpg'></div><div class='respDiv'><div class='respDivL'><font style='color:orange'>Match<br>(e)</font></div><div class='respDivR'>No Match<br>(i)</div></div></div>","null","","","","","","","","","",""
"html-keyboard-response","75","257609","0.0-7.0-1.8","cdtest","bdp_wmem","Thu Feb 04 2021 11:33:57 GMT-0500 (Eastern Standard Time)","615996","Match,No Match","","null","","","","FIX","","<div class='trialBorder'><div class='vertical-center'><img src='img/fixation2_sml.jpg'</img></div></div>","null","","","","","","","","","",""
"html-keyboard-response","76","259111","0.0-7.0-2.8","cdtest","bdp_wmem","Thu Feb 04 2021 11:33:57 GMT-0500 (Eastern Standard Time)","615996","Match,No Match","","null","","","","ARRAY","","<div class='trialBorder'><div class='vertical-center'><img style='vertical-align:center; align:center' src='img/fixation2_sml.jpg'></div><div class='arrayDiv1'><div class='tc'><img class='introPic' src='trustrating_stim/white_mw013.bmp'><br><font color='red'><strong>Keep</strong></font></div></div></div>","null","1","trustrating_stim/white_mw013.bmp","0","Match","e","1500","","","",""
"html-keyboard-response","77","263113","0.0-7.0-3.8","cdtest","bdp_wmem","Thu Feb 04 2021 11:33:57 GMT-0500 (Eastern Standard Time)","615996","Match,No Match","","null","","","","DELAY","","<div class='trialBorder'><div class='vertical-center'><img src='img/fixation2_sml.jpg'</img></div></div>","null","","","","","","","","","",""
"html-keyboard-response","78","264151","0.0-7.0-4.8","cdtest","bdp_wmem","Thu Feb 04 2021 11:33:57 GMT-0500 (Eastern Standard Time)","615996","Match,No Match","","1037","","","","TARGET","","<div class='trialBorder'><div class='targDiv'><div class='tc'><img class='introPic' src='trustrating_stim/white_mw013.bmp'><br><font color='red'><strong>Keep</strong></font></div></div><div class='respDiv'><div class='respDivL'>Match<br>(e)</div><div class='respDivR'>No Match<br>(i)</div></div></div>","e","1","trustrating_stim/white_mw013.bmp","0","Match","e","","trustrating_stim/white_mw033.bmp","red","Keep","1"
"html-keyboard-response","79","264655","0.0-7.0-5.8","cdtest","bdp_wmem","Thu Feb 04 2021 11:33:57 GMT-0500 (Eastern Standard Time)","615996","Match,No Match","","null","","","","FEEDBACK","","<div class='trialBorder'><div class='vertical-center'><img src='img/correct.jpg'></div><div class='respDiv'><div class='respDivL'><font style='color:orange'>Match<br>(e)</font></div><div class='respDivR'>No Match<br>(i)</div></div></div>","null","","","","","","","","","",""
"html-keyboard-response","80","265157","0.0-7.0-1.9","cdtest","bdp_wmem","Thu Feb 04 2021 11:33:57 GMT-0500 (Eastern Standard Time)","615996","Match,No Match","","null","","","","FIX","","<div class='trialBorder'><div class='vertical-center'><img src='img/fixation2_sml.jpg'</img></div></div>","null","","","","","","","","","",""
"html-keyboard-response","81","268159","0.0-7.0-2.9","cdtest","bdp_wmem","Thu Feb 04 2021 11:33:57 GMT-0500 (Eastern Standard Time)","615996","Match,No Match","","null","","","","ARRAY","","<div class='trialBorder'><div class='vertical-center'><img style='vertical-align:center; align:center' src='img/fixation2_sml.jpg'></div><div class='arrayDiv2'><div class='tl'><img class='introPic' src='trustrating_stim/white_mw033.bmp'><br><font color='red'><strong>Keep</strong></font></div><div class='tr'><img class='introPic' src='trustrating_stim/white_mw038.bmp'><br><font color='green'><strong>Share</strong></font></div></div></div>","null","2","trustrating_stim/white_mw033.bmp,trustrating_stim/white_mw038.bmp","0,1","Match","e","3000","","","",""
"html-keyboard-response","82","272161","0.0-7.0-3.9","cdtest","bdp_wmem","Thu Feb 04 2021 11:33:57 GMT-0500 (Eastern Standard Time)","615996","Match,No Match","","null","","","","DELAY","","<div class='trialBorder'><div class='vertical-center'><img src='img/fixation2_sml.jpg'</img></div></div>","null","","","","","","","","","",""
"html-keyboard-response","83","274196","0.0-7.0-4.9","cdtest","bdp_wmem","Thu Feb 04 2021 11:33:57 GMT-0500 (Eastern Standard Time)","615996","Match,No Match","","2034","","","","TARGET","","<div class='trialBorder'><div class='targDiv'><div class='tc'><img class='introPic' src='trustrating_stim/white_mw038.bmp'><br><font color='green'><strong>Share</strong></font></div></div><div class='respDiv'><div class='respDivL'>Match<br>(e)</div><div class='respDivR'>No Match<br>(i)</div></div></div>","e","2","trustrating_stim/white_mw033.bmp,trustrating_stim/white_mw038.bmp","0,1","Match","e","","trustrating_stim/white_mw033.bmp","red","Keep","1"
"html-keyboard-response","84","274699","0.0-7.0-5.9","cdtest","bdp_wmem","Thu Feb 04 2021 11:33:57 GMT-0500 (Eastern Standard Time)","615996","Match,No Match","","null","","","","FEEDBACK","","<div class='trialBorder'><div class='vertical-center'><img src='img/correct.jpg'></div><div class='respDiv'><div class='respDivL'><font style='color:orange'>Match<br>(e)</font></div><div class='respDivR'>No Match<br>(i)</div></div></div>","null","","","","","","","","","",""
"html-keyboard-response","85","275201","0.0-7.0-1.10","cdtest","bdp_wmem","Thu Feb 04 2021 11:33:57 GMT-0500 (Eastern Standard Time)","615996","Match,No Match","","null","","","","FIX","","<div class='trialBorder'><div class='vertical-center'><img src='img/fixation2_sml.jpg'</img></div></div>","null","","","","","","","","","",""
"html-keyboard-response","86","278203","0.0-7.0-2.10","cdtest","bdp_wmem","Thu Feb 04 2021 11:33:57 GMT-0500 (Eastern Standard Time)","615996","Match,No Match","","null","","","","ARRAY","","<div class='trialBorder'><div class='vertical-center'><img style='vertical-align:center; align:center' src='img/fixation2_sml.jpg'></div><div class='arrayDiv2'><div class='tl'><img class='introPic' src='trustrating_stim/white_00807_941205_fb_edt.bmp'><br><font color='green'><strong>Share</strong></font></div><div class='tr'><img class='introPic' src='trustrating_stim/white_mw013.bmp'><br><font color='red'><strong>Keep</strong></font></div></div></div>","null","2","trustrating_stim/white_00807_941205_fb_edt.bmp,trustrating_stim/white_mw013.bmp","1,0","Match","e","3000","","","",""
"html-keyboard-response","87","282204","0.0-7.0-3.10","cdtest","bdp_wmem","Thu Feb 04 2021 11:33:57 GMT-0500 (Eastern Standard Time)","615996","Match,No Match","","null","","","","DELAY","","<div class='trialBorder'><div class='vertical-center'><img src='img/fixation2_sml.jpg'</img></div></div>","null","","","","","","","","","",""
"html-keyboard-response","88","283573","0.0-7.0-4.10","cdtest","bdp_wmem","Thu Feb 04 2021 11:33:57 GMT-0500 (Eastern Standard Time)","615996","Match,No Match","","1367","","","","TARGET","","<div class='trialBorder'><div class='targDiv'><div class='tc'><img class='introPic' src='trustrating_stim/white_00807_941205_fb_edt.bmp'><br><font color='green'><strong>Share</strong></font></div></div><div class='respDiv'><div class='respDivL'>Match<br>(e)</div><div class='respDivR'>No Match<br>(i)</div></div></div>","e","2","trustrating_stim/white_00807_941205_fb_edt.bmp,trustrating_stim/white_mw013.bmp","1,0","Match","e","","trustrating_stim/white_mw033.bmp","red","Keep","1"
"html-keyboard-response","89","284076","0.0-7.0-5.10","cdtest","bdp_wmem","Thu Feb 04 2021 11:33:57 GMT-0500 (Eastern Standard Time)","615996","Match,No Match","","null","","","","FEEDBACK","","<div class='trialBorder'><div class='vertical-center'><img src='img/correct.jpg'></div><div class='respDiv'><div class='respDivL'><font style='color:orange'>Match<br>(e)</font></div><div class='respDivR'>No Match<br>(i)</div></div></div>","null","","","","","","","","","",""
"html-keyboard-response","90","284578","0.0-7.0-1.11","cdtest","bdp_wmem","Thu Feb 04 2021 11:33:57 GMT-0500 (Eastern Standard Time)","615996","Match,No Match","","null","","","","FIX","","<div class='trialBorder'><div class='vertical-center'><img src='img/fixation2_sml.jpg'</img></div></div>","null","","","","","","","","","",""
"html-keyboard-response","91","287581","0.0-7.0-2.11","cdtest","bdp_wmem","Thu Feb 04 2021 11:33:57 GMT-0500 (Eastern Standard Time)","615996","Match,No Match","","null","","","","ARRAY","","<div class='trialBorder'><div class='vertical-center'><img style='vertical-align:center; align:center' src='img/fixation2_sml.jpg'></div><div class='arrayDiv2'><div class='tl'><img class='introPic' src='trustrating_stim/white_mw091.bmp'><br><font color='green'><strong>Share</strong></font></div><div class='tr'><img class='introPic' src='trustrating_stim/white_mw038.bmp'><br><font color='red'><strong>Keep</strong></font></div></div></div>","null","2","trustrating_stim/white_mw091.bmp,trustrating_stim/white_mw038.bmp","1,0","noMatchFace","i","3000","","","",""
"html-keyboard-response","92","291582","0.0-7.0-3.11","cdtest","bdp_wmem","Thu Feb 04 2021 11:33:57 GMT-0500 (Eastern Standard Time)","615996","Match,No Match","","null","","","","DELAY","","<div class='trialBorder'><div class='vertical-center'><img src='img/fixation2_sml.jpg'</img></div></div>","null","","","","","","","","","",""
"html-keyboard-response","93","292934","0.0-7.0-4.11","cdtest","bdp_wmem","Thu Feb 04 2021 11:33:57 GMT-0500 (Eastern Standard Time)","615996","Match,No Match","","1351","","","","TARGET","","<div class='trialBorder'><div class='targDiv'><div class='tc'><img class='introPic' src='trustrating_stim/white_00807_941205_fb_edt.bmp'><br><font color='red'><strong>Keep</strong></font></div></div><div class='respDiv'><div class='respDivL'>Match<br>(e)</div><div class='respDivR'>No Match<br>(i)</div></div></div>","i","2","trustrating_stim/white_mw091.bmp,trustrating_stim/white_mw038.bmp","1,0","noMatchFace","i","","trustrating_stim/white_mw033.bmp","red","Keep","1"
"html-keyboard-response","94","293438","0.0-7.0-5.11","cdtest","bdp_wmem","Thu Feb 04 2021 11:33:57 GMT-0500 (Eastern Standard Time)","615996","Match,No Match","","null","","","","FEEDBACK","","<div class='trialBorder'><div class='vertical-center'><img src='img/correct.jpg'></div><div class='respDiv'><div class='respDivL'>Match<br>(e)</div><div class='respDivR'><font style='color:orange'>No Match<br>(i)</font></div></div></div>","null","","","","","","","","","",""
"html-keyboard-response","95","293940","0.0-7.0-1.12","cdtest","bdp_wmem","Thu Feb 04 2021 11:33:57 GMT-0500 (Eastern Standard Time)","615996","Match,No Match","","null","","","","FIX","","<div class='trialBorder'><div class='vertical-center'><img src='img/fixation2_sml.jpg'</img></div></div>","null","","","","","","","","","",""
"html-keyboard-response","96","295441","0.0-7.0-2.12","cdtest","bdp_wmem","Thu Feb 04 2021 11:33:57 GMT-0500 (Eastern Standard Time)","615996","Match,No Match","","null","","","","ARRAY","","<div class='trialBorder'><div class='vertical-center'><img style='vertical-align:center; align:center' src='img/fixation2_sml.jpg'></div><div class='arrayDiv1'><div class='tc'><img class='introPic' src='trustrating_stim/white_mw040.bmp'><br><font color='red'><strong>Keep</strong></font></div></div></div>","null","1","trustrating_stim/white_mw040.bmp","0","noMatchFace","i","1500","","","",""
"html-keyboard-response","97","299444","0.0-7.0-3.12","cdtest","bdp_wmem","Thu Feb 04 2021 11:33:57 GMT-0500 (Eastern Standard Time)","615996","Match,No Match","","null","","","","DELAY","","<div class='trialBorder'><div class='vertical-center'><img src='img/fixation2_sml.jpg'</img></div></div>","null","","","","","","","","","",""
"html-keyboard-response","98","300591","0.0-7.0-4.12","cdtest","bdp_wmem","Thu Feb 04 2021 11:33:57 GMT-0500 (Eastern Standard Time)","615996","Match,No Match","","1145","","","","TARGET","","<div class='trialBorder'><div class='targDiv'><div class='tc'><img class='introPic' src='trustrating_stim/white_00807_941205_fb_edt.bmp'><br><font color='red'><strong>Keep</strong></font></div></div><div class='respDiv'><div class='respDivL'>Match<br>(e)</div><div class='respDivR'>No Match<br>(i)</div></div></div>","i","1","trustrating_stim/white_mw040.bmp","0","noMatchFace","i","","trustrating_stim/white_mw033.bmp","red","Keep","1"
"html-keyboard-response","99","301094","0.0-7.0-5.12","cdtest","bdp_wmem","Thu Feb 04 2021 11:33:57 GMT-0500 (Eastern Standard Time)","615996","Match,No Match","","null","","","","FEEDBACK","","<div class='trialBorder'><div class='vertical-center'><img src='img/correct.jpg'></div><div class='respDiv'><div class='respDivL'>Match<br>(e)</div><div class='respDivR'><font style='color:orange'>No Match<br>(i)</font></div></div></div>","null","","","","","","","","","",""
"html-keyboard-response","100","301596","0.0-7.0-1.13","cdtest","bdp_wmem","Thu Feb 04 2021 11:33:57 GMT-0500 (Eastern Standard Time)","615996","Match,No Match","","null","","","","FIX","","<div class='trialBorder'><div class='vertical-center'><img src='img/fixation2_sml.jpg'</img></div></div>","null","","","","","","","","","",""
"html-keyboard-response","101","304598","0.0-7.0-2.13","cdtest","bdp_wmem","Thu Feb 04 2021 11:33:57 GMT-0500 (Eastern Standard Time)","615996","Match,No Match","","null","","","","ARRAY","","<div class='trialBorder'><div class='vertical-center'><img style='vertical-align:center; align:center' src='img/fixation2_sml.jpg'></div><div class='arrayDiv2'><div class='tl'><img class='introPic' src='trustrating_stim/white_00050_931230_fa_edt.bmp'><br><font color='green'><strong>Share</strong></font></div><div class='tr'><img class='introPic' src='trustrating_stim/white_mw040.bmp'><br><font color='red'><strong>Keep</strong></font></div></div></div>","null","2","trustrating_stim/white_00050_931230_fa_edt.bmp,trustrating_stim/white_mw040.bmp","1,0","Match","e","3000","","","",""
"html-keyboard-response","102","308600","0.0-7.0-3.13","cdtest","bdp_wmem","Thu Feb 04 2021 11:33:57 GMT-0500 (Eastern Standard Time)","615996","Match,No Match","","null","","","","DELAY","","<div class='trialBorder'><div class='vertical-center'><img src='img/fixation2_sml.jpg'</img></div></div>","null","","","","","","","","","",""
"html-keyboard-response","103","310846","0.0-7.0-4.13","cdtest","bdp_wmem","Thu Feb 04 2021 11:33:57 GMT-0500 (Eastern Standard Time)","615996","Match,No Match","","2244","","","","TARGET","","<div class='trialBorder'><div class='targDiv'><div class='tc'><img class='introPic' src='trustrating_stim/white_mw040.bmp'><br><font color='red'><strong>Keep</strong></font></div></div><div class='respDiv'><div class='respDivL'>Match<br>(e)</div><div class='respDivR'>No Match<br>(i)</div></div></div>","e","2","trustrating_stim/white_00050_931230_fa_edt.bmp,trustrating_stim/white_mw040.bmp","1,0","Match","e","","trustrating_stim/white_mw033.bmp","red","Keep","1"
"html-keyboard-response","104","311349","0.0-7.0-5.13","cdtest","bdp_wmem","Thu Feb 04 2021 11:33:57 GMT-0500 (Eastern Standard Time)","615996","Match,No Match","","null","","","","FEEDBACK","","<div class='trialBorder'><div class='vertical-center'><img src='img/correct.jpg'></div><div class='respDiv'><div class='respDivL'><font style='color:orange'>Match<br>(e)</font></div><div class='respDivR'>No Match<br>(i)</div></div></div>","null","","","","","","","","","",""
"html-keyboard-response","105","311850","0.0-7.0-1.14","cdtest","bdp_wmem","Thu Feb 04 2021 11:33:57 GMT-0500 (Eastern Standard Time)","615996","Match,No Match","","null","","","","FIX","","<div class='trialBorder'><div class='vertical-center'><img src='img/fixation2_sml.jpg'</img></div></div>","null","","","","","","","","","",""
"html-keyboard-response","106","314860","0.0-7.0-2.14","cdtest","bdp_wmem","Thu Feb 04 2021 11:33:57 GMT-0500 (Eastern Standard Time)","615996","Match,No Match","","null","","","","ARRAY","","<div class='trialBorder'><div class='vertical-center'><img style='vertical-align:center; align:center' src='img/fixation2_sml.jpg'></div><div class='arrayDiv3'><div class='tl'><img class='introPic' src='trustrating_stim/white_mw033.bmp'><br><font color='green'><strong>Share</strong></font></div><div class='tc'><img class='introPic' src='trustrating_stim/white_mw070.bmp'><br><font color='red'><strong>Keep</strong></font></div><div class='tr'><img class='introPic' src='trustrating_stim/white_mw040.bmp'><br><font color='red'><strong>Keep</strong></font></div></div></div>","null","3","trustrating_stim/white_mw033.bmp,trustrating_stim/white_mw070.bmp,trustrating_stim/white_mw040.bmp","1,0,0","noMatchOutcome","i","3000","","","",""
"html-keyboard-response","107","318862","0.0-7.0-3.14","cdtest","bdp_wmem","Thu Feb 04 2021 11:33:57 GMT-0500 (Eastern Standard Time)","615996","Match,No Match","","null","","","","DELAY","","<div class='trialBorder'><div class='vertical-center'><img src='img/fixation2_sml.jpg'</img></div></div>","null","","","","","","","","","",""
"html-keyboard-response","108","320385","0.0-7.0-4.14","cdtest","bdp_wmem","Thu Feb 04 2021 11:33:57 GMT-0500 (Eastern Standard Time)","615996","Match,No Match","","1522","","","","TARGET","","<div class='trialBorder'><div class='targDiv'><div class='tc'><img class='introPic' src='trustrating_stim/white_mw033.bmp'><br><font color='red'><strong>Keep</strong></font></div></div><div class='respDiv'><div class='respDivL'>Match<br>(e)</div><div class='respDivR'>No Match<br>(i)</div></div></div>","i","3","trustrating_stim/white_mw033.bmp,trustrating_stim/white_mw070.bmp,trustrating_stim/white_mw040.bmp","1,0,0","noMatchOutcome","i","","trustrating_stim/white_mw033.bmp","red","Keep","1"
"html-keyboard-response","109","320889","0.0-7.0-5.14","cdtest","bdp_wmem","Thu Feb 04 2021 11:33:57 GMT-0500 (Eastern Standard Time)","615996","Match,No Match","","null","","","","FEEDBACK","","<div class='trialBorder'><div class='vertical-center'><img src='img/correct.jpg'></div><div class='respDiv'><div class='respDivL'>Match<br>(e)</div><div class='respDivR'><font style='color:orange'>No Match<br>(i)</font></div></div></div>","null","","","","","","","","","",""
"html-keyboard-response","110","321391","0.0-7.0-1.15","cdtest","bdp_wmem","Thu Feb 04 2021 11:33:57 GMT-0500 (Eastern Standard Time)","615996","Match,No Match","","null","","","","FIX","","<div class='trialBorder'><div class='vertical-center'><img src='img/fixation2_sml.jpg'</img></div></div>","null","","","","","","","","","",""
"html-keyboard-response","111","324393","0.0-7.0-2.15","cdtest","bdp_wmem","Thu Feb 04 2021 11:33:57 GMT-0500 (Eastern Standard Time)","615996","Match,No Match","","null","","","","ARRAY","","<div class='trialBorder'><div class='vertical-center'><img style='vertical-align:center; align:center' src='img/fixation2_sml.jpg'></div><div class='arrayDiv3'><div class='tl'><img class='introPic' src='trustrating_stim/white_mw038.bmp'><br><font color='green'><strong>Share</strong></font></div><div class='tc'><img class='introPic' src='trustrating_stim/white_00807_941205_fb_edt.bmp'><br><font color='red'><strong>Keep</strong></font></div><div class='tr'><img class='introPic' src='trustrating_stim/white_mw092.bmp'><br><font color='green'><strong>Share</strong></font></div></div></div>","null","3","trustrating_stim/white_mw038.bmp,trustrating_stim/white_00807_941205_fb_edt.bmp,trustrating_stim/white_mw092.bmp","1,0,1","noMatchOutcome","i","3000","","","",""
"html-keyboard-response","112","328394","0.0-7.0-3.15","cdtest","bdp_wmem","Thu Feb 04 2021 11:33:57 GMT-0500 (Eastern Standard Time)","615996","Match,No Match","","null","","","","DELAY","","<div class='trialBorder'><div class='vertical-center'><img src='img/fixation2_sml.jpg'</img></div></div>","null","","","","","","","","","",""
"html-keyboard-response","113","330203","0.0-7.0-4.15","cdtest","bdp_wmem","Thu Feb 04 2021 11:33:57 GMT-0500 (Eastern Standard Time)","615996","Match,No Match","","1808","","","","TARGET","","<div class='trialBorder'><div class='targDiv'><div class='tc'><img class='introPic' src='trustrating_stim/white_mw038.bmp'><br><font color='red'><strong>Keep</strong></font></div></div><div class='respDiv'><div class='respDivL'>Match<br>(e)</div><div class='respDivR'>No Match<br>(i)</div></div></div>","i","3","trustrating_stim/white_mw038.bmp,trustrating_stim/white_00807_941205_fb_edt.bmp,trustrating_stim/white_mw092.bmp","1,0,1","noMatchOutcome","i","","trustrating_stim/white_mw033.bmp","red","Keep","1"
"html-keyboard-response","114","330705","0.0-7.0-5.15","cdtest","bdp_wmem","Thu Feb 04 2021 11:33:57 GMT-0500 (Eastern Standard Time)","615996","Match,No Match","","null","","","","FEEDBACK","","<div class='trialBorder'><div class='vertical-center'><img src='img/correct.jpg'></div><div class='respDiv'><div class='respDivL'>Match<br>(e)</div><div class='respDivR'><font style='color:orange'>No Match<br>(i)</font></div></div></div>","null","","","","","","","","","",""
"html-keyboard-response","115","331207","0.0-7.0-1.16","cdtest","bdp_wmem","Thu Feb 04 2021 11:33:57 GMT-0500 (Eastern Standard Time)","615996","Match,No Match","","null","","","","FIX","","<div class='trialBorder'><div class='vertical-center'><img src='img/fixation2_sml.jpg'</img></div></div>","null","","","","","","","","","",""
"html-keyboard-response","116","334210","0.0-7.0-2.16","cdtest","bdp_wmem","Thu Feb 04 2021 11:33:57 GMT-0500 (Eastern Standard Time)","615996","Match,No Match","","null","","","","ARRAY","","<div class='trialBorder'><div class='vertical-center'><img style='vertical-align:center; align:center' src='img/fixation2_sml.jpg'></div><div class='arrayDiv3'><div class='tl'><img class='introPic' src='trustrating_stim/white_00050_931230_fa_edt.bmp'><br><font color='red'><strong>Keep</strong></font></div><div class='tc'><img class='introPic' src='trustrating_stim/white_mw003.bmp'><br><font color='green'><strong>Share</strong></font></div><div class='tr'><img class='introPic' src='trustrating_stim/white_mw091.bmp'><br><font color='red'><strong>Keep</strong></font></div></div></div>","null","3","trustrating_stim/white_00050_931230_fa_edt.bmp,trustrating_stim/white_mw003.bmp,trustrating_stim/white_mw091.bmp","0,1,0","noMatchFace","i","3000","","","",""
"html-keyboard-response","117","338212","0.0-7.0-3.16","cdtest","bdp_wmem","Thu Feb 04 2021 11:33:57 GMT-0500 (Eastern Standard Time)","615996","Match,No Match","","null","","","","DELAY","","<div class='trialBorder'><div class='vertical-center'><img src='img/fixation2_sml.jpg'</img></div></div>","null","","","","","","","","","",""
"html-keyboard-response","118","339454","0.0-7.0-4.16","cdtest","bdp_wmem","Thu Feb 04 2021 11:33:57 GMT-0500 (Eastern Standard Time)","615996","Match,No Match","","1240","","","","TARGET","","<div class='trialBorder'><div class='targDiv'><div class='tc'><img class='introPic' src='trustrating_stim/white_mw012.bmp'><br><font color='red'><strong>Keep</strong></font></div></div><div class='respDiv'><div class='respDivL'>Match<br>(e)</div><div class='respDivR'>No Match<br>(i)</div></div></div>","i","3","trustrating_stim/white_00050_931230_fa_edt.bmp,trustrating_stim/white_mw003.bmp,trustrating_stim/white_mw091.bmp","0,1,0","noMatchFace","i","","trustrating_stim/white_mw033.bmp","red","Keep","1"
"html-keyboard-response","119","339957","0.0-7.0-5.16","cdtest","bdp_wmem","Thu Feb 04 2021 11:33:57 GMT-0500 (Eastern Standard Time)","615996","Match,No Match","","null","","","","FEEDBACK","","<div class='trialBorder'><div class='vertical-center'><img src='img/correct.jpg'></div><div class='respDiv'><div class='respDivL'>Match<br>(e)</div><div class='respDivR'><font style='color:orange'>No Match<br>(i)</font></div></div></div>","null","","","","","","","","","",""
"html-keyboard-response","120","340458","0.0-7.0-1.17","cdtest","bdp_wmem","Thu Feb 04 2021 11:33:57 GMT-0500 (Eastern Standard Time)","615996","Match,No Match","","null","","","","FIX","","<div class='trialBorder'><div class='vertical-center'><img src='img/fixation2_sml.jpg'</img></div></div>","null","","","","","","","","","",""
"html-keyboard-response","121","343461","0.0-7.0-2.17","cdtest","bdp_wmem","Thu Feb 04 2021 11:33:57 GMT-0500 (Eastern Standard Time)","615996","Match,No Match","","null","","","","ARRAY","","<div class='trialBorder'><div class='vertical-center'><img style='vertical-align:center; align:center' src='img/fixation2_sml.jpg'></div><div class='arrayDiv2'><div class='tl'><img class='introPic' src='trustrating_stim/white_mw013.bmp'><br><font color='red'><strong>Keep</strong></font></div><div class='tr'><img class='introPic' src='trustrating_stim/white_mw091.bmp'><br><font color='green'><strong>Share</strong></font></div></div></div>","null","2","trustrating_stim/white_mw013.bmp,trustrating_stim/white_mw091.bmp","0,1","noMatchOutcome","i","3000","","","",""
"html-keyboard-response","122","347463","0.0-7.0-3.17","cdtest","bdp_wmem","Thu Feb 04 2021 11:33:57 GMT-0500 (Eastern Standard Time)","615996","Match,No Match","","null","","","","DELAY","","<div class='trialBorder'><div class='vertical-center'><img src='img/fixation2_sml.jpg'</img></div></div>","null","","","","","","","","","",""
"html-keyboard-response","123","349345","0.0-7.0-4.17","cdtest","bdp_wmem","Thu Feb 04 2021 11:33:57 GMT-0500 (Eastern Standard Time)","615996","Match,No Match","","1881","","","","TARGET","","<div class='trialBorder'><div class='targDiv'><div class='tc'><img class='introPic' src='trustrating_stim/white_mw013.bmp'><br><font color='green'><strong>Share</strong></font></div></div><div class='respDiv'><div class='respDivL'>Match<br>(e)</div><div class='respDivR'>No Match<br>(i)</div></div></div>","i","2","trustrating_stim/white_mw013.bmp,trustrating_stim/white_mw091.bmp","0,1","noMatchOutcome","i","","trustrating_stim/white_mw033.bmp","red","Keep","1"
"html-keyboard-response","124","349849","0.0-7.0-5.17","cdtest","bdp_wmem","Thu Feb 04 2021 11:33:57 GMT-0500 (Eastern Standard Time)","615996","Match,No Match","","null","","","","FEEDBACK","","<div class='trialBorder'><div class='vertical-center'><img src='img/correct.jpg'></div><div class='respDiv'><div class='respDivL'>Match<br>(e)</div><div class='respDivR'><font style='color:orange'>No Match<br>(i)</font></div></div></div>","null","","","","","","","","","",""
"html-keyboard-response","125","350351","0.0-7.0-1.18","cdtest","bdp_wmem","Thu Feb 04 2021 11:33:57 GMT-0500 (Eastern Standard Time)","615996","Match,No Match","","null","","","","FIX","","<div class='trialBorder'><div class='vertical-center'><img src='img/fixation2_sml.jpg'</img></div></div>","null","","","","","","","","","",""
"html-keyboard-response","126","353353","0.0-7.0-2.18","cdtest","bdp_wmem","Thu Feb 04 2021 11:33:57 GMT-0500 (Eastern Standard Time)","615996","Match,No Match","","null","","","","ARRAY","","<div class='trialBorder'><div class='vertical-center'><img style='vertical-align:center; align:center' src='img/fixation2_sml.jpg'></div><div class='arrayDiv3'><div class='tl'><img class='introPic' src='trustrating_stim/white_mw033.bmp'><br><font color='green'><strong>Share</strong></font></div><div class='tc'><img class='introPic' src='trustrating_stim/white_mw070.bmp'><br><font color='red'><strong>Keep</strong></font></div><div class='tr'><img class='introPic' src='trustrating_stim/white_mw003.bmp'><br><font color='red'><strong>Keep</strong></font></div></div></div>","null","3","trustrating_stim/white_mw033.bmp,trustrating_stim/white_mw070.bmp,trustrating_stim/white_mw003.bmp","1,0,0","noMatchFace","i","3000","","","",""
"html-keyboard-response","127","357356","0.0-7.0-3.18","cdtest","bdp_wmem","Thu Feb 04 2021 11:33:57 GMT-0500 (Eastern Standard Time)","615996","Match,No Match","","null","","","","DELAY","","<div class='trialBorder'><div class='vertical-center'><img src='img/fixation2_sml.jpg'</img></div></div>","null","","","","","","","","","",""
"html-keyboard-response","128","360247","0.0-7.0-4.18","cdtest","bdp_wmem","Thu Feb 04 2021 11:33:57 GMT-0500 (Eastern Standard Time)","615996","Match,No Match","","2890","","","","TARGET","","<div class='trialBorder'><div class='targDiv'><div class='tc'><img class='introPic' src='trustrating_stim/white_mw013.bmp'><br><font color='green'><strong>Share</strong></font></div></div><div class='respDiv'><div class='respDivL'>Match<br>(e)</div><div class='respDivR'>No Match<br>(i)</div></div></div>","e","3","trustrating_stim/white_mw033.bmp,trustrating_stim/white_mw070.bmp,trustrating_stim/white_mw003.bmp","1,0,0","noMatchFace","i","","trustrating_stim/white_mw033.bmp","red","Keep","0"
"html-keyboard-response","129","360750","0.0-7.0-5.18","cdtest","bdp_wmem","Thu Feb 04 2021 11:33:57 GMT-0500 (Eastern Standard Time)","615996","Match,No Match","","null","","","","FEEDBACK","","<div class='trialBorder'><div class='vertical-center'><img src='img/error.jpg'></div><div class='respDiv'><div class='respDivL'><font style='color:orange'>Match<br>(e)</font></div><div class='respDivR'>No Match<br>(i)</div></div></div>","null","","","","","","","","","",""
"html-keyboard-response","130","361251","0.0-7.0-1.19","cdtest","bdp_wmem","Thu Feb 04 2021 11:33:57 GMT-0500 (Eastern Standard Time)","615996","Match,No Match","","null","","","","FIX","","<div class='trialBorder'><div class='vertical-center'><img src='img/fixation2_sml.jpg'</img></div></div>","null","","","","","","","","","",""
"html-keyboard-response","131","362754","0.0-7.0-2.19","cdtest","bdp_wmem","Thu Feb 04 2021 11:33:57 GMT-0500 (Eastern Standard Time)","615996","Match,No Match","","null","","","","ARRAY","","<div class='trialBorder'><div class='vertical-center'><img style='vertical-align:center; align:center' src='img/fixation2_sml.jpg'></div><div class='arrayDiv1'><div class='tc'><img class='introPic' src='trustrating_stim/white_mw012.bmp'><br><font color='red'><strong>Keep</strong></font></div></div></div>","null","1","trustrating_stim/white_mw012.bmp","0","noMatchOutcome","i","1500","","","",""
"html-keyboard-response","132","366755","0.0-7.0-3.19","cdtest","bdp_wmem","Thu Feb 04 2021 11:33:57 GMT-0500 (Eastern Standard Time)","615996","Match,No Match","","null","","","","DELAY","","<div class='trialBorder'><div class='vertical-center'><img src='img/fixation2_sml.jpg'</img></div></div>","null","","","","","","","","","",""
"html-keyboard-response","133","368217","0.0-7.0-4.19","cdtest","bdp_wmem","Thu Feb 04 2021 11:33:57 GMT-0500 (Eastern Standard Time)","615996","Match,No Match","","1461","","","","TARGET","","<div class='trialBorder'><div class='targDiv'><div class='tc'><img class='introPic' src='trustrating_stim/white_mw012.bmp'><br><font color='green'><strong>Share</strong></font></div></div><div class='respDiv'><div class='respDivL'>Match<br>(e)</div><div class='respDivR'>No Match<br>(i)</div></div></div>","i","1","trustrating_stim/white_mw012.bmp","0","noMatchOutcome","i","","trustrating_stim/white_mw033.bmp","red","Keep","1"
"html-keyboard-response","134","368721","0.0-7.0-5.19","cdtest","bdp_wmem","Thu Feb 04 2021 11:33:57 GMT-0500 (Eastern Standard Time)","615996","Match,No Match","","null","","","","FEEDBACK","","<div class='trialBorder'><div class='vertical-center'><img src='img/correct.jpg'></div><div class='respDiv'><div class='respDivL'>Match<br>(e)</div><div class='respDivR'><font style='color:orange'>No Match<br>(i)</font></div></div></div>","null","","","","","","","","","",""
"html-keyboard-response","135","369223","0.0-7.0-1.20","cdtest","bdp_wmem","Thu Feb 04 2021 11:33:57 GMT-0500 (Eastern Standard Time)","615996","Match,No Match","","null","","","","FIX","","<div class='trialBorder'><div class='vertical-center'><img src='img/fixation2_sml.jpg'</img></div></div>","null","","","","","","","","","",""
"html-keyboard-response","136","372225","0.0-7.0-2.20","cdtest","bdp_wmem","Thu Feb 04 2021 11:33:57 GMT-0500 (Eastern Standard Time)","615996","Match,No Match","","null","","","","ARRAY","","<div class='trialBorder'><div class='vertical-center'><img style='vertical-align:center; align:center' src='img/fixation2_sml.jpg'></div><div class='arrayDiv2'><div class='tl'><img class='introPic' src='trustrating_stim/white_mw003.bmp'><br><font color='green'><strong>Share</strong></font></div><div class='tr'><img class='introPic' src='trustrating_stim/white_mw038.bmp'><br><font color='red'><strong>Keep</strong></font></div></div></div>","null","2","trustrating_stim/white_mw003.bmp,trustrating_stim/white_mw038.bmp","1,0","Match","e","3000","","","",""
"html-keyboard-response","137","376226","0.0-7.0-3.20","cdtest","bdp_wmem","Thu Feb 04 2021 11:33:57 GMT-0500 (Eastern Standard Time)","615996","Match,No Match","","null","","","","DELAY","","<div class='trialBorder'><div class='vertical-center'><img src='img/fixation2_sml.jpg'</img></div></div>","null","","","","","","","","","",""
"html-keyboard-response","138","377720","0.0-7.0-4.20","cdtest","bdp_wmem","Thu Feb 04 2021 11:33:57 GMT-0500 (Eastern Standard Time)","615996","Match,No Match","","1491","","","","TARGET","","<div class='trialBorder'><div class='targDiv'><div class='tc'><img class='introPic' src='trustrating_stim/white_mw003.bmp'><br><font color='green'><strong>Share</strong></font></div></div><div class='respDiv'><div class='respDivL'>Match<br>(e)</div><div class='respDivR'>No Match<br>(i)</div></div></div>","e","2","trustrating_stim/white_mw003.bmp,trustrating_stim/white_mw038.bmp","1,0","Match","e","","trustrating_stim/white_mw033.bmp","red","Keep","1"
"html-keyboard-response","139","378223","0.0-7.0-5.20","cdtest","bdp_wmem","Thu Feb 04 2021 11:33:57 GMT-0500 (Eastern Standard Time)","615996","Match,No Match","","null","","","","FEEDBACK","","<div class='trialBorder'><div class='vertical-center'><img src='img/correct.jpg'></div><div class='respDiv'><div class='respDivL'><font style='color:orange'>Match<br>(e)</font></div><div class='respDivR'>No Match<br>(i)</div></div></div>","null","","","","","","","","","",""
"html-keyboard-response","140","378736","0.0-7.0-1.21","cdtest","bdp_wmem","Thu Feb 04 2021 11:33:57 GMT-0500 (Eastern Standard Time)","615996","Match,No Match","","null","","","","FIX","","<div class='trialBorder'><div class='vertical-center'><img src='img/fixation2_sml.jpg'</img></div></div>","null","","","","","","","","","",""
"html-keyboard-response","141","381739","0.0-7.0-2.21","cdtest","bdp_wmem","Thu Feb 04 2021 11:33:57 GMT-0500 (Eastern Standard Time)","615996","Match,No Match","","null","","","","ARRAY","","<div class='trialBorder'><div class='vertical-center'><img style='vertical-align:center; align:center' src='img/fixation2_sml.jpg'></div><div class='arrayDiv2'><div class='tl'><img class='introPic' src='trustrating_stim/white_mw015.bmp'><br><font color='red'><strong>Keep</strong></font></div><div class='tr'><img class='introPic' src='trustrating_stim/white_mw040.bmp'><br><font color='green'><strong>Share</strong></font></div></div></div>","null","2","trustrating_stim/white_mw015.bmp,trustrating_stim/white_mw040.bmp","0,1","noMatchFace","i","3000","","","",""
"html-keyboard-response","142","385741","0.0-7.0-3.21","cdtest","bdp_wmem","Thu Feb 04 2021 11:33:57 GMT-0500 (Eastern Standard Time)","615996","Match,No Match","","null","","","","DELAY","","<div class='trialBorder'><div class='vertical-center'><img src='img/fixation2_sml.jpg'</img></div></div>","null","","","","","","","","","",""
"html-keyboard-response","143","387225","0.0-7.0-4.21","cdtest","bdp_wmem","Thu Feb 04 2021 11:33:57 GMT-0500 (Eastern Standard Time)","615996","Match,No Match","","1483","","","","TARGET","","<div class='trialBorder'><div class='targDiv'><div class='tc'><img class='introPic' src='trustrating_stim/white_mw033.bmp'><br><font color='green'><strong>Share</strong></font></div></div><div class='respDiv'><div class='respDivL'>Match<br>(e)</div><div class='respDivR'>No Match<br>(i)</div></div></div>","i","2","trustrating_stim/white_mw015.bmp,trustrating_stim/white_mw040.bmp","0,1","noMatchFace","i","","trustrating_stim/white_mw033.bmp","red","Keep","1"
"html-keyboard-response","144","387728","0.0-7.0-5.21","cdtest","bdp_wmem","Thu Feb 04 2021 11:33:57 GMT-0500 (Eastern Standard Time)","615996","Match,No Match","","null","","","","FEEDBACK","","<div class='trialBorder'><div class='vertical-center'><img src='img/correct.jpg'></div><div class='respDiv'><div class='respDivL'>Match<br>(e)</div><div class='respDivR'><font style='color:orange'>No Match<br>(i)</font></div></div></div>","null","","","","","","","","","",""
"html-keyboard-response","145","388230","0.0-7.0-1.22","cdtest","bdp_wmem","Thu Feb 04 2021 11:33:57 GMT-0500 (Eastern Standard Time)","615996","Match,No Match","","null","","","","FIX","","<div class='trialBorder'><div class='vertical-center'><img src='img/fixation2_sml.jpg'</img></div></div>","null","","","","","","","","","",""
"html-keyboard-response","146","391233","0.0-7.0-2.22","cdtest","bdp_wmem","Thu Feb 04 2021 11:33:57 GMT-0500 (Eastern Standard Time)","615996","Match,No Match","","null","","","","ARRAY","","<div class='trialBorder'><div class='vertical-center'><img style='vertical-align:center; align:center' src='img/fixation2_sml.jpg'></div><div class='arrayDiv3'><div class='tl'><img class='introPic' src='trustrating_stim/white_00050_931230_fa_edt.bmp'><br><font color='red'><strong>Keep</strong></font></div><div class='tc'><img class='introPic' src='trustrating_stim/white_mw092.bmp'><br><font color='red'><strong>Keep</strong></font></div><div class='tr'><img class='introPic' src='trustrating_stim/white_00807_941205_fb_edt.bmp'><br><font color='green'><strong>Share</strong></font></div></div></div>","null","3","trustrating_stim/white_00050_931230_fa_edt.bmp,trustrating_stim/white_mw092.bmp,trustrating_stim/white_00807_941205_fb_edt.bmp","0,0,1","Match","e","3000","","","",""
"html-keyboard-response","147","395235","0.0-7.0-3.22","cdtest","bdp_wmem","Thu Feb 04 2021 11:33:57 GMT-0500 (Eastern Standard Time)","615996","Match,No Match","","null","","","","DELAY","","<div class='trialBorder'><div class='vertical-center'><img src='img/fixation2_sml.jpg'</img></div></div>","null","","","","","","","","","",""
"html-keyboard-response","148","396913","0.0-7.0-4.22","cdtest","bdp_wmem","Thu Feb 04 2021 11:33:57 GMT-0500 (Eastern Standard Time)","615996","Match,No Match","","1676","","","","TARGET","","<div class='trialBorder'><div class='targDiv'><div class='tc'><img class='introPic' src='trustrating_stim/white_mw092.bmp'><br><font color='red'><strong>Keep</strong></font></div></div><div class='respDiv'><div class='respDivL'>Match<br>(e)</div><div class='respDivR'>No Match<br>(i)</div></div></div>","e","3","trustrating_stim/white_00050_931230_fa_edt.bmp,trustrating_stim/white_mw092.bmp,trustrating_stim/white_00807_941205_fb_edt.bmp","0,0,1","Match","e","","trustrating_stim/white_mw033.bmp","red","Keep","1"
"html-keyboard-response","149","397423","0.0-7.0-5.22","cdtest","bdp_wmem","Thu Feb 04 2021 11:33:57 GMT-0500 (Eastern Standard Time)","615996","Match,No Match","","null","","","","FEEDBACK","","<div class='trialBorder'><div class='vertical-center'><img src='img/correct.jpg'></div><div class='respDiv'><div class='respDivL'><font style='color:orange'>Match<br>(e)</font></div><div class='respDivR'>No Match<br>(i)</div></div></div>","null","","","","","","","","","",""
"html-keyboard-response","150","397924","0.0-7.0-1.23","cdtest","bdp_wmem","Thu Feb 04 2021 11:33:57 GMT-0500 (Eastern Standard Time)","615996","Match,No Match","","null","","","","FIX","","<div class='trialBorder'><div class='vertical-center'><img src='img/fixation2_sml.jpg'</img></div></div>","null","","","","","","","","","",""
"html-keyboard-response","151","400926","0.0-7.0-2.23","cdtest","bdp_wmem","Thu Feb 04 2021 11:33:57 GMT-0500 (Eastern Standard Time)","615996","Match,No Match","","null","","","","ARRAY","","<div class='trialBorder'><div class='vertical-center'><img style='vertical-align:center; align:center' src='img/fixation2_sml.jpg'></div><div class='arrayDiv2'><div class='tl'><img class='introPic' src='trustrating_stim/white_mw013.bmp'><br><font color='red'><strong>Keep</strong></font></div><div class='tr'><img class='introPic' src='trustrating_stim/white_mw070.bmp'><br><font color='green'><strong>Share</strong></font></div></div></div>","null","2","trustrating_stim/white_mw013.bmp,trustrating_stim/white_mw070.bmp","0,1","Match","e","3000","","","",""
"html-keyboard-response","152","404927","0.0-7.0-3.23","cdtest","bdp_wmem","Thu Feb 04 2021 11:33:57 GMT-0500 (Eastern Standard Time)","615996","Match,No Match","","null","","","","DELAY","","<div class='trialBorder'><div class='vertical-center'><img src='img/fixation2_sml.jpg'</img></div></div>","null","","","","","","","","","",""
"html-keyboard-response","153","406726","0.0-7.0-4.23","cdtest","bdp_wmem","Thu Feb 04 2021 11:33:57 GMT-0500 (Eastern Standard Time)","615996","Match,No Match","","1797","","","","TARGET","","<div class='trialBorder'><div class='targDiv'><div class='tc'><img class='introPic' src='trustrating_stim/white_mw070.bmp'><br><font color='green'><strong>Share</strong></font></div></div><div class='respDiv'><div class='respDivL'>Match<br>(e)</div><div class='respDivR'>No Match<br>(i)</div></div></div>","e","2","trustrating_stim/white_mw013.bmp,trustrating_stim/white_mw070.bmp","0,1","Match","e","","trustrating_stim/white_mw033.bmp","red","Keep","1"
"html-keyboard-response","154","407233","0.0-7.0-5.23","cdtest","bdp_wmem","Thu Feb 04 2021 11:33:57 GMT-0500 (Eastern Standard Time)","615996","Match,No Match","","null","","","","FEEDBACK","","<div class='trialBorder'><div class='vertical-center'><img src='img/correct.jpg'></div><div class='respDiv'><div class='respDivL'><font style='color:orange'>Match<br>(e)</font></div><div class='respDivR'>No Match<br>(i)</div></div></div>","null","","","","","","","","","",""
"html-keyboard-response","155","407735","0.0-7.0-1.24","cdtest","bdp_wmem","Thu Feb 04 2021 11:33:57 GMT-0500 (Eastern Standard Time)","615996","Match,No Match","","null","","","","FIX","","<div class='trialBorder'><div class='vertical-center'><img src='img/fixation2_sml.jpg'</img></div></div>","null","","","","","","","","","",""
"html-keyboard-response","156","410738","0.0-7.0-2.24","cdtest","bdp_wmem","Thu Feb 04 2021 11:33:57 GMT-0500 (Eastern Standard Time)","615996","Match,No Match","","null","","","","ARRAY","","<div class='trialBorder'><div class='vertical-center'><img style='vertical-align:center; align:center' src='img/fixation2_sml.jpg'></div><div class='arrayDiv2'><div class='tl'><img class='introPic' src='trustrating_stim/white_mw070.bmp'><br><font color='red'><strong>Keep</strong></font></div><div class='tr'><img class='introPic' src='trustrating_stim/white_mw092.bmp'><br><font color='green'><strong>Share</strong></font></div></div></div>","null","2","trustrating_stim/white_mw070.bmp,trustrating_stim/white_mw092.bmp","0,1","Match","e","3000","","","",""
"html-keyboard-response","157","414740","0.0-7.0-3.24","cdtest","bdp_wmem","Thu Feb 04 2021 11:33:57 GMT-0500 (Eastern Standard Time)","615996","Match,No Match","","null","","","","DELAY","","<div class='trialBorder'><div class='vertical-center'><img src='img/fixation2_sml.jpg'</img></div></div>","null","","","","","","","","","",""
"html-keyboard-response","158","415908","0.0-7.0-4.24","cdtest","bdp_wmem","Thu Feb 04 2021 11:33:57 GMT-0500 (Eastern Standard Time)","615996","Match,No Match","","1167","","","","TARGET","","<div class='trialBorder'><div class='targDiv'><div class='tc'><img class='introPic' src='trustrating_stim/white_mw070.bmp'><br><font color='red'><strong>Keep</strong></font></div></div><div class='respDiv'><div class='respDivL'>Match<br>(e)</div><div class='respDivR'>No Match<br>(i)</div></div></div>","e","2","trustrating_stim/white_mw070.bmp,trustrating_stim/white_mw092.bmp","0,1","Match","e","","trustrating_stim/white_mw033.bmp","red","Keep","1"
"html-keyboard-response","159","416410","0.0-7.0-5.24","cdtest","bdp_wmem","Thu Feb 04 2021 11:33:57 GMT-0500 (Eastern Standard Time)","615996","Match,No Match","","null","","","","FEEDBACK","","<div class='trialBorder'><div class='vertical-center'><img src='img/correct.jpg'></div><div class='respDiv'><div class='respDivL'><font style='color:orange'>Match<br>(e)</font></div><div class='respDivR'>No Match<br>(i)</div></div></div>","null","","","","","","","","","",""
"html-keyboard-response","160","416913","0.0-7.0-1.25","cdtest","bdp_wmem","Thu Feb 04 2021 11:33:57 GMT-0500 (Eastern Standard Time)","615996","Match,No Match","","null","","","","FIX","","<div class='trialBorder'><div class='vertical-center'><img src='img/fixation2_sml.jpg'</img></div></div>","null","","","","","","","","","",""
"html-keyboard-response","161","418415","0.0-7.0-2.25","cdtest","bdp_wmem","Thu Feb 04 2021 11:33:57 GMT-0500 (Eastern Standard Time)","615996","Match,No Match","","null","","","","ARRAY","","<div class='trialBorder'><div class='vertical-center'><img style='vertical-align:center; align:center' src='img/fixation2_sml.jpg'></div><div class='arrayDiv1'><div class='tc'><img class='introPic' src='trustrating_stim/white_mw038.bmp'><br><font color='green'><strong>Share</strong></font></div></div></div>","null","1","trustrating_stim/white_mw038.bmp","1","Match","e","1500","","","",""
"html-keyboard-response","162","422417","0.0-7.0-3.25","cdtest","bdp_wmem","Thu Feb 04 2021 11:33:57 GMT-0500 (Eastern Standard Time)","615996","Match,No Match","","null","","","","DELAY","","<div class='trialBorder'><div class='vertical-center'><img src='img/fixation2_sml.jpg'</img></div></div>","null","","","","","","","","","",""
"html-keyboard-response","163","423373","0.0-7.0-4.25","cdtest","bdp_wmem","Thu Feb 04 2021 11:33:57 GMT-0500 (Eastern Standard Time)","615996","Match,No Match","","955","","","","TARGET","","<div class='trialBorder'><div class='targDiv'><div class='tc'><img class='introPic' src='trustrating_stim/white_mw038.bmp'><br><font color='green'><strong>Share</strong></font></div></div><div class='respDiv'><div class='respDivL'>Match<br>(e)</div><div class='respDivR'>No Match<br>(i)</div></div></div>","e","1","trustrating_stim/white_mw038.bmp","1","Match","e","","trustrating_stim/white_mw033.bmp","red","Keep","1"
"html-keyboard-response","164","423876","0.0-7.0-5.25","cdtest","bdp_wmem","Thu Feb 04 2021 11:33:57 GMT-0500 (Eastern Standard Time)","615996","Match,No Match","","null","","","","FEEDBACK","","<div class='trialBorder'><div class='vertical-center'><img src='img/correct.jpg'></div><div class='respDiv'><div class='respDivL'><font style='color:orange'>Match<br>(e)</font></div><div class='respDivR'>No Match<br>(i)</div></div></div>","null","","","","","","","","","",""
"html-keyboard-response","165","424378","0.0-7.0-1.26","cdtest","bdp_wmem","Thu Feb 04 2021 11:33:57 GMT-0500 (Eastern Standard Time)","615996","Match,No Match","","null","","","","FIX","","<div class='trialBorder'><div class='vertical-center'><img src='img/fixation2_sml.jpg'</img></div></div>","null","","","","","","","","","",""
"html-keyboard-response","166","427382","0.0-7.0-2.26","cdtest","bdp_wmem","Thu Feb 04 2021 11:33:57 GMT-0500 (Eastern Standard Time)","615996","Match,No Match","","null","","","","ARRAY","","<div class='trialBorder'><div class='vertical-center'><img style='vertical-align:center; align:center' src='img/fixation2_sml.jpg'></div><div class='arrayDiv2'><div class='tl'><img class='introPic' src='trustrating_stim/white_00050_931230_fa_edt.bmp'><br><font color='green'><strong>Share</strong></font></div><div class='tr'><img class='introPic' src='trustrating_stim/white_mw003.bmp'><br><font color='red'><strong>Keep</strong></font></div></div></div>","null","2","trustrating_stim/white_00050_931230_fa_edt.bmp,trustrating_stim/white_mw003.bmp","1,0","Match","e","3000","","","",""
"html-keyboard-response","167","431384","0.0-7.0-3.26","cdtest","bdp_wmem","Thu Feb 04 2021 11:33:57 GMT-0500 (Eastern Standard Time)","615996","Match,No Match","","null","","","","DELAY","","<div class='trialBorder'><div class='vertical-center'><img src='img/fixation2_sml.jpg'</img></div></div>","null","","","","","","","","","",""
"html-keyboard-response","168","433388","0.0-7.0-4.26","cdtest","bdp_wmem","Thu Feb 04 2021 11:33:57 GMT-0500 (Eastern Standard Time)","615996","Match,No Match","","2003","","","","TARGET","","<div class='trialBorder'><div class='targDiv'><div class='tc'><img class='introPic' src='trustrating_stim/white_mw003.bmp'><br><font color='red'><strong>Keep</strong></font></div></div><div class='respDiv'><div class='respDivL'>Match<br>(e)</div><div class='respDivR'>No Match<br>(i)</div></div></div>","e","2","trustrating_stim/white_00050_931230_fa_edt.bmp,trustrating_stim/white_mw003.bmp","1,0","Match","e","","trustrating_stim/white_mw033.bmp","red","Keep","1"
"html-keyboard-response","169","433906","0.0-7.0-5.26","cdtest","bdp_wmem","Thu Feb 04 2021 11:33:57 GMT-0500 (Eastern Standard Time)","615996","Match,No Match","","null","","","","FEEDBACK","","<div class='trialBorder'><div class='vertical-center'><img src='img/correct.jpg'></div><div class='respDiv'><div class='respDivL'><font style='color:orange'>Match<br>(e)</font></div><div class='respDivR'>No Match<br>(i)</div></div></div>","null","","","","","","","","","",""
"html-keyboard-response","170","434408","0.0-7.0-1.27","cdtest","bdp_wmem","Thu Feb 04 2021 11:33:57 GMT-0500 (Eastern Standard Time)","615996","Match,No Match","","null","","","","FIX","","<div class='trialBorder'><div class='vertical-center'><img src='img/fixation2_sml.jpg'</img></div></div>","null","","","","","","","","","",""
"html-keyboard-response","171","435910","0.0-7.0-2.27","cdtest","bdp_wmem","Thu Feb 04 2021 11:33:57 GMT-0500 (Eastern Standard Time)","615996","Match,No Match","","null","","","","ARRAY","","<div class='trialBorder'><div class='vertical-center'><img style='vertical-align:center; align:center' src='img/fixation2_sml.jpg'></div><div class='arrayDiv1'><div class='tc'><img class='introPic' src='trustrating_stim/white_00050_931230_fa_edt.bmp'><br><font color='green'><strong>Share</strong></font></div></div></div>","null","1","trustrating_stim/white_00050_931230_fa_edt.bmp","1","noMatchOutcome","i","1500","","","",""
"html-keyboard-response","172","439912","0.0-7.0-3.27","cdtest","bdp_wmem","Thu Feb 04 2021 11:33:57 GMT-0500 (Eastern Standard Time)","615996","Match,No Match","","null","","","","DELAY","","<div class='trialBorder'><div class='vertical-center'><img src='img/fixation2_sml.jpg'</img></div></div>","null","","","","","","","","","",""
"html-keyboard-response","173","442952","0.0-7.0-4.27","cdtest","bdp_wmem","Thu Feb 04 2021 11:33:57 GMT-0500 (Eastern Standard Time)","615996","Match,No Match","","3039","","","","TARGET","","<div class='trialBorder'><div class='targDiv'><div class='tc'><img class='introPic' src='trustrating_stim/white_00050_931230_fa_edt.bmp'><br><font color='red'><strong>Keep</strong></font></div></div><div class='respDiv'><div class='respDivL'>Match<br>(e)</div><div class='respDivR'>No Match<br>(i)</div></div></div>","i","1","trustrating_stim/white_00050_931230_fa_edt.bmp","1","noMatchOutcome","i","","trustrating_stim/white_mw033.bmp","red","Keep","1"
"html-keyboard-response","174","443455","0.0-7.0-5.27","cdtest","bdp_wmem","Thu Feb 04 2021 11:33:57 GMT-0500 (Eastern Standard Time)","615996","Match,No Match","","null","","","","FEEDBACK","","<div class='trialBorder'><div class='vertical-center'><img src='img/correct.jpg'></div><div class='respDiv'><div class='respDivL'>Match<br>(e)</div><div class='respDivR'><font style='color:orange'>No Match<br>(i)</font></div></div></div>","null","","","","","","","","","",""
"html-keyboard-response","175","443956","0.0-7.0-1.28","cdtest","bdp_wmem","Thu Feb 04 2021 11:33:57 GMT-0500 (Eastern Standard Time)","615996","Match,No Match","","null","","","","FIX","","<div class='trialBorder'><div class='vertical-center'><img src='img/fixation2_sml.jpg'</img></div></div>","null","","","","","","","","","",""
"html-keyboard-response","176","445459","0.0-7.0-2.28","cdtest","bdp_wmem","Thu Feb 04 2021 11:33:57 GMT-0500 (Eastern Standard Time)","615996","Match,No Match","","null","","","","ARRAY","","<div class='trialBorder'><div class='vertical-center'><img style='vertical-align:center; align:center' src='img/fixation2_sml.jpg'></div><div class='arrayDiv1'><div class='tc'><img class='introPic' src='trustrating_stim/white_mw015.bmp'><br><font color='red'><strong>Keep</strong></font></div></div></div>","null","1","trustrating_stim/white_mw015.bmp","0","Match","e","1500","","","",""
"html-keyboard-response","177","449461","0.0-7.0-3.28","cdtest","bdp_wmem","Thu Feb 04 2021 11:33:57 GMT-0500 (Eastern Standard Time)","615996","Match,No Match","","null","","","","DELAY","","<div class='trialBorder'><div class='vertical-center'><img src='img/fixation2_sml.jpg'</img></div></div>","null","","","","","","","","","",""
"html-keyboard-response","178","450982","0.0-7.0-4.28","cdtest","bdp_wmem","Thu Feb 04 2021 11:33:57 GMT-0500 (Eastern Standard Time)","615996","Match,No Match","","1520","","","","TARGET","","<div class='trialBorder'><div class='targDiv'><div class='tc'><img class='introPic' src='trustrating_stim/white_mw015.bmp'><br><font color='red'><strong>Keep</strong></font></div></div><div class='respDiv'><div class='respDivL'>Match<br>(e)</div><div class='respDivR'>No Match<br>(i)</div></div></div>","e","1","trustrating_stim/white_mw015.bmp","0","Match","e","","trustrating_stim/white_mw033.bmp","red","Keep","1"
"html-keyboard-response","179","451486","0.0-7.0-5.28","cdtest","bdp_wmem","Thu Feb 04 2021 11:33:57 GMT-0500 (Eastern Standard Time)","615996","Match,No Match","","null","","","","FEEDBACK","","<div class='trialBorder'><div class='vertical-center'><img src='img/correct.jpg'></div><div class='respDiv'><div class='respDivL'><font style='color:orange'>Match<br>(e)</font></div><div class='respDivR'>No Match<br>(i)</div></div></div>","null","","","","","","","","","",""
"html-keyboard-response","180","451987","0.0-7.0-1.29","cdtest","bdp_wmem","Thu Feb 04 2021 11:33:57 GMT-0500 (Eastern Standard Time)","615996","Match,No Match","","null","","","","FIX","","<div class='trialBorder'><div class='vertical-center'><img src='img/fixation2_sml.jpg'</img></div></div>","null","","","","","","","","","",""
"html-keyboard-response","181","453489","0.0-7.0-2.29","cdtest","bdp_wmem","Thu Feb 04 2021 11:33:57 GMT-0500 (Eastern Standard Time)","615996","Match,No Match","","null","","","","ARRAY","","<div class='trialBorder'><div class='vertical-center'><img style='vertical-align:center; align:center' src='img/fixation2_sml.jpg'></div><div class='arrayDiv1'><div class='tc'><img class='introPic' src='trustrating_stim/white_mw070.bmp'><br><font color='red'><strong>Keep</strong></font></div></div></div>","null","1","trustrating_stim/white_mw070.bmp","0","noMatchFace","i","1500","","","",""
"html-keyboard-response","182","457491","0.0-7.0-3.29","cdtest","bdp_wmem","Thu Feb 04 2021 11:33:57 GMT-0500 (Eastern Standard Time)","615996","Match,No Match","","null","","","","DELAY","","<div class='trialBorder'><div class='vertical-center'><img src='img/fixation2_sml.jpg'</img></div></div>","null","","","","","","","","","",""
"html-keyboard-response","183","458709","0.0-7.0-4.29","cdtest","bdp_wmem","Thu Feb 04 2021 11:33:57 GMT-0500 (Eastern Standard Time)","615996","Match,No Match","","1217","","","","TARGET","","<div class='trialBorder'><div class='targDiv'><div class='tc'><img class='introPic' src='trustrating_stim/white_mw033.bmp'><br><font color='red'><strong>Keep</strong></font></div></div><div class='respDiv'><div class='respDivL'>Match<br>(e)</div><div class='respDivR'>No Match<br>(i)</div></div></div>","i","1","trustrating_stim/white_mw070.bmp","0","noMatchFace","i","","trustrating_stim/white_mw033.bmp","red","Keep","1"
"html-keyboard-response","184","459212","0.0-7.0-5.29","cdtest","bdp_wmem","Thu Feb 04 2021 11:33:57 GMT-0500 (Eastern Standard Time)","615996","Match,No Match","","null","","","","FEEDBACK","","<div class='trialBorder'><div class='vertical-center'><img src='img/correct.jpg'></div><div class='respDiv'><div class='respDivL'>Match<br>(e)</div><div class='respDivR'><font style='color:orange'>No Match<br>(i)</font></div></div></div>","null","","","","","","","","","",""
"html-keyboard-response","185","459718","0.0-7.0-1.30","cdtest","bdp_wmem","Thu Feb 04 2021 11:33:57 GMT-0500 (Eastern Standard Time)","615996","Match,No Match","","null","","","","FIX","","<div class='trialBorder'><div class='vertical-center'><img src='img/fixation2_sml.jpg'</img></div></div>","null","","","","","","","","","",""
"html-keyboard-response","186","462720","0.0-7.0-2.30","cdtest","bdp_wmem","Thu Feb 04 2021 11:33:57 GMT-0500 (Eastern Standard Time)","615996","Match,No Match","","null","","","","ARRAY","","<div class='trialBorder'><div class='vertical-center'><img style='vertical-align:center; align:center' src='img/fixation2_sml.jpg'></div><div class='arrayDiv3'><div class='tl'><img class='introPic' src='trustrating_stim/white_mw003.bmp'><br><font color='red'><strong>Keep</strong></font></div><div class='tc'><img class='introPic' src='trustrating_stim/white_mw013.bmp'><br><font color='green'><strong>Share</strong></font></div><div class='tr'><img class='introPic' src='trustrating_stim/white_mw040.bmp'><br><font color='red'><strong>Keep</strong></font></div></div></div>","null","3","trustrating_stim/white_mw003.bmp,trustrating_stim/white_mw013.bmp,trustrating_stim/white_mw040.bmp","0,1,0","Match","e","3000","","","",""
"html-keyboard-response","187","466722","0.0-7.0-3.30","cdtest","bdp_wmem","Thu Feb 04 2021 11:33:57 GMT-0500 (Eastern Standard Time)","615996","Match,No Match","","null","","","","DELAY","","<div class='trialBorder'><div class='vertical-center'><img src='img/fixation2_sml.jpg'</img></div></div>","null","","","","","","","","","",""
"html-keyboard-response","188","468255","0.0-7.0-4.30","cdtest","bdp_wmem","Thu Feb 04 2021 11:33:57 GMT-0500 (Eastern Standard Time)","615996","Match,No Match","","1530","","","","TARGET","","<div class='trialBorder'><div class='targDiv'><div class='tc'><img class='introPic' src='trustrating_stim/white_mw013.bmp'><br><font color='green'><strong>Share</strong></font></div></div><div class='respDiv'><div class='respDivL'>Match<br>(e)</div><div class='respDivR'>No Match<br>(i)</div></div></div>","e","3","trustrating_stim/white_mw003.bmp,trustrating_stim/white_mw013.bmp,trustrating_stim/white_mw040.bmp","0,1,0","Match","e","","trustrating_stim/white_mw033.bmp","red","Keep","1"
"html-keyboard-response","189","468758","0.0-7.0-5.30","cdtest","bdp_wmem","Thu Feb 04 2021 11:33:57 GMT-0500 (Eastern Standard Time)","615996","Match,No Match","","null","","","","FEEDBACK","","<div class='trialBorder'><div class='vertical-center'><img src='img/correct.jpg'></div><div class='respDiv'><div class='respDivL'><font style='color:orange'>Match<br>(e)</font></div><div class='respDivR'>No Match<br>(i)</div></div></div>","null","","","","","","","","","",""
"html-keyboard-response","190","469260","0.0-7.0-1.31","cdtest","bdp_wmem","Thu Feb 04 2021 11:33:57 GMT-0500 (Eastern Standard Time)","615996","Match,No Match","","null","","","","FIX","","<div class='trialBorder'><div class='vertical-center'><img src='img/fixation2_sml.jpg'</img></div></div>","null","","","","","","","","","",""
"html-keyboard-response","191","472263","0.0-7.0-2.31","cdtest","bdp_wmem","Thu Feb 04 2021 11:33:57 GMT-0500 (Eastern Standard Time)","615996","Match,No Match","","null","","","","ARRAY","","<div class='trialBorder'><div class='vertical-center'><img style='vertical-align:center; align:center' src='img/fixation2_sml.jpg'></div><div class='arrayDiv2'><div class='tl'><img class='introPic' src='trustrating_stim/white_mw003.bmp'><br><font color='green'><strong>Share</strong></font></div><div class='tr'><img class='introPic' src='trustrating_stim/white_00050_931230_fa_edt.bmp'><br><font color='red'><strong>Keep</strong></font></div></div></div>","null","2","trustrating_stim/white_mw003.bmp,trustrating_stim/white_00050_931230_fa_edt.bmp","1,0","Match","e","3000","","","",""
"html-keyboard-response","192","476265","0.0-7.0-3.31","cdtest","bdp_wmem","Thu Feb 04 2021 11:33:57 GMT-0500 (Eastern Standard Time)","615996","Match,No Match","","null","","","","DELAY","","<div class='trialBorder'><div class='vertical-center'><img src='img/fixation2_sml.jpg'</img></div></div>","null","","","","","","","","","",""
"html-keyboard-response","193","477478","0.0-7.0-4.31","cdtest","bdp_wmem","Thu Feb 04 2021 11:33:57 GMT-0500 (Eastern Standard Time)","615996","Match,No Match","","1212","","","","TARGET","","<div class='trialBorder'><div class='targDiv'><div class='tc'><img class='introPic' src='trustrating_stim/white_00050_931230_fa_edt.bmp'><br><font color='red'><strong>Keep</strong></font></div></div><div class='respDiv'><div class='respDivL'>Match<br>(e)</div><div class='respDivR'>No Match<br>(i)</div></div></div>","e","2","trustrating_stim/white_mw003.bmp,trustrating_stim/white_00050_931230_fa_edt.bmp","1,0","Match","e","","trustrating_stim/white_mw033.bmp","red","Keep","1"
"html-keyboard-response","194","477985","0.0-7.0-5.31","cdtest","bdp_wmem","Thu Feb 04 2021 11:33:57 GMT-0500 (Eastern Standard Time)","615996","Match,No Match","","null","","","","FEEDBACK","","<div class='trialBorder'><div class='vertical-center'><img src='img/correct.jpg'></div><div class='respDiv'><div class='respDivL'><font style='color:orange'>Match<br>(e)</font></div><div class='respDivR'>No Match<br>(i)</div></div></div>","null","","","","","","","","","",""
"html-keyboard-response","195","478487","0.0-7.0-1.32","cdtest","bdp_wmem","Thu Feb 04 2021 11:33:57 GMT-0500 (Eastern Standard Time)","615996","Match,No Match","","null","","","","FIX","","<div class='trialBorder'><div class='vertical-center'><img src='img/fixation2_sml.jpg'</img></div></div>","null","","","","","","","","","",""
