"trial_type","trial_index","time_elapsed","internal_node_id","subject_id","task","startTime","totalTime","labels","view_history","rt","event","trial","time","trialtype","success","stimulus","key_press","arraySize","arrayFaces","arrayOutcomes","matchType","corrResp","trial_duration","targFace","targCol","targOutcome","corr"
"pavlovia","0","6","0.0-0.0","aytest","bdp_wmem","Mon Feb 08 2021 08:29:06 GMT-0500 (Eastern Standard Time)","589966","Match,No Match","","","","","","","","","","","","","","","","","","",""
"instructions","1","2829","0.0-1.0","aytest","bdp_wmem","Mon Feb 08 2021 08:29:06 GMT-0500 (Eastern Standard Time)","589966","Match,No Match","[{""page_index"":0,""viewing_time"":2823}]","2823","","","","","","","","","","","","","","","","",""
"","","","","aytest","bdp_wmem","Mon Feb 08 2021 08:29:06 GMT-0500 (Eastern Standard Time)","589966","Match,No Match","","","fullscreenenter","2","6201","fullscreenenter","","","","","","","","","","","","",""
"fullscreen","2","7165","0.0-2.0","aytest","bdp_wmem","Mon Feb 08 2021 08:29:06 GMT-0500 (Eastern Standard Time)","589966","Match,No Match","","","","","","","true","","","","","","","","","","","",""
"instructions","3","66072","0.0-4.0","aytest","bdp_wmem","Mon Feb 08 2021 08:29:06 GMT-0500 (Eastern Standard Time)","589966","Match,No Match","[{""page_index"":0,""viewing_time"":22262},{""page_index"":1,""viewing_time"":15745},{""page_index"":2,""viewing_time"":16551},{""page_index"":3,""viewing_time"":4287},{""page_index"":4,""viewing_time"":60}]","58905","","","","","","","","","","","","","","","","",""
"html-keyboard-response","4","66578","0.0-5.0-1.0","aytest","bdp_wmem","Mon Feb 08 2021 08:29:06 GMT-0500 (Eastern Standard Time)","589966","Match,No Match","","null","","","","FIX","","<div class='trialBorder'><div class='vertical-center'><img src='img/fixation2_sml.jpg'</img></div></div>","null","","","","","","","","","",""
"html-keyboard-response","5","68083","0.0-5.0-2.0","aytest","bdp_wmem","Mon Feb 08 2021 08:29:06 GMT-0500 (Eastern Standard Time)","589966","Match,No Match","","null","","","","ARRAY","","<div class='trialBorder'><div class='vertical-center'><img style='vertical-align:center; align:center' src='img/fixation2_sml.jpg'></div><div class='arrayDiv1'><div class='tc'><img class='introPic' src='trustrating_stim/white_00050_931230_fa_edt.bmp'><br><font color='green'><strong>Share</strong></font></div></div></div>","null","1","trustrating_stim/white_00050_931230_fa_edt.bmp","1","Match","e","1500","","","",""
"html-keyboard-response","6","72085","0.0-5.0-3.0","aytest","bdp_wmem","Mon Feb 08 2021 08:29:06 GMT-0500 (Eastern Standard Time)","589966","Match,No Match","","null","","","","DELAY","","<div class='trialBorder'><div class='vertical-center'><img src='img/fixation2_sml.jpg'</img></div></div>","null","","","","","","","","","",""
"html-keyboard-response","7","73120","0.0-5.0-4.0","aytest","bdp_wmem","Mon Feb 08 2021 08:29:06 GMT-0500 (Eastern Standard Time)","589966","Match,No Match","","1032","","","","TARGET","","<div class='trialBorder'><div class='targDiv'><div class='tc'><img class='introPic' src='trustrating_stim/white_00050_931230_fa_edt.bmp'><br><font color='green'><strong>Share</strong></font></div></div><div class='respDiv'><div class='respDivL'>Match<br>(e)</div><div class='respDivR'>No Match<br>(i)</div></div></div>","e","1","trustrating_stim/white_00050_931230_fa_edt.bmp","1","Match","e","","trustrating_stim/white_00050_931230_fa_edt.bmp","green","Share","1"
"html-keyboard-response","8","73629","0.0-5.0-5.0","aytest","bdp_wmem","Mon Feb 08 2021 08:29:06 GMT-0500 (Eastern Standard Time)","589966","Match,No Match","","null","","","","FEEDBACK","","<div class='trialBorder'><div class='vertical-center'><img src='img/correct.jpg'></div><div class='respDiv'><div class='respDivL'><font style='color:orange'>Match<br>(e)</font></div><div class='respDivR'>No Match<br>(i)</div></div></div>","null","","","","","","","","","",""
"html-keyboard-response","9","74136","0.0-5.0-1.1","aytest","bdp_wmem","Mon Feb 08 2021 08:29:06 GMT-0500 (Eastern Standard Time)","589966","Match,No Match","","null","","","","FIX","","<div class='trialBorder'><div class='vertical-center'><img src='img/fixation2_sml.jpg'</img></div></div>","null","","","","","","","","","",""
"html-keyboard-response","10","78640","0.0-5.0-2.1","aytest","bdp_wmem","Mon Feb 08 2021 08:29:06 GMT-0500 (Eastern Standard Time)","589966","Match,No Match","","null","","","","ARRAY","","<div class='trialBorder'><div class='vertical-center'><img style='vertical-align:center; align:center' src='img/fixation2_sml.jpg'></div><div class='arrayDiv3'><div class='tl'><img class='introPic' src='trustrating_stim/white_mw070.bmp'><br><font color='green'><strong>Share</strong></font></div><div class='tc'><img class='introPic' src='trustrating_stim/white_mw038.bmp'><br><font color='red'><strong>Keep</strong></font></div><div class='tr'><img class='introPic' src='trustrating_stim/white_mw003.bmp'><br><font color='green'><strong>Share</strong></font></div></div></div>","null","3","trustrating_stim/white_mw070.bmp,trustrating_stim/white_mw038.bmp,trustrating_stim/white_mw003.bmp","1,0,1","Match","e","4500","","","",""
"html-keyboard-response","11","82641","0.0-5.0-3.1","aytest","bdp_wmem","Mon Feb 08 2021 08:29:06 GMT-0500 (Eastern Standard Time)","589966","Match,No Match","","null","","","","DELAY","","<div class='trialBorder'><div class='vertical-center'><img src='img/fixation2_sml.jpg'</img></div></div>","null","","","","","","","","","",""
"html-keyboard-response","12","84216","0.0-5.0-4.1","aytest","bdp_wmem","Mon Feb 08 2021 08:29:06 GMT-0500 (Eastern Standard Time)","589966","Match,No Match","","1573","","","","TARGET","","<div class='trialBorder'><div class='targDiv'><div class='tc'><img class='introPic' src='trustrating_stim/white_mw038.bmp'><br><font color='red'><strong>Keep</strong></font></div></div><div class='respDiv'><div class='respDivL'>Match<br>(e)</div><div class='respDivR'>No Match<br>(i)</div></div></div>","e","3","trustrating_stim/white_mw070.bmp,trustrating_stim/white_mw038.bmp,trustrating_stim/white_mw003.bmp","1,0,1","Match","e","","trustrating_stim/white_mw038.bmp","red","Keep","1"
"html-keyboard-response","13","84730","0.0-5.0-5.1","aytest","bdp_wmem","Mon Feb 08 2021 08:29:06 GMT-0500 (Eastern Standard Time)","589966","Match,No Match","","null","","","","FEEDBACK","","<div class='trialBorder'><div class='vertical-center'><img src='img/correct.jpg'></div><div class='respDiv'><div class='respDivL'><font style='color:orange'>Match<br>(e)</font></div><div class='respDivR'>No Match<br>(i)</div></div></div>","null","","","","","","","","","",""
"html-keyboard-response","14","85240","0.0-5.0-1.2","aytest","bdp_wmem","Mon Feb 08 2021 08:29:06 GMT-0500 (Eastern Standard Time)","589966","Match,No Match","","null","","","","FIX","","<div class='trialBorder'><div class='vertical-center'><img src='img/fixation2_sml.jpg'</img></div></div>","null","","","","","","","","","",""
"html-keyboard-response","15","88243","0.0-5.0-2.2","aytest","bdp_wmem","Mon Feb 08 2021 08:29:06 GMT-0500 (Eastern Standard Time)","589966","Match,No Match","","null","","","","ARRAY","","<div class='trialBorder'><div class='vertical-center'><img style='vertical-align:center; align:center' src='img/fixation2_sml.jpg'></div><div class='arrayDiv2'><div class='tl'><img class='introPic' src='trustrating_stim/white_mw092.bmp'><br><font color='green'><strong>Share</strong></font></div><div class='tr'><img class='introPic' src='trustrating_stim/white_mw012.bmp'><br><font color='red'><strong>Keep</strong></font></div></div></div>","null","2","trustrating_stim/white_mw092.bmp,trustrating_stim/white_mw012.bmp","1,0","noMatchOutcome","i","3000","","","",""
"html-keyboard-response","16","92249","0.0-5.0-3.2","aytest","bdp_wmem","Mon Feb 08 2021 08:29:06 GMT-0500 (Eastern Standard Time)","589966","Match,No Match","","null","","","","DELAY","","<div class='trialBorder'><div class='vertical-center'><img src='img/fixation2_sml.jpg'</img></div></div>","null","","","","","","","","","",""
"html-keyboard-response","17","94101","0.0-5.0-4.2","aytest","bdp_wmem","Mon Feb 08 2021 08:29:06 GMT-0500 (Eastern Standard Time)","589966","Match,No Match","","1849","","","","TARGET","","<div class='trialBorder'><div class='targDiv'><div class='tc'><img class='introPic' src='trustrating_stim/white_mw012.bmp'><br><font color='green'><strong>Share</strong></font></div></div><div class='respDiv'><div class='respDivL'>Match<br>(e)</div><div class='respDivR'>No Match<br>(i)</div></div></div>","i","2","trustrating_stim/white_mw092.bmp,trustrating_stim/white_mw012.bmp","1,0","noMatchOutcome","i","","trustrating_stim/white_mw012.bmp","green","Share","1"
"html-keyboard-response","18","94608","0.0-5.0-5.2","aytest","bdp_wmem","Mon Feb 08 2021 08:29:06 GMT-0500 (Eastern Standard Time)","589966","Match,No Match","","null","","","","FEEDBACK","","<div class='trialBorder'><div class='vertical-center'><img src='img/correct.jpg'></div><div class='respDiv'><div class='respDivL'>Match<br>(e)</div><div class='respDivR'><font style='color:orange'>No Match<br>(i)</font></div></div></div>","null","","","","","","","","","",""
"html-keyboard-response","19","95118","0.0-5.0-1.3","aytest","bdp_wmem","Mon Feb 08 2021 08:29:06 GMT-0500 (Eastern Standard Time)","589966","Match,No Match","","null","","","","FIX","","<div class='trialBorder'><div class='vertical-center'><img src='img/fixation2_sml.jpg'</img></div></div>","null","","","","","","","","","",""
"html-keyboard-response","20","96622","0.0-5.0-2.3","aytest","bdp_wmem","Mon Feb 08 2021 08:29:06 GMT-0500 (Eastern Standard Time)","589966","Match,No Match","","null","","","","ARRAY","","<div class='trialBorder'><div class='vertical-center'><img style='vertical-align:center; align:center' src='img/fixation2_sml.jpg'></div><div class='arrayDiv1'><div class='tc'><img class='introPic' src='trustrating_stim/white_mw012.bmp'><br><font color='red'><strong>Keep</strong></font></div></div></div>","null","1","trustrating_stim/white_mw012.bmp","0","noMatchFace","i","1500","","","",""
"html-keyboard-response","21","100624","0.0-5.0-3.3","aytest","bdp_wmem","Mon Feb 08 2021 08:29:06 GMT-0500 (Eastern Standard Time)","589966","Match,No Match","","null","","","","DELAY","","<div class='trialBorder'><div class='vertical-center'><img src='img/fixation2_sml.jpg'</img></div></div>","null","","","","","","","","","",""
"html-keyboard-response","22","102127","0.0-5.0-4.3","aytest","bdp_wmem","Mon Feb 08 2021 08:29:06 GMT-0500 (Eastern Standard Time)","589966","Match,No Match","","1501","","","","TARGET","","<div class='trialBorder'><div class='targDiv'><div class='tc'><img class='introPic' src='trustrating_stim/white_mw015.bmp'><br><font color='red'><strong>Keep</strong></font></div></div><div class='respDiv'><div class='respDivL'>Match<br>(e)</div><div class='respDivR'>No Match<br>(i)</div></div></div>","i","1","trustrating_stim/white_mw012.bmp","0","noMatchFace","i","","trustrating_stim/white_mw015.bmp","red","Keep","1"
"html-keyboard-response","23","102630","0.0-5.0-5.3","aytest","bdp_wmem","Mon Feb 08 2021 08:29:06 GMT-0500 (Eastern Standard Time)","589966","Match,No Match","","null","","","","FEEDBACK","","<div class='trialBorder'><div class='vertical-center'><img src='img/correct.jpg'></div><div class='respDiv'><div class='respDivL'>Match<br>(e)</div><div class='respDivR'><font style='color:orange'>No Match<br>(i)</font></div></div></div>","null","","","","","","","","","",""
"html-keyboard-response","24","103135","0.0-5.0-1.4","aytest","bdp_wmem","Mon Feb 08 2021 08:29:06 GMT-0500 (Eastern Standard Time)","589966","Match,No Match","","null","","","","FIX","","<div class='trialBorder'><div class='vertical-center'><img src='img/fixation2_sml.jpg'</img></div></div>","null","","","","","","","","","",""
"html-keyboard-response","25","106138","0.0-5.0-2.4","aytest","bdp_wmem","Mon Feb 08 2021 08:29:06 GMT-0500 (Eastern Standard Time)","589966","Match,No Match","","null","","","","ARRAY","","<div class='trialBorder'><div class='vertical-center'><img style='vertical-align:center; align:center' src='img/fixation2_sml.jpg'></div><div class='arrayDiv2'><div class='tl'><img class='introPic' src='trustrating_stim/white_mw038.bmp'><br><font color='green'><strong>Share</strong></font></div><div class='tr'><img class='introPic' src='trustrating_stim/white_mw013.bmp'><br><font color='red'><strong>Keep</strong></font></div></div></div>","null","2","trustrating_stim/white_mw038.bmp,trustrating_stim/white_mw013.bmp","1,0","Match","e","3000","","","",""
"html-keyboard-response","26","110145","0.0-5.0-3.4","aytest","bdp_wmem","Mon Feb 08 2021 08:29:06 GMT-0500 (Eastern Standard Time)","589966","Match,No Match","","null","","","","DELAY","","<div class='trialBorder'><div class='vertical-center'><img src='img/fixation2_sml.jpg'</img></div></div>","null","","","","","","","","","",""
"html-keyboard-response","27","111571","0.0-5.0-4.4","aytest","bdp_wmem","Mon Feb 08 2021 08:29:06 GMT-0500 (Eastern Standard Time)","589966","Match,No Match","","1425","","","","TARGET","","<div class='trialBorder'><div class='targDiv'><div class='tc'><img class='introPic' src='trustrating_stim/white_mw038.bmp'><br><font color='green'><strong>Share</strong></font></div></div><div class='respDiv'><div class='respDivL'>Match<br>(e)</div><div class='respDivR'>No Match<br>(i)</div></div></div>","e","2","trustrating_stim/white_mw038.bmp,trustrating_stim/white_mw013.bmp","1,0","Match","e","","trustrating_stim/white_mw038.bmp","green","Share","1"
"html-keyboard-response","28","112080","0.0-5.0-5.4","aytest","bdp_wmem","Mon Feb 08 2021 08:29:06 GMT-0500 (Eastern Standard Time)","589966","Match,No Match","","null","","","","FEEDBACK","","<div class='trialBorder'><div class='vertical-center'><img src='img/correct.jpg'></div><div class='respDiv'><div class='respDivL'><font style='color:orange'>Match<br>(e)</font></div><div class='respDivR'>No Match<br>(i)</div></div></div>","null","","","","","","","","","",""
"html-keyboard-response","29","112583","0.0-5.0-1.5","aytest","bdp_wmem","Mon Feb 08 2021 08:29:06 GMT-0500 (Eastern Standard Time)","589966","Match,No Match","","null","","","","FIX","","<div class='trialBorder'><div class='vertical-center'><img src='img/fixation2_sml.jpg'</img></div></div>","null","","","","","","","","","",""
"html-keyboard-response","30","117086","0.0-5.0-2.5","aytest","bdp_wmem","Mon Feb 08 2021 08:29:06 GMT-0500 (Eastern Standard Time)","589966","Match,No Match","","null","","","","ARRAY","","<div class='trialBorder'><div class='vertical-center'><img style='vertical-align:center; align:center' src='img/fixation2_sml.jpg'></div><div class='arrayDiv3'><div class='tl'><img class='introPic' src='trustrating_stim/white_mw038.bmp'><br><font color='green'><strong>Share</strong></font></div><div class='tc'><img class='introPic' src='trustrating_stim/white_mw015.bmp'><br><font color='red'><strong>Keep</strong></font></div><div class='tr'><img class='introPic' src='trustrating_stim/white_mw070.bmp'><br><font color='red'><strong>Keep</strong></font></div></div></div>","null","3","trustrating_stim/white_mw038.bmp,trustrating_stim/white_mw015.bmp,trustrating_stim/white_mw070.bmp","1,0,0","noMatchOutcome","i","4500","","","",""
"html-keyboard-response","31","121088","0.0-5.0-3.5","aytest","bdp_wmem","Mon Feb 08 2021 08:29:06 GMT-0500 (Eastern Standard Time)","589966","Match,No Match","","null","","","","DELAY","","<div class='trialBorder'><div class='vertical-center'><img src='img/fixation2_sml.jpg'</img></div></div>","null","","","","","","","","","",""
"html-keyboard-response","32","124741","0.0-5.0-4.5","aytest","bdp_wmem","Mon Feb 08 2021 08:29:06 GMT-0500 (Eastern Standard Time)","589966","Match,No Match","","3650","","","","TARGET","","<div class='trialBorder'><div class='targDiv'><div class='tc'><img class='introPic' src='trustrating_stim/white_mw015.bmp'><br><font color='green'><strong>Share</strong></font></div></div><div class='respDiv'><div class='respDivL'>Match<br>(e)</div><div class='respDivR'>No Match<br>(i)</div></div></div>","i","3","trustrating_stim/white_mw038.bmp,trustrating_stim/white_mw015.bmp,trustrating_stim/white_mw070.bmp","1,0,0","noMatchOutcome","i","","trustrating_stim/white_mw015.bmp","green","Share","1"
"html-keyboard-response","33","125248","0.0-5.0-5.5","aytest","bdp_wmem","Mon Feb 08 2021 08:29:06 GMT-0500 (Eastern Standard Time)","589966","Match,No Match","","null","","","","FEEDBACK","","<div class='trialBorder'><div class='vertical-center'><img src='img/correct.jpg'></div><div class='respDiv'><div class='respDivL'>Match<br>(e)</div><div class='respDivR'><font style='color:orange'>No Match<br>(i)</font></div></div></div>","null","","","","","","","","","",""
"instructions","34","131322","0.0-6.0","aytest","bdp_wmem","Mon Feb 08 2021 08:29:06 GMT-0500 (Eastern Standard Time)","589966","Match,No Match","[{""page_index"":0,""viewing_time"":6073}]","6073","","","","","","","","","","","","","","","","",""
"html-keyboard-response","35","131829","0.0-7.0-1.0","aytest","bdp_wmem","Mon Feb 08 2021 08:29:06 GMT-0500 (Eastern Standard Time)","589966","Match,No Match","","null","","","","FIX","","<div class='trialBorder'><div class='vertical-center'><img src='img/fixation2_sml.jpg'</img></div></div>","null","","","","","","","","","",""
"html-keyboard-response","36","134832","0.0-7.0-2.0","aytest","bdp_wmem","Mon Feb 08 2021 08:29:06 GMT-0500 (Eastern Standard Time)","589966","Match,No Match","","null","","","","ARRAY","","<div class='trialBorder'><div class='vertical-center'><img style='vertical-align:center; align:center' src='img/fixation2_sml.jpg'></div><div class='arrayDiv2'><div class='tl'><img class='introPic' src='trustrating_stim/white_mw040.bmp'><br><font color='red'><strong>Keep</strong></font></div><div class='tr'><img class='introPic' src='trustrating_stim/white_mw012.bmp'><br><font color='green'><strong>Share</strong></font></div></div></div>","null","2","trustrating_stim/white_mw040.bmp,trustrating_stim/white_mw012.bmp","0,1","noMatchFace","i","3000","","","",""
"html-keyboard-response","37","138840","0.0-7.0-3.0","aytest","bdp_wmem","Mon Feb 08 2021 08:29:06 GMT-0500 (Eastern Standard Time)","589966","Match,No Match","","null","","","","DELAY","","<div class='trialBorder'><div class='vertical-center'><img src='img/fixation2_sml.jpg'</img></div></div>","null","","","","","","","","","",""
"html-keyboard-response","38","140111","0.0-7.0-4.0","aytest","bdp_wmem","Mon Feb 08 2021 08:29:06 GMT-0500 (Eastern Standard Time)","589966","Match,No Match","","1269","","","","TARGET","","<div class='trialBorder'><div class='targDiv'><div class='tc'><img class='introPic' src='trustrating_stim/white_mw003.bmp'><br><font color='green'><strong>Share</strong></font></div></div><div class='respDiv'><div class='respDivL'>Match<br>(e)</div><div class='respDivR'>No Match<br>(i)</div></div></div>","i","2","trustrating_stim/white_mw040.bmp,trustrating_stim/white_mw012.bmp","0,1","noMatchFace","i","","trustrating_stim/white_mw003.bmp","green","Share","1"
"html-keyboard-response","39","140620","0.0-7.0-5.0","aytest","bdp_wmem","Mon Feb 08 2021 08:29:06 GMT-0500 (Eastern Standard Time)","589966","Match,No Match","","null","","","","FEEDBACK","","<div class='trialBorder'><div class='vertical-center'><img src='img/correct.jpg'></div><div class='respDiv'><div class='respDivL'>Match<br>(e)</div><div class='respDivR'><font style='color:orange'>No Match<br>(i)</font></div></div></div>","null","","","","","","","","","",""
"html-keyboard-response","40","141123","0.0-7.0-1.1","aytest","bdp_wmem","Mon Feb 08 2021 08:29:06 GMT-0500 (Eastern Standard Time)","589966","Match,No Match","","null","","","","FIX","","<div class='trialBorder'><div class='vertical-center'><img src='img/fixation2_sml.jpg'</img></div></div>","null","","","","","","","","","",""
"html-keyboard-response","41","142625","0.0-7.0-2.1","aytest","bdp_wmem","Mon Feb 08 2021 08:29:06 GMT-0500 (Eastern Standard Time)","589966","Match,No Match","","null","","","","ARRAY","","<div class='trialBorder'><div class='vertical-center'><img style='vertical-align:center; align:center' src='img/fixation2_sml.jpg'></div><div class='arrayDiv1'><div class='tc'><img class='introPic' src='trustrating_stim/white_mw003.bmp'><br><font color='red'><strong>Keep</strong></font></div></div></div>","null","1","trustrating_stim/white_mw003.bmp","0","Match","e","1500","","","",""
"html-keyboard-response","42","146629","0.0-7.0-3.1","aytest","bdp_wmem","Mon Feb 08 2021 08:29:06 GMT-0500 (Eastern Standard Time)","589966","Match,No Match","","null","","","","DELAY","","<div class='trialBorder'><div class='vertical-center'><img src='img/fixation2_sml.jpg'</img></div></div>","null","","","","","","","","","",""
"html-keyboard-response","43","147436","0.0-7.0-4.1","aytest","bdp_wmem","Mon Feb 08 2021 08:29:06 GMT-0500 (Eastern Standard Time)","589966","Match,No Match","","805","","","","TARGET","","<div class='trialBorder'><div class='targDiv'><div class='tc'><img class='introPic' src='trustrating_stim/white_mw003.bmp'><br><font color='red'><strong>Keep</strong></font></div></div><div class='respDiv'><div class='respDivL'>Match<br>(e)</div><div class='respDivR'>No Match<br>(i)</div></div></div>","e","1","trustrating_stim/white_mw003.bmp","0","Match","e","","trustrating_stim/white_mw003.bmp","red","Keep","1"
"html-keyboard-response","44","147940","0.0-7.0-5.1","aytest","bdp_wmem","Mon Feb 08 2021 08:29:06 GMT-0500 (Eastern Standard Time)","589966","Match,No Match","","null","","","","FEEDBACK","","<div class='trialBorder'><div class='vertical-center'><img src='img/correct.jpg'></div><div class='respDiv'><div class='respDivL'><font style='color:orange'>Match<br>(e)</font></div><div class='respDivR'>No Match<br>(i)</div></div></div>","null","","","","","","","","","",""
"html-keyboard-response","45","148446","0.0-7.0-1.2","aytest","bdp_wmem","Mon Feb 08 2021 08:29:06 GMT-0500 (Eastern Standard Time)","589966","Match,No Match","","null","","","","FIX","","<div class='trialBorder'><div class='vertical-center'><img src='img/fixation2_sml.jpg'</img></div></div>","null","","","","","","","","","",""
"html-keyboard-response","46","152950","0.0-7.0-2.2","aytest","bdp_wmem","Mon Feb 08 2021 08:29:06 GMT-0500 (Eastern Standard Time)","589966","Match,No Match","","null","","","","ARRAY","","<div class='trialBorder'><div class='vertical-center'><img style='vertical-align:center; align:center' src='img/fixation2_sml.jpg'></div><div class='arrayDiv3'><div class='tl'><img class='introPic' src='trustrating_stim/white_00050_931230_fa_edt.bmp'><br><font color='red'><strong>Keep</strong></font></div><div class='tc'><img class='introPic' src='trustrating_stim/white_mw092.bmp'><br><font color='red'><strong>Keep</strong></font></div><div class='tr'><img class='introPic' src='trustrating_stim/white_mw003.bmp'><br><font color='green'><strong>Share</strong></font></div></div></div>","null","3","trustrating_stim/white_00050_931230_fa_edt.bmp,trustrating_stim/white_mw092.bmp,trustrating_stim/white_mw003.bmp","0,0,1","noMatchFace","i","4500","","","",""
"html-keyboard-response","47","156958","0.0-7.0-3.2","aytest","bdp_wmem","Mon Feb 08 2021 08:29:06 GMT-0500 (Eastern Standard Time)","589966","Match,No Match","","null","","","","DELAY","","<div class='trialBorder'><div class='vertical-center'><img src='img/fixation2_sml.jpg'</img></div></div>","null","","","","","","","","","",""
"html-keyboard-response","48","157967","0.0-7.0-4.2","aytest","bdp_wmem","Mon Feb 08 2021 08:29:06 GMT-0500 (Eastern Standard Time)","589966","Match,No Match","","1007","","","","TARGET","","<div class='trialBorder'><div class='targDiv'><div class='tc'><img class='introPic' src='trustrating_stim/white_00807_941205_fb_edt.bmp'><br><font color='red'><strong>Keep</strong></font></div></div><div class='respDiv'><div class='respDivL'>Match<br>(e)</div><div class='respDivR'>No Match<br>(i)</div></div></div>","i","3","trustrating_stim/white_00050_931230_fa_edt.bmp,trustrating_stim/white_mw092.bmp,trustrating_stim/white_mw003.bmp","0,0,1","noMatchFace","i","","trustrating_stim/white_00807_941205_fb_edt.bmp","red","Keep","1"
"html-keyboard-response","49","158475","0.0-7.0-5.2","aytest","bdp_wmem","Mon Feb 08 2021 08:29:06 GMT-0500 (Eastern Standard Time)","589966","Match,No Match","","null","","","","FEEDBACK","","<div class='trialBorder'><div class='vertical-center'><img src='img/correct.jpg'></div><div class='respDiv'><div class='respDivL'>Match<br>(e)</div><div class='respDivR'><font style='color:orange'>No Match<br>(i)</font></div></div></div>","null","","","","","","","","","",""
"html-keyboard-response","50","158979","0.0-7.0-1.3","aytest","bdp_wmem","Mon Feb 08 2021 08:29:06 GMT-0500 (Eastern Standard Time)","589966","Match,No Match","","null","","","","FIX","","<div class='trialBorder'><div class='vertical-center'><img src='img/fixation2_sml.jpg'</img></div></div>","null","","","","","","","","","",""
"html-keyboard-response","51","163482","0.0-7.0-2.3","aytest","bdp_wmem","Mon Feb 08 2021 08:29:06 GMT-0500 (Eastern Standard Time)","589966","Match,No Match","","null","","","","ARRAY","","<div class='trialBorder'><div class='vertical-center'><img style='vertical-align:center; align:center' src='img/fixation2_sml.jpg'></div><div class='arrayDiv3'><div class='tl'><img class='introPic' src='trustrating_stim/white_mw070.bmp'><br><font color='green'><strong>Share</strong></font></div><div class='tc'><img class='introPic' src='trustrating_stim/white_00807_941205_fb_edt.bmp'><br><font color='red'><strong>Keep</strong></font></div><div class='tr'><img class='introPic' src='trustrating_stim/white_mw013.bmp'><br><font color='red'><strong>Keep</strong></font></div></div></div>","null","3","trustrating_stim/white_mw070.bmp,trustrating_stim/white_00807_941205_fb_edt.bmp,trustrating_stim/white_mw013.bmp","1,0,0","noMatchOutcome","i","4500","","","",""
"html-keyboard-response","52","167489","0.0-7.0-3.3","aytest","bdp_wmem","Mon Feb 08 2021 08:29:06 GMT-0500 (Eastern Standard Time)","589966","Match,No Match","","null","","","","DELAY","","<div class='trialBorder'><div class='vertical-center'><img src='img/fixation2_sml.jpg'</img></div></div>","null","","","","","","","","","",""
"html-keyboard-response","53","170831","0.0-7.0-4.3","aytest","bdp_wmem","Mon Feb 08 2021 08:29:06 GMT-0500 (Eastern Standard Time)","589966","Match,No Match","","3339","","","","TARGET","","<div class='trialBorder'><div class='targDiv'><div class='tc'><img class='introPic' src='trustrating_stim/white_mw070.bmp'><br><font color='red'><strong>Keep</strong></font></div></div><div class='respDiv'><div class='respDivL'>Match<br>(e)</div><div class='respDivR'>No Match<br>(i)</div></div></div>","i","3","trustrating_stim/white_mw070.bmp,trustrating_stim/white_00807_941205_fb_edt.bmp,trustrating_stim/white_mw013.bmp","1,0,0","noMatchOutcome","i","","trustrating_stim/white_mw070.bmp","red","Keep","1"
"html-keyboard-response","54","171337","0.0-7.0-5.3","aytest","bdp_wmem","Mon Feb 08 2021 08:29:06 GMT-0500 (Eastern Standard Time)","589966","Match,No Match","","null","","","","FEEDBACK","","<div class='trialBorder'><div class='vertical-center'><img src='img/correct.jpg'></div><div class='respDiv'><div class='respDivL'>Match<br>(e)</div><div class='respDivR'><font style='color:orange'>No Match<br>(i)</font></div></div></div>","null","","","","","","","","","",""
"html-keyboard-response","55","171845","0.0-7.0-1.4","aytest","bdp_wmem","Mon Feb 08 2021 08:29:06 GMT-0500 (Eastern Standard Time)","589966","Match,No Match","","null","","","","FIX","","<div class='trialBorder'><div class='vertical-center'><img src='img/fixation2_sml.jpg'</img></div></div>","null","","","","","","","","","",""
"html-keyboard-response","56","173351","0.0-7.0-2.4","aytest","bdp_wmem","Mon Feb 08 2021 08:29:06 GMT-0500 (Eastern Standard Time)","589966","Match,No Match","","null","","","","ARRAY","","<div class='trialBorder'><div class='vertical-center'><img style='vertical-align:center; align:center' src='img/fixation2_sml.jpg'></div><div class='arrayDiv1'><div class='tc'><img class='introPic' src='trustrating_stim/white_mw038.bmp'><br><font color='green'><strong>Share</strong></font></div></div></div>","null","1","trustrating_stim/white_mw038.bmp","1","Match","e","1500","","","",""
"html-keyboard-response","57","177353","0.0-7.0-3.4","aytest","bdp_wmem","Mon Feb 08 2021 08:29:06 GMT-0500 (Eastern Standard Time)","589966","Match,No Match","","null","","","","DELAY","","<div class='trialBorder'><div class='vertical-center'><img src='img/fixation2_sml.jpg'</img></div></div>","null","","","","","","","","","",""
"html-keyboard-response","58","178254","0.0-7.0-4.4","aytest","bdp_wmem","Mon Feb 08 2021 08:29:06 GMT-0500 (Eastern Standard Time)","589966","Match,No Match","","899","","","","TARGET","","<div class='trialBorder'><div class='targDiv'><div class='tc'><img class='introPic' src='trustrating_stim/white_mw038.bmp'><br><font color='green'><strong>Share</strong></font></div></div><div class='respDiv'><div class='respDivL'>Match<br>(e)</div><div class='respDivR'>No Match<br>(i)</div></div></div>","e","1","trustrating_stim/white_mw038.bmp","1","Match","e","","trustrating_stim/white_mw038.bmp","green","Share","1"
"html-keyboard-response","59","178763","0.0-7.0-5.4","aytest","bdp_wmem","Mon Feb 08 2021 08:29:06 GMT-0500 (Eastern Standard Time)","589966","Match,No Match","","null","","","","FEEDBACK","","<div class='trialBorder'><div class='vertical-center'><img src='img/correct.jpg'></div><div class='respDiv'><div class='respDivL'><font style='color:orange'>Match<br>(e)</font></div><div class='respDivR'>No Match<br>(i)</div></div></div>","null","","","","","","","","","",""
"html-keyboard-response","60","179267","0.0-7.0-1.5","aytest","bdp_wmem","Mon Feb 08 2021 08:29:06 GMT-0500 (Eastern Standard Time)","589966","Match,No Match","","null","","","","FIX","","<div class='trialBorder'><div class='vertical-center'><img src='img/fixation2_sml.jpg'</img></div></div>","null","","","","","","","","","",""
"html-keyboard-response","61","182272","0.0-7.0-2.5","aytest","bdp_wmem","Mon Feb 08 2021 08:29:06 GMT-0500 (Eastern Standard Time)","589966","Match,No Match","","null","","","","ARRAY","","<div class='trialBorder'><div class='vertical-center'><img style='vertical-align:center; align:center' src='img/fixation2_sml.jpg'></div><div class='arrayDiv2'><div class='tl'><img class='introPic' src='trustrating_stim/white_mw038.bmp'><br><font color='green'><strong>Share</strong></font></div><div class='tr'><img class='introPic' src='trustrating_stim/white_mw070.bmp'><br><font color='red'><strong>Keep</strong></font></div></div></div>","null","2","trustrating_stim/white_mw038.bmp,trustrating_stim/white_mw070.bmp","1,0","noMatchOutcome","i","3000","","","",""
"html-keyboard-response","62","186279","0.0-7.0-3.5","aytest","bdp_wmem","Mon Feb 08 2021 08:29:06 GMT-0500 (Eastern Standard Time)","589966","Match,No Match","","null","","","","DELAY","","<div class='trialBorder'><div class='vertical-center'><img src='img/fixation2_sml.jpg'</img></div></div>","null","","","","","","","","","",""
"html-keyboard-response","63","187460","0.0-7.0-4.5","aytest","bdp_wmem","Mon Feb 08 2021 08:29:06 GMT-0500 (Eastern Standard Time)","589966","Match,No Match","","1179","","","","TARGET","","<div class='trialBorder'><div class='targDiv'><div class='tc'><img class='introPic' src='trustrating_stim/white_mw038.bmp'><br><font color='red'><strong>Keep</strong></font></div></div><div class='respDiv'><div class='respDivL'>Match<br>(e)</div><div class='respDivR'>No Match<br>(i)</div></div></div>","i","2","trustrating_stim/white_mw038.bmp,trustrating_stim/white_mw070.bmp","1,0","noMatchOutcome","i","","trustrating_stim/white_mw038.bmp","red","Keep","1"
"html-keyboard-response","64","187967","0.0-7.0-5.5","aytest","bdp_wmem","Mon Feb 08 2021 08:29:06 GMT-0500 (Eastern Standard Time)","589966","Match,No Match","","null","","","","FEEDBACK","","<div class='trialBorder'><div class='vertical-center'><img src='img/correct.jpg'></div><div class='respDiv'><div class='respDivL'>Match<br>(e)</div><div class='respDivR'><font style='color:orange'>No Match<br>(i)</font></div></div></div>","null","","","","","","","","","",""
"html-keyboard-response","65","188473","0.0-7.0-1.6","aytest","bdp_wmem","Mon Feb 08 2021 08:29:06 GMT-0500 (Eastern Standard Time)","589966","Match,No Match","","null","","","","FIX","","<div class='trialBorder'><div class='vertical-center'><img src='img/fixation2_sml.jpg'</img></div></div>","null","","","","","","","","","",""
"html-keyboard-response","66","192976","0.0-7.0-2.6","aytest","bdp_wmem","Mon Feb 08 2021 08:29:06 GMT-0500 (Eastern Standard Time)","589966","Match,No Match","","null","","","","ARRAY","","<div class='trialBorder'><div class='vertical-center'><img style='vertical-align:center; align:center' src='img/fixation2_sml.jpg'></div><div class='arrayDiv3'><div class='tl'><img class='introPic' src='trustrating_stim/white_mw012.bmp'><br><font color='green'><strong>Share</strong></font></div><div class='tc'><img class='introPic' src='trustrating_stim/white_mw070.bmp'><br><font color='green'><strong>Share</strong></font></div><div class='tr'><img class='introPic' src='trustrating_stim/white_mw038.bmp'><br><font color='red'><strong>Keep</strong></font></div></div></div>","null","3","trustrating_stim/white_mw012.bmp,trustrating_stim/white_mw070.bmp,trustrating_stim/white_mw038.bmp","1,1,0","noMatchOutcome","i","4500","","","",""
"html-keyboard-response","67","196980","0.0-7.0-3.6","aytest","bdp_wmem","Mon Feb 08 2021 08:29:06 GMT-0500 (Eastern Standard Time)","589966","Match,No Match","","null","","","","DELAY","","<div class='trialBorder'><div class='vertical-center'><img src='img/fixation2_sml.jpg'</img></div></div>","null","","","","","","","","","",""
"html-keyboard-response","68","198553","0.0-7.0-4.6","aytest","bdp_wmem","Mon Feb 08 2021 08:29:06 GMT-0500 (Eastern Standard Time)","589966","Match,No Match","","1570","","","","TARGET","","<div class='trialBorder'><div class='targDiv'><div class='tc'><img class='introPic' src='trustrating_stim/white_mw070.bmp'><br><font color='red'><strong>Keep</strong></font></div></div><div class='respDiv'><div class='respDivL'>Match<br>(e)</div><div class='respDivR'>No Match<br>(i)</div></div></div>","i","3","trustrating_stim/white_mw012.bmp,trustrating_stim/white_mw070.bmp,trustrating_stim/white_mw038.bmp","1,1,0","noMatchOutcome","i","","trustrating_stim/white_mw070.bmp","red","Keep","1"
"html-keyboard-response","69","199063","0.0-7.0-5.6","aytest","bdp_wmem","Mon Feb 08 2021 08:29:06 GMT-0500 (Eastern Standard Time)","589966","Match,No Match","","null","","","","FEEDBACK","","<div class='trialBorder'><div class='vertical-center'><img src='img/correct.jpg'></div><div class='respDiv'><div class='respDivL'>Match<br>(e)</div><div class='respDivR'><font style='color:orange'>No Match<br>(i)</font></div></div></div>","null","","","","","","","","","",""
"html-keyboard-response","70","199573","0.0-7.0-1.7","aytest","bdp_wmem","Mon Feb 08 2021 08:29:06 GMT-0500 (Eastern Standard Time)","589966","Match,No Match","","null","","","","FIX","","<div class='trialBorder'><div class='vertical-center'><img src='img/fixation2_sml.jpg'</img></div></div>","null","","","","","","","","","",""
"html-keyboard-response","71","204080","0.0-7.0-2.7","aytest","bdp_wmem","Mon Feb 08 2021 08:29:06 GMT-0500 (Eastern Standard Time)","589966","Match,No Match","","null","","","","ARRAY","","<div class='trialBorder'><div class='vertical-center'><img style='vertical-align:center; align:center' src='img/fixation2_sml.jpg'></div><div class='arrayDiv3'><div class='tl'><img class='introPic' src='trustrating_stim/white_mw038.bmp'><br><font color='red'><strong>Keep</strong></font></div><div class='tc'><img class='introPic' src='trustrating_stim/white_mw033.bmp'><br><font color='green'><strong>Share</strong></font></div><div class='tr'><img class='introPic' src='trustrating_stim/white_mw013.bmp'><br><font color='red'><strong>Keep</strong></font></div></div></div>","null","3","trustrating_stim/white_mw038.bmp,trustrating_stim/white_mw033.bmp,trustrating_stim/white_mw013.bmp","0,1,0","Match","e","4500","","","",""
"html-keyboard-response","72","208088","0.0-7.0-3.7","aytest","bdp_wmem","Mon Feb 08 2021 08:29:06 GMT-0500 (Eastern Standard Time)","589966","Match,No Match","","null","","","","DELAY","","<div class='trialBorder'><div class='vertical-center'><img src='img/fixation2_sml.jpg'</img></div></div>","null","","","","","","","","","",""
"html-keyboard-response","73","209668","0.0-7.0-4.7","aytest","bdp_wmem","Mon Feb 08 2021 08:29:06 GMT-0500 (Eastern Standard Time)","589966","Match,No Match","","1578","","","","TARGET","","<div class='trialBorder'><div class='targDiv'><div class='tc'><img class='introPic' src='trustrating_stim/white_mw033.bmp'><br><font color='green'><strong>Share</strong></font></div></div><div class='respDiv'><div class='respDivL'>Match<br>(e)</div><div class='respDivR'>No Match<br>(i)</div></div></div>","e","3","trustrating_stim/white_mw038.bmp,trustrating_stim/white_mw033.bmp,trustrating_stim/white_mw013.bmp","0,1,0","Match","e","","trustrating_stim/white_mw033.bmp","green","Share","1"
"html-keyboard-response","74","210174","0.0-7.0-5.7","aytest","bdp_wmem","Mon Feb 08 2021 08:29:06 GMT-0500 (Eastern Standard Time)","589966","Match,No Match","","null","","","","FEEDBACK","","<div class='trialBorder'><div class='vertical-center'><img src='img/correct.jpg'></div><div class='respDiv'><div class='respDivL'><font style='color:orange'>Match<br>(e)</font></div><div class='respDivR'>No Match<br>(i)</div></div></div>","null","","","","","","","","","",""
"html-keyboard-response","75","210676","0.0-7.0-1.8","aytest","bdp_wmem","Mon Feb 08 2021 08:29:06 GMT-0500 (Eastern Standard Time)","589966","Match,No Match","","null","","","","FIX","","<div class='trialBorder'><div class='vertical-center'><img src='img/fixation2_sml.jpg'</img></div></div>","null","","","","","","","","","",""
"html-keyboard-response","76","213678","0.0-7.0-2.8","aytest","bdp_wmem","Mon Feb 08 2021 08:29:06 GMT-0500 (Eastern Standard Time)","589966","Match,No Match","","null","","","","ARRAY","","<div class='trialBorder'><div class='vertical-center'><img style='vertical-align:center; align:center' src='img/fixation2_sml.jpg'></div><div class='arrayDiv2'><div class='tl'><img class='introPic' src='trustrating_stim/white_mw040.bmp'><br><font color='green'><strong>Share</strong></font></div><div class='tr'><img class='introPic' src='trustrating_stim/white_mw091.bmp'><br><font color='red'><strong>Keep</strong></font></div></div></div>","null","2","trustrating_stim/white_mw040.bmp,trustrating_stim/white_mw091.bmp","1,0","Match","e","3000","","","",""
"html-keyboard-response","77","217688","0.0-7.0-3.8","aytest","bdp_wmem","Mon Feb 08 2021 08:29:06 GMT-0500 (Eastern Standard Time)","589966","Match,No Match","","null","","","","DELAY","","<div class='trialBorder'><div class='vertical-center'><img src='img/fixation2_sml.jpg'</img></div></div>","null","","","","","","","","","",""
"html-keyboard-response","78","221309","0.0-7.0-4.8","aytest","bdp_wmem","Mon Feb 08 2021 08:29:06 GMT-0500 (Eastern Standard Time)","589966","Match,No Match","","3618","","","","TARGET","","<div class='trialBorder'><div class='targDiv'><div class='tc'><img class='introPic' src='trustrating_stim/white_mw091.bmp'><br><font color='red'><strong>Keep</strong></font></div></div><div class='respDiv'><div class='respDivL'>Match<br>(e)</div><div class='respDivR'>No Match<br>(i)</div></div></div>","e","2","trustrating_stim/white_mw040.bmp,trustrating_stim/white_mw091.bmp","1,0","Match","e","","trustrating_stim/white_mw091.bmp","red","Keep","1"
"html-keyboard-response","79","221819","0.0-7.0-5.8","aytest","bdp_wmem","Mon Feb 08 2021 08:29:06 GMT-0500 (Eastern Standard Time)","589966","Match,No Match","","null","","","","FEEDBACK","","<div class='trialBorder'><div class='vertical-center'><img src='img/correct.jpg'></div><div class='respDiv'><div class='respDivL'><font style='color:orange'>Match<br>(e)</font></div><div class='respDivR'>No Match<br>(i)</div></div></div>","null","","","","","","","","","",""
"html-keyboard-response","80","222326","0.0-7.0-1.9","aytest","bdp_wmem","Mon Feb 08 2021 08:29:06 GMT-0500 (Eastern Standard Time)","589966","Match,No Match","","null","","","","FIX","","<div class='trialBorder'><div class='vertical-center'><img src='img/fixation2_sml.jpg'</img></div></div>","null","","","","","","","","","",""
"html-keyboard-response","81","223834","0.0-7.0-2.9","aytest","bdp_wmem","Mon Feb 08 2021 08:29:06 GMT-0500 (Eastern Standard Time)","589966","Match,No Match","","null","","","","ARRAY","","<div class='trialBorder'><div class='vertical-center'><img style='vertical-align:center; align:center' src='img/fixation2_sml.jpg'></div><div class='arrayDiv1'><div class='tc'><img class='introPic' src='trustrating_stim/white_mw003.bmp'><br><font color='red'><strong>Keep</strong></font></div></div></div>","null","1","trustrating_stim/white_mw003.bmp","0","Match","e","1500","","","",""
"html-keyboard-response","82","227838","0.0-7.0-3.9","aytest","bdp_wmem","Mon Feb 08 2021 08:29:06 GMT-0500 (Eastern Standard Time)","589966","Match,No Match","","null","","","","DELAY","","<div class='trialBorder'><div class='vertical-center'><img src='img/fixation2_sml.jpg'</img></div></div>","null","","","","","","","","","",""
"html-keyboard-response","83","229178","0.0-7.0-4.9","aytest","bdp_wmem","Mon Feb 08 2021 08:29:06 GMT-0500 (Eastern Standard Time)","589966","Match,No Match","","1337","","","","TARGET","","<div class='trialBorder'><div class='targDiv'><div class='tc'><img class='introPic' src='trustrating_stim/white_mw003.bmp'><br><font color='red'><strong>Keep</strong></font></div></div><div class='respDiv'><div class='respDivL'>Match<br>(e)</div><div class='respDivR'>No Match<br>(i)</div></div></div>","e","1","trustrating_stim/white_mw003.bmp","0","Match","e","","trustrating_stim/white_mw003.bmp","red","Keep","1"
"html-keyboard-response","84","229681","0.0-7.0-5.9","aytest","bdp_wmem","Mon Feb 08 2021 08:29:06 GMT-0500 (Eastern Standard Time)","589966","Match,No Match","","null","","","","FEEDBACK","","<div class='trialBorder'><div class='vertical-center'><img src='img/correct.jpg'></div><div class='respDiv'><div class='respDivL'><font style='color:orange'>Match<br>(e)</font></div><div class='respDivR'>No Match<br>(i)</div></div></div>","null","","","","","","","","","",""
"html-keyboard-response","85","230189","0.0-7.0-1.10","aytest","bdp_wmem","Mon Feb 08 2021 08:29:06 GMT-0500 (Eastern Standard Time)","589966","Match,No Match","","null","","","","FIX","","<div class='trialBorder'><div class='vertical-center'><img src='img/fixation2_sml.jpg'</img></div></div>","null","","","","","","","","","",""
"html-keyboard-response","86","231693","0.0-7.0-2.10","aytest","bdp_wmem","Mon Feb 08 2021 08:29:06 GMT-0500 (Eastern Standard Time)","589966","Match,No Match","","null","","","","ARRAY","","<div class='trialBorder'><div class='vertical-center'><img style='vertical-align:center; align:center' src='img/fixation2_sml.jpg'></div><div class='arrayDiv1'><div class='tc'><img class='introPic' src='trustrating_stim/white_mw040.bmp'><br><font color='green'><strong>Share</strong></font></div></div></div>","null","1","trustrating_stim/white_mw040.bmp","1","noMatchFace","i","1500","","","",""
"html-keyboard-response","87","235699","0.0-7.0-3.10","aytest","bdp_wmem","Mon Feb 08 2021 08:29:06 GMT-0500 (Eastern Standard Time)","589966","Match,No Match","","null","","","","DELAY","","<div class='trialBorder'><div class='vertical-center'><img src='img/fixation2_sml.jpg'</img></div></div>","null","","","","","","","","","",""
"html-keyboard-response","88","236935","0.0-7.0-4.10","aytest","bdp_wmem","Mon Feb 08 2021 08:29:06 GMT-0500 (Eastern Standard Time)","589966","Match,No Match","","1234","","","","TARGET","","<div class='trialBorder'><div class='targDiv'><div class='tc'><img class='introPic' src='trustrating_stim/white_mw038.bmp'><br><font color='green'><strong>Share</strong></font></div></div><div class='respDiv'><div class='respDivL'>Match<br>(e)</div><div class='respDivR'>No Match<br>(i)</div></div></div>","i","1","trustrating_stim/white_mw040.bmp","1","noMatchFace","i","","trustrating_stim/white_mw038.bmp","green","Share","1"
"html-keyboard-response","89","237438","0.0-7.0-5.10","aytest","bdp_wmem","Mon Feb 08 2021 08:29:06 GMT-0500 (Eastern Standard Time)","589966","Match,No Match","","null","","","","FEEDBACK","","<div class='trialBorder'><div class='vertical-center'><img src='img/correct.jpg'></div><div class='respDiv'><div class='respDivL'>Match<br>(e)</div><div class='respDivR'><font style='color:orange'>No Match<br>(i)</font></div></div></div>","null","","","","","","","","","",""
"html-keyboard-response","90","237943","0.0-7.0-1.11","aytest","bdp_wmem","Mon Feb 08 2021 08:29:06 GMT-0500 (Eastern Standard Time)","589966","Match,No Match","","null","","","","FIX","","<div class='trialBorder'><div class='vertical-center'><img src='img/fixation2_sml.jpg'</img></div></div>","null","","","","","","","","","",""
"html-keyboard-response","91","239445","0.0-7.0-2.11","aytest","bdp_wmem","Mon Feb 08 2021 08:29:06 GMT-0500 (Eastern Standard Time)","589966","Match,No Match","","null","","","","ARRAY","","<div class='trialBorder'><div class='vertical-center'><img style='vertical-align:center; align:center' src='img/fixation2_sml.jpg'></div><div class='arrayDiv1'><div class='tc'><img class='introPic' src='trustrating_stim/white_mw033.bmp'><br><font color='red'><strong>Keep</strong></font></div></div></div>","null","1","trustrating_stim/white_mw033.bmp","0","Match","e","1500","","","",""
"html-keyboard-response","92","243447","0.0-7.0-3.11","aytest","bdp_wmem","Mon Feb 08 2021 08:29:06 GMT-0500 (Eastern Standard Time)","589966","Match,No Match","","null","","","","DELAY","","<div class='trialBorder'><div class='vertical-center'><img src='img/fixation2_sml.jpg'</img></div></div>","null","","","","","","","","","",""
"html-keyboard-response","93","244529","0.0-7.0-4.11","aytest","bdp_wmem","Mon Feb 08 2021 08:29:06 GMT-0500 (Eastern Standard Time)","589966","Match,No Match","","1079","","","","TARGET","","<div class='trialBorder'><div class='targDiv'><div class='tc'><img class='introPic' src='trustrating_stim/white_mw033.bmp'><br><font color='red'><strong>Keep</strong></font></div></div><div class='respDiv'><div class='respDivL'>Match<br>(e)</div><div class='respDivR'>No Match<br>(i)</div></div></div>","e","1","trustrating_stim/white_mw033.bmp","0","Match","e","","trustrating_stim/white_mw033.bmp","red","Keep","1"
"html-keyboard-response","94","245036","0.0-7.0-5.11","aytest","bdp_wmem","Mon Feb 08 2021 08:29:06 GMT-0500 (Eastern Standard Time)","589966","Match,No Match","","null","","","","FEEDBACK","","<div class='trialBorder'><div class='vertical-center'><img src='img/correct.jpg'></div><div class='respDiv'><div class='respDivL'><font style='color:orange'>Match<br>(e)</font></div><div class='respDivR'>No Match<br>(i)</div></div></div>","null","","","","","","","","","",""
"html-keyboard-response","95","245539","0.0-7.0-1.12","aytest","bdp_wmem","Mon Feb 08 2021 08:29:06 GMT-0500 (Eastern Standard Time)","589966","Match,No Match","","null","","","","FIX","","<div class='trialBorder'><div class='vertical-center'><img src='img/fixation2_sml.jpg'</img></div></div>","null","","","","","","","","","",""
"html-keyboard-response","96","247045","0.0-7.0-2.12","aytest","bdp_wmem","Mon Feb 08 2021 08:29:06 GMT-0500 (Eastern Standard Time)","589966","Match,No Match","","null","","","","ARRAY","","<div class='trialBorder'><div class='vertical-center'><img style='vertical-align:center; align:center' src='img/fixation2_sml.jpg'></div><div class='arrayDiv1'><div class='tc'><img class='introPic' src='trustrating_stim/white_mw015.bmp'><br><font color='green'><strong>Share</strong></font></div></div></div>","null","1","trustrating_stim/white_mw015.bmp","1","noMatchOutcome","i","1500","","","",""
"html-keyboard-response","97","251047","0.0-7.0-3.12","aytest","bdp_wmem","Mon Feb 08 2021 08:29:06 GMT-0500 (Eastern Standard Time)","589966","Match,No Match","","null","","","","DELAY","","<div class='trialBorder'><div class='vertical-center'><img src='img/fixation2_sml.jpg'</img></div></div>","null","","","","","","","","","",""
"html-keyboard-response","98","252528","0.0-7.0-4.12","aytest","bdp_wmem","Mon Feb 08 2021 08:29:06 GMT-0500 (Eastern Standard Time)","589966","Match,No Match","","1479","","","","TARGET","","<div class='trialBorder'><div class='targDiv'><div class='tc'><img class='introPic' src='trustrating_stim/white_mw015.bmp'><br><font color='red'><strong>Keep</strong></font></div></div><div class='respDiv'><div class='respDivL'>Match<br>(e)</div><div class='respDivR'>No Match<br>(i)</div></div></div>","i","1","trustrating_stim/white_mw015.bmp","1","noMatchOutcome","i","","trustrating_stim/white_mw015.bmp","red","Keep","1"
"html-keyboard-response","99","253036","0.0-7.0-5.12","aytest","bdp_wmem","Mon Feb 08 2021 08:29:06 GMT-0500 (Eastern Standard Time)","589966","Match,No Match","","null","","","","FEEDBACK","","<div class='trialBorder'><div class='vertical-center'><img src='img/correct.jpg'></div><div class='respDiv'><div class='respDivL'>Match<br>(e)</div><div class='respDivR'><font style='color:orange'>No Match<br>(i)</font></div></div></div>","null","","","","","","","","","",""
"html-keyboard-response","100","253538","0.0-7.0-1.13","aytest","bdp_wmem","Mon Feb 08 2021 08:29:06 GMT-0500 (Eastern Standard Time)","589966","Match,No Match","","null","","","","FIX","","<div class='trialBorder'><div class='vertical-center'><img src='img/fixation2_sml.jpg'</img></div></div>","null","","","","","","","","","",""
"html-keyboard-response","101","256546","0.0-7.0-2.13","aytest","bdp_wmem","Mon Feb 08 2021 08:29:06 GMT-0500 (Eastern Standard Time)","589966","Match,No Match","","null","","","","ARRAY","","<div class='trialBorder'><div class='vertical-center'><img style='vertical-align:center; align:center' src='img/fixation2_sml.jpg'></div><div class='arrayDiv2'><div class='tl'><img class='introPic' src='trustrating_stim/white_mw038.bmp'><br><font color='red'><strong>Keep</strong></font></div><div class='tr'><img class='introPic' src='trustrating_stim/white_mw092.bmp'><br><font color='green'><strong>Share</strong></font></div></div></div>","null","2","trustrating_stim/white_mw038.bmp,trustrating_stim/white_mw092.bmp","0,1","noMatchFace","i","3000","","","",""
"html-keyboard-response","102","260555","0.0-7.0-3.13","aytest","bdp_wmem","Mon Feb 08 2021 08:29:06 GMT-0500 (Eastern Standard Time)","589966","Match,No Match","","null","","","","DELAY","","<div class='trialBorder'><div class='vertical-center'><img src='img/fixation2_sml.jpg'</img></div></div>","null","","","","","","","","","",""
"html-keyboard-response","103","261498","0.0-7.0-4.13","aytest","bdp_wmem","Mon Feb 08 2021 08:29:06 GMT-0500 (Eastern Standard Time)","589966","Match,No Match","","941","","","","TARGET","","<div class='trialBorder'><div class='targDiv'><div class='tc'><img class='introPic' src='trustrating_stim/white_mw012.bmp'><br><font color='red'><strong>Keep</strong></font></div></div><div class='respDiv'><div class='respDivL'>Match<br>(e)</div><div class='respDivR'>No Match<br>(i)</div></div></div>","i","2","trustrating_stim/white_mw038.bmp,trustrating_stim/white_mw092.bmp","0,1","noMatchFace","i","","trustrating_stim/white_mw012.bmp","red","Keep","1"
"html-keyboard-response","104","262005","0.0-7.0-5.13","aytest","bdp_wmem","Mon Feb 08 2021 08:29:06 GMT-0500 (Eastern Standard Time)","589966","Match,No Match","","null","","","","FEEDBACK","","<div class='trialBorder'><div class='vertical-center'><img src='img/correct.jpg'></div><div class='respDiv'><div class='respDivL'>Match<br>(e)</div><div class='respDivR'><font style='color:orange'>No Match<br>(i)</font></div></div></div>","null","","","","","","","","","",""
"html-keyboard-response","105","262518","0.0-7.0-1.14","aytest","bdp_wmem","Mon Feb 08 2021 08:29:06 GMT-0500 (Eastern Standard Time)","589966","Match,No Match","","null","","","","FIX","","<div class='trialBorder'><div class='vertical-center'><img src='img/fixation2_sml.jpg'</img></div></div>","null","","","","","","","","","",""
"html-keyboard-response","106","265521","0.0-7.0-2.14","aytest","bdp_wmem","Mon Feb 08 2021 08:29:06 GMT-0500 (Eastern Standard Time)","589966","Match,No Match","","null","","","","ARRAY","","<div class='trialBorder'><div class='vertical-center'><img style='vertical-align:center; align:center' src='img/fixation2_sml.jpg'></div><div class='arrayDiv2'><div class='tl'><img class='introPic' src='trustrating_stim/white_mw040.bmp'><br><font color='red'><strong>Keep</strong></font></div><div class='tr'><img class='introPic' src='trustrating_stim/white_mw015.bmp'><br><font color='green'><strong>Share</strong></font></div></div></div>","null","2","trustrating_stim/white_mw040.bmp,trustrating_stim/white_mw015.bmp","0,1","Match","e","3000","","","",""
"html-keyboard-response","107","269523","0.0-7.0-3.14","aytest","bdp_wmem","Mon Feb 08 2021 08:29:06 GMT-0500 (Eastern Standard Time)","589966","Match,No Match","","null","","","","DELAY","","<div class='trialBorder'><div class='vertical-center'><img src='img/fixation2_sml.jpg'</img></div></div>","null","","","","","","","","","",""
"html-keyboard-response","108","271430","0.0-7.0-4.14","aytest","bdp_wmem","Mon Feb 08 2021 08:29:06 GMT-0500 (Eastern Standard Time)","589966","Match,No Match","","1904","","","","TARGET","","<div class='trialBorder'><div class='targDiv'><div class='tc'><img class='introPic' src='trustrating_stim/white_mw040.bmp'><br><font color='red'><strong>Keep</strong></font></div></div><div class='respDiv'><div class='respDivL'>Match<br>(e)</div><div class='respDivR'>No Match<br>(i)</div></div></div>","e","2","trustrating_stim/white_mw040.bmp,trustrating_stim/white_mw015.bmp","0,1","Match","e","","trustrating_stim/white_mw040.bmp","red","Keep","1"
"html-keyboard-response","109","271939","0.0-7.0-5.14","aytest","bdp_wmem","Mon Feb 08 2021 08:29:06 GMT-0500 (Eastern Standard Time)","589966","Match,No Match","","null","","","","FEEDBACK","","<div class='trialBorder'><div class='vertical-center'><img src='img/correct.jpg'></div><div class='respDiv'><div class='respDivL'><font style='color:orange'>Match<br>(e)</font></div><div class='respDivR'>No Match<br>(i)</div></div></div>","null","","","","","","","","","",""
"html-keyboard-response","110","272441","0.0-7.0-1.15","aytest","bdp_wmem","Mon Feb 08 2021 08:29:06 GMT-0500 (Eastern Standard Time)","589966","Match,No Match","","null","","","","FIX","","<div class='trialBorder'><div class='vertical-center'><img src='img/fixation2_sml.jpg'</img></div></div>","null","","","","","","","","","",""
"html-keyboard-response","111","276944","0.0-7.0-2.15","aytest","bdp_wmem","Mon Feb 08 2021 08:29:06 GMT-0500 (Eastern Standard Time)","589966","Match,No Match","","null","","","","ARRAY","","<div class='trialBorder'><div class='vertical-center'><img style='vertical-align:center; align:center' src='img/fixation2_sml.jpg'></div><div class='arrayDiv3'><div class='tl'><img class='introPic' src='trustrating_stim/white_mw091.bmp'><br><font color='green'><strong>Share</strong></font></div><div class='tc'><img class='introPic' src='trustrating_stim/white_00050_931230_fa_edt.bmp'><br><font color='red'><strong>Keep</strong></font></div><div class='tr'><img class='introPic' src='trustrating_stim/white_mw092.bmp'><br><font color='red'><strong>Keep</strong></font></div></div></div>","null","3","trustrating_stim/white_mw091.bmp,trustrating_stim/white_00050_931230_fa_edt.bmp,trustrating_stim/white_mw092.bmp","1,0,0","noMatchOutcome","i","4500","","","",""
"html-keyboard-response","112","280949","0.0-7.0-3.15","aytest","bdp_wmem","Mon Feb 08 2021 08:29:06 GMT-0500 (Eastern Standard Time)","589966","Match,No Match","","null","","","","DELAY","","<div class='trialBorder'><div class='vertical-center'><img src='img/fixation2_sml.jpg'</img></div></div>","null","","","","","","","","","",""
"html-keyboard-response","113","282909","0.0-7.0-4.15","aytest","bdp_wmem","Mon Feb 08 2021 08:29:06 GMT-0500 (Eastern Standard Time)","589966","Match,No Match","","1958","","","","TARGET","","<div class='trialBorder'><div class='targDiv'><div class='tc'><img class='introPic' src='trustrating_stim/white_mw092.bmp'><br><font color='green'><strong>Share</strong></font></div></div><div class='respDiv'><div class='respDivL'>Match<br>(e)</div><div class='respDivR'>No Match<br>(i)</div></div></div>","i","3","trustrating_stim/white_mw091.bmp,trustrating_stim/white_00050_931230_fa_edt.bmp,trustrating_stim/white_mw092.bmp","1,0,0","noMatchOutcome","i","","trustrating_stim/white_mw092.bmp","green","Share","1"
"html-keyboard-response","114","283416","0.0-7.0-5.15","aytest","bdp_wmem","Mon Feb 08 2021 08:29:06 GMT-0500 (Eastern Standard Time)","589966","Match,No Match","","null","","","","FEEDBACK","","<div class='trialBorder'><div class='vertical-center'><img src='img/correct.jpg'></div><div class='respDiv'><div class='respDivL'>Match<br>(e)</div><div class='respDivR'><font style='color:orange'>No Match<br>(i)</font></div></div></div>","null","","","","","","","","","",""
"html-keyboard-response","115","283922","0.0-7.0-1.16","aytest","bdp_wmem","Mon Feb 08 2021 08:29:06 GMT-0500 (Eastern Standard Time)","589966","Match,No Match","","null","","","","FIX","","<div class='trialBorder'><div class='vertical-center'><img src='img/fixation2_sml.jpg'</img></div></div>","null","","","","","","","","","",""
"html-keyboard-response","116","285431","0.0-7.0-2.16","aytest","bdp_wmem","Mon Feb 08 2021 08:29:06 GMT-0500 (Eastern Standard Time)","589966","Match,No Match","","null","","","","ARRAY","","<div class='trialBorder'><div class='vertical-center'><img style='vertical-align:center; align:center' src='img/fixation2_sml.jpg'></div><div class='arrayDiv1'><div class='tc'><img class='introPic' src='trustrating_stim/white_mw040.bmp'><br><font color='red'><strong>Keep</strong></font></div></div></div>","null","1","trustrating_stim/white_mw040.bmp","0","Match","e","1500","","","",""
"html-keyboard-response","117","289439","0.0-7.0-3.16","aytest","bdp_wmem","Mon Feb 08 2021 08:29:06 GMT-0500 (Eastern Standard Time)","589966","Match,No Match","","null","","","","DELAY","","<div class='trialBorder'><div class='vertical-center'><img src='img/fixation2_sml.jpg'</img></div></div>","null","","","","","","","","","",""
"html-keyboard-response","118","290377","0.0-7.0-4.16","aytest","bdp_wmem","Mon Feb 08 2021 08:29:06 GMT-0500 (Eastern Standard Time)","589966","Match,No Match","","936","","","","TARGET","","<div class='trialBorder'><div class='targDiv'><div class='tc'><img class='introPic' src='trustrating_stim/white_mw040.bmp'><br><font color='red'><strong>Keep</strong></font></div></div><div class='respDiv'><div class='respDivL'>Match<br>(e)</div><div class='respDivR'>No Match<br>(i)</div></div></div>","e","1","trustrating_stim/white_mw040.bmp","0","Match","e","","trustrating_stim/white_mw040.bmp","red","Keep","1"
"html-keyboard-response","119","290886","0.0-7.0-5.16","aytest","bdp_wmem","Mon Feb 08 2021 08:29:06 GMT-0500 (Eastern Standard Time)","589966","Match,No Match","","null","","","","FEEDBACK","","<div class='trialBorder'><div class='vertical-center'><img src='img/correct.jpg'></div><div class='respDiv'><div class='respDivL'><font style='color:orange'>Match<br>(e)</font></div><div class='respDivR'>No Match<br>(i)</div></div></div>","null","","","","","","","","","",""
"html-keyboard-response","120","291392","0.0-7.0-1.17","aytest","bdp_wmem","Mon Feb 08 2021 08:29:06 GMT-0500 (Eastern Standard Time)","589966","Match,No Match","","null","","","","FIX","","<div class='trialBorder'><div class='vertical-center'><img src='img/fixation2_sml.jpg'</img></div></div>","null","","","","","","","","","",""
"html-keyboard-response","121","292894","0.0-7.0-2.17","aytest","bdp_wmem","Mon Feb 08 2021 08:29:06 GMT-0500 (Eastern Standard Time)","589966","Match,No Match","","null","","","","ARRAY","","<div class='trialBorder'><div class='vertical-center'><img style='vertical-align:center; align:center' src='img/fixation2_sml.jpg'></div><div class='arrayDiv1'><div class='tc'><img class='introPic' src='trustrating_stim/white_00050_931230_fa_edt.bmp'><br><font color='red'><strong>Keep</strong></font></div></div></div>","null","1","trustrating_stim/white_00050_931230_fa_edt.bmp","0","noMatchFace","i","1500","","","",""
"html-keyboard-response","122","296896","0.0-7.0-3.17","aytest","bdp_wmem","Mon Feb 08 2021 08:29:06 GMT-0500 (Eastern Standard Time)","589966","Match,No Match","","null","","","","DELAY","","<div class='trialBorder'><div class='vertical-center'><img src='img/fixation2_sml.jpg'</img></div></div>","null","","","","","","","","","",""
"html-keyboard-response","123","297784","0.0-7.0-4.17","aytest","bdp_wmem","Mon Feb 08 2021 08:29:06 GMT-0500 (Eastern Standard Time)","589966","Match,No Match","","886","","","","TARGET","","<div class='trialBorder'><div class='targDiv'><div class='tc'><img class='introPic' src='trustrating_stim/white_mw003.bmp'><br><font color='red'><strong>Keep</strong></font></div></div><div class='respDiv'><div class='respDivL'>Match<br>(e)</div><div class='respDivR'>No Match<br>(i)</div></div></div>","i","1","trustrating_stim/white_00050_931230_fa_edt.bmp","0","noMatchFace","i","","trustrating_stim/white_mw003.bmp","red","Keep","1"
"html-keyboard-response","124","298291","0.0-7.0-5.17","aytest","bdp_wmem","Mon Feb 08 2021 08:29:06 GMT-0500 (Eastern Standard Time)","589966","Match,No Match","","null","","","","FEEDBACK","","<div class='trialBorder'><div class='vertical-center'><img src='img/correct.jpg'></div><div class='respDiv'><div class='respDivL'>Match<br>(e)</div><div class='respDivR'><font style='color:orange'>No Match<br>(i)</font></div></div></div>","null","","","","","","","","","",""
"html-keyboard-response","125","298796","0.0-7.0-1.18","aytest","bdp_wmem","Mon Feb 08 2021 08:29:06 GMT-0500 (Eastern Standard Time)","589966","Match,No Match","","null","","","","FIX","","<div class='trialBorder'><div class='vertical-center'><img src='img/fixation2_sml.jpg'</img></div></div>","null","","","","","","","","","",""
"html-keyboard-response","126","300299","0.0-7.0-2.18","aytest","bdp_wmem","Mon Feb 08 2021 08:29:06 GMT-0500 (Eastern Standard Time)","589966","Match,No Match","","null","","","","ARRAY","","<div class='trialBorder'><div class='vertical-center'><img style='vertical-align:center; align:center' src='img/fixation2_sml.jpg'></div><div class='arrayDiv1'><div class='tc'><img class='introPic' src='trustrating_stim/white_mw040.bmp'><br><font color='green'><strong>Share</strong></font></div></div></div>","null","1","trustrating_stim/white_mw040.bmp","1","noMatchFace","i","1500","","","",""
"html-keyboard-response","127","304305","0.0-7.0-3.18","aytest","bdp_wmem","Mon Feb 08 2021 08:29:06 GMT-0500 (Eastern Standard Time)","589966","Match,No Match","","null","","","","DELAY","","<div class='trialBorder'><div class='vertical-center'><img src='img/fixation2_sml.jpg'</img></div></div>","null","","","","","","","","","",""
"html-keyboard-response","128","305238","0.0-7.0-4.18","aytest","bdp_wmem","Mon Feb 08 2021 08:29:06 GMT-0500 (Eastern Standard Time)","589966","Match,No Match","","931","","","","TARGET","","<div class='trialBorder'><div class='targDiv'><div class='tc'><img class='introPic' src='trustrating_stim/white_mw092.bmp'><br><font color='green'><strong>Share</strong></font></div></div><div class='respDiv'><div class='respDivL'>Match<br>(e)</div><div class='respDivR'>No Match<br>(i)</div></div></div>","i","1","trustrating_stim/white_mw040.bmp","1","noMatchFace","i","","trustrating_stim/white_mw092.bmp","green","Share","1"
"html-keyboard-response","129","305740","0.0-7.0-5.18","aytest","bdp_wmem","Mon Feb 08 2021 08:29:06 GMT-0500 (Eastern Standard Time)","589966","Match,No Match","","null","","","","FEEDBACK","","<div class='trialBorder'><div class='vertical-center'><img src='img/correct.jpg'></div><div class='respDiv'><div class='respDivL'>Match<br>(e)</div><div class='respDivR'><font style='color:orange'>No Match<br>(i)</font></div></div></div>","null","","","","","","","","","",""
"html-keyboard-response","130","306246","0.0-7.0-1.19","aytest","bdp_wmem","Mon Feb 08 2021 08:29:06 GMT-0500 (Eastern Standard Time)","589966","Match,No Match","","null","","","","FIX","","<div class='trialBorder'><div class='vertical-center'><img src='img/fixation2_sml.jpg'</img></div></div>","null","","","","","","","","","",""
"html-keyboard-response","131","310749","0.0-7.0-2.19","aytest","bdp_wmem","Mon Feb 08 2021 08:29:06 GMT-0500 (Eastern Standard Time)","589966","Match,No Match","","null","","","","ARRAY","","<div class='trialBorder'><div class='vertical-center'><img style='vertical-align:center; align:center' src='img/fixation2_sml.jpg'></div><div class='arrayDiv3'><div class='tl'><img class='introPic' src='trustrating_stim/white_mw015.bmp'><br><font color='red'><strong>Keep</strong></font></div><div class='tc'><img class='introPic' src='trustrating_stim/white_mw091.bmp'><br><font color='red'><strong>Keep</strong></font></div><div class='tr'><img class='introPic' src='trustrating_stim/white_mw038.bmp'><br><font color='green'><strong>Share</strong></font></div></div></div>","null","3","trustrating_stim/white_mw015.bmp,trustrating_stim/white_mw091.bmp,trustrating_stim/white_mw038.bmp","0,0,1","Match","e","4500","","","",""
"html-keyboard-response","132","314751","0.0-7.0-3.19","aytest","bdp_wmem","Mon Feb 08 2021 08:29:06 GMT-0500 (Eastern Standard Time)","589966","Match,No Match","","null","","","","DELAY","","<div class='trialBorder'><div class='vertical-center'><img src='img/fixation2_sml.jpg'</img></div></div>","null","","","","","","","","","",""
"html-keyboard-response","133","315977","0.0-7.0-4.19","aytest","bdp_wmem","Mon Feb 08 2021 08:29:06 GMT-0500 (Eastern Standard Time)","589966","Match,No Match","","1223","","","","TARGET","","<div class='trialBorder'><div class='targDiv'><div class='tc'><img class='introPic' src='trustrating_stim/white_mw015.bmp'><br><font color='red'><strong>Keep</strong></font></div></div><div class='respDiv'><div class='respDivL'>Match<br>(e)</div><div class='respDivR'>No Match<br>(i)</div></div></div>","i","3","trustrating_stim/white_mw015.bmp,trustrating_stim/white_mw091.bmp,trustrating_stim/white_mw038.bmp","0,0,1","Match","e","","trustrating_stim/white_mw015.bmp","red","Keep","0"
"html-keyboard-response","134","316492","0.0-7.0-5.19","aytest","bdp_wmem","Mon Feb 08 2021 08:29:06 GMT-0500 (Eastern Standard Time)","589966","Match,No Match","","null","","","","FEEDBACK","","<div class='trialBorder'><div class='vertical-center'><img src='img/error.jpg'></div><div class='respDiv'><div class='respDivL'>Match<br>(e)</div><div class='respDivR'><font style='color:orange'>No Match<br>(i)</font></div></div></div>","null","","","","","","","","","",""
"html-keyboard-response","135","316993","0.0-7.0-1.20","aytest","bdp_wmem","Mon Feb 08 2021 08:29:06 GMT-0500 (Eastern Standard Time)","589966","Match,No Match","","null","","","","FIX","","<div class='trialBorder'><div class='vertical-center'><img src='img/fixation2_sml.jpg'</img></div></div>","null","","","","","","","","","",""
"html-keyboard-response","136","319996","0.0-7.0-2.20","aytest","bdp_wmem","Mon Feb 08 2021 08:29:06 GMT-0500 (Eastern Standard Time)","589966","Match,No Match","","null","","","","ARRAY","","<div class='trialBorder'><div class='vertical-center'><img style='vertical-align:center; align:center' src='img/fixation2_sml.jpg'></div><div class='arrayDiv2'><div class='tl'><img class='introPic' src='trustrating_stim/white_00807_941205_fb_edt.bmp'><br><font color='red'><strong>Keep</strong></font></div><div class='tr'><img class='introPic' src='trustrating_stim/white_mw091.bmp'><br><font color='green'><strong>Share</strong></font></div></div></div>","null","2","trustrating_stim/white_00807_941205_fb_edt.bmp,trustrating_stim/white_mw091.bmp","0,1","noMatchOutcome","i","3000","","","",""
"html-keyboard-response","137","323997","0.0-7.0-3.20","aytest","bdp_wmem","Mon Feb 08 2021 08:29:06 GMT-0500 (Eastern Standard Time)","589966","Match,No Match","","null","","","","DELAY","","<div class='trialBorder'><div class='vertical-center'><img src='img/fixation2_sml.jpg'</img></div></div>","null","","","","","","","","","",""
"html-keyboard-response","138","325846","0.0-7.0-4.20","aytest","bdp_wmem","Mon Feb 08 2021 08:29:06 GMT-0500 (Eastern Standard Time)","589966","Match,No Match","","1847","","","","TARGET","","<div class='trialBorder'><div class='targDiv'><div class='tc'><img class='introPic' src='trustrating_stim/white_mw091.bmp'><br><font color='red'><strong>Keep</strong></font></div></div><div class='respDiv'><div class='respDivL'>Match<br>(e)</div><div class='respDivR'>No Match<br>(i)</div></div></div>","i","2","trustrating_stim/white_00807_941205_fb_edt.bmp,trustrating_stim/white_mw091.bmp","0,1","noMatchOutcome","i","","trustrating_stim/white_mw091.bmp","red","Keep","1"
"html-keyboard-response","139","326348","0.0-7.0-5.20","aytest","bdp_wmem","Mon Feb 08 2021 08:29:06 GMT-0500 (Eastern Standard Time)","589966","Match,No Match","","null","","","","FEEDBACK","","<div class='trialBorder'><div class='vertical-center'><img src='img/correct.jpg'></div><div class='respDiv'><div class='respDivL'>Match<br>(e)</div><div class='respDivR'><font style='color:orange'>No Match<br>(i)</font></div></div></div>","null","","","","","","","","","",""
"html-keyboard-response","140","326852","0.0-7.0-1.21","aytest","bdp_wmem","Mon Feb 08 2021 08:29:06 GMT-0500 (Eastern Standard Time)","589966","Match,No Match","","null","","","","FIX","","<div class='trialBorder'><div class='vertical-center'><img src='img/fixation2_sml.jpg'</img></div></div>","null","","","","","","","","","",""
"html-keyboard-response","141","329862","0.0-7.0-2.21","aytest","bdp_wmem","Mon Feb 08 2021 08:29:06 GMT-0500 (Eastern Standard Time)","589966","Match,No Match","","null","","","","ARRAY","","<div class='trialBorder'><div class='vertical-center'><img style='vertical-align:center; align:center' src='img/fixation2_sml.jpg'></div><div class='arrayDiv2'><div class='tl'><img class='introPic' src='trustrating_stim/white_mw070.bmp'><br><font color='red'><strong>Keep</strong></font></div><div class='tr'><img class='introPic' src='trustrating_stim/white_00807_941205_fb_edt.bmp'><br><font color='green'><strong>Share</strong></font></div></div></div>","null","2","trustrating_stim/white_mw070.bmp,trustrating_stim/white_00807_941205_fb_edt.bmp","0,1","Match","e","3000","","","",""
"html-keyboard-response","142","333863","0.0-7.0-3.21","aytest","bdp_wmem","Mon Feb 08 2021 08:29:06 GMT-0500 (Eastern Standard Time)","589966","Match,No Match","","null","","","","DELAY","","<div class='trialBorder'><div class='vertical-center'><img src='img/fixation2_sml.jpg'</img></div></div>","null","","","","","","","","","",""
"html-keyboard-response","143","334796","0.0-7.0-4.21","aytest","bdp_wmem","Mon Feb 08 2021 08:29:06 GMT-0500 (Eastern Standard Time)","589966","Match,No Match","","931","","","","TARGET","","<div class='trialBorder'><div class='targDiv'><div class='tc'><img class='introPic' src='trustrating_stim/white_mw070.bmp'><br><font color='red'><strong>Keep</strong></font></div></div><div class='respDiv'><div class='respDivL'>Match<br>(e)</div><div class='respDivR'>No Match<br>(i)</div></div></div>","e","2","trustrating_stim/white_mw070.bmp,trustrating_stim/white_00807_941205_fb_edt.bmp","0,1","Match","e","","trustrating_stim/white_mw070.bmp","red","Keep","1"
"html-keyboard-response","144","335303","0.0-7.0-5.21","aytest","bdp_wmem","Mon Feb 08 2021 08:29:06 GMT-0500 (Eastern Standard Time)","589966","Match,No Match","","null","","","","FEEDBACK","","<div class='trialBorder'><div class='vertical-center'><img src='img/correct.jpg'></div><div class='respDiv'><div class='respDivL'><font style='color:orange'>Match<br>(e)</font></div><div class='respDivR'>No Match<br>(i)</div></div></div>","null","","","","","","","","","",""
"html-keyboard-response","145","335805","0.0-7.0-1.22","aytest","bdp_wmem","Mon Feb 08 2021 08:29:06 GMT-0500 (Eastern Standard Time)","589966","Match,No Match","","null","","","","FIX","","<div class='trialBorder'><div class='vertical-center'><img src='img/fixation2_sml.jpg'</img></div></div>","null","","","","","","","","","",""
"html-keyboard-response","146","337308","0.0-7.0-2.22","aytest","bdp_wmem","Mon Feb 08 2021 08:29:06 GMT-0500 (Eastern Standard Time)","589966","Match,No Match","","null","","","","ARRAY","","<div class='trialBorder'><div class='vertical-center'><img style='vertical-align:center; align:center' src='img/fixation2_sml.jpg'></div><div class='arrayDiv1'><div class='tc'><img class='introPic' src='trustrating_stim/white_mw091.bmp'><br><font color='green'><strong>Share</strong></font></div></div></div>","null","1","trustrating_stim/white_mw091.bmp","1","Match","e","1500","","","",""
"html-keyboard-response","147","341322","0.0-7.0-3.22","aytest","bdp_wmem","Mon Feb 08 2021 08:29:06 GMT-0500 (Eastern Standard Time)","589966","Match,No Match","","null","","","","DELAY","","<div class='trialBorder'><div class='vertical-center'><img src='img/fixation2_sml.jpg'</img></div></div>","null","","","","","","","","","",""
"html-keyboard-response","148","343219","0.0-7.0-4.22","aytest","bdp_wmem","Mon Feb 08 2021 08:29:06 GMT-0500 (Eastern Standard Time)","589966","Match,No Match","","1895","","","","TARGET","","<div class='trialBorder'><div class='targDiv'><div class='tc'><img class='introPic' src='trustrating_stim/white_mw091.bmp'><br><font color='green'><strong>Share</strong></font></div></div><div class='respDiv'><div class='respDivL'>Match<br>(e)</div><div class='respDivR'>No Match<br>(i)</div></div></div>","e","1","trustrating_stim/white_mw091.bmp","1","Match","e","","trustrating_stim/white_mw091.bmp","green","Share","1"
"html-keyboard-response","149","343723","0.0-7.0-5.22","aytest","bdp_wmem","Mon Feb 08 2021 08:29:06 GMT-0500 (Eastern Standard Time)","589966","Match,No Match","","null","","","","FEEDBACK","","<div class='trialBorder'><div class='vertical-center'><img src='img/correct.jpg'></div><div class='respDiv'><div class='respDivL'><font style='color:orange'>Match<br>(e)</font></div><div class='respDivR'>No Match<br>(i)</div></div></div>","null","","","","","","","","","",""
"html-keyboard-response","150","344229","0.0-7.0-1.23","aytest","bdp_wmem","Mon Feb 08 2021 08:29:06 GMT-0500 (Eastern Standard Time)","589966","Match,No Match","","null","","","","FIX","","<div class='trialBorder'><div class='vertical-center'><img src='img/fixation2_sml.jpg'</img></div></div>","null","","","","","","","","","",""
"html-keyboard-response","151","347231","0.0-7.0-2.23","aytest","bdp_wmem","Mon Feb 08 2021 08:29:06 GMT-0500 (Eastern Standard Time)","589966","Match,No Match","","null","","","","ARRAY","","<div class='trialBorder'><div class='vertical-center'><img style='vertical-align:center; align:center' src='img/fixation2_sml.jpg'></div><div class='arrayDiv2'><div class='tl'><img class='introPic' src='trustrating_stim/white_mw012.bmp'><br><font color='green'><strong>Share</strong></font></div><div class='tr'><img class='introPic' src='trustrating_stim/white_mw013.bmp'><br><font color='red'><strong>Keep</strong></font></div></div></div>","null","2","trustrating_stim/white_mw012.bmp,trustrating_stim/white_mw013.bmp","1,0","noMatchFace","i","3000","","","",""
"html-keyboard-response","152","351240","0.0-7.0-3.23","aytest","bdp_wmem","Mon Feb 08 2021 08:29:06 GMT-0500 (Eastern Standard Time)","589966","Match,No Match","","null","","","","DELAY","","<div class='trialBorder'><div class='vertical-center'><img src='img/fixation2_sml.jpg'</img></div></div>","null","","","","","","","","","",""
"html-keyboard-response","153","352154","0.0-7.0-4.23","aytest","bdp_wmem","Mon Feb 08 2021 08:29:06 GMT-0500 (Eastern Standard Time)","589966","Match,No Match","","912","","","","TARGET","","<div class='trialBorder'><div class='targDiv'><div class='tc'><img class='introPic' src='trustrating_stim/white_mw040.bmp'><br><font color='red'><strong>Keep</strong></font></div></div><div class='respDiv'><div class='respDivL'>Match<br>(e)</div><div class='respDivR'>No Match<br>(i)</div></div></div>","i","2","trustrating_stim/white_mw012.bmp,trustrating_stim/white_mw013.bmp","1,0","noMatchFace","i","","trustrating_stim/white_mw040.bmp","red","Keep","1"
"html-keyboard-response","154","352657","0.0-7.0-5.23","aytest","bdp_wmem","Mon Feb 08 2021 08:29:06 GMT-0500 (Eastern Standard Time)","589966","Match,No Match","","null","","","","FEEDBACK","","<div class='trialBorder'><div class='vertical-center'><img src='img/correct.jpg'></div><div class='respDiv'><div class='respDivL'>Match<br>(e)</div><div class='respDivR'><font style='color:orange'>No Match<br>(i)</font></div></div></div>","null","","","","","","","","","",""
"html-keyboard-response","155","353166","0.0-7.0-1.24","aytest","bdp_wmem","Mon Feb 08 2021 08:29:06 GMT-0500 (Eastern Standard Time)","589966","Match,No Match","","null","","","","FIX","","<div class='trialBorder'><div class='vertical-center'><img src='img/fixation2_sml.jpg'</img></div></div>","null","","","","","","","","","",""
"html-keyboard-response","156","356169","0.0-7.0-2.24","aytest","bdp_wmem","Mon Feb 08 2021 08:29:06 GMT-0500 (Eastern Standard Time)","589966","Match,No Match","","null","","","","ARRAY","","<div class='trialBorder'><div class='vertical-center'><img style='vertical-align:center; align:center' src='img/fixation2_sml.jpg'></div><div class='arrayDiv2'><div class='tl'><img class='introPic' src='trustrating_stim/white_00807_941205_fb_edt.bmp'><br><font color='green'><strong>Share</strong></font></div><div class='tr'><img class='introPic' src='trustrating_stim/white_mw091.bmp'><br><font color='red'><strong>Keep</strong></font></div></div></div>","null","2","trustrating_stim/white_00807_941205_fb_edt.bmp,trustrating_stim/white_mw091.bmp","1,0","noMatchOutcome","i","3000","","","",""
"html-keyboard-response","157","360171","0.0-7.0-3.24","aytest","bdp_wmem","Mon Feb 08 2021 08:29:06 GMT-0500 (Eastern Standard Time)","589966","Match,No Match","","null","","","","DELAY","","<div class='trialBorder'><div class='vertical-center'><img src='img/fixation2_sml.jpg'</img></div></div>","null","","","","","","","","","",""
"html-keyboard-response","158","362222","0.0-7.0-4.24","aytest","bdp_wmem","Mon Feb 08 2021 08:29:06 GMT-0500 (Eastern Standard Time)","589966","Match,No Match","","2049","","","","TARGET","","<div class='trialBorder'><div class='targDiv'><div class='tc'><img class='introPic' src='trustrating_stim/white_00807_941205_fb_edt.bmp'><br><font color='red'><strong>Keep</strong></font></div></div><div class='respDiv'><div class='respDivL'>Match<br>(e)</div><div class='respDivR'>No Match<br>(i)</div></div></div>","i","2","trustrating_stim/white_00807_941205_fb_edt.bmp,trustrating_stim/white_mw091.bmp","1,0","noMatchOutcome","i","","trustrating_stim/white_00807_941205_fb_edt.bmp","red","Keep","1"
"html-keyboard-response","159","362726","0.0-7.0-5.24","aytest","bdp_wmem","Mon Feb 08 2021 08:29:06 GMT-0500 (Eastern Standard Time)","589966","Match,No Match","","null","","","","FEEDBACK","","<div class='trialBorder'><div class='vertical-center'><img src='img/correct.jpg'></div><div class='respDiv'><div class='respDivL'>Match<br>(e)</div><div class='respDivR'><font style='color:orange'>No Match<br>(i)</font></div></div></div>","null","","","","","","","","","",""
"html-keyboard-response","160","363232","0.0-7.0-1.25","aytest","bdp_wmem","Mon Feb 08 2021 08:29:06 GMT-0500 (Eastern Standard Time)","589966","Match,No Match","","null","","","","FIX","","<div class='trialBorder'><div class='vertical-center'><img src='img/fixation2_sml.jpg'</img></div></div>","null","","","","","","","","","",""
"html-keyboard-response","161","366236","0.0-7.0-2.25","aytest","bdp_wmem","Mon Feb 08 2021 08:29:06 GMT-0500 (Eastern Standard Time)","589966","Match,No Match","","null","","","","ARRAY","","<div class='trialBorder'><div class='vertical-center'><img style='vertical-align:center; align:center' src='img/fixation2_sml.jpg'></div><div class='arrayDiv2'><div class='tl'><img class='introPic' src='trustrating_stim/white_mw091.bmp'><br><font color='red'><strong>Keep</strong></font></div><div class='tr'><img class='introPic' src='trustrating_stim/white_mw038.bmp'><br><font color='green'><strong>Share</strong></font></div></div></div>","null","2","trustrating_stim/white_mw091.bmp,trustrating_stim/white_mw038.bmp","0,1","Match","e","3000","","","",""
"html-keyboard-response","162","370237","0.0-7.0-3.25","aytest","bdp_wmem","Mon Feb 08 2021 08:29:06 GMT-0500 (Eastern Standard Time)","589966","Match,No Match","","null","","","","DELAY","","<div class='trialBorder'><div class='vertical-center'><img src='img/fixation2_sml.jpg'</img></div></div>","null","","","","","","","","","",""
"html-keyboard-response","163","371831","0.0-7.0-4.25","aytest","bdp_wmem","Mon Feb 08 2021 08:29:06 GMT-0500 (Eastern Standard Time)","589966","Match,No Match","","1592","","","","TARGET","","<div class='trialBorder'><div class='targDiv'><div class='tc'><img class='introPic' src='trustrating_stim/white_mw091.bmp'><br><font color='red'><strong>Keep</strong></font></div></div><div class='respDiv'><div class='respDivL'>Match<br>(e)</div><div class='respDivR'>No Match<br>(i)</div></div></div>","e","2","trustrating_stim/white_mw091.bmp,trustrating_stim/white_mw038.bmp","0,1","Match","e","","trustrating_stim/white_mw091.bmp","red","Keep","1"
"html-keyboard-response","164","372339","0.0-7.0-5.25","aytest","bdp_wmem","Mon Feb 08 2021 08:29:06 GMT-0500 (Eastern Standard Time)","589966","Match,No Match","","null","","","","FEEDBACK","","<div class='trialBorder'><div class='vertical-center'><img src='img/correct.jpg'></div><div class='respDiv'><div class='respDivL'><font style='color:orange'>Match<br>(e)</font></div><div class='respDivR'>No Match<br>(i)</div></div></div>","null","","","","","","","","","",""
"html-keyboard-response","165","372842","0.0-7.0-1.26","aytest","bdp_wmem","Mon Feb 08 2021 08:29:06 GMT-0500 (Eastern Standard Time)","589966","Match,No Match","","null","","","","FIX","","<div class='trialBorder'><div class='vertical-center'><img src='img/fixation2_sml.jpg'</img></div></div>","null","","","","","","","","","",""
"html-keyboard-response","166","374348","0.0-7.0-2.26","aytest","bdp_wmem","Mon Feb 08 2021 08:29:06 GMT-0500 (Eastern Standard Time)","589966","Match,No Match","","null","","","","ARRAY","","<div class='trialBorder'><div class='vertical-center'><img style='vertical-align:center; align:center' src='img/fixation2_sml.jpg'></div><div class='arrayDiv1'><div class='tc'><img class='introPic' src='trustrating_stim/white_mw091.bmp'><br><font color='green'><strong>Share</strong></font></div></div></div>","null","1","trustrating_stim/white_mw091.bmp","1","Match","e","1500","","","",""
"html-keyboard-response","167","378352","0.0-7.0-3.26","aytest","bdp_wmem","Mon Feb 08 2021 08:29:06 GMT-0500 (Eastern Standard Time)","589966","Match,No Match","","null","","","","DELAY","","<div class='trialBorder'><div class='vertical-center'><img src='img/fixation2_sml.jpg'</img></div></div>","null","","","","","","","","","",""
"html-keyboard-response","168","379226","0.0-7.0-4.26","aytest","bdp_wmem","Mon Feb 08 2021 08:29:06 GMT-0500 (Eastern Standard Time)","589966","Match,No Match","","871","","","","TARGET","","<div class='trialBorder'><div class='targDiv'><div class='tc'><img class='introPic' src='trustrating_stim/white_mw091.bmp'><br><font color='green'><strong>Share</strong></font></div></div><div class='respDiv'><div class='respDivL'>Match<br>(e)</div><div class='respDivR'>No Match<br>(i)</div></div></div>","e","1","trustrating_stim/white_mw091.bmp","1","Match","e","","trustrating_stim/white_mw091.bmp","green","Share","1"
"html-keyboard-response","169","379734","0.0-7.0-5.26","aytest","bdp_wmem","Mon Feb 08 2021 08:29:06 GMT-0500 (Eastern Standard Time)","589966","Match,No Match","","null","","","","FEEDBACK","","<div class='trialBorder'><div class='vertical-center'><img src='img/correct.jpg'></div><div class='respDiv'><div class='respDivL'><font style='color:orange'>Match<br>(e)</font></div><div class='respDivR'>No Match<br>(i)</div></div></div>","null","","","","","","","","","",""
"html-keyboard-response","170","380240","0.0-7.0-1.27","aytest","bdp_wmem","Mon Feb 08 2021 08:29:06 GMT-0500 (Eastern Standard Time)","589966","Match,No Match","","null","","","","FIX","","<div class='trialBorder'><div class='vertical-center'><img src='img/fixation2_sml.jpg'</img></div></div>","null","","","","","","","","","",""
"html-keyboard-response","171","384747","0.0-7.0-2.27","aytest","bdp_wmem","Mon Feb 08 2021 08:29:06 GMT-0500 (Eastern Standard Time)","589966","Match,No Match","","null","","","","ARRAY","","<div class='trialBorder'><div class='vertical-center'><img style='vertical-align:center; align:center' src='img/fixation2_sml.jpg'></div><div class='arrayDiv3'><div class='tl'><img class='introPic' src='trustrating_stim/white_mw015.bmp'><br><font color='red'><strong>Keep</strong></font></div><div class='tc'><img class='introPic' src='trustrating_stim/white_mw038.bmp'><br><font color='green'><strong>Share</strong></font></div><div class='tr'><img class='introPic' src='trustrating_stim/white_mw091.bmp'><br><font color='green'><strong>Share</strong></font></div></div></div>","null","3","trustrating_stim/white_mw015.bmp,trustrating_stim/white_mw038.bmp,trustrating_stim/white_mw091.bmp","0,1,1","Match","e","4500","","","",""
"html-keyboard-response","172","388749","0.0-7.0-3.27","aytest","bdp_wmem","Mon Feb 08 2021 08:29:06 GMT-0500 (Eastern Standard Time)","589966","Match,No Match","","null","","","","DELAY","","<div class='trialBorder'><div class='vertical-center'><img src='img/fixation2_sml.jpg'</img></div></div>","null","","","","","","","","","",""
"html-keyboard-response","173","390300","0.0-7.0-4.27","aytest","bdp_wmem","Mon Feb 08 2021 08:29:06 GMT-0500 (Eastern Standard Time)","589966","Match,No Match","","1548","","","","TARGET","","<div class='trialBorder'><div class='targDiv'><div class='tc'><img class='introPic' src='trustrating_stim/white_mw038.bmp'><br><font color='green'><strong>Share</strong></font></div></div><div class='respDiv'><div class='respDivL'>Match<br>(e)</div><div class='respDivR'>No Match<br>(i)</div></div></div>","e","3","trustrating_stim/white_mw015.bmp,trustrating_stim/white_mw038.bmp,trustrating_stim/white_mw091.bmp","0,1,1","Match","e","","trustrating_stim/white_mw038.bmp","green","Share","1"
"html-keyboard-response","174","390803","0.0-7.0-5.27","aytest","bdp_wmem","Mon Feb 08 2021 08:29:06 GMT-0500 (Eastern Standard Time)","589966","Match,No Match","","null","","","","FEEDBACK","","<div class='trialBorder'><div class='vertical-center'><img src='img/correct.jpg'></div><div class='respDiv'><div class='respDivL'><font style='color:orange'>Match<br>(e)</font></div><div class='respDivR'>No Match<br>(i)</div></div></div>","null","","","","","","","","","",""
"html-keyboard-response","175","391308","0.0-7.0-1.28","aytest","bdp_wmem","Mon Feb 08 2021 08:29:06 GMT-0500 (Eastern Standard Time)","589966","Match,No Match","","null","","","","FIX","","<div class='trialBorder'><div class='vertical-center'><img src='img/fixation2_sml.jpg'</img></div></div>","null","","","","","","","","","",""
"html-keyboard-response","176","392818","0.0-7.0-2.28","aytest","bdp_wmem","Mon Feb 08 2021 08:29:06 GMT-0500 (Eastern Standard Time)","589966","Match,No Match","","null","","","","ARRAY","","<div class='trialBorder'><div class='vertical-center'><img style='vertical-align:center; align:center' src='img/fixation2_sml.jpg'></div><div class='arrayDiv1'><div class='tc'><img class='introPic' src='trustrating_stim/white_mw033.bmp'><br><font color='red'><strong>Keep</strong></font></div></div></div>","null","1","trustrating_stim/white_mw033.bmp","0","Match","e","1500","","","",""
"html-keyboard-response","177","396826","0.0-7.0-3.28","aytest","bdp_wmem","Mon Feb 08 2021 08:29:06 GMT-0500 (Eastern Standard Time)","589966","Match,No Match","","null","","","","DELAY","","<div class='trialBorder'><div class='vertical-center'><img src='img/fixation2_sml.jpg'</img></div></div>","null","","","","","","","","","",""
"html-keyboard-response","178","398691","0.0-7.0-4.28","aytest","bdp_wmem","Mon Feb 08 2021 08:29:06 GMT-0500 (Eastern Standard Time)","589966","Match,No Match","","1862","","","","TARGET","","<div class='trialBorder'><div class='targDiv'><div class='tc'><img class='introPic' src='trustrating_stim/white_mw033.bmp'><br><font color='red'><strong>Keep</strong></font></div></div><div class='respDiv'><div class='respDivL'>Match<br>(e)</div><div class='respDivR'>No Match<br>(i)</div></div></div>","e","1","trustrating_stim/white_mw033.bmp","0","Match","e","","trustrating_stim/white_mw033.bmp","red","Keep","1"
"html-keyboard-response","179","399199","0.0-7.0-5.28","aytest","bdp_wmem","Mon Feb 08 2021 08:29:06 GMT-0500 (Eastern Standard Time)","589966","Match,No Match","","null","","","","FEEDBACK","","<div class='trialBorder'><div class='vertical-center'><img src='img/correct.jpg'></div><div class='respDiv'><div class='respDivL'><font style='color:orange'>Match<br>(e)</font></div><div class='respDivR'>No Match<br>(i)</div></div></div>","null","","","","","","","","","",""
"html-keyboard-response","180","399700","0.0-7.0-1.29","aytest","bdp_wmem","Mon Feb 08 2021 08:29:06 GMT-0500 (Eastern Standard Time)","589966","Match,No Match","","null","","","","FIX","","<div class='trialBorder'><div class='vertical-center'><img src='img/fixation2_sml.jpg'</img></div></div>","null","","","","","","","","","",""
"html-keyboard-response","181","402703","0.0-7.0-2.29","aytest","bdp_wmem","Mon Feb 08 2021 08:29:06 GMT-0500 (Eastern Standard Time)","589966","Match,No Match","","null","","","","ARRAY","","<div class='trialBorder'><div class='vertical-center'><img style='vertical-align:center; align:center' src='img/fixation2_sml.jpg'></div><div class='arrayDiv2'><div class='tl'><img class='introPic' src='trustrating_stim/white_00807_941205_fb_edt.bmp'><br><font color='red'><strong>Keep</strong></font></div><div class='tr'><img class='introPic' src='trustrating_stim/white_mw038.bmp'><br><font color='green'><strong>Share</strong></font></div></div></div>","null","2","trustrating_stim/white_00807_941205_fb_edt.bmp,trustrating_stim/white_mw038.bmp","0,1","Match","e","3000","","","",""
"html-keyboard-response","182","406705","0.0-7.0-3.29","aytest","bdp_wmem","Mon Feb 08 2021 08:29:06 GMT-0500 (Eastern Standard Time)","589966","Match,No Match","","null","","","","DELAY","","<div class='trialBorder'><div class='vertical-center'><img src='img/fixation2_sml.jpg'</img></div></div>","null","","","","","","","","","",""
"html-keyboard-response","183","408339","0.0-7.0-4.29","aytest","bdp_wmem","Mon Feb 08 2021 08:29:06 GMT-0500 (Eastern Standard Time)","589966","Match,No Match","","1632","","","","TARGET","","<div class='trialBorder'><div class='targDiv'><div class='tc'><img class='introPic' src='trustrating_stim/white_mw038.bmp'><br><font color='green'><strong>Share</strong></font></div></div><div class='respDiv'><div class='respDivL'>Match<br>(e)</div><div class='respDivR'>No Match<br>(i)</div></div></div>","e","2","trustrating_stim/white_00807_941205_fb_edt.bmp,trustrating_stim/white_mw038.bmp","0,1","Match","e","","trustrating_stim/white_mw038.bmp","green","Share","1"
"html-keyboard-response","184","408840","0.0-7.0-5.29","aytest","bdp_wmem","Mon Feb 08 2021 08:29:06 GMT-0500 (Eastern Standard Time)","589966","Match,No Match","","null","","","","FEEDBACK","","<div class='trialBorder'><div class='vertical-center'><img src='img/correct.jpg'></div><div class='respDiv'><div class='respDivL'><font style='color:orange'>Match<br>(e)</font></div><div class='respDivR'>No Match<br>(i)</div></div></div>","null","","","","","","","","","",""
"html-keyboard-response","185","409346","0.0-7.0-1.30","aytest","bdp_wmem","Mon Feb 08 2021 08:29:06 GMT-0500 (Eastern Standard Time)","589966","Match,No Match","","null","","","","FIX","","<div class='trialBorder'><div class='vertical-center'><img src='img/fixation2_sml.jpg'</img></div></div>","null","","","","","","","","","",""
"html-keyboard-response","186","410848","0.0-7.0-2.30","aytest","bdp_wmem","Mon Feb 08 2021 08:29:06 GMT-0500 (Eastern Standard Time)","589966","Match,No Match","","null","","","","ARRAY","","<div class='trialBorder'><div class='vertical-center'><img style='vertical-align:center; align:center' src='img/fixation2_sml.jpg'></div><div class='arrayDiv1'><div class='tc'><img class='introPic' src='trustrating_stim/white_00050_931230_fa_edt.bmp'><br><font color='red'><strong>Keep</strong></font></div></div></div>","null","1","trustrating_stim/white_00050_931230_fa_edt.bmp","0","noMatchOutcome","i","1500","","","",""
"html-keyboard-response","187","414850","0.0-7.0-3.30","aytest","bdp_wmem","Mon Feb 08 2021 08:29:06 GMT-0500 (Eastern Standard Time)","589966","Match,No Match","","null","","","","DELAY","","<div class='trialBorder'><div class='vertical-center'><img src='img/fixation2_sml.jpg'</img></div></div>","null","","","","","","","","","",""
"html-keyboard-response","188","415916","0.0-7.0-4.30","aytest","bdp_wmem","Mon Feb 08 2021 08:29:06 GMT-0500 (Eastern Standard Time)","589966","Match,No Match","","1064","","","","TARGET","","<div class='trialBorder'><div class='targDiv'><div class='tc'><img class='introPic' src='trustrating_stim/white_00050_931230_fa_edt.bmp'><br><font color='green'><strong>Share</strong></font></div></div><div class='respDiv'><div class='respDivL'>Match<br>(e)</div><div class='respDivR'>No Match<br>(i)</div></div></div>","i","1","trustrating_stim/white_00050_931230_fa_edt.bmp","0","noMatchOutcome","i","","trustrating_stim/white_00050_931230_fa_edt.bmp","green","Share","1"
"html-keyboard-response","189","416431","0.0-7.0-5.30","aytest","bdp_wmem","Mon Feb 08 2021 08:29:06 GMT-0500 (Eastern Standard Time)","589966","Match,No Match","","null","","","","FEEDBACK","","<div class='trialBorder'><div class='vertical-center'><img src='img/correct.jpg'></div><div class='respDiv'><div class='respDivL'>Match<br>(e)</div><div class='respDivR'><font style='color:orange'>No Match<br>(i)</font></div></div></div>","null","","","","","","","","","",""
"html-keyboard-response","190","416936","0.0-7.0-1.31","aytest","bdp_wmem","Mon Feb 08 2021 08:29:06 GMT-0500 (Eastern Standard Time)","589966","Match,No Match","","null","","","","FIX","","<div class='trialBorder'><div class='vertical-center'><img src='img/fixation2_sml.jpg'</img></div></div>","null","","","","","","","","","",""
"html-keyboard-response","191","421442","0.0-7.0-2.31","aytest","bdp_wmem","Mon Feb 08 2021 08:29:06 GMT-0500 (Eastern Standard Time)","589966","Match,No Match","","null","","","","ARRAY","","<div class='trialBorder'><div class='vertical-center'><img style='vertical-align:center; align:center' src='img/fixation2_sml.jpg'></div><div class='arrayDiv3'><div class='tl'><img class='introPic' src='trustrating_stim/white_mw013.bmp'><br><font color='green'><strong>Share</strong></font></div><div class='tc'><img class='introPic' src='trustrating_stim/white_mw033.bmp'><br><font color='green'><strong>Share</strong></font></div><div class='tr'><img class='introPic' src='trustrating_stim/white_mw015.bmp'><br><font color='red'><strong>Keep</strong></font></div></div></div>","null","3","trustrating_stim/white_mw013.bmp,trustrating_stim/white_mw033.bmp,trustrating_stim/white_mw015.bmp","1,1,0","Match","e","4500","","","",""
"html-keyboard-response","192","425444","0.0-7.0-3.31","aytest","bdp_wmem","Mon Feb 08 2021 08:29:06 GMT-0500 (Eastern Standard Time)","589966","Match,No Match","","null","","","","DELAY","","<div class='trialBorder'><div class='vertical-center'><img src='img/fixation2_sml.jpg'</img></div></div>","null","","","","","","","","","",""
"html-keyboard-response","193","427353","0.0-7.0-4.31","aytest","bdp_wmem","Mon Feb 08 2021 08:29:06 GMT-0500 (Eastern Standard Time)","589966","Match,No Match","","1906","","","","TARGET","","<div class='trialBorder'><div class='targDiv'><div class='tc'><img class='introPic' src='trustrating_stim/white_mw033.bmp'><br><font color='green'><strong>Share</strong></font></div></div><div class='respDiv'><div class='respDivL'>Match<br>(e)</div><div class='respDivR'>No Match<br>(i)</div></div></div>","e","3","trustrating_stim/white_mw013.bmp,trustrating_stim/white_mw033.bmp,trustrating_stim/white_mw015.bmp","1,1,0","Match","e","","trustrating_stim/white_mw033.bmp","green","Share","1"
"html-keyboard-response","194","427862","0.0-7.0-5.31","aytest","bdp_wmem","Mon Feb 08 2021 08:29:06 GMT-0500 (Eastern Standard Time)","589966","Match,No Match","","null","","","","FEEDBACK","","<div class='trialBorder'><div class='vertical-center'><img src='img/correct.jpg'></div><div class='respDiv'><div class='respDivL'><font style='color:orange'>Match<br>(e)</font></div><div class='respDivR'>No Match<br>(i)</div></div></div>","null","","","","","","","","","",""
"html-keyboard-response","195","428372","0.0-7.0-1.32","aytest","bdp_wmem","Mon Feb 08 2021 08:29:06 GMT-0500 (Eastern Standard Time)","589966","Match,No Match","","null","","","","FIX","","<div class='trialBorder'><div class='vertical-center'><img src='img/fixation2_sml.jpg'</img></div></div>","null","","","","","","","","","",""
"html-keyboard-response","196","431375","0.0-7.0-2.32","aytest","bdp_wmem","Mon Feb 08 2021 08:29:06 GMT-0500 (Eastern Standard Time)","589966","Match,No Match","","null","","","","ARRAY","","<div class='trialBorder'><div class='vertical-center'><img style='vertical-align:center; align:center' src='img/fixation2_sml.jpg'></div><div class='arrayDiv2'><div class='tl'><img class='introPic' src='trustrating_stim/white_mw033.bmp'><br><font color='red'><strong>Keep</strong></font></div><div class='tr'><img class='introPic' src='trustrating_stim/white_mw013.bmp'><br><font color='green'><strong>Share</strong></font></div></div></div>","null","2","trustrating_stim/white_mw033.bmp,trustrating_stim/white_mw013.bmp","0,1","Match","e","3000","","","",""
"html-keyboard-response","197","435379","0.0-7.0-3.32","aytest","bdp_wmem","Mon Feb 08 2021 08:29:06 GMT-0500 (Eastern Standard Time)","589966","Match,No Match","","null","","","","DELAY","","<div class='trialBorder'><div class='vertical-center'><img src='img/fixation2_sml.jpg'</img></div></div>","null","","","","","","","","","",""
"html-keyboard-response","198","436551","0.0-7.0-4.32","aytest","bdp_wmem","Mon Feb 08 2021 08:29:06 GMT-0500 (Eastern Standard Time)","589966","Match,No Match","","1169","","","","TARGET","","<div class='trialBorder'><div class='targDiv'><div class='tc'><img class='introPic' src='trustrating_stim/white_mw033.bmp'><br><font color='red'><strong>Keep</strong></font></div></div><div class='respDiv'><div class='respDivL'>Match<br>(e)</div><div class='respDivR'>No Match<br>(i)</div></div></div>","e","2","trustrating_stim/white_mw033.bmp,trustrating_stim/white_mw013.bmp","0,1","Match","e","","trustrating_stim/white_mw033.bmp","red","Keep","1"
