"trial_type","trial_index","time_elapsed","internal_node_id","subject_id","task","startTime","totalTime","labels","view_history","rt","event","trial","time","trialtype","success","stimulus","key_press","arraySize","arrayFaces","arrayOutcomes","matchType","corrResp","trial_duration","targFace","targCol","targOutcome","corr"
"pavlovia","0","4","0.0-0.0","testing","bdp_wmem","Wed Dec 09 2020 22:20:10 GMT-0500 (Eastern Standard Time)","606276","Match,No Match","","","","","","","","","","","","","","","","","","",""
"instructions","1","1918","0.0-1.0","testing","bdp_wmem","Wed Dec 09 2020 22:20:10 GMT-0500 (Eastern Standard Time)","606276","Match,No Match","[{""page_index"":0,""viewing_time"":1913}]","1913","","","","","","","","","","","","","","","","",""
"","","","","testing","bdp_wmem","Wed Dec 09 2020 22:20:10 GMT-0500 (Eastern Standard Time)","606276","Match,No Match","","","fullscreenenter","2","4047","fullscreenenter","","","","","","","","","","","","",""
"fullscreen","2","5020","0.0-2.0","testing","bdp_wmem","Wed Dec 09 2020 22:20:10 GMT-0500 (Eastern Standard Time)","606276","Match,No Match","","","","","","","true","","","","","","","","","","","",""
"instructions","3","115001","0.0-4.0","testing","bdp_wmem","Wed Dec 09 2020 22:20:10 GMT-0500 (Eastern Standard Time)","606276","Match,No Match","[{""page_index"":0,""viewing_time"":8245},{""page_index"":1,""viewing_time"":63077},{""page_index"":2,""viewing_time"":7440},{""page_index"":1,""viewing_time"":16186},{""page_index"":2,""viewing_time"":6075},{""page_index"":3,""viewing_time"":3563},{""page_index"":4,""viewing_time"":5394}]","109980","","","","","","","","","","","","","","","","",""
"html-keyboard-response","4","115507","0.0-5.0-1.0","testing","bdp_wmem","Wed Dec 09 2020 22:20:10 GMT-0500 (Eastern Standard Time)","606276","Match,No Match","","null","","","","FIX","","<div class='trialBorder'><div class='vertical-center'><img src='img/fixation2_sml.jpg'</img></div></div>","null","","","","","","","","","",""
"html-keyboard-response","5","117509","0.0-5.0-2.0","testing","bdp_wmem","Wed Dec 09 2020 22:20:10 GMT-0500 (Eastern Standard Time)","606276","Match,No Match","","null","","","","ARRAY","","<div class='trialBorder'><div class='vertical-center'><div class='trialDiv2'><div class='vertical-center'><img style='vertical-align:center; align:center' src='img/fixation2_sml.jpg'></div><div class='tc'><div class='vertical-center'><img class='introPic' src='trustrating_stim/white_00807_941205_fb_edt.bmp'><br><font color='green'><strong>Share</strong></font></div></div><div class='bc'><div class='vertical-center'><img class='introPic' src='trustrating_stim/white_mw033.bmp'><br><font color='red'><strong>Keep</strong></font></div></div></div></div></div>","null","2","trustrating_stim/white_00807_941205_fb_edt.bmp,trustrating_stim/white_mw033.bmp","1,0","noMatchFace","i","2000","","","",""
"html-keyboard-response","6","121514","0.0-5.0-3.0","testing","bdp_wmem","Wed Dec 09 2020 22:20:10 GMT-0500 (Eastern Standard Time)","606276","Match,No Match","","null","","","","DELAY","","<div class='trialBorder'><div class='vertical-center'><img src='img/fixation2_sml.jpg'</img></div></div>","null","","","","","","","","","",""
"html-keyboard-response","7","123149","0.0-5.0-4.0","testing","bdp_wmem","Wed Dec 09 2020 22:20:10 GMT-0500 (Eastern Standard Time)","606276","Match,No Match","","1632","","","","TARGET","","<div class='trialBorder'><div class='vertical-center'><div class='trialFBDiv'><div class='trialDiv1'><div class='vertical-center'><img class='introPic' src='trustrating_stim/white_mw091.bmp'><br><font color='red'><strong>Keep</strong></font></div></div><div class='respDivL'>Match<p>(e)</div><div class='respDivR'>No Match<p>(i)</div></div></div></div>","i","2","trustrating_stim/white_00807_941205_fb_edt.bmp,trustrating_stim/white_mw033.bmp","1,0","noMatchFace","i","","trustrating_stim/white_mw003.bmp","green","Share","1"
"html-keyboard-response","8","123651","0.0-5.0-5.0","testing","bdp_wmem","Wed Dec 09 2020 22:20:10 GMT-0500 (Eastern Standard Time)","606276","Match,No Match","","null","","","","FEEDBACK","","<div class='trialBorder'><div class='vertical-center'><div class='trialFBDiv'><div class='trialDiv1'><div class='vertical-center'><img src='img/correct.jpg'></div></div><div class='respDivL'>Match<p>(e)</div><div class='respDivR'><font style='color:orange'>No Match<p>(i)</font></div></div></div></div>","null","","","","","","","","","",""
"html-keyboard-response","9","124152","0.0-5.0-1.1","testing","bdp_wmem","Wed Dec 09 2020 22:20:10 GMT-0500 (Eastern Standard Time)","606276","Match,No Match","","null","","","","FIX","","<div class='trialBorder'><div class='vertical-center'><img src='img/fixation2_sml.jpg'</img></div></div>","null","","","","","","","","","",""
"html-keyboard-response","10","126158","0.0-5.0-2.1","testing","bdp_wmem","Wed Dec 09 2020 22:20:10 GMT-0500 (Eastern Standard Time)","606276","Match,No Match","","null","","","","ARRAY","","<div class='trialBorder'><div class='vertical-center'><div class='trialDiv2'><div class='vertical-center'><img style='vertical-align:center; align:center' src='img/fixation2_sml.jpg'></div><div class='tc'><div class='vertical-center'><img class='introPic' src='trustrating_stim/white_mw038.bmp'><br><font color='green'><strong>Share</strong></font></div></div><div class='bc'><div class='vertical-center'><img class='introPic' src='trustrating_stim/white_mw040.bmp'><br><font color='red'><strong>Keep</strong></font></div></div></div></div></div>","null","2","trustrating_stim/white_mw038.bmp,trustrating_stim/white_mw040.bmp","1,0","Match","e","2000","","","",""
"html-keyboard-response","11","130164","0.0-5.0-3.1","testing","bdp_wmem","Wed Dec 09 2020 22:20:10 GMT-0500 (Eastern Standard Time)","606276","Match,No Match","","null","","","","DELAY","","<div class='trialBorder'><div class='vertical-center'><img src='img/fixation2_sml.jpg'</img></div></div>","null","","","","","","","","","",""
"html-keyboard-response","12","131841","0.0-5.0-4.1","testing","bdp_wmem","Wed Dec 09 2020 22:20:10 GMT-0500 (Eastern Standard Time)","606276","Match,No Match","","1675","","","","TARGET","","<div class='trialBorder'><div class='vertical-center'><div class='trialFBDiv'><div class='trialDiv1'><div class='vertical-center'><img class='introPic' src='trustrating_stim/white_mw038.bmp'><br><font color='green'><strong>Share</strong></font></div></div><div class='respDivL'>Match<p>(e)</div><div class='respDivR'>No Match<p>(i)</div></div></div></div>","e","2","trustrating_stim/white_mw038.bmp,trustrating_stim/white_mw040.bmp","1,0","Match","e","","trustrating_stim/white_mw003.bmp","green","Share","1"
"html-keyboard-response","13","132343","0.0-5.0-5.1","testing","bdp_wmem","Wed Dec 09 2020 22:20:10 GMT-0500 (Eastern Standard Time)","606276","Match,No Match","","null","","","","FEEDBACK","","<div class='trialBorder'><div class='vertical-center'><div class='trialFBDiv'><div class='trialDiv1'><div class='vertical-center'><img src='img/correct.jpg'></div></div><div class='respDivL'><font style='color:orange'>Match<p>(e)</font></div><div class='respDivR'>No Match<p>(i)</div></div></div></div>","null","","","","","","","","","",""
"html-keyboard-response","14","132844","0.0-5.0-1.2","testing","bdp_wmem","Wed Dec 09 2020 22:20:10 GMT-0500 (Eastern Standard Time)","606276","Match,No Match","","null","","","","FIX","","<div class='trialBorder'><div class='vertical-center'><img src='img/fixation2_sml.jpg'</img></div></div>","null","","","","","","","","","",""
"html-keyboard-response","15","134850","0.0-5.0-2.2","testing","bdp_wmem","Wed Dec 09 2020 22:20:10 GMT-0500 (Eastern Standard Time)","606276","Match,No Match","","null","","","","ARRAY","","<div class='trialBorder'><div class='vertical-center'><div class='trialDiv4'><div class='vertical-center'><img style='vertical-align:center; align:center' src='img/fixation2_sml.jpg'></div><div class='tc'><div class='vertical-center'><img class='introPic' src='trustrating_stim/white_00050_931230_fa_edt.bmp'><br><font color='red'><strong>Keep</strong></font></div></div><div class='bl'><div class='vertical-center'><img class='introPic' src='trustrating_stim/white_mw012.bmp'><br><font color='red'><strong>Keep</strong></font></div></div><div class='br'><div class='vertical-center'><img class='introPic' src='trustrating_stim/white_mw003.bmp'><br><font color='green'><strong>Share</strong></font></div></div></div></div></div>","null","3","trustrating_stim/white_00050_931230_fa_edt.bmp,trustrating_stim/white_mw012.bmp,trustrating_stim/white_mw003.bmp","0,0,1","noMatchOutcome","i","2000","","","",""
"html-keyboard-response","16","138853","0.0-5.0-3.2","testing","bdp_wmem","Wed Dec 09 2020 22:20:10 GMT-0500 (Eastern Standard Time)","606276","Match,No Match","","null","","","","DELAY","","<div class='trialBorder'><div class='vertical-center'><img src='img/fixation2_sml.jpg'</img></div></div>","null","","","","","","","","","",""
"html-keyboard-response","17","141004","0.0-5.0-4.2","testing","bdp_wmem","Wed Dec 09 2020 22:20:10 GMT-0500 (Eastern Standard Time)","606276","Match,No Match","","2150","","","","TARGET","","<div class='trialBorder'><div class='vertical-center'><div class='trialFBDiv'><div class='trialDiv1'><div class='vertical-center'><img class='introPic' src='trustrating_stim/white_mw003.bmp'><br><font color='red'><strong>Keep</strong></font></div></div><div class='respDivL'>Match<p>(e)</div><div class='respDivR'>No Match<p>(i)</div></div></div></div>","i","3","trustrating_stim/white_00050_931230_fa_edt.bmp,trustrating_stim/white_mw012.bmp,trustrating_stim/white_mw003.bmp","0,0,1","noMatchOutcome","i","","trustrating_stim/white_mw003.bmp","green","Share","1"
"html-keyboard-response","18","141507","0.0-5.0-5.2","testing","bdp_wmem","Wed Dec 09 2020 22:20:10 GMT-0500 (Eastern Standard Time)","606276","Match,No Match","","null","","","","FEEDBACK","","<div class='trialBorder'><div class='vertical-center'><div class='trialFBDiv'><div class='trialDiv1'><div class='vertical-center'><img src='img/correct.jpg'></div></div><div class='respDivL'>Match<p>(e)</div><div class='respDivR'><font style='color:orange'>No Match<p>(i)</font></div></div></div></div>","null","","","","","","","","","",""
"html-keyboard-response","19","142008","0.0-5.0-1.3","testing","bdp_wmem","Wed Dec 09 2020 22:20:10 GMT-0500 (Eastern Standard Time)","606276","Match,No Match","","null","","","","FIX","","<div class='trialBorder'><div class='vertical-center'><img src='img/fixation2_sml.jpg'</img></div></div>","null","","","","","","","","","",""
"html-keyboard-response","20","144015","0.0-5.0-2.3","testing","bdp_wmem","Wed Dec 09 2020 22:20:10 GMT-0500 (Eastern Standard Time)","606276","Match,No Match","","null","","","","ARRAY","","<div class='trialBorder'><div class='vertical-center'><div class='trialDiv4'><div class='vertical-center'><img style='vertical-align:center; align:center' src='img/fixation2_sml.jpg'></div><div class='tc'><div class='vertical-center'><img class='introPic' src='trustrating_stim/white_mw040.bmp'><br><font color='red'><strong>Keep</strong></font></div></div><div class='bl'><div class='vertical-center'><img class='introPic' src='trustrating_stim/white_mw038.bmp'><br><font color='green'><strong>Share</strong></font></div></div><div class='br'><div class='vertical-center'><img class='introPic' src='trustrating_stim/white_mw012.bmp'><br><font color='red'><strong>Keep</strong></font></div></div></div></div></div>","null","3","trustrating_stim/white_mw040.bmp,trustrating_stim/white_mw038.bmp,trustrating_stim/white_mw012.bmp","0,1,0","Match","e","2000","","","",""
"html-keyboard-response","21","148018","0.0-5.0-3.3","testing","bdp_wmem","Wed Dec 09 2020 22:20:10 GMT-0500 (Eastern Standard Time)","606276","Match,No Match","","null","","","","DELAY","","<div class='trialBorder'><div class='vertical-center'><img src='img/fixation2_sml.jpg'</img></div></div>","null","","","","","","","","","",""
"html-keyboard-response","22","149873","0.0-5.0-4.3","testing","bdp_wmem","Wed Dec 09 2020 22:20:10 GMT-0500 (Eastern Standard Time)","606276","Match,No Match","","1853","","","","TARGET","","<div class='trialBorder'><div class='vertical-center'><div class='trialFBDiv'><div class='trialDiv1'><div class='vertical-center'><img class='introPic' src='trustrating_stim/white_mw012.bmp'><br><font color='red'><strong>Keep</strong></font></div></div><div class='respDivL'>Match<p>(e)</div><div class='respDivR'>No Match<p>(i)</div></div></div></div>","e","3","trustrating_stim/white_mw040.bmp,trustrating_stim/white_mw038.bmp,trustrating_stim/white_mw012.bmp","0,1,0","Match","e","","trustrating_stim/white_mw003.bmp","green","Share","1"
"html-keyboard-response","23","150378","0.0-5.0-5.3","testing","bdp_wmem","Wed Dec 09 2020 22:20:10 GMT-0500 (Eastern Standard Time)","606276","Match,No Match","","null","","","","FEEDBACK","","<div class='trialBorder'><div class='vertical-center'><div class='trialFBDiv'><div class='trialDiv1'><div class='vertical-center'><img src='img/correct.jpg'></div></div><div class='respDivL'><font style='color:orange'>Match<p>(e)</font></div><div class='respDivR'>No Match<p>(i)</div></div></div></div>","null","","","","","","","","","",""
"html-keyboard-response","24","150879","0.0-5.0-1.4","testing","bdp_wmem","Wed Dec 09 2020 22:20:10 GMT-0500 (Eastern Standard Time)","606276","Match,No Match","","null","","","","FIX","","<div class='trialBorder'><div class='vertical-center'><img src='img/fixation2_sml.jpg'</img></div></div>","null","","","","","","","","","",""
"html-keyboard-response","25","154882","0.0-5.0-2.4","testing","bdp_wmem","Wed Dec 09 2020 22:20:10 GMT-0500 (Eastern Standard Time)","606276","Match,No Match","","null","","","","ARRAY","","<div class='trialBorder'><div class='vertical-center'><div class='trialDiv4'><div class='vertical-center'><img style='vertical-align:center; align:center' src='img/fixation2_sml.jpg'></div><div class='tl'><div class='vertical-center'><img class='introPic' src='trustrating_stim/white_mw038.bmp'><br><font color='green'><strong>Share</strong></font></div></div><div class='tr'><div class='vertical-center'><img class='introPic' src='trustrating_stim/white_mw092.bmp'><br><font color='red'><strong>Keep</strong></font></div></div><div class='bl'><div class='vertical-center'><img class='introPic' src='trustrating_stim/white_mw015.bmp'><br><font color='red'><strong>Keep</strong></font></div></div><div class='br'><div class='vertical-center'><img class='introPic' src='trustrating_stim/white_mw040.bmp'><br><font color='green'><strong>Share</strong></font></div></div></div></div></div>","null","4","trustrating_stim/white_mw038.bmp,trustrating_stim/white_mw092.bmp,trustrating_stim/white_mw015.bmp,trustrating_stim/white_mw040.bmp","1,0,0,1","Match","e","4000","","","",""
"html-keyboard-response","26","158887","0.0-5.0-3.4","testing","bdp_wmem","Wed Dec 09 2020 22:20:10 GMT-0500 (Eastern Standard Time)","606276","Match,No Match","","null","","","","DELAY","","<div class='trialBorder'><div class='vertical-center'><img src='img/fixation2_sml.jpg'</img></div></div>","null","","","","","","","","","",""
"html-keyboard-response","27","160639","0.0-5.0-4.4","testing","bdp_wmem","Wed Dec 09 2020 22:20:10 GMT-0500 (Eastern Standard Time)","606276","Match,No Match","","1751","","","","TARGET","","<div class='trialBorder'><div class='vertical-center'><div class='trialFBDiv'><div class='trialDiv1'><div class='vertical-center'><img class='introPic' src='trustrating_stim/white_mw040.bmp'><br><font color='green'><strong>Share</strong></font></div></div><div class='respDivL'>Match<p>(e)</div><div class='respDivR'>No Match<p>(i)</div></div></div></div>","e","4","trustrating_stim/white_mw038.bmp,trustrating_stim/white_mw092.bmp,trustrating_stim/white_mw015.bmp,trustrating_stim/white_mw040.bmp","1,0,0,1","Match","e","","trustrating_stim/white_mw003.bmp","green","Share","1"
"html-keyboard-response","28","161141","0.0-5.0-5.4","testing","bdp_wmem","Wed Dec 09 2020 22:20:10 GMT-0500 (Eastern Standard Time)","606276","Match,No Match","","null","","","","FEEDBACK","","<div class='trialBorder'><div class='vertical-center'><div class='trialFBDiv'><div class='trialDiv1'><div class='vertical-center'><img src='img/correct.jpg'></div></div><div class='respDivL'><font style='color:orange'>Match<p>(e)</font></div><div class='respDivR'>No Match<p>(i)</div></div></div></div>","null","","","","","","","","","",""
"html-keyboard-response","29","161643","0.0-5.0-1.5","testing","bdp_wmem","Wed Dec 09 2020 22:20:10 GMT-0500 (Eastern Standard Time)","606276","Match,No Match","","null","","","","FIX","","<div class='trialBorder'><div class='vertical-center'><img src='img/fixation2_sml.jpg'</img></div></div>","null","","","","","","","","","",""
"html-keyboard-response","30","165651","0.0-5.0-2.5","testing","bdp_wmem","Wed Dec 09 2020 22:20:10 GMT-0500 (Eastern Standard Time)","606276","Match,No Match","","null","","","","ARRAY","","<div class='trialBorder'><div class='vertical-center'><div class='trialDiv4'><div class='vertical-center'><img style='vertical-align:center; align:center' src='img/fixation2_sml.jpg'></div><div class='tl'><div class='vertical-center'><img class='introPic' src='trustrating_stim/white_mw040.bmp'><br><font color='red'><strong>Keep</strong></font></div></div><div class='tr'><div class='vertical-center'><img class='introPic' src='trustrating_stim/white_mw091.bmp'><br><font color='green'><strong>Share</strong></font></div></div><div class='bl'><div class='vertical-center'><img class='introPic' src='trustrating_stim/white_00807_941205_fb_edt.bmp'><br><font color='red'><strong>Keep</strong></font></div></div><div class='br'><div class='vertical-center'><img class='introPic' src='trustrating_stim/white_mw003.bmp'><br><font color='green'><strong>Share</strong></font></div></div></div></div></div>","null","4","trustrating_stim/white_mw040.bmp,trustrating_stim/white_mw091.bmp,trustrating_stim/white_00807_941205_fb_edt.bmp,trustrating_stim/white_mw003.bmp","0,1,0,1","noMatchOutcome","i","4000","","","",""
"html-keyboard-response","31","169656","0.0-5.0-3.5","testing","bdp_wmem","Wed Dec 09 2020 22:20:10 GMT-0500 (Eastern Standard Time)","606276","Match,No Match","","null","","","","DELAY","","<div class='trialBorder'><div class='vertical-center'><img src='img/fixation2_sml.jpg'</img></div></div>","null","","","","","","","","","",""
"html-keyboard-response","32","170575","0.0-5.0-4.5","testing","bdp_wmem","Wed Dec 09 2020 22:20:10 GMT-0500 (Eastern Standard Time)","606276","Match,No Match","","917","","","","TARGET","","<div class='trialBorder'><div class='vertical-center'><div class='trialFBDiv'><div class='trialDiv1'><div class='vertical-center'><img class='introPic' src='trustrating_stim/white_mw040.bmp'><br><font color='green'><strong>Share</strong></font></div></div><div class='respDivL'>Match<p>(e)</div><div class='respDivR'>No Match<p>(i)</div></div></div></div>","i","4","trustrating_stim/white_mw040.bmp,trustrating_stim/white_mw091.bmp,trustrating_stim/white_00807_941205_fb_edt.bmp,trustrating_stim/white_mw003.bmp","0,1,0,1","noMatchOutcome","i","","trustrating_stim/white_mw003.bmp","green","Share","1"
"html-keyboard-response","33","171079","0.0-5.0-5.5","testing","bdp_wmem","Wed Dec 09 2020 22:20:10 GMT-0500 (Eastern Standard Time)","606276","Match,No Match","","null","","","","FEEDBACK","","<div class='trialBorder'><div class='vertical-center'><div class='trialFBDiv'><div class='trialDiv1'><div class='vertical-center'><img src='img/correct.jpg'></div></div><div class='respDivL'>Match<p>(e)</div><div class='respDivR'><font style='color:orange'>No Match<p>(i)</font></div></div></div></div>","null","","","","","","","","","",""
"instructions","34","174539","0.0-6.0","testing","bdp_wmem","Wed Dec 09 2020 22:20:10 GMT-0500 (Eastern Standard Time)","606276","Match,No Match","[{""page_index"":0,""viewing_time"":3459}]","3460","","","","","","","","","","","","","","","","",""
"html-keyboard-response","35","175042","0.0-7.0-1.0","testing","bdp_wmem","Wed Dec 09 2020 22:20:10 GMT-0500 (Eastern Standard Time)","606276","Match,No Match","","null","","","","FIX","","<div class='trialBorder'><div class='vertical-center'><img src='img/fixation2_sml.jpg'</img></div></div>","null","","","","","","","","","",""
"html-keyboard-response","36","177046","0.0-7.0-2.0","testing","bdp_wmem","Wed Dec 09 2020 22:20:10 GMT-0500 (Eastern Standard Time)","606276","Match,No Match","","null","","","","ARRAY","","<div class='trialBorder'><div class='vertical-center'><div class='trialDiv2'><div class='vertical-center'><img style='vertical-align:center; align:center' src='img/fixation2_sml.jpg'></div><div class='tc'><div class='vertical-center'><img class='introPic' src='trustrating_stim/white_00050_931230_fa_edt.bmp'><br><font color='red'><strong>Keep</strong></font></div></div><div class='bc'><div class='vertical-center'><img class='introPic' src='trustrating_stim/white_mw038.bmp'><br><font color='green'><strong>Share</strong></font></div></div></div></div></div>","null","2","trustrating_stim/white_00050_931230_fa_edt.bmp,trustrating_stim/white_mw038.bmp","0,1","noMatchOutcome","i","2000","","","",""
"html-keyboard-response","37","181052","0.0-7.0-3.0","testing","bdp_wmem","Wed Dec 09 2020 22:20:10 GMT-0500 (Eastern Standard Time)","606276","Match,No Match","","null","","","","DELAY","","<div class='trialBorder'><div class='vertical-center'><img src='img/fixation2_sml.jpg'</img></div></div>","null","","","","","","","","","",""
"html-keyboard-response","38","182430","0.0-7.0-4.0","testing","bdp_wmem","Wed Dec 09 2020 22:20:10 GMT-0500 (Eastern Standard Time)","606276","Match,No Match","","1377","","","","TARGET","","<div class='trialBorder'><div class='vertical-center'><div class='trialFBDiv'><div class='trialDiv1'><div class='vertical-center'><img class='introPic' src='trustrating_stim/white_mw038.bmp'><br><font color='red'><strong>Keep</strong></font></div></div><div class='respDivL'>Match<p>(e)</div><div class='respDivR'>No Match<p>(i)</div></div></div></div>","e","2","trustrating_stim/white_00050_931230_fa_edt.bmp,trustrating_stim/white_mw038.bmp","0,1","noMatchOutcome","i","","trustrating_stim/white_mw003.bmp","green","Share","0"
"html-keyboard-response","39","182932","0.0-7.0-5.0","testing","bdp_wmem","Wed Dec 09 2020 22:20:10 GMT-0500 (Eastern Standard Time)","606276","Match,No Match","","null","","","","FEEDBACK","","<div class='trialBorder'><div class='vertical-center'><div class='trialFBDiv'><div class='trialDiv1'><div class='vertical-center'><img src='img/error.jpg'></div></div><div class='respDivL'><font style='color:orange'>Match<p>(e)</font></div><div class='respDivR'>No Match<p>(i)</div></div></div></div>","null","","","","","","","","","",""
"html-keyboard-response","40","183433","0.0-7.0-1.1","testing","bdp_wmem","Wed Dec 09 2020 22:20:10 GMT-0500 (Eastern Standard Time)","606276","Match,No Match","","null","","","","FIX","","<div class='trialBorder'><div class='vertical-center'><img src='img/fixation2_sml.jpg'</img></div></div>","null","","","","","","","","","",""
"html-keyboard-response","41","185440","0.0-7.0-2.1","testing","bdp_wmem","Wed Dec 09 2020 22:20:10 GMT-0500 (Eastern Standard Time)","606276","Match,No Match","","null","","","","ARRAY","","<div class='trialBorder'><div class='vertical-center'><div class='trialDiv4'><div class='vertical-center'><img style='vertical-align:center; align:center' src='img/fixation2_sml.jpg'></div><div class='tc'><div class='vertical-center'><img class='introPic' src='trustrating_stim/white_mw015.bmp'><br><font color='red'><strong>Keep</strong></font></div></div><div class='bl'><div class='vertical-center'><img class='introPic' src='trustrating_stim/white_mw092.bmp'><br><font color='green'><strong>Share</strong></font></div></div><div class='br'><div class='vertical-center'><img class='introPic' src='trustrating_stim/white_mw091.bmp'><br><font color='green'><strong>Share</strong></font></div></div></div></div></div>","null","3","trustrating_stim/white_mw015.bmp,trustrating_stim/white_mw092.bmp,trustrating_stim/white_mw091.bmp","0,1,1","Match","e","2000","","","",""
"html-keyboard-response","42","189446","0.0-7.0-3.1","testing","bdp_wmem","Wed Dec 09 2020 22:20:10 GMT-0500 (Eastern Standard Time)","606276","Match,No Match","","null","","","","DELAY","","<div class='trialBorder'><div class='vertical-center'><img src='img/fixation2_sml.jpg'</img></div></div>","null","","","","","","","","","",""
"html-keyboard-response","43","190766","0.0-7.0-4.1","testing","bdp_wmem","Wed Dec 09 2020 22:20:10 GMT-0500 (Eastern Standard Time)","606276","Match,No Match","","1318","","","","TARGET","","<div class='trialBorder'><div class='vertical-center'><div class='trialFBDiv'><div class='trialDiv1'><div class='vertical-center'><img class='introPic' src='trustrating_stim/white_mw015.bmp'><br><font color='red'><strong>Keep</strong></font></div></div><div class='respDivL'>Match<p>(e)</div><div class='respDivR'>No Match<p>(i)</div></div></div></div>","e","3","trustrating_stim/white_mw015.bmp,trustrating_stim/white_mw092.bmp,trustrating_stim/white_mw091.bmp","0,1,1","Match","e","","trustrating_stim/white_mw003.bmp","green","Share","1"
"html-keyboard-response","44","191269","0.0-7.0-5.1","testing","bdp_wmem","Wed Dec 09 2020 22:20:10 GMT-0500 (Eastern Standard Time)","606276","Match,No Match","","null","","","","FEEDBACK","","<div class='trialBorder'><div class='vertical-center'><div class='trialFBDiv'><div class='trialDiv1'><div class='vertical-center'><img src='img/correct.jpg'></div></div><div class='respDivL'><font style='color:orange'>Match<p>(e)</font></div><div class='respDivR'>No Match<p>(i)</div></div></div></div>","null","","","","","","","","","",""
"html-keyboard-response","45","191770","0.0-7.0-1.2","testing","bdp_wmem","Wed Dec 09 2020 22:20:10 GMT-0500 (Eastern Standard Time)","606276","Match,No Match","","null","","","","FIX","","<div class='trialBorder'><div class='vertical-center'><img src='img/fixation2_sml.jpg'</img></div></div>","null","","","","","","","","","",""
"html-keyboard-response","46","195776","0.0-7.0-2.2","testing","bdp_wmem","Wed Dec 09 2020 22:20:10 GMT-0500 (Eastern Standard Time)","606276","Match,No Match","","null","","","","ARRAY","","<div class='trialBorder'><div class='vertical-center'><div class='trialDiv4'><div class='vertical-center'><img style='vertical-align:center; align:center' src='img/fixation2_sml.jpg'></div><div class='tl'><div class='vertical-center'><img class='introPic' src='trustrating_stim/white_00050_931230_fa_edt.bmp'><br><font color='green'><strong>Share</strong></font></div></div><div class='tr'><div class='vertical-center'><img class='introPic' src='trustrating_stim/white_00807_941205_fb_edt.bmp'><br><font color='red'><strong>Keep</strong></font></div></div><div class='bl'><div class='vertical-center'><img class='introPic' src='trustrating_stim/white_mw012.bmp'><br><font color='green'><strong>Share</strong></font></div></div><div class='br'><div class='vertical-center'><img class='introPic' src='trustrating_stim/white_mw091.bmp'><br><font color='red'><strong>Keep</strong></font></div></div></div></div></div>","null","4","trustrating_stim/white_00050_931230_fa_edt.bmp,trustrating_stim/white_00807_941205_fb_edt.bmp,trustrating_stim/white_mw012.bmp,trustrating_stim/white_mw091.bmp","1,0,1,0","noMatchOutcome","i","4000","","","",""
"html-keyboard-response","47","199779","0.0-7.0-3.2","testing","bdp_wmem","Wed Dec 09 2020 22:20:10 GMT-0500 (Eastern Standard Time)","606276","Match,No Match","","null","","","","DELAY","","<div class='trialBorder'><div class='vertical-center'><img src='img/fixation2_sml.jpg'</img></div></div>","null","","","","","","","","","",""
"html-keyboard-response","48","201085","0.0-7.0-4.2","testing","bdp_wmem","Wed Dec 09 2020 22:20:10 GMT-0500 (Eastern Standard Time)","606276","Match,No Match","","1305","","","","TARGET","","<div class='trialBorder'><div class='vertical-center'><div class='trialFBDiv'><div class='trialDiv1'><div class='vertical-center'><img class='introPic' src='trustrating_stim/white_mw012.bmp'><br><font color='red'><strong>Keep</strong></font></div></div><div class='respDivL'>Match<p>(e)</div><div class='respDivR'>No Match<p>(i)</div></div></div></div>","e","4","trustrating_stim/white_00050_931230_fa_edt.bmp,trustrating_stim/white_00807_941205_fb_edt.bmp,trustrating_stim/white_mw012.bmp,trustrating_stim/white_mw091.bmp","1,0,1,0","noMatchOutcome","i","","trustrating_stim/white_mw003.bmp","green","Share","0"
"html-keyboard-response","49","201589","0.0-7.0-5.2","testing","bdp_wmem","Wed Dec 09 2020 22:20:10 GMT-0500 (Eastern Standard Time)","606276","Match,No Match","","null","","","","FEEDBACK","","<div class='trialBorder'><div class='vertical-center'><div class='trialFBDiv'><div class='trialDiv1'><div class='vertical-center'><img src='img/error.jpg'></div></div><div class='respDivL'><font style='color:orange'>Match<p>(e)</font></div><div class='respDivR'>No Match<p>(i)</div></div></div></div>","null","","","","","","","","","",""
"html-keyboard-response","50","202090","0.0-7.0-1.3","testing","bdp_wmem","Wed Dec 09 2020 22:20:10 GMT-0500 (Eastern Standard Time)","606276","Match,No Match","","null","","","","FIX","","<div class='trialBorder'><div class='vertical-center'><img src='img/fixation2_sml.jpg'</img></div></div>","null","","","","","","","","","",""
"html-keyboard-response","51","204094","0.0-7.0-2.3","testing","bdp_wmem","Wed Dec 09 2020 22:20:10 GMT-0500 (Eastern Standard Time)","606276","Match,No Match","","null","","","","ARRAY","","<div class='trialBorder'><div class='vertical-center'><div class='trialDiv2'><div class='vertical-center'><img style='vertical-align:center; align:center' src='img/fixation2_sml.jpg'></div><div class='tc'><div class='vertical-center'><img class='introPic' src='trustrating_stim/white_mw040.bmp'><br><font color='green'><strong>Share</strong></font></div></div><div class='bc'><div class='vertical-center'><img class='introPic' src='trustrating_stim/white_mw033.bmp'><br><font color='red'><strong>Keep</strong></font></div></div></div></div></div>","null","2","trustrating_stim/white_mw040.bmp,trustrating_stim/white_mw033.bmp","1,0","Match","e","2000","","","",""
"html-keyboard-response","52","208098","0.0-7.0-3.3","testing","bdp_wmem","Wed Dec 09 2020 22:20:10 GMT-0500 (Eastern Standard Time)","606276","Match,No Match","","null","","","","DELAY","","<div class='trialBorder'><div class='vertical-center'><img src='img/fixation2_sml.jpg'</img></div></div>","null","","","","","","","","","",""
"html-keyboard-response","53","211235","0.0-7.0-4.3","testing","bdp_wmem","Wed Dec 09 2020 22:20:10 GMT-0500 (Eastern Standard Time)","606276","Match,No Match","","3136","","","","TARGET","","<div class='trialBorder'><div class='vertical-center'><div class='trialFBDiv'><div class='trialDiv1'><div class='vertical-center'><img class='introPic' src='trustrating_stim/white_mw040.bmp'><br><font color='green'><strong>Share</strong></font></div></div><div class='respDivL'>Match<p>(e)</div><div class='respDivR'>No Match<p>(i)</div></div></div></div>","i","2","trustrating_stim/white_mw040.bmp,trustrating_stim/white_mw033.bmp","1,0","Match","e","","trustrating_stim/white_mw003.bmp","green","Share","0"
"html-keyboard-response","54","211740","0.0-7.0-5.3","testing","bdp_wmem","Wed Dec 09 2020 22:20:10 GMT-0500 (Eastern Standard Time)","606276","Match,No Match","","null","","","","FEEDBACK","","<div class='trialBorder'><div class='vertical-center'><div class='trialFBDiv'><div class='trialDiv1'><div class='vertical-center'><img src='img/error.jpg'></div></div><div class='respDivL'>Match<p>(e)</div><div class='respDivR'><font style='color:orange'>No Match<p>(i)</font></div></div></div></div>","null","","","","","","","","","",""
"html-keyboard-response","55","212241","0.0-7.0-1.4","testing","bdp_wmem","Wed Dec 09 2020 22:20:10 GMT-0500 (Eastern Standard Time)","606276","Match,No Match","","null","","","","FIX","","<div class='trialBorder'><div class='vertical-center'><img src='img/fixation2_sml.jpg'</img></div></div>","null","","","","","","","","","",""
"html-keyboard-response","56","214244","0.0-7.0-2.4","testing","bdp_wmem","Wed Dec 09 2020 22:20:10 GMT-0500 (Eastern Standard Time)","606276","Match,No Match","","null","","","","ARRAY","","<div class='trialBorder'><div class='vertical-center'><div class='trialDiv4'><div class='vertical-center'><img style='vertical-align:center; align:center' src='img/fixation2_sml.jpg'></div><div class='tc'><div class='vertical-center'><img class='introPic' src='trustrating_stim/white_mw003.bmp'><br><font color='green'><strong>Share</strong></font></div></div><div class='bl'><div class='vertical-center'><img class='introPic' src='trustrating_stim/white_mw092.bmp'><br><font color='red'><strong>Keep</strong></font></div></div><div class='br'><div class='vertical-center'><img class='introPic' src='trustrating_stim/white_mw012.bmp'><br><font color='green'><strong>Share</strong></font></div></div></div></div></div>","null","3","trustrating_stim/white_mw003.bmp,trustrating_stim/white_mw092.bmp,trustrating_stim/white_mw012.bmp","1,0,1","Match","e","2000","","","",""
"html-keyboard-response","57","218247","0.0-7.0-3.4","testing","bdp_wmem","Wed Dec 09 2020 22:20:10 GMT-0500 (Eastern Standard Time)","606276","Match,No Match","","null","","","","DELAY","","<div class='trialBorder'><div class='vertical-center'><img src='img/fixation2_sml.jpg'</img></div></div>","null","","","","","","","","","",""
"html-keyboard-response","58","219185","0.0-7.0-4.4","testing","bdp_wmem","Wed Dec 09 2020 22:20:10 GMT-0500 (Eastern Standard Time)","606276","Match,No Match","","936","","","","TARGET","","<div class='trialBorder'><div class='vertical-center'><div class='trialFBDiv'><div class='trialDiv1'><div class='vertical-center'><img class='introPic' src='trustrating_stim/white_mw092.bmp'><br><font color='red'><strong>Keep</strong></font></div></div><div class='respDivL'>Match<p>(e)</div><div class='respDivR'>No Match<p>(i)</div></div></div></div>","e","3","trustrating_stim/white_mw003.bmp,trustrating_stim/white_mw092.bmp,trustrating_stim/white_mw012.bmp","1,0,1","Match","e","","trustrating_stim/white_mw003.bmp","green","Share","1"
"html-keyboard-response","59","219687","0.0-7.0-5.4","testing","bdp_wmem","Wed Dec 09 2020 22:20:10 GMT-0500 (Eastern Standard Time)","606276","Match,No Match","","null","","","","FEEDBACK","","<div class='trialBorder'><div class='vertical-center'><div class='trialFBDiv'><div class='trialDiv1'><div class='vertical-center'><img src='img/correct.jpg'></div></div><div class='respDivL'><font style='color:orange'>Match<p>(e)</font></div><div class='respDivR'>No Match<p>(i)</div></div></div></div>","null","","","","","","","","","",""
"html-keyboard-response","60","220190","0.0-7.0-1.5","testing","bdp_wmem","Wed Dec 09 2020 22:20:10 GMT-0500 (Eastern Standard Time)","606276","Match,No Match","","null","","","","FIX","","<div class='trialBorder'><div class='vertical-center'><img src='img/fixation2_sml.jpg'</img></div></div>","null","","","","","","","","","",""
"html-keyboard-response","61","224196","0.0-7.0-2.5","testing","bdp_wmem","Wed Dec 09 2020 22:20:10 GMT-0500 (Eastern Standard Time)","606276","Match,No Match","","null","","","","ARRAY","","<div class='trialBorder'><div class='vertical-center'><div class='trialDiv4'><div class='vertical-center'><img style='vertical-align:center; align:center' src='img/fixation2_sml.jpg'></div><div class='tl'><div class='vertical-center'><img class='introPic' src='trustrating_stim/white_mw013.bmp'><br><font color='green'><strong>Share</strong></font></div></div><div class='tr'><div class='vertical-center'><img class='introPic' src='trustrating_stim/white_mw092.bmp'><br><font color='red'><strong>Keep</strong></font></div></div><div class='bl'><div class='vertical-center'><img class='introPic' src='trustrating_stim/white_mw070.bmp'><br><font color='red'><strong>Keep</strong></font></div></div><div class='br'><div class='vertical-center'><img class='introPic' src='trustrating_stim/white_mw012.bmp'><br><font color='green'><strong>Share</strong></font></div></div></div></div></div>","null","4","trustrating_stim/white_mw013.bmp,trustrating_stim/white_mw092.bmp,trustrating_stim/white_mw070.bmp,trustrating_stim/white_mw012.bmp","1,0,0,1","noMatchFace","i","4000","","","",""
"html-keyboard-response","62","228201","0.0-7.0-3.5","testing","bdp_wmem","Wed Dec 09 2020 22:20:10 GMT-0500 (Eastern Standard Time)","606276","Match,No Match","","null","","","","DELAY","","<div class='trialBorder'><div class='vertical-center'><img src='img/fixation2_sml.jpg'</img></div></div>","null","","","","","","","","","",""
"html-keyboard-response","63","228988","0.0-7.0-4.5","testing","bdp_wmem","Wed Dec 09 2020 22:20:10 GMT-0500 (Eastern Standard Time)","606276","Match,No Match","","785","","","","TARGET","","<div class='trialBorder'><div class='vertical-center'><div class='trialFBDiv'><div class='trialDiv1'><div class='vertical-center'><img class='introPic' src='trustrating_stim/white_mw040.bmp'><br><font color='green'><strong>Share</strong></font></div></div><div class='respDivL'>Match<p>(e)</div><div class='respDivR'>No Match<p>(i)</div></div></div></div>","i","4","trustrating_stim/white_mw013.bmp,trustrating_stim/white_mw092.bmp,trustrating_stim/white_mw070.bmp,trustrating_stim/white_mw012.bmp","1,0,0,1","noMatchFace","i","","trustrating_stim/white_mw003.bmp","green","Share","1"
"html-keyboard-response","64","229490","0.0-7.0-5.5","testing","bdp_wmem","Wed Dec 09 2020 22:20:10 GMT-0500 (Eastern Standard Time)","606276","Match,No Match","","null","","","","FEEDBACK","","<div class='trialBorder'><div class='vertical-center'><div class='trialFBDiv'><div class='trialDiv1'><div class='vertical-center'><img src='img/correct.jpg'></div></div><div class='respDivL'>Match<p>(e)</div><div class='respDivR'><font style='color:orange'>No Match<p>(i)</font></div></div></div></div>","null","","","","","","","","","",""
"html-keyboard-response","65","229993","0.0-7.0-1.6","testing","bdp_wmem","Wed Dec 09 2020 22:20:10 GMT-0500 (Eastern Standard Time)","606276","Match,No Match","","null","","","","FIX","","<div class='trialBorder'><div class='vertical-center'><img src='img/fixation2_sml.jpg'</img></div></div>","null","","","","","","","","","",""
"html-keyboard-response","66","234000","0.0-7.0-2.6","testing","bdp_wmem","Wed Dec 09 2020 22:20:10 GMT-0500 (Eastern Standard Time)","606276","Match,No Match","","null","","","","ARRAY","","<div class='trialBorder'><div class='vertical-center'><div class='trialDiv4'><div class='vertical-center'><img style='vertical-align:center; align:center' src='img/fixation2_sml.jpg'></div><div class='tl'><div class='vertical-center'><img class='introPic' src='trustrating_stim/white_mw038.bmp'><br><font color='green'><strong>Share</strong></font></div></div><div class='tr'><div class='vertical-center'><img class='introPic' src='trustrating_stim/white_00050_931230_fa_edt.bmp'><br><font color='green'><strong>Share</strong></font></div></div><div class='bl'><div class='vertical-center'><img class='introPic' src='trustrating_stim/white_mw040.bmp'><br><font color='red'><strong>Keep</strong></font></div></div><div class='br'><div class='vertical-center'><img class='introPic' src='trustrating_stim/white_00807_941205_fb_edt.bmp'><br><font color='red'><strong>Keep</strong></font></div></div></div></div></div>","null","4","trustrating_stim/white_mw038.bmp,trustrating_stim/white_00050_931230_fa_edt.bmp,trustrating_stim/white_mw040.bmp,trustrating_stim/white_00807_941205_fb_edt.bmp","1,1,0,0","Match","e","4000","","","",""
"html-keyboard-response","67","238006","0.0-7.0-3.6","testing","bdp_wmem","Wed Dec 09 2020 22:20:10 GMT-0500 (Eastern Standard Time)","606276","Match,No Match","","null","","","","DELAY","","<div class='trialBorder'><div class='vertical-center'><img src='img/fixation2_sml.jpg'</img></div></div>","null","","","","","","","","","",""
"html-keyboard-response","68","239586","0.0-7.0-4.6","testing","bdp_wmem","Wed Dec 09 2020 22:20:10 GMT-0500 (Eastern Standard Time)","606276","Match,No Match","","1576","","","","TARGET","","<div class='trialBorder'><div class='vertical-center'><div class='trialFBDiv'><div class='trialDiv1'><div class='vertical-center'><img class='introPic' src='trustrating_stim/white_00050_931230_fa_edt.bmp'><br><font color='green'><strong>Share</strong></font></div></div><div class='respDivL'>Match<p>(e)</div><div class='respDivR'>No Match<p>(i)</div></div></div></div>","e","4","trustrating_stim/white_mw038.bmp,trustrating_stim/white_00050_931230_fa_edt.bmp,trustrating_stim/white_mw040.bmp,trustrating_stim/white_00807_941205_fb_edt.bmp","1,1,0,0","Match","e","","trustrating_stim/white_mw003.bmp","green","Share","1"
"html-keyboard-response","69","240091","0.0-7.0-5.6","testing","bdp_wmem","Wed Dec 09 2020 22:20:10 GMT-0500 (Eastern Standard Time)","606276","Match,No Match","","null","","","","FEEDBACK","","<div class='trialBorder'><div class='vertical-center'><div class='trialFBDiv'><div class='trialDiv1'><div class='vertical-center'><img src='img/correct.jpg'></div></div><div class='respDivL'><font style='color:orange'>Match<p>(e)</font></div><div class='respDivR'>No Match<p>(i)</div></div></div></div>","null","","","","","","","","","",""
"html-keyboard-response","70","240593","0.0-7.0-1.7","testing","bdp_wmem","Wed Dec 09 2020 22:20:10 GMT-0500 (Eastern Standard Time)","606276","Match,No Match","","null","","","","FIX","","<div class='trialBorder'><div class='vertical-center'><img src='img/fixation2_sml.jpg'</img></div></div>","null","","","","","","","","","",""
"html-keyboard-response","71","242595","0.0-7.0-2.7","testing","bdp_wmem","Wed Dec 09 2020 22:20:10 GMT-0500 (Eastern Standard Time)","606276","Match,No Match","","null","","","","ARRAY","","<div class='trialBorder'><div class='vertical-center'><div class='trialDiv2'><div class='vertical-center'><img style='vertical-align:center; align:center' src='img/fixation2_sml.jpg'></div><div class='tc'><div class='vertical-center'><img class='introPic' src='trustrating_stim/white_mw003.bmp'><br><font color='red'><strong>Keep</strong></font></div></div><div class='bc'><div class='vertical-center'><img class='introPic' src='trustrating_stim/white_mw038.bmp'><br><font color='green'><strong>Share</strong></font></div></div></div></div></div>","null","2","trustrating_stim/white_mw003.bmp,trustrating_stim/white_mw038.bmp","0,1","noMatchFace","i","2000","","","",""
"html-keyboard-response","72","246597","0.0-7.0-3.7","testing","bdp_wmem","Wed Dec 09 2020 22:20:10 GMT-0500 (Eastern Standard Time)","606276","Match,No Match","","null","","","","DELAY","","<div class='trialBorder'><div class='vertical-center'><img src='img/fixation2_sml.jpg'</img></div></div>","null","","","","","","","","","",""
"html-keyboard-response","73","247673","0.0-7.0-4.7","testing","bdp_wmem","Wed Dec 09 2020 22:20:10 GMT-0500 (Eastern Standard Time)","606276","Match,No Match","","1074","","","","TARGET","","<div class='trialBorder'><div class='vertical-center'><div class='trialFBDiv'><div class='trialDiv1'><div class='vertical-center'><img class='introPic' src='trustrating_stim/white_mw070.bmp'><br><font color='red'><strong>Keep</strong></font></div></div><div class='respDivL'>Match<p>(e)</div><div class='respDivR'>No Match<p>(i)</div></div></div></div>","i","2","trustrating_stim/white_mw003.bmp,trustrating_stim/white_mw038.bmp","0,1","noMatchFace","i","","trustrating_stim/white_mw003.bmp","green","Share","1"
"html-keyboard-response","74","248176","0.0-7.0-5.7","testing","bdp_wmem","Wed Dec 09 2020 22:20:10 GMT-0500 (Eastern Standard Time)","606276","Match,No Match","","null","","","","FEEDBACK","","<div class='trialBorder'><div class='vertical-center'><div class='trialFBDiv'><div class='trialDiv1'><div class='vertical-center'><img src='img/correct.jpg'></div></div><div class='respDivL'>Match<p>(e)</div><div class='respDivR'><font style='color:orange'>No Match<p>(i)</font></div></div></div></div>","null","","","","","","","","","",""
"html-keyboard-response","75","248678","0.0-7.0-1.8","testing","bdp_wmem","Wed Dec 09 2020 22:20:10 GMT-0500 (Eastern Standard Time)","606276","Match,No Match","","null","","","","FIX","","<div class='trialBorder'><div class='vertical-center'><img src='img/fixation2_sml.jpg'</img></div></div>","null","","","","","","","","","",""
"html-keyboard-response","76","250683","0.0-7.0-2.8","testing","bdp_wmem","Wed Dec 09 2020 22:20:10 GMT-0500 (Eastern Standard Time)","606276","Match,No Match","","null","","","","ARRAY","","<div class='trialBorder'><div class='vertical-center'><div class='trialDiv2'><div class='vertical-center'><img style='vertical-align:center; align:center' src='img/fixation2_sml.jpg'></div><div class='tc'><div class='vertical-center'><img class='introPic' src='trustrating_stim/white_mw038.bmp'><br><font color='green'><strong>Share</strong></font></div></div><div class='bc'><div class='vertical-center'><img class='introPic' src='trustrating_stim/white_mw070.bmp'><br><font color='red'><strong>Keep</strong></font></div></div></div></div></div>","null","2","trustrating_stim/white_mw038.bmp,trustrating_stim/white_mw070.bmp","1,0","noMatchFace","i","2000","","","",""
"html-keyboard-response","77","254686","0.0-7.0-3.8","testing","bdp_wmem","Wed Dec 09 2020 22:20:10 GMT-0500 (Eastern Standard Time)","606276","Match,No Match","","null","","","","DELAY","","<div class='trialBorder'><div class='vertical-center'><img src='img/fixation2_sml.jpg'</img></div></div>","null","","","","","","","","","",""
"html-keyboard-response","78","255631","0.0-7.0-4.8","testing","bdp_wmem","Wed Dec 09 2020 22:20:10 GMT-0500 (Eastern Standard Time)","606276","Match,No Match","","944","","","","TARGET","","<div class='trialBorder'><div class='vertical-center'><div class='trialFBDiv'><div class='trialDiv1'><div class='vertical-center'><img class='introPic' src='trustrating_stim/white_mw040.bmp'><br><font color='red'><strong>Keep</strong></font></div></div><div class='respDivL'>Match<p>(e)</div><div class='respDivR'>No Match<p>(i)</div></div></div></div>","e","2","trustrating_stim/white_mw038.bmp,trustrating_stim/white_mw070.bmp","1,0","noMatchFace","i","","trustrating_stim/white_mw003.bmp","green","Share","0"
"html-keyboard-response","79","256134","0.0-7.0-5.8","testing","bdp_wmem","Wed Dec 09 2020 22:20:10 GMT-0500 (Eastern Standard Time)","606276","Match,No Match","","null","","","","FEEDBACK","","<div class='trialBorder'><div class='vertical-center'><div class='trialFBDiv'><div class='trialDiv1'><div class='vertical-center'><img src='img/error.jpg'></div></div><div class='respDivL'><font style='color:orange'>Match<p>(e)</font></div><div class='respDivR'>No Match<p>(i)</div></div></div></div>","null","","","","","","","","","",""
"html-keyboard-response","80","256640","0.0-7.0-1.9","testing","bdp_wmem","Wed Dec 09 2020 22:20:10 GMT-0500 (Eastern Standard Time)","606276","Match,No Match","","null","","","","FIX","","<div class='trialBorder'><div class='vertical-center'><img src='img/fixation2_sml.jpg'</img></div></div>","null","","","","","","","","","",""
"html-keyboard-response","81","258643","0.0-7.0-2.9","testing","bdp_wmem","Wed Dec 09 2020 22:20:10 GMT-0500 (Eastern Standard Time)","606276","Match,No Match","","null","","","","ARRAY","","<div class='trialBorder'><div class='vertical-center'><div class='trialDiv4'><div class='vertical-center'><img style='vertical-align:center; align:center' src='img/fixation2_sml.jpg'></div><div class='tc'><div class='vertical-center'><img class='introPic' src='trustrating_stim/white_mw013.bmp'><br><font color='green'><strong>Share</strong></font></div></div><div class='bl'><div class='vertical-center'><img class='introPic' src='trustrating_stim/white_00050_931230_fa_edt.bmp'><br><font color='red'><strong>Keep</strong></font></div></div><div class='br'><div class='vertical-center'><img class='introPic' src='trustrating_stim/white_mw003.bmp'><br><font color='red'><strong>Keep</strong></font></div></div></div></div></div>","null","3","trustrating_stim/white_mw013.bmp,trustrating_stim/white_00050_931230_fa_edt.bmp,trustrating_stim/white_mw003.bmp","1,0,0","Match","e","2000","","","",""
"html-keyboard-response","82","262649","0.0-7.0-3.9","testing","bdp_wmem","Wed Dec 09 2020 22:20:10 GMT-0500 (Eastern Standard Time)","606276","Match,No Match","","null","","","","DELAY","","<div class='trialBorder'><div class='vertical-center'><img src='img/fixation2_sml.jpg'</img></div></div>","null","","","","","","","","","",""
"html-keyboard-response","83","263649","0.0-7.0-4.9","testing","bdp_wmem","Wed Dec 09 2020 22:20:10 GMT-0500 (Eastern Standard Time)","606276","Match,No Match","","998","","","","TARGET","","<div class='trialBorder'><div class='vertical-center'><div class='trialFBDiv'><div class='trialDiv1'><div class='vertical-center'><img class='introPic' src='trustrating_stim/white_00050_931230_fa_edt.bmp'><br><font color='red'><strong>Keep</strong></font></div></div><div class='respDivL'>Match<p>(e)</div><div class='respDivR'>No Match<p>(i)</div></div></div></div>","i","3","trustrating_stim/white_mw013.bmp,trustrating_stim/white_00050_931230_fa_edt.bmp,trustrating_stim/white_mw003.bmp","1,0,0","Match","e","","trustrating_stim/white_mw003.bmp","green","Share","0"
"html-keyboard-response","84","264151","0.0-7.0-5.9","testing","bdp_wmem","Wed Dec 09 2020 22:20:10 GMT-0500 (Eastern Standard Time)","606276","Match,No Match","","null","","","","FEEDBACK","","<div class='trialBorder'><div class='vertical-center'><div class='trialFBDiv'><div class='trialDiv1'><div class='vertical-center'><img src='img/error.jpg'></div></div><div class='respDivL'>Match<p>(e)</div><div class='respDivR'><font style='color:orange'>No Match<p>(i)</font></div></div></div></div>","null","","","","","","","","","",""
"html-keyboard-response","85","264657","0.0-7.0-1.10","testing","bdp_wmem","Wed Dec 09 2020 22:20:10 GMT-0500 (Eastern Standard Time)","606276","Match,No Match","","null","","","","FIX","","<div class='trialBorder'><div class='vertical-center'><img src='img/fixation2_sml.jpg'</img></div></div>","null","","","","","","","","","",""
"html-keyboard-response","86","268663","0.0-7.0-2.10","testing","bdp_wmem","Wed Dec 09 2020 22:20:10 GMT-0500 (Eastern Standard Time)","606276","Match,No Match","","null","","","","ARRAY","","<div class='trialBorder'><div class='vertical-center'><div class='trialDiv4'><div class='vertical-center'><img style='vertical-align:center; align:center' src='img/fixation2_sml.jpg'></div><div class='tl'><div class='vertical-center'><img class='introPic' src='trustrating_stim/white_mw038.bmp'><br><font color='green'><strong>Share</strong></font></div></div><div class='tr'><div class='vertical-center'><img class='introPic' src='trustrating_stim/white_mw092.bmp'><br><font color='red'><strong>Keep</strong></font></div></div><div class='bl'><div class='vertical-center'><img class='introPic' src='trustrating_stim/white_mw015.bmp'><br><font color='red'><strong>Keep</strong></font></div></div><div class='br'><div class='vertical-center'><img class='introPic' src='trustrating_stim/white_mw040.bmp'><br><font color='green'><strong>Share</strong></font></div></div></div></div></div>","null","4","trustrating_stim/white_mw038.bmp,trustrating_stim/white_mw092.bmp,trustrating_stim/white_mw015.bmp,trustrating_stim/white_mw040.bmp","1,0,0,1","Match","e","4000","","","",""
"html-keyboard-response","87","272669","0.0-7.0-3.10","testing","bdp_wmem","Wed Dec 09 2020 22:20:10 GMT-0500 (Eastern Standard Time)","606276","Match,No Match","","null","","","","DELAY","","<div class='trialBorder'><div class='vertical-center'><img src='img/fixation2_sml.jpg'</img></div></div>","null","","","","","","","","","",""
"html-keyboard-response","88","273940","0.0-7.0-4.10","testing","bdp_wmem","Wed Dec 09 2020 22:20:10 GMT-0500 (Eastern Standard Time)","606276","Match,No Match","","1270","","","","TARGET","","<div class='trialBorder'><div class='vertical-center'><div class='trialFBDiv'><div class='trialDiv1'><div class='vertical-center'><img class='introPic' src='trustrating_stim/white_mw040.bmp'><br><font color='green'><strong>Share</strong></font></div></div><div class='respDivL'>Match<p>(e)</div><div class='respDivR'>No Match<p>(i)</div></div></div></div>","e","4","trustrating_stim/white_mw038.bmp,trustrating_stim/white_mw092.bmp,trustrating_stim/white_mw015.bmp,trustrating_stim/white_mw040.bmp","1,0,0,1","Match","e","","trustrating_stim/white_mw003.bmp","green","Share","1"
"html-keyboard-response","89","274445","0.0-7.0-5.10","testing","bdp_wmem","Wed Dec 09 2020 22:20:10 GMT-0500 (Eastern Standard Time)","606276","Match,No Match","","null","","","","FEEDBACK","","<div class='trialBorder'><div class='vertical-center'><div class='trialFBDiv'><div class='trialDiv1'><div class='vertical-center'><img src='img/correct.jpg'></div></div><div class='respDivL'><font style='color:orange'>Match<p>(e)</font></div><div class='respDivR'>No Match<p>(i)</div></div></div></div>","null","","","","","","","","","",""
"html-keyboard-response","90","274946","0.0-7.0-1.11","testing","bdp_wmem","Wed Dec 09 2020 22:20:10 GMT-0500 (Eastern Standard Time)","606276","Match,No Match","","null","","","","FIX","","<div class='trialBorder'><div class='vertical-center'><img src='img/fixation2_sml.jpg'</img></div></div>","null","","","","","","","","","",""
"html-keyboard-response","91","276952","0.0-7.0-2.11","testing","bdp_wmem","Wed Dec 09 2020 22:20:10 GMT-0500 (Eastern Standard Time)","606276","Match,No Match","","null","","","","ARRAY","","<div class='trialBorder'><div class='vertical-center'><div class='trialDiv2'><div class='vertical-center'><img style='vertical-align:center; align:center' src='img/fixation2_sml.jpg'></div><div class='tc'><div class='vertical-center'><img class='introPic' src='trustrating_stim/white_mw013.bmp'><br><font color='green'><strong>Share</strong></font></div></div><div class='bc'><div class='vertical-center'><img class='introPic' src='trustrating_stim/white_mw012.bmp'><br><font color='red'><strong>Keep</strong></font></div></div></div></div></div>","null","2","trustrating_stim/white_mw013.bmp,trustrating_stim/white_mw012.bmp","1,0","Match","e","2000","","","",""
"html-keyboard-response","92","280956","0.0-7.0-3.11","testing","bdp_wmem","Wed Dec 09 2020 22:20:10 GMT-0500 (Eastern Standard Time)","606276","Match,No Match","","null","","","","DELAY","","<div class='trialBorder'><div class='vertical-center'><img src='img/fixation2_sml.jpg'</img></div></div>","null","","","","","","","","","",""
"html-keyboard-response","93","281952","0.0-7.0-4.11","testing","bdp_wmem","Wed Dec 09 2020 22:20:10 GMT-0500 (Eastern Standard Time)","606276","Match,No Match","","993","","","","TARGET","","<div class='trialBorder'><div class='vertical-center'><div class='trialFBDiv'><div class='trialDiv1'><div class='vertical-center'><img class='introPic' src='trustrating_stim/white_mw013.bmp'><br><font color='green'><strong>Share</strong></font></div></div><div class='respDivL'>Match<p>(e)</div><div class='respDivR'>No Match<p>(i)</div></div></div></div>","e","2","trustrating_stim/white_mw013.bmp,trustrating_stim/white_mw012.bmp","1,0","Match","e","","trustrating_stim/white_mw003.bmp","green","Share","1"
"html-keyboard-response","94","282456","0.0-7.0-5.11","testing","bdp_wmem","Wed Dec 09 2020 22:20:10 GMT-0500 (Eastern Standard Time)","606276","Match,No Match","","null","","","","FEEDBACK","","<div class='trialBorder'><div class='vertical-center'><div class='trialFBDiv'><div class='trialDiv1'><div class='vertical-center'><img src='img/correct.jpg'></div></div><div class='respDivL'><font style='color:orange'>Match<p>(e)</font></div><div class='respDivR'>No Match<p>(i)</div></div></div></div>","null","","","","","","","","","",""
"html-keyboard-response","95","282961","0.0-7.0-1.12","testing","bdp_wmem","Wed Dec 09 2020 22:20:10 GMT-0500 (Eastern Standard Time)","606276","Match,No Match","","null","","","","FIX","","<div class='trialBorder'><div class='vertical-center'><img src='img/fixation2_sml.jpg'</img></div></div>","null","","","","","","","","","",""
"html-keyboard-response","96","284966","0.0-7.0-2.12","testing","bdp_wmem","Wed Dec 09 2020 22:20:10 GMT-0500 (Eastern Standard Time)","606276","Match,No Match","","null","","","","ARRAY","","<div class='trialBorder'><div class='vertical-center'><div class='trialDiv4'><div class='vertical-center'><img style='vertical-align:center; align:center' src='img/fixation2_sml.jpg'></div><div class='tc'><div class='vertical-center'><img class='introPic' src='trustrating_stim/white_mw012.bmp'><br><font color='red'><strong>Keep</strong></font></div></div><div class='bl'><div class='vertical-center'><img class='introPic' src='trustrating_stim/white_mw070.bmp'><br><font color='green'><strong>Share</strong></font></div></div><div class='br'><div class='vertical-center'><img class='introPic' src='trustrating_stim/white_mw040.bmp'><br><font color='red'><strong>Keep</strong></font></div></div></div></div></div>","null","3","trustrating_stim/white_mw012.bmp,trustrating_stim/white_mw070.bmp,trustrating_stim/white_mw040.bmp","0,1,0","noMatchFace","i","2000","","","",""
"html-keyboard-response","97","288969","0.0-7.0-3.12","testing","bdp_wmem","Wed Dec 09 2020 22:20:10 GMT-0500 (Eastern Standard Time)","606276","Match,No Match","","null","","","","DELAY","","<div class='trialBorder'><div class='vertical-center'><img src='img/fixation2_sml.jpg'</img></div></div>","null","","","","","","","","","",""
"html-keyboard-response","98","290047","0.0-7.0-4.12","testing","bdp_wmem","Wed Dec 09 2020 22:20:10 GMT-0500 (Eastern Standard Time)","606276","Match,No Match","","1076","","","","TARGET","","<div class='trialBorder'><div class='vertical-center'><div class='trialFBDiv'><div class='trialDiv1'><div class='vertical-center'><img class='introPic' src='trustrating_stim/white_mw033.bmp'><br><font color='red'><strong>Keep</strong></font></div></div><div class='respDivL'>Match<p>(e)</div><div class='respDivR'>No Match<p>(i)</div></div></div></div>","i","3","trustrating_stim/white_mw012.bmp,trustrating_stim/white_mw070.bmp,trustrating_stim/white_mw040.bmp","0,1,0","noMatchFace","i","","trustrating_stim/white_mw003.bmp","green","Share","1"
"html-keyboard-response","99","290549","0.0-7.0-5.12","testing","bdp_wmem","Wed Dec 09 2020 22:20:10 GMT-0500 (Eastern Standard Time)","606276","Match,No Match","","null","","","","FEEDBACK","","<div class='trialBorder'><div class='vertical-center'><div class='trialFBDiv'><div class='trialDiv1'><div class='vertical-center'><img src='img/correct.jpg'></div></div><div class='respDivL'>Match<p>(e)</div><div class='respDivR'><font style='color:orange'>No Match<p>(i)</font></div></div></div></div>","null","","","","","","","","","",""
"html-keyboard-response","100","291051","0.0-7.0-1.13","testing","bdp_wmem","Wed Dec 09 2020 22:20:10 GMT-0500 (Eastern Standard Time)","606276","Match,No Match","","null","","","","FIX","","<div class='trialBorder'><div class='vertical-center'><img src='img/fixation2_sml.jpg'</img></div></div>","null","","","","","","","","","",""
"html-keyboard-response","101","293056","0.0-7.0-2.13","testing","bdp_wmem","Wed Dec 09 2020 22:20:10 GMT-0500 (Eastern Standard Time)","606276","Match,No Match","","null","","","","ARRAY","","<div class='trialBorder'><div class='vertical-center'><div class='trialDiv4'><div class='vertical-center'><img style='vertical-align:center; align:center' src='img/fixation2_sml.jpg'></div><div class='tc'><div class='vertical-center'><img class='introPic' src='trustrating_stim/white_mw040.bmp'><br><font color='red'><strong>Keep</strong></font></div></div><div class='bl'><div class='vertical-center'><img class='introPic' src='trustrating_stim/white_mw033.bmp'><br><font color='green'><strong>Share</strong></font></div></div><div class='br'><div class='vertical-center'><img class='introPic' src='trustrating_stim/white_mw038.bmp'><br><font color='green'><strong>Share</strong></font></div></div></div></div></div>","null","3","trustrating_stim/white_mw040.bmp,trustrating_stim/white_mw033.bmp,trustrating_stim/white_mw038.bmp","0,1,1","noMatchOutcome","i","2000","","","",""
"html-keyboard-response","102","297057","0.0-7.0-3.13","testing","bdp_wmem","Wed Dec 09 2020 22:20:10 GMT-0500 (Eastern Standard Time)","606276","Match,No Match","","null","","","","DELAY","","<div class='trialBorder'><div class='vertical-center'><img src='img/fixation2_sml.jpg'</img></div></div>","null","","","","","","","","","",""
"html-keyboard-response","103","298192","0.0-7.0-4.13","testing","bdp_wmem","Wed Dec 09 2020 22:20:10 GMT-0500 (Eastern Standard Time)","606276","Match,No Match","","1133","","","","TARGET","","<div class='trialBorder'><div class='vertical-center'><div class='trialFBDiv'><div class='trialDiv1'><div class='vertical-center'><img class='introPic' src='trustrating_stim/white_mw038.bmp'><br><font color='red'><strong>Keep</strong></font></div></div><div class='respDivL'>Match<p>(e)</div><div class='respDivR'>No Match<p>(i)</div></div></div></div>","e","3","trustrating_stim/white_mw040.bmp,trustrating_stim/white_mw033.bmp,trustrating_stim/white_mw038.bmp","0,1,1","noMatchOutcome","i","","trustrating_stim/white_mw003.bmp","green","Share","0"
"html-keyboard-response","104","298694","0.0-7.0-5.13","testing","bdp_wmem","Wed Dec 09 2020 22:20:10 GMT-0500 (Eastern Standard Time)","606276","Match,No Match","","null","","","","FEEDBACK","","<div class='trialBorder'><div class='vertical-center'><div class='trialFBDiv'><div class='trialDiv1'><div class='vertical-center'><img src='img/error.jpg'></div></div><div class='respDivL'><font style='color:orange'>Match<p>(e)</font></div><div class='respDivR'>No Match<p>(i)</div></div></div></div>","null","","","","","","","","","",""
"html-keyboard-response","105","299197","0.0-7.0-1.14","testing","bdp_wmem","Wed Dec 09 2020 22:20:10 GMT-0500 (Eastern Standard Time)","606276","Match,No Match","","null","","","","FIX","","<div class='trialBorder'><div class='vertical-center'><img src='img/fixation2_sml.jpg'</img></div></div>","null","","","","","","","","","",""
"html-keyboard-response","106","301200","0.0-7.0-2.14","testing","bdp_wmem","Wed Dec 09 2020 22:20:10 GMT-0500 (Eastern Standard Time)","606276","Match,No Match","","null","","","","ARRAY","","<div class='trialBorder'><div class='vertical-center'><div class='trialDiv2'><div class='vertical-center'><img style='vertical-align:center; align:center' src='img/fixation2_sml.jpg'></div><div class='tc'><div class='vertical-center'><img class='introPic' src='trustrating_stim/white_mw013.bmp'><br><font color='green'><strong>Share</strong></font></div></div><div class='bc'><div class='vertical-center'><img class='introPic' src='trustrating_stim/white_mw012.bmp'><br><font color='red'><strong>Keep</strong></font></div></div></div></div></div>","null","2","trustrating_stim/white_mw013.bmp,trustrating_stim/white_mw012.bmp","1,0","noMatchFace","i","2000","","","",""
"html-keyboard-response","107","305206","0.0-7.0-3.14","testing","bdp_wmem","Wed Dec 09 2020 22:20:10 GMT-0500 (Eastern Standard Time)","606276","Match,No Match","","null","","","","DELAY","","<div class='trialBorder'><div class='vertical-center'><img src='img/fixation2_sml.jpg'</img></div></div>","null","","","","","","","","","",""
"html-keyboard-response","108","306279","0.0-7.0-4.14","testing","bdp_wmem","Wed Dec 09 2020 22:20:10 GMT-0500 (Eastern Standard Time)","606276","Match,No Match","","1070","","","","TARGET","","<div class='trialBorder'><div class='vertical-center'><div class='trialFBDiv'><div class='trialDiv1'><div class='vertical-center'><img class='introPic' src='trustrating_stim/white_mw040.bmp'><br><font color='red'><strong>Keep</strong></font></div></div><div class='respDivL'>Match<p>(e)</div><div class='respDivR'>No Match<p>(i)</div></div></div></div>","i","2","trustrating_stim/white_mw013.bmp,trustrating_stim/white_mw012.bmp","1,0","noMatchFace","i","","trustrating_stim/white_mw003.bmp","green","Share","1"
"html-keyboard-response","109","306780","0.0-7.0-5.14","testing","bdp_wmem","Wed Dec 09 2020 22:20:10 GMT-0500 (Eastern Standard Time)","606276","Match,No Match","","null","","","","FEEDBACK","","<div class='trialBorder'><div class='vertical-center'><div class='trialFBDiv'><div class='trialDiv1'><div class='vertical-center'><img src='img/correct.jpg'></div></div><div class='respDivL'>Match<p>(e)</div><div class='respDivR'><font style='color:orange'>No Match<p>(i)</font></div></div></div></div>","null","","","","","","","","","",""
"html-keyboard-response","110","307281","0.0-7.0-1.15","testing","bdp_wmem","Wed Dec 09 2020 22:20:10 GMT-0500 (Eastern Standard Time)","606276","Match,No Match","","null","","","","FIX","","<div class='trialBorder'><div class='vertical-center'><img src='img/fixation2_sml.jpg'</img></div></div>","null","","","","","","","","","",""
"html-keyboard-response","111","311284","0.0-7.0-2.15","testing","bdp_wmem","Wed Dec 09 2020 22:20:10 GMT-0500 (Eastern Standard Time)","606276","Match,No Match","","null","","","","ARRAY","","<div class='trialBorder'><div class='vertical-center'><div class='trialDiv4'><div class='vertical-center'><img style='vertical-align:center; align:center' src='img/fixation2_sml.jpg'></div><div class='tl'><div class='vertical-center'><img class='introPic' src='trustrating_stim/white_mw070.bmp'><br><font color='green'><strong>Share</strong></font></div></div><div class='tr'><div class='vertical-center'><img class='introPic' src='trustrating_stim/white_mw033.bmp'><br><font color='green'><strong>Share</strong></font></div></div><div class='bl'><div class='vertical-center'><img class='introPic' src='trustrating_stim/white_mw038.bmp'><br><font color='red'><strong>Keep</strong></font></div></div><div class='br'><div class='vertical-center'><img class='introPic' src='trustrating_stim/white_00050_931230_fa_edt.bmp'><br><font color='red'><strong>Keep</strong></font></div></div></div></div></div>","null","4","trustrating_stim/white_mw070.bmp,trustrating_stim/white_mw033.bmp,trustrating_stim/white_mw038.bmp,trustrating_stim/white_00050_931230_fa_edt.bmp","1,1,0,0","Match","e","4000","","","",""
"html-keyboard-response","112","315287","0.0-7.0-3.15","testing","bdp_wmem","Wed Dec 09 2020 22:20:10 GMT-0500 (Eastern Standard Time)","606276","Match,No Match","","null","","","","DELAY","","<div class='trialBorder'><div class='vertical-center'><img src='img/fixation2_sml.jpg'</img></div></div>","null","","","","","","","","","",""
"html-keyboard-response","113","316472","0.0-7.0-4.15","testing","bdp_wmem","Wed Dec 09 2020 22:20:10 GMT-0500 (Eastern Standard Time)","606276","Match,No Match","","1182","","","","TARGET","","<div class='trialBorder'><div class='vertical-center'><div class='trialFBDiv'><div class='trialDiv1'><div class='vertical-center'><img class='introPic' src='trustrating_stim/white_mw033.bmp'><br><font color='green'><strong>Share</strong></font></div></div><div class='respDivL'>Match<p>(e)</div><div class='respDivR'>No Match<p>(i)</div></div></div></div>","i","4","trustrating_stim/white_mw070.bmp,trustrating_stim/white_mw033.bmp,trustrating_stim/white_mw038.bmp,trustrating_stim/white_00050_931230_fa_edt.bmp","1,1,0,0","Match","e","","trustrating_stim/white_mw003.bmp","green","Share","0"
"html-keyboard-response","114","316973","0.0-7.0-5.15","testing","bdp_wmem","Wed Dec 09 2020 22:20:10 GMT-0500 (Eastern Standard Time)","606276","Match,No Match","","null","","","","FEEDBACK","","<div class='trialBorder'><div class='vertical-center'><div class='trialFBDiv'><div class='trialDiv1'><div class='vertical-center'><img src='img/error.jpg'></div></div><div class='respDivL'>Match<p>(e)</div><div class='respDivR'><font style='color:orange'>No Match<p>(i)</font></div></div></div></div>","null","","","","","","","","","",""
"html-keyboard-response","115","317475","0.0-7.0-1.16","testing","bdp_wmem","Wed Dec 09 2020 22:20:10 GMT-0500 (Eastern Standard Time)","606276","Match,No Match","","null","","","","FIX","","<div class='trialBorder'><div class='vertical-center'><img src='img/fixation2_sml.jpg'</img></div></div>","null","","","","","","","","","",""
"html-keyboard-response","116","319479","0.0-7.0-2.16","testing","bdp_wmem","Wed Dec 09 2020 22:20:10 GMT-0500 (Eastern Standard Time)","606276","Match,No Match","","null","","","","ARRAY","","<div class='trialBorder'><div class='vertical-center'><div class='trialDiv4'><div class='vertical-center'><img style='vertical-align:center; align:center' src='img/fixation2_sml.jpg'></div><div class='tc'><div class='vertical-center'><img class='introPic' src='trustrating_stim/white_mw040.bmp'><br><font color='red'><strong>Keep</strong></font></div></div><div class='bl'><div class='vertical-center'><img class='introPic' src='trustrating_stim/white_mw012.bmp'><br><font color='red'><strong>Keep</strong></font></div></div><div class='br'><div class='vertical-center'><img class='introPic' src='trustrating_stim/white_mw013.bmp'><br><font color='green'><strong>Share</strong></font></div></div></div></div></div>","null","3","trustrating_stim/white_mw040.bmp,trustrating_stim/white_mw012.bmp,trustrating_stim/white_mw013.bmp","0,0,1","Match","e","2000","","","",""
"html-keyboard-response","117","323483","0.0-7.0-3.16","testing","bdp_wmem","Wed Dec 09 2020 22:20:10 GMT-0500 (Eastern Standard Time)","606276","Match,No Match","","null","","","","DELAY","","<div class='trialBorder'><div class='vertical-center'><img src='img/fixation2_sml.jpg'</img></div></div>","null","","","","","","","","","",""
"html-keyboard-response","118","325436","0.0-7.0-4.16","testing","bdp_wmem","Wed Dec 09 2020 22:20:10 GMT-0500 (Eastern Standard Time)","606276","Match,No Match","","1952","","","","TARGET","","<div class='trialBorder'><div class='vertical-center'><div class='trialFBDiv'><div class='trialDiv1'><div class='vertical-center'><img class='introPic' src='trustrating_stim/white_mw040.bmp'><br><font color='red'><strong>Keep</strong></font></div></div><div class='respDivL'>Match<p>(e)</div><div class='respDivR'>No Match<p>(i)</div></div></div></div>","i","3","trustrating_stim/white_mw040.bmp,trustrating_stim/white_mw012.bmp,trustrating_stim/white_mw013.bmp","0,0,1","Match","e","","trustrating_stim/white_mw003.bmp","green","Share","0"
"html-keyboard-response","119","325938","0.0-7.0-5.16","testing","bdp_wmem","Wed Dec 09 2020 22:20:10 GMT-0500 (Eastern Standard Time)","606276","Match,No Match","","null","","","","FEEDBACK","","<div class='trialBorder'><div class='vertical-center'><div class='trialFBDiv'><div class='trialDiv1'><div class='vertical-center'><img src='img/error.jpg'></div></div><div class='respDivL'>Match<p>(e)</div><div class='respDivR'><font style='color:orange'>No Match<p>(i)</font></div></div></div></div>","null","","","","","","","","","",""
"html-keyboard-response","120","326439","0.0-7.0-1.17","testing","bdp_wmem","Wed Dec 09 2020 22:20:10 GMT-0500 (Eastern Standard Time)","606276","Match,No Match","","null","","","","FIX","","<div class='trialBorder'><div class='vertical-center'><img src='img/fixation2_sml.jpg'</img></div></div>","null","","","","","","","","","",""
"html-keyboard-response","121","330447","0.0-7.0-2.17","testing","bdp_wmem","Wed Dec 09 2020 22:20:10 GMT-0500 (Eastern Standard Time)","606276","Match,No Match","","null","","","","ARRAY","","<div class='trialBorder'><div class='vertical-center'><div class='trialDiv4'><div class='vertical-center'><img style='vertical-align:center; align:center' src='img/fixation2_sml.jpg'></div><div class='tl'><div class='vertical-center'><img class='introPic' src='trustrating_stim/white_mw003.bmp'><br><font color='green'><strong>Share</strong></font></div></div><div class='tr'><div class='vertical-center'><img class='introPic' src='trustrating_stim/white_mw092.bmp'><br><font color='red'><strong>Keep</strong></font></div></div><div class='bl'><div class='vertical-center'><img class='introPic' src='trustrating_stim/white_00807_941205_fb_edt.bmp'><br><font color='green'><strong>Share</strong></font></div></div><div class='br'><div class='vertical-center'><img class='introPic' src='trustrating_stim/white_mw038.bmp'><br><font color='red'><strong>Keep</strong></font></div></div></div></div></div>","null","4","trustrating_stim/white_mw003.bmp,trustrating_stim/white_mw092.bmp,trustrating_stim/white_00807_941205_fb_edt.bmp,trustrating_stim/white_mw038.bmp","1,0,1,0","Match","e","4000","","","",""
"html-keyboard-response","122","334452","0.0-7.0-3.17","testing","bdp_wmem","Wed Dec 09 2020 22:20:10 GMT-0500 (Eastern Standard Time)","606276","Match,No Match","","null","","","","DELAY","","<div class='trialBorder'><div class='vertical-center'><img src='img/fixation2_sml.jpg'</img></div></div>","null","","","","","","","","","",""
"html-keyboard-response","123","335543","0.0-7.0-4.17","testing","bdp_wmem","Wed Dec 09 2020 22:20:10 GMT-0500 (Eastern Standard Time)","606276","Match,No Match","","1088","","","","TARGET","","<div class='trialBorder'><div class='vertical-center'><div class='trialFBDiv'><div class='trialDiv1'><div class='vertical-center'><img class='introPic' src='trustrating_stim/white_00807_941205_fb_edt.bmp'><br><font color='green'><strong>Share</strong></font></div></div><div class='respDivL'>Match<p>(e)</div><div class='respDivR'>No Match<p>(i)</div></div></div></div>","i","4","trustrating_stim/white_mw003.bmp,trustrating_stim/white_mw092.bmp,trustrating_stim/white_00807_941205_fb_edt.bmp,trustrating_stim/white_mw038.bmp","1,0,1,0","Match","e","","trustrating_stim/white_mw003.bmp","green","Share","0"
"html-keyboard-response","124","336045","0.0-7.0-5.17","testing","bdp_wmem","Wed Dec 09 2020 22:20:10 GMT-0500 (Eastern Standard Time)","606276","Match,No Match","","null","","","","FEEDBACK","","<div class='trialBorder'><div class='vertical-center'><div class='trialFBDiv'><div class='trialDiv1'><div class='vertical-center'><img src='img/error.jpg'></div></div><div class='respDivL'>Match<p>(e)</div><div class='respDivR'><font style='color:orange'>No Match<p>(i)</font></div></div></div></div>","null","","","","","","","","","",""
"html-keyboard-response","125","336547","0.0-7.0-1.18","testing","bdp_wmem","Wed Dec 09 2020 22:20:10 GMT-0500 (Eastern Standard Time)","606276","Match,No Match","","null","","","","FIX","","<div class='trialBorder'><div class='vertical-center'><img src='img/fixation2_sml.jpg'</img></div></div>","null","","","","","","","","","",""
"html-keyboard-response","126","340554","0.0-7.0-2.18","testing","bdp_wmem","Wed Dec 09 2020 22:20:10 GMT-0500 (Eastern Standard Time)","606276","Match,No Match","","null","","","","ARRAY","","<div class='trialBorder'><div class='vertical-center'><div class='trialDiv4'><div class='vertical-center'><img style='vertical-align:center; align:center' src='img/fixation2_sml.jpg'></div><div class='tl'><div class='vertical-center'><img class='introPic' src='trustrating_stim/white_mw003.bmp'><br><font color='red'><strong>Keep</strong></font></div></div><div class='tr'><div class='vertical-center'><img class='introPic' src='trustrating_stim/white_mw040.bmp'><br><font color='green'><strong>Share</strong></font></div></div><div class='bl'><div class='vertical-center'><img class='introPic' src='trustrating_stim/white_mw015.bmp'><br><font color='green'><strong>Share</strong></font></div></div><div class='br'><div class='vertical-center'><img class='introPic' src='trustrating_stim/white_mw013.bmp'><br><font color='red'><strong>Keep</strong></font></div></div></div></div></div>","null","4","trustrating_stim/white_mw003.bmp,trustrating_stim/white_mw040.bmp,trustrating_stim/white_mw015.bmp,trustrating_stim/white_mw013.bmp","0,1,1,0","noMatchFace","i","4000","","","",""
"html-keyboard-response","127","344559","0.0-7.0-3.18","testing","bdp_wmem","Wed Dec 09 2020 22:20:10 GMT-0500 (Eastern Standard Time)","606276","Match,No Match","","null","","","","DELAY","","<div class='trialBorder'><div class='vertical-center'><img src='img/fixation2_sml.jpg'</img></div></div>","null","","","","","","","","","",""
"html-keyboard-response","128","345447","0.0-7.0-4.18","testing","bdp_wmem","Wed Dec 09 2020 22:20:10 GMT-0500 (Eastern Standard Time)","606276","Match,No Match","","886","","","","TARGET","","<div class='trialBorder'><div class='vertical-center'><div class='trialFBDiv'><div class='trialDiv1'><div class='vertical-center'><img class='introPic' src='trustrating_stim/white_00807_941205_fb_edt.bmp'><br><font color='red'><strong>Keep</strong></font></div></div><div class='respDivL'>Match<p>(e)</div><div class='respDivR'>No Match<p>(i)</div></div></div></div>","i","4","trustrating_stim/white_mw003.bmp,trustrating_stim/white_mw040.bmp,trustrating_stim/white_mw015.bmp,trustrating_stim/white_mw013.bmp","0,1,1,0","noMatchFace","i","","trustrating_stim/white_mw003.bmp","green","Share","1"
"html-keyboard-response","129","345952","0.0-7.0-5.18","testing","bdp_wmem","Wed Dec 09 2020 22:20:10 GMT-0500 (Eastern Standard Time)","606276","Match,No Match","","null","","","","FEEDBACK","","<div class='trialBorder'><div class='vertical-center'><div class='trialFBDiv'><div class='trialDiv1'><div class='vertical-center'><img src='img/correct.jpg'></div></div><div class='respDivL'>Match<p>(e)</div><div class='respDivR'><font style='color:orange'>No Match<p>(i)</font></div></div></div></div>","null","","","","","","","","","",""
"html-keyboard-response","130","346457","0.0-7.0-1.19","testing","bdp_wmem","Wed Dec 09 2020 22:20:10 GMT-0500 (Eastern Standard Time)","606276","Match,No Match","","null","","","","FIX","","<div class='trialBorder'><div class='vertical-center'><img src='img/fixation2_sml.jpg'</img></div></div>","null","","","","","","","","","",""
"html-keyboard-response","131","350465","0.0-7.0-2.19","testing","bdp_wmem","Wed Dec 09 2020 22:20:10 GMT-0500 (Eastern Standard Time)","606276","Match,No Match","","null","","","","ARRAY","","<div class='trialBorder'><div class='vertical-center'><div class='trialDiv4'><div class='vertical-center'><img style='vertical-align:center; align:center' src='img/fixation2_sml.jpg'></div><div class='tl'><div class='vertical-center'><img class='introPic' src='trustrating_stim/white_mw012.bmp'><br><font color='red'><strong>Keep</strong></font></div></div><div class='tr'><div class='vertical-center'><img class='introPic' src='trustrating_stim/white_00807_941205_fb_edt.bmp'><br><font color='green'><strong>Share</strong></font></div></div><div class='bl'><div class='vertical-center'><img class='introPic' src='trustrating_stim/white_mw013.bmp'><br><font color='green'><strong>Share</strong></font></div></div><div class='br'><div class='vertical-center'><img class='introPic' src='trustrating_stim/white_mw003.bmp'><br><font color='red'><strong>Keep</strong></font></div></div></div></div></div>","null","4","trustrating_stim/white_mw012.bmp,trustrating_stim/white_00807_941205_fb_edt.bmp,trustrating_stim/white_mw013.bmp,trustrating_stim/white_mw003.bmp","0,1,1,0","Match","e","4000","","","",""
"html-keyboard-response","132","354467","0.0-7.0-3.19","testing","bdp_wmem","Wed Dec 09 2020 22:20:10 GMT-0500 (Eastern Standard Time)","606276","Match,No Match","","null","","","","DELAY","","<div class='trialBorder'><div class='vertical-center'><img src='img/fixation2_sml.jpg'</img></div></div>","null","","","","","","","","","",""
"html-keyboard-response","133","355757","0.0-7.0-4.19","testing","bdp_wmem","Wed Dec 09 2020 22:20:10 GMT-0500 (Eastern Standard Time)","606276","Match,No Match","","1288","","","","TARGET","","<div class='trialBorder'><div class='vertical-center'><div class='trialFBDiv'><div class='trialDiv1'><div class='vertical-center'><img class='introPic' src='trustrating_stim/white_mw003.bmp'><br><font color='red'><strong>Keep</strong></font></div></div><div class='respDivL'>Match<p>(e)</div><div class='respDivR'>No Match<p>(i)</div></div></div></div>","e","4","trustrating_stim/white_mw012.bmp,trustrating_stim/white_00807_941205_fb_edt.bmp,trustrating_stim/white_mw013.bmp,trustrating_stim/white_mw003.bmp","0,1,1,0","Match","e","","trustrating_stim/white_mw003.bmp","green","Share","1"
"html-keyboard-response","134","356262","0.0-7.0-5.19","testing","bdp_wmem","Wed Dec 09 2020 22:20:10 GMT-0500 (Eastern Standard Time)","606276","Match,No Match","","null","","","","FEEDBACK","","<div class='trialBorder'><div class='vertical-center'><div class='trialFBDiv'><div class='trialDiv1'><div class='vertical-center'><img src='img/correct.jpg'></div></div><div class='respDivL'><font style='color:orange'>Match<p>(e)</font></div><div class='respDivR'>No Match<p>(i)</div></div></div></div>","null","","","","","","","","","",""
"html-keyboard-response","135","356764","0.0-7.0-1.20","testing","bdp_wmem","Wed Dec 09 2020 22:20:10 GMT-0500 (Eastern Standard Time)","606276","Match,No Match","","null","","","","FIX","","<div class='trialBorder'><div class='vertical-center'><img src='img/fixation2_sml.jpg'</img></div></div>","null","","","","","","","","","",""
"html-keyboard-response","136","358770","0.0-7.0-2.20","testing","bdp_wmem","Wed Dec 09 2020 22:20:10 GMT-0500 (Eastern Standard Time)","606276","Match,No Match","","null","","","","ARRAY","","<div class='trialBorder'><div class='vertical-center'><div class='trialDiv2'><div class='vertical-center'><img style='vertical-align:center; align:center' src='img/fixation2_sml.jpg'></div><div class='tc'><div class='vertical-center'><img class='introPic' src='trustrating_stim/white_mw040.bmp'><br><font color='green'><strong>Share</strong></font></div></div><div class='bc'><div class='vertical-center'><img class='introPic' src='trustrating_stim/white_mw033.bmp'><br><font color='red'><strong>Keep</strong></font></div></div></div></div></div>","null","2","trustrating_stim/white_mw040.bmp,trustrating_stim/white_mw033.bmp","1,0","Match","e","2000","","","",""
"html-keyboard-response","137","362776","0.0-7.0-3.20","testing","bdp_wmem","Wed Dec 09 2020 22:20:10 GMT-0500 (Eastern Standard Time)","606276","Match,No Match","","null","","","","DELAY","","<div class='trialBorder'><div class='vertical-center'><img src='img/fixation2_sml.jpg'</img></div></div>","null","","","","","","","","","",""
"html-keyboard-response","138","363701","0.0-7.0-4.20","testing","bdp_wmem","Wed Dec 09 2020 22:20:10 GMT-0500 (Eastern Standard Time)","606276","Match,No Match","","924","","","","TARGET","","<div class='trialBorder'><div class='vertical-center'><div class='trialFBDiv'><div class='trialDiv1'><div class='vertical-center'><img class='introPic' src='trustrating_stim/white_mw040.bmp'><br><font color='green'><strong>Share</strong></font></div></div><div class='respDivL'>Match<p>(e)</div><div class='respDivR'>No Match<p>(i)</div></div></div></div>","e","2","trustrating_stim/white_mw040.bmp,trustrating_stim/white_mw033.bmp","1,0","Match","e","","trustrating_stim/white_mw003.bmp","green","Share","1"
"html-keyboard-response","139","364203","0.0-7.0-5.20","testing","bdp_wmem","Wed Dec 09 2020 22:20:10 GMT-0500 (Eastern Standard Time)","606276","Match,No Match","","null","","","","FEEDBACK","","<div class='trialBorder'><div class='vertical-center'><div class='trialFBDiv'><div class='trialDiv1'><div class='vertical-center'><img src='img/correct.jpg'></div></div><div class='respDivL'><font style='color:orange'>Match<p>(e)</font></div><div class='respDivR'>No Match<p>(i)</div></div></div></div>","null","","","","","","","","","",""
"html-keyboard-response","140","364709","0.0-7.0-1.21","testing","bdp_wmem","Wed Dec 09 2020 22:20:10 GMT-0500 (Eastern Standard Time)","606276","Match,No Match","","null","","","","FIX","","<div class='trialBorder'><div class='vertical-center'><img src='img/fixation2_sml.jpg'</img></div></div>","null","","","","","","","","","",""
"html-keyboard-response","141","366712","0.0-7.0-2.21","testing","bdp_wmem","Wed Dec 09 2020 22:20:10 GMT-0500 (Eastern Standard Time)","606276","Match,No Match","","null","","","","ARRAY","","<div class='trialBorder'><div class='vertical-center'><div class='trialDiv4'><div class='vertical-center'><img style='vertical-align:center; align:center' src='img/fixation2_sml.jpg'></div><div class='tc'><div class='vertical-center'><img class='introPic' src='trustrating_stim/white_mw033.bmp'><br><font color='green'><strong>Share</strong></font></div></div><div class='bl'><div class='vertical-center'><img class='introPic' src='trustrating_stim/white_mw040.bmp'><br><font color='red'><strong>Keep</strong></font></div></div><div class='br'><div class='vertical-center'><img class='introPic' src='trustrating_stim/white_mw070.bmp'><br><font color='red'><strong>Keep</strong></font></div></div></div></div></div>","null","3","trustrating_stim/white_mw033.bmp,trustrating_stim/white_mw040.bmp,trustrating_stim/white_mw070.bmp","1,0,0","noMatchFace","i","2000","","","",""
"html-keyboard-response","142","370717","0.0-7.0-3.21","testing","bdp_wmem","Wed Dec 09 2020 22:20:10 GMT-0500 (Eastern Standard Time)","606276","Match,No Match","","null","","","","DELAY","","<div class='trialBorder'><div class='vertical-center'><img src='img/fixation2_sml.jpg'</img></div></div>","null","","","","","","","","","",""
"html-keyboard-response","143","371833","0.0-7.0-4.21","testing","bdp_wmem","Wed Dec 09 2020 22:20:10 GMT-0500 (Eastern Standard Time)","606276","Match,No Match","","1114","","","","TARGET","","<div class='trialBorder'><div class='vertical-center'><div class='trialFBDiv'><div class='trialDiv1'><div class='vertical-center'><img class='introPic' src='trustrating_stim/white_mw015.bmp'><br><font color='green'><strong>Share</strong></font></div></div><div class='respDivL'>Match<p>(e)</div><div class='respDivR'>No Match<p>(i)</div></div></div></div>","i","3","trustrating_stim/white_mw033.bmp,trustrating_stim/white_mw040.bmp,trustrating_stim/white_mw070.bmp","1,0,0","noMatchFace","i","","trustrating_stim/white_mw003.bmp","green","Share","1"
"html-keyboard-response","144","372337","0.0-7.0-5.21","testing","bdp_wmem","Wed Dec 09 2020 22:20:10 GMT-0500 (Eastern Standard Time)","606276","Match,No Match","","null","","","","FEEDBACK","","<div class='trialBorder'><div class='vertical-center'><div class='trialFBDiv'><div class='trialDiv1'><div class='vertical-center'><img src='img/correct.jpg'></div></div><div class='respDivL'>Match<p>(e)</div><div class='respDivR'><font style='color:orange'>No Match<p>(i)</font></div></div></div></div>","null","","","","","","","","","",""
"html-keyboard-response","145","372839","0.0-7.0-1.22","testing","bdp_wmem","Wed Dec 09 2020 22:20:10 GMT-0500 (Eastern Standard Time)","606276","Match,No Match","","null","","","","FIX","","<div class='trialBorder'><div class='vertical-center'><img src='img/fixation2_sml.jpg'</img></div></div>","null","","","","","","","","","",""
"html-keyboard-response","146","374845","0.0-7.0-2.22","testing","bdp_wmem","Wed Dec 09 2020 22:20:10 GMT-0500 (Eastern Standard Time)","606276","Match,No Match","","null","","","","ARRAY","","<div class='trialBorder'><div class='vertical-center'><div class='trialDiv4'><div class='vertical-center'><img style='vertical-align:center; align:center' src='img/fixation2_sml.jpg'></div><div class='tc'><div class='vertical-center'><img class='introPic' src='trustrating_stim/white_00807_941205_fb_edt.bmp'><br><font color='green'><strong>Share</strong></font></div></div><div class='bl'><div class='vertical-center'><img class='introPic' src='trustrating_stim/white_mw070.bmp'><br><font color='red'><strong>Keep</strong></font></div></div><div class='br'><div class='vertical-center'><img class='introPic' src='trustrating_stim/white_mw013.bmp'><br><font color='green'><strong>Share</strong></font></div></div></div></div></div>","null","3","trustrating_stim/white_00807_941205_fb_edt.bmp,trustrating_stim/white_mw070.bmp,trustrating_stim/white_mw013.bmp","1,0,1","Match","e","2000","","","",""
"html-keyboard-response","147","378847","0.0-7.0-3.22","testing","bdp_wmem","Wed Dec 09 2020 22:20:10 GMT-0500 (Eastern Standard Time)","606276","Match,No Match","","null","","","","DELAY","","<div class='trialBorder'><div class='vertical-center'><img src='img/fixation2_sml.jpg'</img></div></div>","null","","","","","","","","","",""
"html-keyboard-response","148","380066","0.0-7.0-4.22","testing","bdp_wmem","Wed Dec 09 2020 22:20:10 GMT-0500 (Eastern Standard Time)","606276","Match,No Match","","1218","","","","TARGET","","<div class='trialBorder'><div class='vertical-center'><div class='trialFBDiv'><div class='trialDiv1'><div class='vertical-center'><img class='introPic' src='trustrating_stim/white_mw013.bmp'><br><font color='green'><strong>Share</strong></font></div></div><div class='respDivL'>Match<p>(e)</div><div class='respDivR'>No Match<p>(i)</div></div></div></div>","e","3","trustrating_stim/white_00807_941205_fb_edt.bmp,trustrating_stim/white_mw070.bmp,trustrating_stim/white_mw013.bmp","1,0,1","Match","e","","trustrating_stim/white_mw003.bmp","green","Share","1"
"html-keyboard-response","149","380569","0.0-7.0-5.22","testing","bdp_wmem","Wed Dec 09 2020 22:20:10 GMT-0500 (Eastern Standard Time)","606276","Match,No Match","","null","","","","FEEDBACK","","<div class='trialBorder'><div class='vertical-center'><div class='trialFBDiv'><div class='trialDiv1'><div class='vertical-center'><img src='img/correct.jpg'></div></div><div class='respDivL'><font style='color:orange'>Match<p>(e)</font></div><div class='respDivR'>No Match<p>(i)</div></div></div></div>","null","","","","","","","","","",""
"html-keyboard-response","150","381071","0.0-7.0-1.23","testing","bdp_wmem","Wed Dec 09 2020 22:20:10 GMT-0500 (Eastern Standard Time)","606276","Match,No Match","","null","","","","FIX","","<div class='trialBorder'><div class='vertical-center'><img src='img/fixation2_sml.jpg'</img></div></div>","null","","","","","","","","","",""
"html-keyboard-response","151","385079","0.0-7.0-2.23","testing","bdp_wmem","Wed Dec 09 2020 22:20:10 GMT-0500 (Eastern Standard Time)","606276","Match,No Match","","null","","","","ARRAY","","<div class='trialBorder'><div class='vertical-center'><div class='trialDiv4'><div class='vertical-center'><img style='vertical-align:center; align:center' src='img/fixation2_sml.jpg'></div><div class='tl'><div class='vertical-center'><img class='introPic' src='trustrating_stim/white_mw012.bmp'><br><font color='green'><strong>Share</strong></font></div></div><div class='tr'><div class='vertical-center'><img class='introPic' src='trustrating_stim/white_mw092.bmp'><br><font color='red'><strong>Keep</strong></font></div></div><div class='bl'><div class='vertical-center'><img class='introPic' src='trustrating_stim/white_mw013.bmp'><br><font color='green'><strong>Share</strong></font></div></div><div class='br'><div class='vertical-center'><img class='introPic' src='trustrating_stim/white_mw040.bmp'><br><font color='red'><strong>Keep</strong></font></div></div></div></div></div>","null","4","trustrating_stim/white_mw012.bmp,trustrating_stim/white_mw092.bmp,trustrating_stim/white_mw013.bmp,trustrating_stim/white_mw040.bmp","1,0,1,0","Match","e","4000","","","",""
"html-keyboard-response","152","389083","0.0-7.0-3.23","testing","bdp_wmem","Wed Dec 09 2020 22:20:10 GMT-0500 (Eastern Standard Time)","606276","Match,No Match","","null","","","","DELAY","","<div class='trialBorder'><div class='vertical-center'><img src='img/fixation2_sml.jpg'</img></div></div>","null","","","","","","","","","",""
"html-keyboard-response","153","390085","0.0-7.0-4.23","testing","bdp_wmem","Wed Dec 09 2020 22:20:10 GMT-0500 (Eastern Standard Time)","606276","Match,No Match","","999","","","","TARGET","","<div class='trialBorder'><div class='vertical-center'><div class='trialFBDiv'><div class='trialDiv1'><div class='vertical-center'><img class='introPic' src='trustrating_stim/white_mw013.bmp'><br><font color='green'><strong>Share</strong></font></div></div><div class='respDivL'>Match<p>(e)</div><div class='respDivR'>No Match<p>(i)</div></div></div></div>","e","4","trustrating_stim/white_mw012.bmp,trustrating_stim/white_mw092.bmp,trustrating_stim/white_mw013.bmp,trustrating_stim/white_mw040.bmp","1,0,1,0","Match","e","","trustrating_stim/white_mw003.bmp","green","Share","1"
"html-keyboard-response","154","390588","0.0-7.0-5.23","testing","bdp_wmem","Wed Dec 09 2020 22:20:10 GMT-0500 (Eastern Standard Time)","606276","Match,No Match","","null","","","","FEEDBACK","","<div class='trialBorder'><div class='vertical-center'><div class='trialFBDiv'><div class='trialDiv1'><div class='vertical-center'><img src='img/correct.jpg'></div></div><div class='respDivL'><font style='color:orange'>Match<p>(e)</font></div><div class='respDivR'>No Match<p>(i)</div></div></div></div>","null","","","","","","","","","",""
"html-keyboard-response","155","391093","0.0-7.0-1.24","testing","bdp_wmem","Wed Dec 09 2020 22:20:10 GMT-0500 (Eastern Standard Time)","606276","Match,No Match","","null","","","","FIX","","<div class='trialBorder'><div class='vertical-center'><img src='img/fixation2_sml.jpg'</img></div></div>","null","","","","","","","","","",""
"html-keyboard-response","156","393100","0.0-7.0-2.24","testing","bdp_wmem","Wed Dec 09 2020 22:20:10 GMT-0500 (Eastern Standard Time)","606276","Match,No Match","","null","","","","ARRAY","","<div class='trialBorder'><div class='vertical-center'><div class='trialDiv4'><div class='vertical-center'><img style='vertical-align:center; align:center' src='img/fixation2_sml.jpg'></div><div class='tc'><div class='vertical-center'><img class='introPic' src='trustrating_stim/white_mw040.bmp'><br><font color='green'><strong>Share</strong></font></div></div><div class='bl'><div class='vertical-center'><img class='introPic' src='trustrating_stim/white_mw003.bmp'><br><font color='red'><strong>Keep</strong></font></div></div><div class='br'><div class='vertical-center'><img class='introPic' src='trustrating_stim/white_mw091.bmp'><br><font color='red'><strong>Keep</strong></font></div></div></div></div></div>","null","3","trustrating_stim/white_mw040.bmp,trustrating_stim/white_mw003.bmp,trustrating_stim/white_mw091.bmp","1,0,0","noMatchOutcome","i","2000","","","",""
"html-keyboard-response","157","397102","0.0-7.0-3.24","testing","bdp_wmem","Wed Dec 09 2020 22:20:10 GMT-0500 (Eastern Standard Time)","606276","Match,No Match","","null","","","","DELAY","","<div class='trialBorder'><div class='vertical-center'><img src='img/fixation2_sml.jpg'</img></div></div>","null","","","","","","","","","",""
"html-keyboard-response","158","397945","0.0-7.0-4.24","testing","bdp_wmem","Wed Dec 09 2020 22:20:10 GMT-0500 (Eastern Standard Time)","606276","Match,No Match","","842","","","","TARGET","","<div class='trialBorder'><div class='vertical-center'><div class='trialFBDiv'><div class='trialDiv1'><div class='vertical-center'><img class='introPic' src='trustrating_stim/white_mw040.bmp'><br><font color='red'><strong>Keep</strong></font></div></div><div class='respDivL'>Match<p>(e)</div><div class='respDivR'>No Match<p>(i)</div></div></div></div>","e","3","trustrating_stim/white_mw040.bmp,trustrating_stim/white_mw003.bmp,trustrating_stim/white_mw091.bmp","1,0,0","noMatchOutcome","i","","trustrating_stim/white_mw003.bmp","green","Share","0"
"html-keyboard-response","159","398446","0.0-7.0-5.24","testing","bdp_wmem","Wed Dec 09 2020 22:20:10 GMT-0500 (Eastern Standard Time)","606276","Match,No Match","","null","","","","FEEDBACK","","<div class='trialBorder'><div class='vertical-center'><div class='trialFBDiv'><div class='trialDiv1'><div class='vertical-center'><img src='img/error.jpg'></div></div><div class='respDivL'><font style='color:orange'>Match<p>(e)</font></div><div class='respDivR'>No Match<p>(i)</div></div></div></div>","null","","","","","","","","","",""
"html-keyboard-response","160","398949","0.0-7.0-1.25","testing","bdp_wmem","Wed Dec 09 2020 22:20:10 GMT-0500 (Eastern Standard Time)","606276","Match,No Match","","null","","","","FIX","","<div class='trialBorder'><div class='vertical-center'><img src='img/fixation2_sml.jpg'</img></div></div>","null","","","","","","","","","",""
"html-keyboard-response","161","400954","0.0-7.0-2.25","testing","bdp_wmem","Wed Dec 09 2020 22:20:10 GMT-0500 (Eastern Standard Time)","606276","Match,No Match","","null","","","","ARRAY","","<div class='trialBorder'><div class='vertical-center'><div class='trialDiv4'><div class='vertical-center'><img style='vertical-align:center; align:center' src='img/fixation2_sml.jpg'></div><div class='tc'><div class='vertical-center'><img class='introPic' src='trustrating_stim/white_mw013.bmp'><br><font color='green'><strong>Share</strong></font></div></div><div class='bl'><div class='vertical-center'><img class='introPic' src='trustrating_stim/white_mw092.bmp'><br><font color='green'><strong>Share</strong></font></div></div><div class='br'><div class='vertical-center'><img class='introPic' src='trustrating_stim/white_mw033.bmp'><br><font color='red'><strong>Keep</strong></font></div></div></div></div></div>","null","3","trustrating_stim/white_mw013.bmp,trustrating_stim/white_mw092.bmp,trustrating_stim/white_mw033.bmp","1,1,0","noMatchOutcome","i","2000","","","",""
"html-keyboard-response","162","404956","0.0-7.0-3.25","testing","bdp_wmem","Wed Dec 09 2020 22:20:10 GMT-0500 (Eastern Standard Time)","606276","Match,No Match","","null","","","","DELAY","","<div class='trialBorder'><div class='vertical-center'><img src='img/fixation2_sml.jpg'</img></div></div>","null","","","","","","","","","",""
"html-keyboard-response","163","406247","0.0-7.0-4.25","testing","bdp_wmem","Wed Dec 09 2020 22:20:10 GMT-0500 (Eastern Standard Time)","606276","Match,No Match","","1290","","","","TARGET","","<div class='trialBorder'><div class='vertical-center'><div class='trialFBDiv'><div class='trialDiv1'><div class='vertical-center'><img class='introPic' src='trustrating_stim/white_mw013.bmp'><br><font color='red'><strong>Keep</strong></font></div></div><div class='respDivL'>Match<p>(e)</div><div class='respDivR'>No Match<p>(i)</div></div></div></div>","e","3","trustrating_stim/white_mw013.bmp,trustrating_stim/white_mw092.bmp,trustrating_stim/white_mw033.bmp","1,1,0","noMatchOutcome","i","","trustrating_stim/white_mw003.bmp","green","Share","0"
"html-keyboard-response","164","406752","0.0-7.0-5.25","testing","bdp_wmem","Wed Dec 09 2020 22:20:10 GMT-0500 (Eastern Standard Time)","606276","Match,No Match","","null","","","","FEEDBACK","","<div class='trialBorder'><div class='vertical-center'><div class='trialFBDiv'><div class='trialDiv1'><div class='vertical-center'><img src='img/error.jpg'></div></div><div class='respDivL'><font style='color:orange'>Match<p>(e)</font></div><div class='respDivR'>No Match<p>(i)</div></div></div></div>","null","","","","","","","","","",""
"html-keyboard-response","165","407254","0.0-7.0-1.26","testing","bdp_wmem","Wed Dec 09 2020 22:20:10 GMT-0500 (Eastern Standard Time)","606276","Match,No Match","","null","","","","FIX","","<div class='trialBorder'><div class='vertical-center'><img src='img/fixation2_sml.jpg'</img></div></div>","null","","","","","","","","","",""
