"trial_type","trial_index","time_elapsed","internal_node_id","subject_id","task","startTime","totalTime","labels","view_history","rt","event","trial","time","trialtype","success","stimulus","key_press","arraySize","arrayFaces","arrayOutcomes","matchType","corrResp","trial_duration","targFace","targCol","targOutcome","corr"
"pavlovia","0","3","0.0-0.0","dstesting","bdp_wmem","Mon May 10 2021 11:05:02 GMT-0400 (Eastern Daylight Time)","545512","Match,No Match","","","","","","","","","","","","","","","","","","",""
"instructions","1","1609","0.0-1.0","dstesting","bdp_wmem","Mon May 10 2021 11:05:02 GMT-0400 (Eastern Daylight Time)","545512","Match,No Match","[{""page_index"":0,""viewing_time"":1606}]","1606","","","","","","","","","","","","","","","","",""
"","","","","dstesting","bdp_wmem","Mon May 10 2021 11:05:02 GMT-0400 (Eastern Daylight Time)","545512","Match,No Match","","","fullscreenenter","2","4460","fullscreenenter","","","","","","","","","","","","",""
"fullscreen","2","5440","0.0-2.0","dstesting","bdp_wmem","Mon May 10 2021 11:05:02 GMT-0400 (Eastern Daylight Time)","545512","Match,No Match","","","","","","","true","","","","","","","","","","","",""
"instructions","3","48887","0.0-4.0","dstesting","bdp_wmem","Mon May 10 2021 11:05:02 GMT-0400 (Eastern Daylight Time)","545512","Match,No Match","[{""page_index"":0,""viewing_time"":14443},{""page_index"":1,""viewing_time"":15021},{""page_index"":2,""viewing_time"":5741},{""page_index"":3,""viewing_time"":3651},{""page_index"":4,""viewing_time"":4590}]","43446","","","","","","","","","","","","","","","","",""
"html-keyboard-response","4","49392","0.0-5.0-1.0","dstesting","bdp_wmem","Mon May 10 2021 11:05:02 GMT-0400 (Eastern Daylight Time)","545512","Match,No Match","","null","","","","FIX","","<div class='trialBorder'><div class='vertical-center'><img src='img/fixation2_sml.jpg'</img></div></div>","null","","","","","","","","","",""
"html-keyboard-response","5","52395","0.0-5.0-2.0","dstesting","bdp_wmem","Mon May 10 2021 11:05:02 GMT-0400 (Eastern Daylight Time)","545512","Match,No Match","","null","","","","ARRAY","","<div class='trialBorder'><div class='vertical-center'><img style='vertical-align:center; align:center' src='img/fixation2_sml.jpg'></div><div class='arrayDiv2'><div class='tl'><img class='introPic' src='trustrating_stim/white_mw070.bmp'><br><font color='green'><strong>Share</strong></font></div><div class='tr'><img class='introPic' src='trustrating_stim/white_mw012.bmp'><br><font color='red'><strong>Keep</strong></font></div></div></div>","null","2","trustrating_stim/white_mw070.bmp,trustrating_stim/white_mw012.bmp","1,0","Match","e","3000","","","",""
"html-keyboard-response","6","56400","0.0-5.0-3.0","dstesting","bdp_wmem","Mon May 10 2021 11:05:02 GMT-0400 (Eastern Daylight Time)","545512","Match,No Match","","null","","","","DELAY","","<div class='trialBorder'><div class='vertical-center'><img src='img/fixation2_sml.jpg'</img></div></div>","null","","","","","","","","","",""
"html-keyboard-response","7","58039","0.0-5.0-4.0","dstesting","bdp_wmem","Mon May 10 2021 11:05:02 GMT-0400 (Eastern Daylight Time)","545512","Match,No Match","","1638","","","","TARGET","","<div class='trialBorder'><div class='targDiv'><div class='tc'><img class='introPic' src='trustrating_stim/white_mw012.bmp'><br><font color='red'><strong>Keep</strong></font></div></div><div class='respDiv'><div class='respDivL'>Match<br>(e)</div><div class='respDivR'>No Match<br>(i)</div></div></div>","e","2","trustrating_stim/white_mw070.bmp,trustrating_stim/white_mw012.bmp","1,0","Match","e","","trustrating_stim/white_mw012.bmp","red","Keep","1"
"html-keyboard-response","8","58541","0.0-5.0-5.0","dstesting","bdp_wmem","Mon May 10 2021 11:05:02 GMT-0400 (Eastern Daylight Time)","545512","Match,No Match","","null","","","","FEEDBACK","","<div class='trialBorder'><div class='vertical-center'><img src='img/correct.jpg'></div><div class='respDiv'><div class='respDivL'><font style='color:orange'>Match<br>(e)</font></div><div class='respDivR'>No Match<br>(i)</div></div></div>","null","","","","","","","","","",""
"html-keyboard-response","9","59042","0.0-5.0-1.1","dstesting","bdp_wmem","Mon May 10 2021 11:05:02 GMT-0400 (Eastern Daylight Time)","545512","Match,No Match","","null","","","","FIX","","<div class='trialBorder'><div class='vertical-center'><img src='img/fixation2_sml.jpg'</img></div></div>","null","","","","","","","","","",""
"html-keyboard-response","10","63546","0.0-5.0-2.1","dstesting","bdp_wmem","Mon May 10 2021 11:05:02 GMT-0400 (Eastern Daylight Time)","545512","Match,No Match","","null","","","","ARRAY","","<div class='trialBorder'><div class='vertical-center'><img style='vertical-align:center; align:center' src='img/fixation2_sml.jpg'></div><div class='arrayDiv3'><div class='tl'><img class='introPic' src='trustrating_stim/white_mw003.bmp'><br><font color='red'><strong>Keep</strong></font></div><div class='tc'><img class='introPic' src='trustrating_stim/white_mw040.bmp'><br><font color='red'><strong>Keep</strong></font></div><div class='tr'><img class='introPic' src='trustrating_stim/white_mw013.bmp'><br><font color='green'><strong>Share</strong></font></div></div></div>","null","3","trustrating_stim/white_mw003.bmp,trustrating_stim/white_mw040.bmp,trustrating_stim/white_mw013.bmp","0,0,1","Match","e","4500","","","",""
"html-keyboard-response","11","67551","0.0-5.0-3.1","dstesting","bdp_wmem","Mon May 10 2021 11:05:02 GMT-0400 (Eastern Daylight Time)","545512","Match,No Match","","null","","","","DELAY","","<div class='trialBorder'><div class='vertical-center'><img src='img/fixation2_sml.jpg'</img></div></div>","null","","","","","","","","","",""
"html-keyboard-response","12","68369","0.0-5.0-4.1","dstesting","bdp_wmem","Mon May 10 2021 11:05:02 GMT-0400 (Eastern Daylight Time)","545512","Match,No Match","","816","","","","TARGET","","<div class='trialBorder'><div class='targDiv'><div class='tc'><img class='introPic' src='trustrating_stim/white_mw003.bmp'><br><font color='red'><strong>Keep</strong></font></div></div><div class='respDiv'><div class='respDivL'>Match<br>(e)</div><div class='respDivR'>No Match<br>(i)</div></div></div>","e","3","trustrating_stim/white_mw003.bmp,trustrating_stim/white_mw040.bmp,trustrating_stim/white_mw013.bmp","0,0,1","Match","e","","trustrating_stim/white_mw003.bmp","red","Keep","1"
"html-keyboard-response","13","68872","0.0-5.0-5.1","dstesting","bdp_wmem","Mon May 10 2021 11:05:02 GMT-0400 (Eastern Daylight Time)","545512","Match,No Match","","null","","","","FEEDBACK","","<div class='trialBorder'><div class='vertical-center'><img src='img/correct.jpg'></div><div class='respDiv'><div class='respDivL'><font style='color:orange'>Match<br>(e)</font></div><div class='respDivR'>No Match<br>(i)</div></div></div>","null","","","","","","","","","",""
"html-keyboard-response","14","69376","0.0-5.0-1.2","dstesting","bdp_wmem","Mon May 10 2021 11:05:02 GMT-0400 (Eastern Daylight Time)","545512","Match,No Match","","null","","","","FIX","","<div class='trialBorder'><div class='vertical-center'><img src='img/fixation2_sml.jpg'</img></div></div>","null","","","","","","","","","",""
"html-keyboard-response","15","72381","0.0-5.0-2.2","dstesting","bdp_wmem","Mon May 10 2021 11:05:02 GMT-0400 (Eastern Daylight Time)","545512","Match,No Match","","null","","","","ARRAY","","<div class='trialBorder'><div class='vertical-center'><img style='vertical-align:center; align:center' src='img/fixation2_sml.jpg'></div><div class='arrayDiv2'><div class='tl'><img class='introPic' src='trustrating_stim/white_mw012.bmp'><br><font color='red'><strong>Keep</strong></font></div><div class='tr'><img class='introPic' src='trustrating_stim/white_mw015.bmp'><br><font color='green'><strong>Share</strong></font></div></div></div>","null","2","trustrating_stim/white_mw012.bmp,trustrating_stim/white_mw015.bmp","0,1","noMatchOutcome","i","3000","","","",""
"html-keyboard-response","16","76383","0.0-5.0-3.2","dstesting","bdp_wmem","Mon May 10 2021 11:05:02 GMT-0400 (Eastern Daylight Time)","545512","Match,No Match","","null","","","","DELAY","","<div class='trialBorder'><div class='vertical-center'><img src='img/fixation2_sml.jpg'</img></div></div>","null","","","","","","","","","",""
"html-keyboard-response","17","77406","0.0-5.0-4.2","dstesting","bdp_wmem","Mon May 10 2021 11:05:02 GMT-0400 (Eastern Daylight Time)","545512","Match,No Match","","1022","","","","TARGET","","<div class='trialBorder'><div class='targDiv'><div class='tc'><img class='introPic' src='trustrating_stim/white_mw015.bmp'><br><font color='red'><strong>Keep</strong></font></div></div><div class='respDiv'><div class='respDivL'>Match<br>(e)</div><div class='respDivR'>No Match<br>(i)</div></div></div>","e","2","trustrating_stim/white_mw012.bmp,trustrating_stim/white_mw015.bmp","0,1","noMatchOutcome","i","","trustrating_stim/white_mw015.bmp","red","Keep","0"
"html-keyboard-response","18","77908","0.0-5.0-5.2","dstesting","bdp_wmem","Mon May 10 2021 11:05:02 GMT-0400 (Eastern Daylight Time)","545512","Match,No Match","","null","","","","FEEDBACK","","<div class='trialBorder'><div class='vertical-center'><img src='img/error.jpg'></div><div class='respDiv'><div class='respDivL'><font style='color:orange'>Match<br>(e)</font></div><div class='respDivR'>No Match<br>(i)</div></div></div>","null","","","","","","","","","",""
"html-keyboard-response","19","78410","0.0-5.0-1.3","dstesting","bdp_wmem","Mon May 10 2021 11:05:02 GMT-0400 (Eastern Daylight Time)","545512","Match,No Match","","null","","","","FIX","","<div class='trialBorder'><div class='vertical-center'><img src='img/fixation2_sml.jpg'</img></div></div>","null","","","","","","","","","",""
"html-keyboard-response","20","79915","0.0-5.0-2.3","dstesting","bdp_wmem","Mon May 10 2021 11:05:02 GMT-0400 (Eastern Daylight Time)","545512","Match,No Match","","null","","","","ARRAY","","<div class='trialBorder'><div class='vertical-center'><img style='vertical-align:center; align:center' src='img/fixation2_sml.jpg'></div><div class='arrayDiv1'><div class='tc'><img class='introPic' src='trustrating_stim/white_mw003.bmp'><br><font color='green'><strong>Share</strong></font></div></div></div>","null","1","trustrating_stim/white_mw003.bmp","1","noMatchFace","i","1500","","","",""
"html-keyboard-response","21","83920","0.0-5.0-3.3","dstesting","bdp_wmem","Mon May 10 2021 11:05:02 GMT-0400 (Eastern Daylight Time)","545512","Match,No Match","","null","","","","DELAY","","<div class='trialBorder'><div class='vertical-center'><img src='img/fixation2_sml.jpg'</img></div></div>","null","","","","","","","","","",""
"html-keyboard-response","22","84761","0.0-5.0-4.3","dstesting","bdp_wmem","Mon May 10 2021 11:05:02 GMT-0400 (Eastern Daylight Time)","545512","Match,No Match","","840","","","","TARGET","","<div class='trialBorder'><div class='targDiv'><div class='tc'><img class='introPic' src='trustrating_stim/white_00050_931230_fa_edt.bmp'><br><font color='green'><strong>Share</strong></font></div></div><div class='respDiv'><div class='respDivL'>Match<br>(e)</div><div class='respDivR'>No Match<br>(i)</div></div></div>","e","1","trustrating_stim/white_mw003.bmp","1","noMatchFace","i","","trustrating_stim/white_00050_931230_fa_edt.bmp","green","Share","0"
"html-keyboard-response","23","85263","0.0-5.0-5.3","dstesting","bdp_wmem","Mon May 10 2021 11:05:02 GMT-0400 (Eastern Daylight Time)","545512","Match,No Match","","null","","","","FEEDBACK","","<div class='trialBorder'><div class='vertical-center'><img src='img/error.jpg'></div><div class='respDiv'><div class='respDivL'><font style='color:orange'>Match<br>(e)</font></div><div class='respDivR'>No Match<br>(i)</div></div></div>","null","","","","","","","","","",""
"html-keyboard-response","24","85764","0.0-5.0-1.4","dstesting","bdp_wmem","Mon May 10 2021 11:05:02 GMT-0400 (Eastern Daylight Time)","545512","Match,No Match","","null","","","","FIX","","<div class='trialBorder'><div class='vertical-center'><img src='img/fixation2_sml.jpg'</img></div></div>","null","","","","","","","","","",""
"html-keyboard-response","25","90267","0.0-5.0-2.4","dstesting","bdp_wmem","Mon May 10 2021 11:05:02 GMT-0400 (Eastern Daylight Time)","545512","Match,No Match","","null","","","","ARRAY","","<div class='trialBorder'><div class='vertical-center'><img style='vertical-align:center; align:center' src='img/fixation2_sml.jpg'></div><div class='arrayDiv3'><div class='tl'><img class='introPic' src='trustrating_stim/white_mw015.bmp'><br><font color='green'><strong>Share</strong></font></div><div class='tc'><img class='introPic' src='trustrating_stim/white_mw092.bmp'><br><font color='green'><strong>Share</strong></font></div><div class='tr'><img class='introPic' src='trustrating_stim/white_mw038.bmp'><br><font color='red'><strong>Keep</strong></font></div></div></div>","null","3","trustrating_stim/white_mw015.bmp,trustrating_stim/white_mw092.bmp,trustrating_stim/white_mw038.bmp","1,1,0","noMatchOutcome","i","4500","","","",""
"html-keyboard-response","26","94270","0.0-5.0-3.4","dstesting","bdp_wmem","Mon May 10 2021 11:05:02 GMT-0400 (Eastern Daylight Time)","545512","Match,No Match","","null","","","","DELAY","","<div class='trialBorder'><div class='vertical-center'><img src='img/fixation2_sml.jpg'</img></div></div>","null","","","","","","","","","",""
"html-keyboard-response","27","95085","0.0-5.0-4.4","dstesting","bdp_wmem","Mon May 10 2021 11:05:02 GMT-0400 (Eastern Daylight Time)","545512","Match,No Match","","814","","","","TARGET","","<div class='trialBorder'><div class='targDiv'><div class='tc'><img class='introPic' src='trustrating_stim/white_mw038.bmp'><br><font color='green'><strong>Share</strong></font></div></div><div class='respDiv'><div class='respDivL'>Match<br>(e)</div><div class='respDivR'>No Match<br>(i)</div></div></div>","i","3","trustrating_stim/white_mw015.bmp,trustrating_stim/white_mw092.bmp,trustrating_stim/white_mw038.bmp","1,1,0","noMatchOutcome","i","","trustrating_stim/white_mw038.bmp","green","Share","1"
"html-keyboard-response","28","95588","0.0-5.0-5.4","dstesting","bdp_wmem","Mon May 10 2021 11:05:02 GMT-0400 (Eastern Daylight Time)","545512","Match,No Match","","null","","","","FEEDBACK","","<div class='trialBorder'><div class='vertical-center'><img src='img/correct.jpg'></div><div class='respDiv'><div class='respDivL'>Match<br>(e)</div><div class='respDivR'><font style='color:orange'>No Match<br>(i)</font></div></div></div>","null","","","","","","","","","",""
"html-keyboard-response","29","96089","0.0-5.0-1.5","dstesting","bdp_wmem","Mon May 10 2021 11:05:02 GMT-0400 (Eastern Daylight Time)","545512","Match,No Match","","null","","","","FIX","","<div class='trialBorder'><div class='vertical-center'><img src='img/fixation2_sml.jpg'</img></div></div>","null","","","","","","","","","",""
"html-keyboard-response","30","97593","0.0-5.0-2.5","dstesting","bdp_wmem","Mon May 10 2021 11:05:02 GMT-0400 (Eastern Daylight Time)","545512","Match,No Match","","null","","","","ARRAY","","<div class='trialBorder'><div class='vertical-center'><img style='vertical-align:center; align:center' src='img/fixation2_sml.jpg'></div><div class='arrayDiv1'><div class='tc'><img class='introPic' src='trustrating_stim/white_mw015.bmp'><br><font color='red'><strong>Keep</strong></font></div></div></div>","null","1","trustrating_stim/white_mw015.bmp","0","Match","e","1500","","","",""
"html-keyboard-response","31","101598","0.0-5.0-3.5","dstesting","bdp_wmem","Mon May 10 2021 11:05:02 GMT-0400 (Eastern Daylight Time)","545512","Match,No Match","","null","","","","DELAY","","<div class='trialBorder'><div class='vertical-center'><img src='img/fixation2_sml.jpg'</img></div></div>","null","","","","","","","","","",""
"html-keyboard-response","32","102581","0.0-5.0-4.5","dstesting","bdp_wmem","Mon May 10 2021 11:05:02 GMT-0400 (Eastern Daylight Time)","545512","Match,No Match","","982","","","","TARGET","","<div class='trialBorder'><div class='targDiv'><div class='tc'><img class='introPic' src='trustrating_stim/white_mw015.bmp'><br><font color='red'><strong>Keep</strong></font></div></div><div class='respDiv'><div class='respDivL'>Match<br>(e)</div><div class='respDivR'>No Match<br>(i)</div></div></div>","e","1","trustrating_stim/white_mw015.bmp","0","Match","e","","trustrating_stim/white_mw015.bmp","red","Keep","1"
"html-keyboard-response","33","103082","0.0-5.0-5.5","dstesting","bdp_wmem","Mon May 10 2021 11:05:02 GMT-0400 (Eastern Daylight Time)","545512","Match,No Match","","null","","","","FEEDBACK","","<div class='trialBorder'><div class='vertical-center'><img src='img/correct.jpg'></div><div class='respDiv'><div class='respDivL'><font style='color:orange'>Match<br>(e)</font></div><div class='respDivR'>No Match<br>(i)</div></div></div>","null","","","","","","","","","",""
"instructions","34","104517","0.0-6.0","dstesting","bdp_wmem","Mon May 10 2021 11:05:02 GMT-0400 (Eastern Daylight Time)","545512","Match,No Match","[{""page_index"":0,""viewing_time"":1434}]","1435","","","","","","","","","","","","","","","","",""
"html-keyboard-response","35","105017","0.0-7.0-1.0","dstesting","bdp_wmem","Mon May 10 2021 11:05:02 GMT-0400 (Eastern Daylight Time)","545512","Match,No Match","","null","","","","FIX","","<div class='trialBorder'><div class='vertical-center'><img src='img/fixation2_sml.jpg'</img></div></div>","null","","","","","","","","","",""
"html-keyboard-response","36","108022","0.0-7.0-2.0","dstesting","bdp_wmem","Mon May 10 2021 11:05:02 GMT-0400 (Eastern Daylight Time)","545512","Match,No Match","","null","","","","ARRAY","","<div class='trialBorder'><div class='vertical-center'><img style='vertical-align:center; align:center' src='img/fixation2_sml.jpg'></div><div class='arrayDiv2'><div class='tl'><img class='introPic' src='trustrating_stim/white_mw012.bmp'><br><font color='green'><strong>Share</strong></font></div><div class='tr'><img class='introPic' src='trustrating_stim/white_mw091.bmp'><br><font color='red'><strong>Keep</strong></font></div></div></div>","null","2","trustrating_stim/white_mw012.bmp,trustrating_stim/white_mw091.bmp","1,0","noMatchFace","i","3000","","","",""
"html-keyboard-response","37","112025","0.0-7.0-3.0","dstesting","bdp_wmem","Mon May 10 2021 11:05:02 GMT-0400 (Eastern Daylight Time)","545512","Match,No Match","","null","","","","DELAY","","<div class='trialBorder'><div class='vertical-center'><img src='img/fixation2_sml.jpg'</img></div></div>","null","","","","","","","","","",""
"html-keyboard-response","38","113254","0.0-7.0-4.0","dstesting","bdp_wmem","Mon May 10 2021 11:05:02 GMT-0400 (Eastern Daylight Time)","545512","Match,No Match","","1228","","","","TARGET","","<div class='trialBorder'><div class='targDiv'><div class='tc'><img class='introPic' src='trustrating_stim/white_00050_931230_fa_edt.bmp'><br><font color='green'><strong>Share</strong></font></div></div><div class='respDiv'><div class='respDivL'>Match<br>(e)</div><div class='respDivR'>No Match<br>(i)</div></div></div>","i","2","trustrating_stim/white_mw012.bmp,trustrating_stim/white_mw091.bmp","1,0","noMatchFace","i","","trustrating_stim/white_00050_931230_fa_edt.bmp","green","Share","1"
"html-keyboard-response","39","113758","0.0-7.0-5.0","dstesting","bdp_wmem","Mon May 10 2021 11:05:02 GMT-0400 (Eastern Daylight Time)","545512","Match,No Match","","null","","","","FEEDBACK","","<div class='trialBorder'><div class='vertical-center'><img src='img/correct.jpg'></div><div class='respDiv'><div class='respDivL'>Match<br>(e)</div><div class='respDivR'><font style='color:orange'>No Match<br>(i)</font></div></div></div>","null","","","","","","","","","",""
"html-keyboard-response","40","114259","0.0-7.0-1.1","dstesting","bdp_wmem","Mon May 10 2021 11:05:02 GMT-0400 (Eastern Daylight Time)","545512","Match,No Match","","null","","","","FIX","","<div class='trialBorder'><div class='vertical-center'><img src='img/fixation2_sml.jpg'</img></div></div>","null","","","","","","","","","",""
"html-keyboard-response","41","115764","0.0-7.0-2.1","dstesting","bdp_wmem","Mon May 10 2021 11:05:02 GMT-0400 (Eastern Daylight Time)","545512","Match,No Match","","null","","","","ARRAY","","<div class='trialBorder'><div class='vertical-center'><img style='vertical-align:center; align:center' src='img/fixation2_sml.jpg'></div><div class='arrayDiv1'><div class='tc'><img class='introPic' src='trustrating_stim/white_mw091.bmp'><br><font color='red'><strong>Keep</strong></font></div></div></div>","null","1","trustrating_stim/white_mw091.bmp","0","noMatchFace","i","1500","","","",""
"html-keyboard-response","42","119768","0.0-7.0-3.1","dstesting","bdp_wmem","Mon May 10 2021 11:05:02 GMT-0400 (Eastern Daylight Time)","545512","Match,No Match","","null","","","","DELAY","","<div class='trialBorder'><div class='vertical-center'><img src='img/fixation2_sml.jpg'</img></div></div>","null","","","","","","","","","",""
"html-keyboard-response","43","121047","0.0-7.0-4.1","dstesting","bdp_wmem","Mon May 10 2021 11:05:02 GMT-0400 (Eastern Daylight Time)","545512","Match,No Match","","1277","","","","TARGET","","<div class='trialBorder'><div class='targDiv'><div class='tc'><img class='introPic' src='trustrating_stim/white_mw070.bmp'><br><font color='red'><strong>Keep</strong></font></div></div><div class='respDiv'><div class='respDivL'>Match<br>(e)</div><div class='respDivR'>No Match<br>(i)</div></div></div>","i","1","trustrating_stim/white_mw091.bmp","0","noMatchFace","i","","trustrating_stim/white_mw070.bmp","red","Keep","1"
"html-keyboard-response","44","121550","0.0-7.0-5.1","dstesting","bdp_wmem","Mon May 10 2021 11:05:02 GMT-0400 (Eastern Daylight Time)","545512","Match,No Match","","null","","","","FEEDBACK","","<div class='trialBorder'><div class='vertical-center'><img src='img/correct.jpg'></div><div class='respDiv'><div class='respDivL'>Match<br>(e)</div><div class='respDivR'><font style='color:orange'>No Match<br>(i)</font></div></div></div>","null","","","","","","","","","",""
"html-keyboard-response","45","122051","0.0-7.0-1.2","dstesting","bdp_wmem","Mon May 10 2021 11:05:02 GMT-0400 (Eastern Daylight Time)","545512","Match,No Match","","null","","","","FIX","","<div class='trialBorder'><div class='vertical-center'><img src='img/fixation2_sml.jpg'</img></div></div>","null","","","","","","","","","",""
"html-keyboard-response","46","125054","0.0-7.0-2.2","dstesting","bdp_wmem","Mon May 10 2021 11:05:02 GMT-0400 (Eastern Daylight Time)","545512","Match,No Match","","null","","","","ARRAY","","<div class='trialBorder'><div class='vertical-center'><img style='vertical-align:center; align:center' src='img/fixation2_sml.jpg'></div><div class='arrayDiv2'><div class='tl'><img class='introPic' src='trustrating_stim/white_mw013.bmp'><br><font color='green'><strong>Share</strong></font></div><div class='tr'><img class='introPic' src='trustrating_stim/white_mw003.bmp'><br><font color='red'><strong>Keep</strong></font></div></div></div>","null","2","trustrating_stim/white_mw013.bmp,trustrating_stim/white_mw003.bmp","1,0","Match","e","3000","","","",""
"html-keyboard-response","47","129059","0.0-7.0-3.2","dstesting","bdp_wmem","Mon May 10 2021 11:05:02 GMT-0400 (Eastern Daylight Time)","545512","Match,No Match","","null","","","","DELAY","","<div class='trialBorder'><div class='vertical-center'><img src='img/fixation2_sml.jpg'</img></div></div>","null","","","","","","","","","",""
"html-keyboard-response","48","129885","0.0-7.0-4.2","dstesting","bdp_wmem","Mon May 10 2021 11:05:02 GMT-0400 (Eastern Daylight Time)","545512","Match,No Match","","826","","","","TARGET","","<div class='trialBorder'><div class='targDiv'><div class='tc'><img class='introPic' src='trustrating_stim/white_mw013.bmp'><br><font color='green'><strong>Share</strong></font></div></div><div class='respDiv'><div class='respDivL'>Match<br>(e)</div><div class='respDivR'>No Match<br>(i)</div></div></div>","e","2","trustrating_stim/white_mw013.bmp,trustrating_stim/white_mw003.bmp","1,0","Match","e","","trustrating_stim/white_mw013.bmp","green","Share","1"
"html-keyboard-response","49","130387","0.0-7.0-5.2","dstesting","bdp_wmem","Mon May 10 2021 11:05:02 GMT-0400 (Eastern Daylight Time)","545512","Match,No Match","","null","","","","FEEDBACK","","<div class='trialBorder'><div class='vertical-center'><img src='img/correct.jpg'></div><div class='respDiv'><div class='respDivL'><font style='color:orange'>Match<br>(e)</font></div><div class='respDivR'>No Match<br>(i)</div></div></div>","null","","","","","","","","","",""
"html-keyboard-response","50","130888","0.0-7.0-1.3","dstesting","bdp_wmem","Mon May 10 2021 11:05:02 GMT-0400 (Eastern Daylight Time)","545512","Match,No Match","","null","","","","FIX","","<div class='trialBorder'><div class='vertical-center'><img src='img/fixation2_sml.jpg'</img></div></div>","null","","","","","","","","","",""
"html-keyboard-response","51","135389","0.0-7.0-2.3","dstesting","bdp_wmem","Mon May 10 2021 11:05:02 GMT-0400 (Eastern Daylight Time)","545512","Match,No Match","","null","","","","ARRAY","","<div class='trialBorder'><div class='vertical-center'><img style='vertical-align:center; align:center' src='img/fixation2_sml.jpg'></div><div class='arrayDiv3'><div class='tl'><img class='introPic' src='trustrating_stim/white_00807_941205_fb_edt.bmp'><br><font color='green'><strong>Share</strong></font></div><div class='tc'><img class='introPic' src='trustrating_stim/white_mw003.bmp'><br><font color='red'><strong>Keep</strong></font></div><div class='tr'><img class='introPic' src='trustrating_stim/white_mw012.bmp'><br><font color='green'><strong>Share</strong></font></div></div></div>","null","3","trustrating_stim/white_00807_941205_fb_edt.bmp,trustrating_stim/white_mw003.bmp,trustrating_stim/white_mw012.bmp","1,0,1","noMatchOutcome","i","4500","","","",""
"html-keyboard-response","52","139395","0.0-7.0-3.3","dstesting","bdp_wmem","Mon May 10 2021 11:05:02 GMT-0400 (Eastern Daylight Time)","545512","Match,No Match","","null","","","","DELAY","","<div class='trialBorder'><div class='vertical-center'><img src='img/fixation2_sml.jpg'</img></div></div>","null","","","","","","","","","",""
"html-keyboard-response","53","140837","0.0-7.0-4.3","dstesting","bdp_wmem","Mon May 10 2021 11:05:02 GMT-0400 (Eastern Daylight Time)","545512","Match,No Match","","1440","","","","TARGET","","<div class='trialBorder'><div class='targDiv'><div class='tc'><img class='introPic' src='trustrating_stim/white_mw012.bmp'><br><font color='red'><strong>Keep</strong></font></div></div><div class='respDiv'><div class='respDivL'>Match<br>(e)</div><div class='respDivR'>No Match<br>(i)</div></div></div>","i","3","trustrating_stim/white_00807_941205_fb_edt.bmp,trustrating_stim/white_mw003.bmp,trustrating_stim/white_mw012.bmp","1,0,1","noMatchOutcome","i","","trustrating_stim/white_mw012.bmp","red","Keep","1"
"html-keyboard-response","54","141342","0.0-7.0-5.3","dstesting","bdp_wmem","Mon May 10 2021 11:05:02 GMT-0400 (Eastern Daylight Time)","545512","Match,No Match","","null","","","","FEEDBACK","","<div class='trialBorder'><div class='vertical-center'><img src='img/correct.jpg'></div><div class='respDiv'><div class='respDivL'>Match<br>(e)</div><div class='respDivR'><font style='color:orange'>No Match<br>(i)</font></div></div></div>","null","","","","","","","","","",""
"html-keyboard-response","55","141843","0.0-7.0-1.4","dstesting","bdp_wmem","Mon May 10 2021 11:05:02 GMT-0400 (Eastern Daylight Time)","545512","Match,No Match","","null","","","","FIX","","<div class='trialBorder'><div class='vertical-center'><img src='img/fixation2_sml.jpg'</img></div></div>","null","","","","","","","","","",""
"html-keyboard-response","56","144845","0.0-7.0-2.4","dstesting","bdp_wmem","Mon May 10 2021 11:05:02 GMT-0400 (Eastern Daylight Time)","545512","Match,No Match","","null","","","","ARRAY","","<div class='trialBorder'><div class='vertical-center'><img style='vertical-align:center; align:center' src='img/fixation2_sml.jpg'></div><div class='arrayDiv2'><div class='tl'><img class='introPic' src='trustrating_stim/white_mw092.bmp'><br><font color='green'><strong>Share</strong></font></div><div class='tr'><img class='introPic' src='trustrating_stim/white_00807_941205_fb_edt.bmp'><br><font color='red'><strong>Keep</strong></font></div></div></div>","null","2","trustrating_stim/white_mw092.bmp,trustrating_stim/white_00807_941205_fb_edt.bmp","1,0","noMatchOutcome","i","3000","","","",""
"html-keyboard-response","57","148849","0.0-7.0-3.4","dstesting","bdp_wmem","Mon May 10 2021 11:05:02 GMT-0400 (Eastern Daylight Time)","545512","Match,No Match","","null","","","","DELAY","","<div class='trialBorder'><div class='vertical-center'><img src='img/fixation2_sml.jpg'</img></div></div>","null","","","","","","","","","",""
"html-keyboard-response","58","150166","0.0-7.0-4.4","dstesting","bdp_wmem","Mon May 10 2021 11:05:02 GMT-0400 (Eastern Daylight Time)","545512","Match,No Match","","1316","","","","TARGET","","<div class='trialBorder'><div class='targDiv'><div class='tc'><img class='introPic' src='trustrating_stim/white_00807_941205_fb_edt.bmp'><br><font color='green'><strong>Share</strong></font></div></div><div class='respDiv'><div class='respDivL'>Match<br>(e)</div><div class='respDivR'>No Match<br>(i)</div></div></div>","i","2","trustrating_stim/white_mw092.bmp,trustrating_stim/white_00807_941205_fb_edt.bmp","1,0","noMatchOutcome","i","","trustrating_stim/white_00807_941205_fb_edt.bmp","green","Share","1"
"html-keyboard-response","59","150669","0.0-7.0-5.4","dstesting","bdp_wmem","Mon May 10 2021 11:05:02 GMT-0400 (Eastern Daylight Time)","545512","Match,No Match","","null","","","","FEEDBACK","","<div class='trialBorder'><div class='vertical-center'><img src='img/correct.jpg'></div><div class='respDiv'><div class='respDivL'>Match<br>(e)</div><div class='respDivR'><font style='color:orange'>No Match<br>(i)</font></div></div></div>","null","","","","","","","","","",""
"html-keyboard-response","60","151171","0.0-7.0-1.5","dstesting","bdp_wmem","Mon May 10 2021 11:05:02 GMT-0400 (Eastern Daylight Time)","545512","Match,No Match","","null","","","","FIX","","<div class='trialBorder'><div class='vertical-center'><img src='img/fixation2_sml.jpg'</img></div></div>","null","","","","","","","","","",""
"html-keyboard-response","61","152677","0.0-7.0-2.5","dstesting","bdp_wmem","Mon May 10 2021 11:05:02 GMT-0400 (Eastern Daylight Time)","545512","Match,No Match","","null","","","","ARRAY","","<div class='trialBorder'><div class='vertical-center'><img style='vertical-align:center; align:center' src='img/fixation2_sml.jpg'></div><div class='arrayDiv1'><div class='tc'><img class='introPic' src='trustrating_stim/white_mw015.bmp'><br><font color='red'><strong>Keep</strong></font></div></div></div>","null","1","trustrating_stim/white_mw015.bmp","0","Match","e","1500","","","",""
"html-keyboard-response","62","156679","0.0-7.0-3.5","dstesting","bdp_wmem","Mon May 10 2021 11:05:02 GMT-0400 (Eastern Daylight Time)","545512","Match,No Match","","null","","","","DELAY","","<div class='trialBorder'><div class='vertical-center'><img src='img/fixation2_sml.jpg'</img></div></div>","null","","","","","","","","","",""
"html-keyboard-response","63","157573","0.0-7.0-4.5","dstesting","bdp_wmem","Mon May 10 2021 11:05:02 GMT-0400 (Eastern Daylight Time)","545512","Match,No Match","","893","","","","TARGET","","<div class='trialBorder'><div class='targDiv'><div class='tc'><img class='introPic' src='trustrating_stim/white_mw015.bmp'><br><font color='red'><strong>Keep</strong></font></div></div><div class='respDiv'><div class='respDivL'>Match<br>(e)</div><div class='respDivR'>No Match<br>(i)</div></div></div>","e","1","trustrating_stim/white_mw015.bmp","0","Match","e","","trustrating_stim/white_mw015.bmp","red","Keep","1"
"html-keyboard-response","64","158077","0.0-7.0-5.5","dstesting","bdp_wmem","Mon May 10 2021 11:05:02 GMT-0400 (Eastern Daylight Time)","545512","Match,No Match","","null","","","","FEEDBACK","","<div class='trialBorder'><div class='vertical-center'><img src='img/correct.jpg'></div><div class='respDiv'><div class='respDivL'><font style='color:orange'>Match<br>(e)</font></div><div class='respDivR'>No Match<br>(i)</div></div></div>","null","","","","","","","","","",""
"html-keyboard-response","65","158583","0.0-7.0-1.6","dstesting","bdp_wmem","Mon May 10 2021 11:05:02 GMT-0400 (Eastern Daylight Time)","545512","Match,No Match","","null","","","","FIX","","<div class='trialBorder'><div class='vertical-center'><img src='img/fixation2_sml.jpg'</img></div></div>","null","","","","","","","","","",""
"html-keyboard-response","66","163084","0.0-7.0-2.6","dstesting","bdp_wmem","Mon May 10 2021 11:05:02 GMT-0400 (Eastern Daylight Time)","545512","Match,No Match","","null","","","","ARRAY","","<div class='trialBorder'><div class='vertical-center'><img style='vertical-align:center; align:center' src='img/fixation2_sml.jpg'></div><div class='arrayDiv3'><div class='tl'><img class='introPic' src='trustrating_stim/white_mw038.bmp'><br><font color='green'><strong>Share</strong></font></div><div class='tc'><img class='introPic' src='trustrating_stim/white_mw091.bmp'><br><font color='red'><strong>Keep</strong></font></div><div class='tr'><img class='introPic' src='trustrating_stim/white_mw092.bmp'><br><font color='red'><strong>Keep</strong></font></div></div></div>","null","3","trustrating_stim/white_mw038.bmp,trustrating_stim/white_mw091.bmp,trustrating_stim/white_mw092.bmp","1,0,0","noMatchFace","i","4500","","","",""
"html-keyboard-response","67","167090","0.0-7.0-3.6","dstesting","bdp_wmem","Mon May 10 2021 11:05:02 GMT-0400 (Eastern Daylight Time)","545512","Match,No Match","","null","","","","DELAY","","<div class='trialBorder'><div class='vertical-center'><img src='img/fixation2_sml.jpg'</img></div></div>","null","","","","","","","","","",""
"html-keyboard-response","68","168565","0.0-7.0-4.6","dstesting","bdp_wmem","Mon May 10 2021 11:05:02 GMT-0400 (Eastern Daylight Time)","545512","Match,No Match","","1474","","","","TARGET","","<div class='trialBorder'><div class='targDiv'><div class='tc'><img class='introPic' src='trustrating_stim/white_mw040.bmp'><br><font color='red'><strong>Keep</strong></font></div></div><div class='respDiv'><div class='respDivL'>Match<br>(e)</div><div class='respDivR'>No Match<br>(i)</div></div></div>","i","3","trustrating_stim/white_mw038.bmp,trustrating_stim/white_mw091.bmp,trustrating_stim/white_mw092.bmp","1,0,0","noMatchFace","i","","trustrating_stim/white_mw040.bmp","red","Keep","1"
"html-keyboard-response","69","169069","0.0-7.0-5.6","dstesting","bdp_wmem","Mon May 10 2021 11:05:02 GMT-0400 (Eastern Daylight Time)","545512","Match,No Match","","null","","","","FEEDBACK","","<div class='trialBorder'><div class='vertical-center'><img src='img/correct.jpg'></div><div class='respDiv'><div class='respDivL'>Match<br>(e)</div><div class='respDivR'><font style='color:orange'>No Match<br>(i)</font></div></div></div>","null","","","","","","","","","",""
"html-keyboard-response","70","169570","0.0-7.0-1.7","dstesting","bdp_wmem","Mon May 10 2021 11:05:02 GMT-0400 (Eastern Daylight Time)","545512","Match,No Match","","null","","","","FIX","","<div class='trialBorder'><div class='vertical-center'><img src='img/fixation2_sml.jpg'</img></div></div>","null","","","","","","","","","",""
"html-keyboard-response","71","171074","0.0-7.0-2.7","dstesting","bdp_wmem","Mon May 10 2021 11:05:02 GMT-0400 (Eastern Daylight Time)","545512","Match,No Match","","null","","","","ARRAY","","<div class='trialBorder'><div class='vertical-center'><img style='vertical-align:center; align:center' src='img/fixation2_sml.jpg'></div><div class='arrayDiv1'><div class='tc'><img class='introPic' src='trustrating_stim/white_mw040.bmp'><br><font color='green'><strong>Share</strong></font></div></div></div>","null","1","trustrating_stim/white_mw040.bmp","1","noMatchOutcome","i","1500","","","",""
"html-keyboard-response","72","175079","0.0-7.0-3.7","dstesting","bdp_wmem","Mon May 10 2021 11:05:02 GMT-0400 (Eastern Daylight Time)","545512","Match,No Match","","null","","","","DELAY","","<div class='trialBorder'><div class='vertical-center'><img src='img/fixation2_sml.jpg'</img></div></div>","null","","","","","","","","","",""
"html-keyboard-response","73","175942","0.0-7.0-4.7","dstesting","bdp_wmem","Mon May 10 2021 11:05:02 GMT-0400 (Eastern Daylight Time)","545512","Match,No Match","","862","","","","TARGET","","<div class='trialBorder'><div class='targDiv'><div class='tc'><img class='introPic' src='trustrating_stim/white_mw040.bmp'><br><font color='red'><strong>Keep</strong></font></div></div><div class='respDiv'><div class='respDivL'>Match<br>(e)</div><div class='respDivR'>No Match<br>(i)</div></div></div>","i","1","trustrating_stim/white_mw040.bmp","1","noMatchOutcome","i","","trustrating_stim/white_mw040.bmp","red","Keep","1"
"html-keyboard-response","74","176444","0.0-7.0-5.7","dstesting","bdp_wmem","Mon May 10 2021 11:05:02 GMT-0400 (Eastern Daylight Time)","545512","Match,No Match","","null","","","","FEEDBACK","","<div class='trialBorder'><div class='vertical-center'><img src='img/correct.jpg'></div><div class='respDiv'><div class='respDivL'>Match<br>(e)</div><div class='respDivR'><font style='color:orange'>No Match<br>(i)</font></div></div></div>","null","","","","","","","","","",""
"html-keyboard-response","75","176950","0.0-7.0-1.8","dstesting","bdp_wmem","Mon May 10 2021 11:05:02 GMT-0400 (Eastern Daylight Time)","545512","Match,No Match","","null","","","","FIX","","<div class='trialBorder'><div class='vertical-center'><img src='img/fixation2_sml.jpg'</img></div></div>","null","","","","","","","","","",""
"html-keyboard-response","76","181453","0.0-7.0-2.8","dstesting","bdp_wmem","Mon May 10 2021 11:05:02 GMT-0400 (Eastern Daylight Time)","545512","Match,No Match","","null","","","","ARRAY","","<div class='trialBorder'><div class='vertical-center'><img style='vertical-align:center; align:center' src='img/fixation2_sml.jpg'></div><div class='arrayDiv3'><div class='tl'><img class='introPic' src='trustrating_stim/white_mw040.bmp'><br><font color='green'><strong>Share</strong></font></div><div class='tc'><img class='introPic' src='trustrating_stim/white_mw038.bmp'><br><font color='red'><strong>Keep</strong></font></div><div class='tr'><img class='introPic' src='trustrating_stim/white_mw015.bmp'><br><font color='red'><strong>Keep</strong></font></div></div></div>","null","3","trustrating_stim/white_mw040.bmp,trustrating_stim/white_mw038.bmp,trustrating_stim/white_mw015.bmp","1,0,0","noMatchFace","i","4500","","","",""
"html-keyboard-response","77","185457","0.0-7.0-3.8","dstesting","bdp_wmem","Mon May 10 2021 11:05:02 GMT-0400 (Eastern Daylight Time)","545512","Match,No Match","","null","","","","DELAY","","<div class='trialBorder'><div class='vertical-center'><img src='img/fixation2_sml.jpg'</img></div></div>","null","","","","","","","","","",""
"html-keyboard-response","78","186475","0.0-7.0-4.8","dstesting","bdp_wmem","Mon May 10 2021 11:05:02 GMT-0400 (Eastern Daylight Time)","545512","Match,No Match","","1017","","","","TARGET","","<div class='trialBorder'><div class='targDiv'><div class='tc'><img class='introPic' src='trustrating_stim/white_00050_931230_fa_edt.bmp'><br><font color='green'><strong>Share</strong></font></div></div><div class='respDiv'><div class='respDivL'>Match<br>(e)</div><div class='respDivR'>No Match<br>(i)</div></div></div>","i","3","trustrating_stim/white_mw040.bmp,trustrating_stim/white_mw038.bmp,trustrating_stim/white_mw015.bmp","1,0,0","noMatchFace","i","","trustrating_stim/white_00050_931230_fa_edt.bmp","green","Share","1"
"html-keyboard-response","79","186978","0.0-7.0-5.8","dstesting","bdp_wmem","Mon May 10 2021 11:05:02 GMT-0400 (Eastern Daylight Time)","545512","Match,No Match","","null","","","","FEEDBACK","","<div class='trialBorder'><div class='vertical-center'><img src='img/correct.jpg'></div><div class='respDiv'><div class='respDivL'>Match<br>(e)</div><div class='respDivR'><font style='color:orange'>No Match<br>(i)</font></div></div></div>","null","","","","","","","","","",""
"html-keyboard-response","80","187479","0.0-7.0-1.9","dstesting","bdp_wmem","Mon May 10 2021 11:05:02 GMT-0400 (Eastern Daylight Time)","545512","Match,No Match","","null","","","","FIX","","<div class='trialBorder'><div class='vertical-center'><img src='img/fixation2_sml.jpg'</img></div></div>","null","","","","","","","","","",""
"html-keyboard-response","81","191981","0.0-7.0-2.9","dstesting","bdp_wmem","Mon May 10 2021 11:05:02 GMT-0400 (Eastern Daylight Time)","545512","Match,No Match","","null","","","","ARRAY","","<div class='trialBorder'><div class='vertical-center'><img style='vertical-align:center; align:center' src='img/fixation2_sml.jpg'></div><div class='arrayDiv3'><div class='tl'><img class='introPic' src='trustrating_stim/white_mw040.bmp'><br><font color='green'><strong>Share</strong></font></div><div class='tc'><img class='introPic' src='trustrating_stim/white_mw012.bmp'><br><font color='red'><strong>Keep</strong></font></div><div class='tr'><img class='introPic' src='trustrating_stim/white_mw033.bmp'><br><font color='red'><strong>Keep</strong></font></div></div></div>","null","3","trustrating_stim/white_mw040.bmp,trustrating_stim/white_mw012.bmp,trustrating_stim/white_mw033.bmp","1,0,0","Match","e","4500","","","",""
"html-keyboard-response","82","195985","0.0-7.0-3.9","dstesting","bdp_wmem","Mon May 10 2021 11:05:02 GMT-0400 (Eastern Daylight Time)","545512","Match,No Match","","null","","","","DELAY","","<div class='trialBorder'><div class='vertical-center'><img src='img/fixation2_sml.jpg'</img></div></div>","null","","","","","","","","","",""
"html-keyboard-response","83","197244","0.0-7.0-4.9","dstesting","bdp_wmem","Mon May 10 2021 11:05:02 GMT-0400 (Eastern Daylight Time)","545512","Match,No Match","","1258","","","","TARGET","","<div class='trialBorder'><div class='targDiv'><div class='tc'><img class='introPic' src='trustrating_stim/white_mw012.bmp'><br><font color='red'><strong>Keep</strong></font></div></div><div class='respDiv'><div class='respDivL'>Match<br>(e)</div><div class='respDivR'>No Match<br>(i)</div></div></div>","e","3","trustrating_stim/white_mw040.bmp,trustrating_stim/white_mw012.bmp,trustrating_stim/white_mw033.bmp","1,0,0","Match","e","","trustrating_stim/white_mw012.bmp","red","Keep","1"
"html-keyboard-response","84","197745","0.0-7.0-5.9","dstesting","bdp_wmem","Mon May 10 2021 11:05:02 GMT-0400 (Eastern Daylight Time)","545512","Match,No Match","","null","","","","FEEDBACK","","<div class='trialBorder'><div class='vertical-center'><img src='img/correct.jpg'></div><div class='respDiv'><div class='respDivL'><font style='color:orange'>Match<br>(e)</font></div><div class='respDivR'>No Match<br>(i)</div></div></div>","null","","","","","","","","","",""
"html-keyboard-response","85","198246","0.0-7.0-1.10","dstesting","bdp_wmem","Mon May 10 2021 11:05:02 GMT-0400 (Eastern Daylight Time)","545512","Match,No Match","","null","","","","FIX","","<div class='trialBorder'><div class='vertical-center'><img src='img/fixation2_sml.jpg'</img></div></div>","null","","","","","","","","","",""
"html-keyboard-response","86","199750","0.0-7.0-2.10","dstesting","bdp_wmem","Mon May 10 2021 11:05:02 GMT-0400 (Eastern Daylight Time)","545512","Match,No Match","","null","","","","ARRAY","","<div class='trialBorder'><div class='vertical-center'><img style='vertical-align:center; align:center' src='img/fixation2_sml.jpg'></div><div class='arrayDiv1'><div class='tc'><img class='introPic' src='trustrating_stim/white_00050_931230_fa_edt.bmp'><br><font color='green'><strong>Share</strong></font></div></div></div>","null","1","trustrating_stim/white_00050_931230_fa_edt.bmp","1","Match","e","1500","","","",""
"html-keyboard-response","87","203755","0.0-7.0-3.10","dstesting","bdp_wmem","Mon May 10 2021 11:05:02 GMT-0400 (Eastern Daylight Time)","545512","Match,No Match","","null","","","","DELAY","","<div class='trialBorder'><div class='vertical-center'><img src='img/fixation2_sml.jpg'</img></div></div>","null","","","","","","","","","",""
"html-keyboard-response","88","205349","0.0-7.0-4.10","dstesting","bdp_wmem","Mon May 10 2021 11:05:02 GMT-0400 (Eastern Daylight Time)","545512","Match,No Match","","1592","","","","TARGET","","<div class='trialBorder'><div class='targDiv'><div class='tc'><img class='introPic' src='trustrating_stim/white_00050_931230_fa_edt.bmp'><br><font color='green'><strong>Share</strong></font></div></div><div class='respDiv'><div class='respDivL'>Match<br>(e)</div><div class='respDivR'>No Match<br>(i)</div></div></div>","e","1","trustrating_stim/white_00050_931230_fa_edt.bmp","1","Match","e","","trustrating_stim/white_00050_931230_fa_edt.bmp","green","Share","1"
"html-keyboard-response","89","205852","0.0-7.0-5.10","dstesting","bdp_wmem","Mon May 10 2021 11:05:02 GMT-0400 (Eastern Daylight Time)","545512","Match,No Match","","null","","","","FEEDBACK","","<div class='trialBorder'><div class='vertical-center'><img src='img/correct.jpg'></div><div class='respDiv'><div class='respDivL'><font style='color:orange'>Match<br>(e)</font></div><div class='respDivR'>No Match<br>(i)</div></div></div>","null","","","","","","","","","",""
"html-keyboard-response","90","206353","0.0-7.0-1.11","dstesting","bdp_wmem","Mon May 10 2021 11:05:02 GMT-0400 (Eastern Daylight Time)","545512","Match,No Match","","null","","","","FIX","","<div class='trialBorder'><div class='vertical-center'><img src='img/fixation2_sml.jpg'</img></div></div>","null","","","","","","","","","",""
"html-keyboard-response","91","207857","0.0-7.0-2.11","dstesting","bdp_wmem","Mon May 10 2021 11:05:02 GMT-0400 (Eastern Daylight Time)","545512","Match,No Match","","null","","","","ARRAY","","<div class='trialBorder'><div class='vertical-center'><img style='vertical-align:center; align:center' src='img/fixation2_sml.jpg'></div><div class='arrayDiv1'><div class='tc'><img class='introPic' src='trustrating_stim/white_00807_941205_fb_edt.bmp'><br><font color='green'><strong>Share</strong></font></div></div></div>","null","1","trustrating_stim/white_00807_941205_fb_edt.bmp","1","Match","e","1500","","","",""
"html-keyboard-response","92","211862","0.0-7.0-3.11","dstesting","bdp_wmem","Mon May 10 2021 11:05:02 GMT-0400 (Eastern Daylight Time)","545512","Match,No Match","","null","","","","DELAY","","<div class='trialBorder'><div class='vertical-center'><img src='img/fixation2_sml.jpg'</img></div></div>","null","","","","","","","","","",""
"html-keyboard-response","93","212748","0.0-7.0-4.11","dstesting","bdp_wmem","Mon May 10 2021 11:05:02 GMT-0400 (Eastern Daylight Time)","545512","Match,No Match","","885","","","","TARGET","","<div class='trialBorder'><div class='targDiv'><div class='tc'><img class='introPic' src='trustrating_stim/white_00807_941205_fb_edt.bmp'><br><font color='green'><strong>Share</strong></font></div></div><div class='respDiv'><div class='respDivL'>Match<br>(e)</div><div class='respDivR'>No Match<br>(i)</div></div></div>","e","1","trustrating_stim/white_00807_941205_fb_edt.bmp","1","Match","e","","trustrating_stim/white_00807_941205_fb_edt.bmp","green","Share","1"
"html-keyboard-response","94","213249","0.0-7.0-5.11","dstesting","bdp_wmem","Mon May 10 2021 11:05:02 GMT-0400 (Eastern Daylight Time)","545512","Match,No Match","","null","","","","FEEDBACK","","<div class='trialBorder'><div class='vertical-center'><img src='img/correct.jpg'></div><div class='respDiv'><div class='respDivL'><font style='color:orange'>Match<br>(e)</font></div><div class='respDivR'>No Match<br>(i)</div></div></div>","null","","","","","","","","","",""
"html-keyboard-response","95","213752","0.0-7.0-1.12","dstesting","bdp_wmem","Mon May 10 2021 11:05:02 GMT-0400 (Eastern Daylight Time)","545512","Match,No Match","","null","","","","FIX","","<div class='trialBorder'><div class='vertical-center'><img src='img/fixation2_sml.jpg'</img></div></div>","null","","","","","","","","","",""
"html-keyboard-response","96","216758","0.0-7.0-2.12","dstesting","bdp_wmem","Mon May 10 2021 11:05:02 GMT-0400 (Eastern Daylight Time)","545512","Match,No Match","","null","","","","ARRAY","","<div class='trialBorder'><div class='vertical-center'><img style='vertical-align:center; align:center' src='img/fixation2_sml.jpg'></div><div class='arrayDiv2'><div class='tl'><img class='introPic' src='trustrating_stim/white_mw012.bmp'><br><font color='red'><strong>Keep</strong></font></div><div class='tr'><img class='introPic' src='trustrating_stim/white_mw013.bmp'><br><font color='green'><strong>Share</strong></font></div></div></div>","null","2","trustrating_stim/white_mw012.bmp,trustrating_stim/white_mw013.bmp","0,1","Match","e","3000","","","",""
"html-keyboard-response","97","220763","0.0-7.0-3.12","dstesting","bdp_wmem","Mon May 10 2021 11:05:02 GMT-0400 (Eastern Daylight Time)","545512","Match,No Match","","null","","","","DELAY","","<div class='trialBorder'><div class='vertical-center'><img src='img/fixation2_sml.jpg'</img></div></div>","null","","","","","","","","","",""
"html-keyboard-response","98","221764","0.0-7.0-4.12","dstesting","bdp_wmem","Mon May 10 2021 11:05:02 GMT-0400 (Eastern Daylight Time)","545512","Match,No Match","","1000","","","","TARGET","","<div class='trialBorder'><div class='targDiv'><div class='tc'><img class='introPic' src='trustrating_stim/white_mw012.bmp'><br><font color='red'><strong>Keep</strong></font></div></div><div class='respDiv'><div class='respDivL'>Match<br>(e)</div><div class='respDivR'>No Match<br>(i)</div></div></div>","e","2","trustrating_stim/white_mw012.bmp,trustrating_stim/white_mw013.bmp","0,1","Match","e","","trustrating_stim/white_mw012.bmp","red","Keep","1"
"html-keyboard-response","99","222267","0.0-7.0-5.12","dstesting","bdp_wmem","Mon May 10 2021 11:05:02 GMT-0400 (Eastern Daylight Time)","545512","Match,No Match","","null","","","","FEEDBACK","","<div class='trialBorder'><div class='vertical-center'><img src='img/correct.jpg'></div><div class='respDiv'><div class='respDivL'><font style='color:orange'>Match<br>(e)</font></div><div class='respDivR'>No Match<br>(i)</div></div></div>","null","","","","","","","","","",""
"html-keyboard-response","100","222768","0.0-7.0-1.13","dstesting","bdp_wmem","Mon May 10 2021 11:05:02 GMT-0400 (Eastern Daylight Time)","545512","Match,No Match","","null","","","","FIX","","<div class='trialBorder'><div class='vertical-center'><img src='img/fixation2_sml.jpg'</img></div></div>","null","","","","","","","","","",""
"html-keyboard-response","101","225772","0.0-7.0-2.13","dstesting","bdp_wmem","Mon May 10 2021 11:05:02 GMT-0400 (Eastern Daylight Time)","545512","Match,No Match","","null","","","","ARRAY","","<div class='trialBorder'><div class='vertical-center'><img style='vertical-align:center; align:center' src='img/fixation2_sml.jpg'></div><div class='arrayDiv2'><div class='tl'><img class='introPic' src='trustrating_stim/white_mw070.bmp'><br><font color='green'><strong>Share</strong></font></div><div class='tr'><img class='introPic' src='trustrating_stim/white_00050_931230_fa_edt.bmp'><br><font color='red'><strong>Keep</strong></font></div></div></div>","null","2","trustrating_stim/white_mw070.bmp,trustrating_stim/white_00050_931230_fa_edt.bmp","1,0","noMatchOutcome","i","3000","","","",""
"html-keyboard-response","102","229776","0.0-7.0-3.13","dstesting","bdp_wmem","Mon May 10 2021 11:05:02 GMT-0400 (Eastern Daylight Time)","545512","Match,No Match","","null","","","","DELAY","","<div class='trialBorder'><div class='vertical-center'><img src='img/fixation2_sml.jpg'</img></div></div>","null","","","","","","","","","",""
"html-keyboard-response","103","230442","0.0-7.0-4.13","dstesting","bdp_wmem","Mon May 10 2021 11:05:02 GMT-0400 (Eastern Daylight Time)","545512","Match,No Match","","665","","","","TARGET","","<div class='trialBorder'><div class='targDiv'><div class='tc'><img class='introPic' src='trustrating_stim/white_mw070.bmp'><br><font color='red'><strong>Keep</strong></font></div></div><div class='respDiv'><div class='respDivL'>Match<br>(e)</div><div class='respDivR'>No Match<br>(i)</div></div></div>","i","2","trustrating_stim/white_mw070.bmp,trustrating_stim/white_00050_931230_fa_edt.bmp","1,0","noMatchOutcome","i","","trustrating_stim/white_mw070.bmp","red","Keep","1"
"html-keyboard-response","104","230944","0.0-7.0-5.13","dstesting","bdp_wmem","Mon May 10 2021 11:05:02 GMT-0400 (Eastern Daylight Time)","545512","Match,No Match","","null","","","","FEEDBACK","","<div class='trialBorder'><div class='vertical-center'><img src='img/correct.jpg'></div><div class='respDiv'><div class='respDivL'>Match<br>(e)</div><div class='respDivR'><font style='color:orange'>No Match<br>(i)</font></div></div></div>","null","","","","","","","","","",""
"html-keyboard-response","105","231445","0.0-7.0-1.14","dstesting","bdp_wmem","Mon May 10 2021 11:05:02 GMT-0400 (Eastern Daylight Time)","545512","Match,No Match","","null","","","","FIX","","<div class='trialBorder'><div class='vertical-center'><img src='img/fixation2_sml.jpg'</img></div></div>","null","","","","","","","","","",""
"html-keyboard-response","106","234451","0.0-7.0-2.14","dstesting","bdp_wmem","Mon May 10 2021 11:05:02 GMT-0400 (Eastern Daylight Time)","545512","Match,No Match","","null","","","","ARRAY","","<div class='trialBorder'><div class='vertical-center'><img style='vertical-align:center; align:center' src='img/fixation2_sml.jpg'></div><div class='arrayDiv2'><div class='tl'><img class='introPic' src='trustrating_stim/white_mw040.bmp'><br><font color='red'><strong>Keep</strong></font></div><div class='tr'><img class='introPic' src='trustrating_stim/white_mw070.bmp'><br><font color='green'><strong>Share</strong></font></div></div></div>","null","2","trustrating_stim/white_mw040.bmp,trustrating_stim/white_mw070.bmp","0,1","noMatchOutcome","i","3000","","","",""
"html-keyboard-response","107","238453","0.0-7.0-3.14","dstesting","bdp_wmem","Mon May 10 2021 11:05:02 GMT-0400 (Eastern Daylight Time)","545512","Match,No Match","","null","","","","DELAY","","<div class='trialBorder'><div class='vertical-center'><img src='img/fixation2_sml.jpg'</img></div></div>","null","","","","","","","","","",""
"html-keyboard-response","108","239716","0.0-7.0-4.14","dstesting","bdp_wmem","Mon May 10 2021 11:05:02 GMT-0400 (Eastern Daylight Time)","545512","Match,No Match","","1262","","","","TARGET","","<div class='trialBorder'><div class='targDiv'><div class='tc'><img class='introPic' src='trustrating_stim/white_mw040.bmp'><br><font color='green'><strong>Share</strong></font></div></div><div class='respDiv'><div class='respDivL'>Match<br>(e)</div><div class='respDivR'>No Match<br>(i)</div></div></div>","i","2","trustrating_stim/white_mw040.bmp,trustrating_stim/white_mw070.bmp","0,1","noMatchOutcome","i","","trustrating_stim/white_mw040.bmp","green","Share","1"
"html-keyboard-response","109","240219","0.0-7.0-5.14","dstesting","bdp_wmem","Mon May 10 2021 11:05:02 GMT-0400 (Eastern Daylight Time)","545512","Match,No Match","","null","","","","FEEDBACK","","<div class='trialBorder'><div class='vertical-center'><img src='img/correct.jpg'></div><div class='respDiv'><div class='respDivL'>Match<br>(e)</div><div class='respDivR'><font style='color:orange'>No Match<br>(i)</font></div></div></div>","null","","","","","","","","","",""
"html-keyboard-response","110","240720","0.0-7.0-1.15","dstesting","bdp_wmem","Mon May 10 2021 11:05:02 GMT-0400 (Eastern Daylight Time)","545512","Match,No Match","","null","","","","FIX","","<div class='trialBorder'><div class='vertical-center'><img src='img/fixation2_sml.jpg'</img></div></div>","null","","","","","","","","","",""
"html-keyboard-response","111","243722","0.0-7.0-2.15","dstesting","bdp_wmem","Mon May 10 2021 11:05:02 GMT-0400 (Eastern Daylight Time)","545512","Match,No Match","","null","","","","ARRAY","","<div class='trialBorder'><div class='vertical-center'><img style='vertical-align:center; align:center' src='img/fixation2_sml.jpg'></div><div class='arrayDiv2'><div class='tl'><img class='introPic' src='trustrating_stim/white_mw033.bmp'><br><font color='red'><strong>Keep</strong></font></div><div class='tr'><img class='introPic' src='trustrating_stim/white_mw013.bmp'><br><font color='green'><strong>Share</strong></font></div></div></div>","null","2","trustrating_stim/white_mw033.bmp,trustrating_stim/white_mw013.bmp","0,1","noMatchFace","i","3000","","","",""
"html-keyboard-response","112","247727","0.0-7.0-3.15","dstesting","bdp_wmem","Mon May 10 2021 11:05:02 GMT-0400 (Eastern Daylight Time)","545512","Match,No Match","","null","","","","DELAY","","<div class='trialBorder'><div class='vertical-center'><img src='img/fixation2_sml.jpg'</img></div></div>","null","","","","","","","","","",""
"html-keyboard-response","113","248673","0.0-7.0-4.15","dstesting","bdp_wmem","Mon May 10 2021 11:05:02 GMT-0400 (Eastern Daylight Time)","545512","Match,No Match","","945","","","","TARGET","","<div class='trialBorder'><div class='targDiv'><div class='tc'><img class='introPic' src='trustrating_stim/white_mw091.bmp'><br><font color='green'><strong>Share</strong></font></div></div><div class='respDiv'><div class='respDivL'>Match<br>(e)</div><div class='respDivR'>No Match<br>(i)</div></div></div>","i","2","trustrating_stim/white_mw033.bmp,trustrating_stim/white_mw013.bmp","0,1","noMatchFace","i","","trustrating_stim/white_mw091.bmp","green","Share","1"
"html-keyboard-response","114","249178","0.0-7.0-5.15","dstesting","bdp_wmem","Mon May 10 2021 11:05:02 GMT-0400 (Eastern Daylight Time)","545512","Match,No Match","","null","","","","FEEDBACK","","<div class='trialBorder'><div class='vertical-center'><img src='img/correct.jpg'></div><div class='respDiv'><div class='respDivL'>Match<br>(e)</div><div class='respDivR'><font style='color:orange'>No Match<br>(i)</font></div></div></div>","null","","","","","","","","","",""
"html-keyboard-response","115","249683","0.0-7.0-1.16","dstesting","bdp_wmem","Mon May 10 2021 11:05:02 GMT-0400 (Eastern Daylight Time)","545512","Match,No Match","","null","","","","FIX","","<div class='trialBorder'><div class='vertical-center'><img src='img/fixation2_sml.jpg'</img></div></div>","null","","","","","","","","","",""
"html-keyboard-response","116","251189","0.0-7.0-2.16","dstesting","bdp_wmem","Mon May 10 2021 11:05:02 GMT-0400 (Eastern Daylight Time)","545512","Match,No Match","","null","","","","ARRAY","","<div class='trialBorder'><div class='vertical-center'><img style='vertical-align:center; align:center' src='img/fixation2_sml.jpg'></div><div class='arrayDiv1'><div class='tc'><img class='introPic' src='trustrating_stim/white_mw013.bmp'><br><font color='green'><strong>Share</strong></font></div></div></div>","null","1","trustrating_stim/white_mw013.bmp","1","noMatchFace","i","1500","","","",""
"html-keyboard-response","117","255194","0.0-7.0-3.16","dstesting","bdp_wmem","Mon May 10 2021 11:05:02 GMT-0400 (Eastern Daylight Time)","545512","Match,No Match","","null","","","","DELAY","","<div class='trialBorder'><div class='vertical-center'><img src='img/fixation2_sml.jpg'</img></div></div>","null","","","","","","","","","",""
"html-keyboard-response","118","256332","0.0-7.0-4.16","dstesting","bdp_wmem","Mon May 10 2021 11:05:02 GMT-0400 (Eastern Daylight Time)","545512","Match,No Match","","1136","","","","TARGET","","<div class='trialBorder'><div class='targDiv'><div class='tc'><img class='introPic' src='trustrating_stim/white_mw070.bmp'><br><font color='green'><strong>Share</strong></font></div></div><div class='respDiv'><div class='respDivL'>Match<br>(e)</div><div class='respDivR'>No Match<br>(i)</div></div></div>","i","1","trustrating_stim/white_mw013.bmp","1","noMatchFace","i","","trustrating_stim/white_mw070.bmp","green","Share","1"
"html-keyboard-response","119","256837","0.0-7.0-5.16","dstesting","bdp_wmem","Mon May 10 2021 11:05:02 GMT-0400 (Eastern Daylight Time)","545512","Match,No Match","","null","","","","FEEDBACK","","<div class='trialBorder'><div class='vertical-center'><img src='img/correct.jpg'></div><div class='respDiv'><div class='respDivL'>Match<br>(e)</div><div class='respDivR'><font style='color:orange'>No Match<br>(i)</font></div></div></div>","null","","","","","","","","","",""
"html-keyboard-response","120","257338","0.0-7.0-1.17","dstesting","bdp_wmem","Mon May 10 2021 11:05:02 GMT-0400 (Eastern Daylight Time)","545512","Match,No Match","","null","","","","FIX","","<div class='trialBorder'><div class='vertical-center'><img src='img/fixation2_sml.jpg'</img></div></div>","null","","","","","","","","","",""
"html-keyboard-response","121","261843","0.0-7.0-2.17","dstesting","bdp_wmem","Mon May 10 2021 11:05:02 GMT-0400 (Eastern Daylight Time)","545512","Match,No Match","","null","","","","ARRAY","","<div class='trialBorder'><div class='vertical-center'><img style='vertical-align:center; align:center' src='img/fixation2_sml.jpg'></div><div class='arrayDiv3'><div class='tl'><img class='introPic' src='trustrating_stim/white_00050_931230_fa_edt.bmp'><br><font color='green'><strong>Share</strong></font></div><div class='tc'><img class='introPic' src='trustrating_stim/white_mw003.bmp'><br><font color='green'><strong>Share</strong></font></div><div class='tr'><img class='introPic' src='trustrating_stim/white_mw092.bmp'><br><font color='red'><strong>Keep</strong></font></div></div></div>","null","3","trustrating_stim/white_00050_931230_fa_edt.bmp,trustrating_stim/white_mw003.bmp,trustrating_stim/white_mw092.bmp","1,1,0","Match","e","4500","","","",""
"html-keyboard-response","122","265845","0.0-7.0-3.17","dstesting","bdp_wmem","Mon May 10 2021 11:05:02 GMT-0400 (Eastern Daylight Time)","545512","Match,No Match","","null","","","","DELAY","","<div class='trialBorder'><div class='vertical-center'><img src='img/fixation2_sml.jpg'</img></div></div>","null","","","","","","","","","",""
"html-keyboard-response","123","267649","0.0-7.0-4.17","dstesting","bdp_wmem","Mon May 10 2021 11:05:02 GMT-0400 (Eastern Daylight Time)","545512","Match,No Match","","1802","","","","TARGET","","<div class='trialBorder'><div class='targDiv'><div class='tc'><img class='introPic' src='trustrating_stim/white_mw003.bmp'><br><font color='green'><strong>Share</strong></font></div></div><div class='respDiv'><div class='respDivL'>Match<br>(e)</div><div class='respDivR'>No Match<br>(i)</div></div></div>","i","3","trustrating_stim/white_00050_931230_fa_edt.bmp,trustrating_stim/white_mw003.bmp,trustrating_stim/white_mw092.bmp","1,1,0","Match","e","","trustrating_stim/white_mw003.bmp","green","Share","0"
"html-keyboard-response","124","268150","0.0-7.0-5.17","dstesting","bdp_wmem","Mon May 10 2021 11:05:02 GMT-0400 (Eastern Daylight Time)","545512","Match,No Match","","null","","","","FEEDBACK","","<div class='trialBorder'><div class='vertical-center'><img src='img/error.jpg'></div><div class='respDiv'><div class='respDivL'>Match<br>(e)</div><div class='respDivR'><font style='color:orange'>No Match<br>(i)</font></div></div></div>","null","","","","","","","","","",""
"html-keyboard-response","125","268651","0.0-7.0-1.18","dstesting","bdp_wmem","Mon May 10 2021 11:05:02 GMT-0400 (Eastern Daylight Time)","545512","Match,No Match","","null","","","","FIX","","<div class='trialBorder'><div class='vertical-center'><img src='img/fixation2_sml.jpg'</img></div></div>","null","","","","","","","","","",""
"html-keyboard-response","126","270155","0.0-7.0-2.18","dstesting","bdp_wmem","Mon May 10 2021 11:05:02 GMT-0400 (Eastern Daylight Time)","545512","Match,No Match","","null","","","","ARRAY","","<div class='trialBorder'><div class='vertical-center'><img style='vertical-align:center; align:center' src='img/fixation2_sml.jpg'></div><div class='arrayDiv1'><div class='tc'><img class='introPic' src='trustrating_stim/white_mw092.bmp'><br><font color='green'><strong>Share</strong></font></div></div></div>","null","1","trustrating_stim/white_mw092.bmp","1","noMatchFace","i","1500","","","",""
"html-keyboard-response","127","274160","0.0-7.0-3.18","dstesting","bdp_wmem","Mon May 10 2021 11:05:02 GMT-0400 (Eastern Daylight Time)","545512","Match,No Match","","null","","","","DELAY","","<div class='trialBorder'><div class='vertical-center'><img src='img/fixation2_sml.jpg'</img></div></div>","null","","","","","","","","","",""
"html-keyboard-response","128","274964","0.0-7.0-4.18","dstesting","bdp_wmem","Mon May 10 2021 11:05:02 GMT-0400 (Eastern Daylight Time)","545512","Match,No Match","","803","","","","TARGET","","<div class='trialBorder'><div class='targDiv'><div class='tc'><img class='introPic' src='trustrating_stim/white_mw015.bmp'><br><font color='green'><strong>Share</strong></font></div></div><div class='respDiv'><div class='respDivL'>Match<br>(e)</div><div class='respDivR'>No Match<br>(i)</div></div></div>","i","1","trustrating_stim/white_mw092.bmp","1","noMatchFace","i","","trustrating_stim/white_mw015.bmp","green","Share","1"
"html-keyboard-response","129","275467","0.0-7.0-5.18","dstesting","bdp_wmem","Mon May 10 2021 11:05:02 GMT-0400 (Eastern Daylight Time)","545512","Match,No Match","","null","","","","FEEDBACK","","<div class='trialBorder'><div class='vertical-center'><img src='img/correct.jpg'></div><div class='respDiv'><div class='respDivL'>Match<br>(e)</div><div class='respDivR'><font style='color:orange'>No Match<br>(i)</font></div></div></div>","null","","","","","","","","","",""
"html-keyboard-response","130","275972","0.0-7.0-1.19","dstesting","bdp_wmem","Mon May 10 2021 11:05:02 GMT-0400 (Eastern Daylight Time)","545512","Match,No Match","","null","","","","FIX","","<div class='trialBorder'><div class='vertical-center'><img src='img/fixation2_sml.jpg'</img></div></div>","null","","","","","","","","","",""
"html-keyboard-response","131","280474","0.0-7.0-2.19","dstesting","bdp_wmem","Mon May 10 2021 11:05:02 GMT-0400 (Eastern Daylight Time)","545512","Match,No Match","","null","","","","ARRAY","","<div class='trialBorder'><div class='vertical-center'><img style='vertical-align:center; align:center' src='img/fixation2_sml.jpg'></div><div class='arrayDiv3'><div class='tl'><img class='introPic' src='trustrating_stim/white_00050_931230_fa_edt.bmp'><br><font color='green'><strong>Share</strong></font></div><div class='tc'><img class='introPic' src='trustrating_stim/white_mw040.bmp'><br><font color='green'><strong>Share</strong></font></div><div class='tr'><img class='introPic' src='trustrating_stim/white_mw012.bmp'><br><font color='red'><strong>Keep</strong></font></div></div></div>","null","3","trustrating_stim/white_00050_931230_fa_edt.bmp,trustrating_stim/white_mw040.bmp,trustrating_stim/white_mw012.bmp","1,1,0","noMatchFace","i","4500","","","",""
"html-keyboard-response","132","284479","0.0-7.0-3.19","dstesting","bdp_wmem","Mon May 10 2021 11:05:02 GMT-0400 (Eastern Daylight Time)","545512","Match,No Match","","null","","","","DELAY","","<div class='trialBorder'><div class='vertical-center'><img src='img/fixation2_sml.jpg'</img></div></div>","null","","","","","","","","","",""
"html-keyboard-response","133","285352","0.0-7.0-4.19","dstesting","bdp_wmem","Mon May 10 2021 11:05:02 GMT-0400 (Eastern Daylight Time)","545512","Match,No Match","","872","","","","TARGET","","<div class='trialBorder'><div class='targDiv'><div class='tc'><img class='introPic' src='trustrating_stim/white_mw092.bmp'><br><font color='green'><strong>Share</strong></font></div></div><div class='respDiv'><div class='respDivL'>Match<br>(e)</div><div class='respDivR'>No Match<br>(i)</div></div></div>","i","3","trustrating_stim/white_00050_931230_fa_edt.bmp,trustrating_stim/white_mw040.bmp,trustrating_stim/white_mw012.bmp","1,1,0","noMatchFace","i","","trustrating_stim/white_mw092.bmp","green","Share","1"
"html-keyboard-response","134","285854","0.0-7.0-5.19","dstesting","bdp_wmem","Mon May 10 2021 11:05:02 GMT-0400 (Eastern Daylight Time)","545512","Match,No Match","","null","","","","FEEDBACK","","<div class='trialBorder'><div class='vertical-center'><img src='img/correct.jpg'></div><div class='respDiv'><div class='respDivL'>Match<br>(e)</div><div class='respDivR'><font style='color:orange'>No Match<br>(i)</font></div></div></div>","null","","","","","","","","","",""
"html-keyboard-response","135","286356","0.0-7.0-1.20","dstesting","bdp_wmem","Mon May 10 2021 11:05:02 GMT-0400 (Eastern Daylight Time)","545512","Match,No Match","","null","","","","FIX","","<div class='trialBorder'><div class='vertical-center'><img src='img/fixation2_sml.jpg'</img></div></div>","null","","","","","","","","","",""
"html-keyboard-response","136","289358","0.0-7.0-2.20","dstesting","bdp_wmem","Mon May 10 2021 11:05:02 GMT-0400 (Eastern Daylight Time)","545512","Match,No Match","","null","","","","ARRAY","","<div class='trialBorder'><div class='vertical-center'><img style='vertical-align:center; align:center' src='img/fixation2_sml.jpg'></div><div class='arrayDiv2'><div class='tl'><img class='introPic' src='trustrating_stim/white_mw033.bmp'><br><font color='green'><strong>Share</strong></font></div><div class='tr'><img class='introPic' src='trustrating_stim/white_mw013.bmp'><br><font color='red'><strong>Keep</strong></font></div></div></div>","null","2","trustrating_stim/white_mw033.bmp,trustrating_stim/white_mw013.bmp","1,0","Match","e","3000","","","",""
"html-keyboard-response","137","293364","0.0-7.0-3.20","dstesting","bdp_wmem","Mon May 10 2021 11:05:02 GMT-0400 (Eastern Daylight Time)","545512","Match,No Match","","null","","","","DELAY","","<div class='trialBorder'><div class='vertical-center'><img src='img/fixation2_sml.jpg'</img></div></div>","null","","","","","","","","","",""
"html-keyboard-response","138","294785","0.0-7.0-4.20","dstesting","bdp_wmem","Mon May 10 2021 11:05:02 GMT-0400 (Eastern Daylight Time)","545512","Match,No Match","","1419","","","","TARGET","","<div class='trialBorder'><div class='targDiv'><div class='tc'><img class='introPic' src='trustrating_stim/white_mw013.bmp'><br><font color='red'><strong>Keep</strong></font></div></div><div class='respDiv'><div class='respDivL'>Match<br>(e)</div><div class='respDivR'>No Match<br>(i)</div></div></div>","e","2","trustrating_stim/white_mw033.bmp,trustrating_stim/white_mw013.bmp","1,0","Match","e","","trustrating_stim/white_mw013.bmp","red","Keep","1"
"html-keyboard-response","139","295289","0.0-7.0-5.20","dstesting","bdp_wmem","Mon May 10 2021 11:05:02 GMT-0400 (Eastern Daylight Time)","545512","Match,No Match","","null","","","","FEEDBACK","","<div class='trialBorder'><div class='vertical-center'><img src='img/correct.jpg'></div><div class='respDiv'><div class='respDivL'><font style='color:orange'>Match<br>(e)</font></div><div class='respDivR'>No Match<br>(i)</div></div></div>","null","","","","","","","","","",""
"html-keyboard-response","140","295789","0.0-7.0-1.21","dstesting","bdp_wmem","Mon May 10 2021 11:05:02 GMT-0400 (Eastern Daylight Time)","545512","Match,No Match","","null","","","","FIX","","<div class='trialBorder'><div class='vertical-center'><img src='img/fixation2_sml.jpg'</img></div></div>","null","","","","","","","","","",""
"html-keyboard-response","141","298794","0.0-7.0-2.21","dstesting","bdp_wmem","Mon May 10 2021 11:05:02 GMT-0400 (Eastern Daylight Time)","545512","Match,No Match","","null","","","","ARRAY","","<div class='trialBorder'><div class='vertical-center'><img style='vertical-align:center; align:center' src='img/fixation2_sml.jpg'></div><div class='arrayDiv2'><div class='tl'><img class='introPic' src='trustrating_stim/white_mw033.bmp'><br><font color='green'><strong>Share</strong></font></div><div class='tr'><img class='introPic' src='trustrating_stim/white_mw091.bmp'><br><font color='red'><strong>Keep</strong></font></div></div></div>","null","2","trustrating_stim/white_mw033.bmp,trustrating_stim/white_mw091.bmp","1,0","Match","e","3000","","","",""
"html-keyboard-response","142","302798","0.0-7.0-3.21","dstesting","bdp_wmem","Mon May 10 2021 11:05:02 GMT-0400 (Eastern Daylight Time)","545512","Match,No Match","","null","","","","DELAY","","<div class='trialBorder'><div class='vertical-center'><img src='img/fixation2_sml.jpg'</img></div></div>","null","","","","","","","","","",""
"html-keyboard-response","143","304020","0.0-7.0-4.21","dstesting","bdp_wmem","Mon May 10 2021 11:05:02 GMT-0400 (Eastern Daylight Time)","545512","Match,No Match","","1220","","","","TARGET","","<div class='trialBorder'><div class='targDiv'><div class='tc'><img class='introPic' src='trustrating_stim/white_mw033.bmp'><br><font color='green'><strong>Share</strong></font></div></div><div class='respDiv'><div class='respDivL'>Match<br>(e)</div><div class='respDivR'>No Match<br>(i)</div></div></div>","e","2","trustrating_stim/white_mw033.bmp,trustrating_stim/white_mw091.bmp","1,0","Match","e","","trustrating_stim/white_mw033.bmp","green","Share","1"
"html-keyboard-response","144","304525","0.0-7.0-5.21","dstesting","bdp_wmem","Mon May 10 2021 11:05:02 GMT-0400 (Eastern Daylight Time)","545512","Match,No Match","","null","","","","FEEDBACK","","<div class='trialBorder'><div class='vertical-center'><img src='img/correct.jpg'></div><div class='respDiv'><div class='respDivL'><font style='color:orange'>Match<br>(e)</font></div><div class='respDivR'>No Match<br>(i)</div></div></div>","null","","","","","","","","","",""
"html-keyboard-response","145","305025","0.0-7.0-1.22","dstesting","bdp_wmem","Mon May 10 2021 11:05:02 GMT-0400 (Eastern Daylight Time)","545512","Match,No Match","","null","","","","FIX","","<div class='trialBorder'><div class='vertical-center'><img src='img/fixation2_sml.jpg'</img></div></div>","null","","","","","","","","","",""
"html-keyboard-response","146","308030","0.0-7.0-2.22","dstesting","bdp_wmem","Mon May 10 2021 11:05:02 GMT-0400 (Eastern Daylight Time)","545512","Match,No Match","","null","","","","ARRAY","","<div class='trialBorder'><div class='vertical-center'><img style='vertical-align:center; align:center' src='img/fixation2_sml.jpg'></div><div class='arrayDiv2'><div class='tl'><img class='introPic' src='trustrating_stim/white_mw003.bmp'><br><font color='red'><strong>Keep</strong></font></div><div class='tr'><img class='introPic' src='trustrating_stim/white_mw013.bmp'><br><font color='green'><strong>Share</strong></font></div></div></div>","null","2","trustrating_stim/white_mw003.bmp,trustrating_stim/white_mw013.bmp","0,1","noMatchOutcome","i","3000","","","",""
"html-keyboard-response","147","312034","0.0-7.0-3.22","dstesting","bdp_wmem","Mon May 10 2021 11:05:02 GMT-0400 (Eastern Daylight Time)","545512","Match,No Match","","null","","","","DELAY","","<div class='trialBorder'><div class='vertical-center'><img src='img/fixation2_sml.jpg'</img></div></div>","null","","","","","","","","","",""
"html-keyboard-response","148","313631","0.0-7.0-4.22","dstesting","bdp_wmem","Mon May 10 2021 11:05:02 GMT-0400 (Eastern Daylight Time)","545512","Match,No Match","","1596","","","","TARGET","","<div class='trialBorder'><div class='targDiv'><div class='tc'><img class='introPic' src='trustrating_stim/white_mw013.bmp'><br><font color='red'><strong>Keep</strong></font></div></div><div class='respDiv'><div class='respDivL'>Match<br>(e)</div><div class='respDivR'>No Match<br>(i)</div></div></div>","i","2","trustrating_stim/white_mw003.bmp,trustrating_stim/white_mw013.bmp","0,1","noMatchOutcome","i","","trustrating_stim/white_mw013.bmp","red","Keep","1"
"html-keyboard-response","149","314133","0.0-7.0-5.22","dstesting","bdp_wmem","Mon May 10 2021 11:05:02 GMT-0400 (Eastern Daylight Time)","545512","Match,No Match","","null","","","","FEEDBACK","","<div class='trialBorder'><div class='vertical-center'><img src='img/correct.jpg'></div><div class='respDiv'><div class='respDivL'>Match<br>(e)</div><div class='respDivR'><font style='color:orange'>No Match<br>(i)</font></div></div></div>","null","","","","","","","","","",""
"html-keyboard-response","150","314634","0.0-7.0-1.23","dstesting","bdp_wmem","Mon May 10 2021 11:05:02 GMT-0400 (Eastern Daylight Time)","545512","Match,No Match","","null","","","","FIX","","<div class='trialBorder'><div class='vertical-center'><img src='img/fixation2_sml.jpg'</img></div></div>","null","","","","","","","","","",""
"html-keyboard-response","151","319139","0.0-7.0-2.23","dstesting","bdp_wmem","Mon May 10 2021 11:05:02 GMT-0400 (Eastern Daylight Time)","545512","Match,No Match","","null","","","","ARRAY","","<div class='trialBorder'><div class='vertical-center'><img style='vertical-align:center; align:center' src='img/fixation2_sml.jpg'></div><div class='arrayDiv3'><div class='tl'><img class='introPic' src='trustrating_stim/white_mw013.bmp'><br><font color='red'><strong>Keep</strong></font></div><div class='tc'><img class='introPic' src='trustrating_stim/white_mw091.bmp'><br><font color='green'><strong>Share</strong></font></div><div class='tr'><img class='introPic' src='trustrating_stim/white_mw070.bmp'><br><font color='red'><strong>Keep</strong></font></div></div></div>","null","3","trustrating_stim/white_mw013.bmp,trustrating_stim/white_mw091.bmp,trustrating_stim/white_mw070.bmp","0,1,0","Match","e","4500","","","",""
"html-keyboard-response","152","323144","0.0-7.0-3.23","dstesting","bdp_wmem","Mon May 10 2021 11:05:02 GMT-0400 (Eastern Daylight Time)","545512","Match,No Match","","null","","","","DELAY","","<div class='trialBorder'><div class='vertical-center'><img src='img/fixation2_sml.jpg'</img></div></div>","null","","","","","","","","","",""
"html-keyboard-response","153","325312","0.0-7.0-4.23","dstesting","bdp_wmem","Mon May 10 2021 11:05:02 GMT-0400 (Eastern Daylight Time)","545512","Match,No Match","","2167","","","","TARGET","","<div class='trialBorder'><div class='targDiv'><div class='tc'><img class='introPic' src='trustrating_stim/white_mw070.bmp'><br><font color='red'><strong>Keep</strong></font></div></div><div class='respDiv'><div class='respDivL'>Match<br>(e)</div><div class='respDivR'>No Match<br>(i)</div></div></div>","e","3","trustrating_stim/white_mw013.bmp,trustrating_stim/white_mw091.bmp,trustrating_stim/white_mw070.bmp","0,1,0","Match","e","","trustrating_stim/white_mw070.bmp","red","Keep","1"
"html-keyboard-response","154","325817","0.0-7.0-5.23","dstesting","bdp_wmem","Mon May 10 2021 11:05:02 GMT-0400 (Eastern Daylight Time)","545512","Match,No Match","","null","","","","FEEDBACK","","<div class='trialBorder'><div class='vertical-center'><img src='img/correct.jpg'></div><div class='respDiv'><div class='respDivL'><font style='color:orange'>Match<br>(e)</font></div><div class='respDivR'>No Match<br>(i)</div></div></div>","null","","","","","","","","","",""
"html-keyboard-response","155","326320","0.0-7.0-1.24","dstesting","bdp_wmem","Mon May 10 2021 11:05:02 GMT-0400 (Eastern Daylight Time)","545512","Match,No Match","","null","","","","FIX","","<div class='trialBorder'><div class='vertical-center'><img src='img/fixation2_sml.jpg'</img></div></div>","null","","","","","","","","","",""
"html-keyboard-response","156","327821","0.0-7.0-2.24","dstesting","bdp_wmem","Mon May 10 2021 11:05:02 GMT-0400 (Eastern Daylight Time)","545512","Match,No Match","","null","","","","ARRAY","","<div class='trialBorder'><div class='vertical-center'><img style='vertical-align:center; align:center' src='img/fixation2_sml.jpg'></div><div class='arrayDiv1'><div class='tc'><img class='introPic' src='trustrating_stim/white_mw012.bmp'><br><font color='red'><strong>Keep</strong></font></div></div></div>","null","1","trustrating_stim/white_mw012.bmp","0","Match","e","1500","","","",""
"html-keyboard-response","157","331825","0.0-7.0-3.24","dstesting","bdp_wmem","Mon May 10 2021 11:05:02 GMT-0400 (Eastern Daylight Time)","545512","Match,No Match","","null","","","","DELAY","","<div class='trialBorder'><div class='vertical-center'><img src='img/fixation2_sml.jpg'</img></div></div>","null","","","","","","","","","",""
"html-keyboard-response","158","333049","0.0-7.0-4.24","dstesting","bdp_wmem","Mon May 10 2021 11:05:02 GMT-0400 (Eastern Daylight Time)","545512","Match,No Match","","1223","","","","TARGET","","<div class='trialBorder'><div class='targDiv'><div class='tc'><img class='introPic' src='trustrating_stim/white_mw012.bmp'><br><font color='red'><strong>Keep</strong></font></div></div><div class='respDiv'><div class='respDivL'>Match<br>(e)</div><div class='respDivR'>No Match<br>(i)</div></div></div>","e","1","trustrating_stim/white_mw012.bmp","0","Match","e","","trustrating_stim/white_mw012.bmp","red","Keep","1"
"html-keyboard-response","159","333552","0.0-7.0-5.24","dstesting","bdp_wmem","Mon May 10 2021 11:05:02 GMT-0400 (Eastern Daylight Time)","545512","Match,No Match","","null","","","","FEEDBACK","","<div class='trialBorder'><div class='vertical-center'><img src='img/correct.jpg'></div><div class='respDiv'><div class='respDivL'><font style='color:orange'>Match<br>(e)</font></div><div class='respDivR'>No Match<br>(i)</div></div></div>","null","","","","","","","","","",""
"html-keyboard-response","160","334053","0.0-7.0-1.25","dstesting","bdp_wmem","Mon May 10 2021 11:05:02 GMT-0400 (Eastern Daylight Time)","545512","Match,No Match","","null","","","","FIX","","<div class='trialBorder'><div class='vertical-center'><img src='img/fixation2_sml.jpg'</img></div></div>","null","","","","","","","","","",""
"html-keyboard-response","161","335555","0.0-7.0-2.25","dstesting","bdp_wmem","Mon May 10 2021 11:05:02 GMT-0400 (Eastern Daylight Time)","545512","Match,No Match","","null","","","","ARRAY","","<div class='trialBorder'><div class='vertical-center'><img style='vertical-align:center; align:center' src='img/fixation2_sml.jpg'></div><div class='arrayDiv1'><div class='tc'><img class='introPic' src='trustrating_stim/white_mw038.bmp'><br><font color='red'><strong>Keep</strong></font></div></div></div>","null","1","trustrating_stim/white_mw038.bmp","0","Match","e","1500","","","",""
"html-keyboard-response","162","339560","0.0-7.0-3.25","dstesting","bdp_wmem","Mon May 10 2021 11:05:02 GMT-0400 (Eastern Daylight Time)","545512","Match,No Match","","null","","","","DELAY","","<div class='trialBorder'><div class='vertical-center'><img src='img/fixation2_sml.jpg'</img></div></div>","null","","","","","","","","","",""
"html-keyboard-response","163","340702","0.0-7.0-4.25","dstesting","bdp_wmem","Mon May 10 2021 11:05:02 GMT-0400 (Eastern Daylight Time)","545512","Match,No Match","","1141","","","","TARGET","","<div class='trialBorder'><div class='targDiv'><div class='tc'><img class='introPic' src='trustrating_stim/white_mw038.bmp'><br><font color='red'><strong>Keep</strong></font></div></div><div class='respDiv'><div class='respDivL'>Match<br>(e)</div><div class='respDivR'>No Match<br>(i)</div></div></div>","e","1","trustrating_stim/white_mw038.bmp","0","Match","e","","trustrating_stim/white_mw038.bmp","red","Keep","1"
"html-keyboard-response","164","341206","0.0-7.0-5.25","dstesting","bdp_wmem","Mon May 10 2021 11:05:02 GMT-0400 (Eastern Daylight Time)","545512","Match,No Match","","null","","","","FEEDBACK","","<div class='trialBorder'><div class='vertical-center'><img src='img/correct.jpg'></div><div class='respDiv'><div class='respDivL'><font style='color:orange'>Match<br>(e)</font></div><div class='respDivR'>No Match<br>(i)</div></div></div>","null","","","","","","","","","",""
"html-keyboard-response","165","341708","0.0-7.0-1.26","dstesting","bdp_wmem","Mon May 10 2021 11:05:02 GMT-0400 (Eastern Daylight Time)","545512","Match,No Match","","null","","","","FIX","","<div class='trialBorder'><div class='vertical-center'><img src='img/fixation2_sml.jpg'</img></div></div>","null","","","","","","","","","",""
"html-keyboard-response","166","346212","0.0-7.0-2.26","dstesting","bdp_wmem","Mon May 10 2021 11:05:02 GMT-0400 (Eastern Daylight Time)","545512","Match,No Match","","null","","","","ARRAY","","<div class='trialBorder'><div class='vertical-center'><img style='vertical-align:center; align:center' src='img/fixation2_sml.jpg'></div><div class='arrayDiv3'><div class='tl'><img class='introPic' src='trustrating_stim/white_mw012.bmp'><br><font color='red'><strong>Keep</strong></font></div><div class='tc'><img class='introPic' src='trustrating_stim/white_mw092.bmp'><br><font color='green'><strong>Share</strong></font></div><div class='tr'><img class='introPic' src='trustrating_stim/white_00807_941205_fb_edt.bmp'><br><font color='green'><strong>Share</strong></font></div></div></div>","null","3","trustrating_stim/white_mw012.bmp,trustrating_stim/white_mw092.bmp,trustrating_stim/white_00807_941205_fb_edt.bmp","0,1,1","noMatchFace","i","4500","","","",""
"html-keyboard-response","167","350218","0.0-7.0-3.26","dstesting","bdp_wmem","Mon May 10 2021 11:05:02 GMT-0400 (Eastern Daylight Time)","545512","Match,No Match","","null","","","","DELAY","","<div class='trialBorder'><div class='vertical-center'><img src='img/fixation2_sml.jpg'</img></div></div>","null","","","","","","","","","",""
"html-keyboard-response","168","351095","0.0-7.0-4.26","dstesting","bdp_wmem","Mon May 10 2021 11:05:02 GMT-0400 (Eastern Daylight Time)","545512","Match,No Match","","877","","","","TARGET","","<div class='trialBorder'><div class='targDiv'><div class='tc'><img class='introPic' src='trustrating_stim/white_mw040.bmp'><br><font color='green'><strong>Share</strong></font></div></div><div class='respDiv'><div class='respDivL'>Match<br>(e)</div><div class='respDivR'>No Match<br>(i)</div></div></div>","i","3","trustrating_stim/white_mw012.bmp,trustrating_stim/white_mw092.bmp,trustrating_stim/white_00807_941205_fb_edt.bmp","0,1,1","noMatchFace","i","","trustrating_stim/white_mw040.bmp","green","Share","1"
"html-keyboard-response","169","351599","0.0-7.0-5.26","dstesting","bdp_wmem","Mon May 10 2021 11:05:02 GMT-0400 (Eastern Daylight Time)","545512","Match,No Match","","null","","","","FEEDBACK","","<div class='trialBorder'><div class='vertical-center'><img src='img/correct.jpg'></div><div class='respDiv'><div class='respDivL'>Match<br>(e)</div><div class='respDivR'><font style='color:orange'>No Match<br>(i)</font></div></div></div>","null","","","","","","","","","",""
"html-keyboard-response","170","352103","0.0-7.0-1.27","dstesting","bdp_wmem","Mon May 10 2021 11:05:02 GMT-0400 (Eastern Daylight Time)","545512","Match,No Match","","null","","","","FIX","","<div class='trialBorder'><div class='vertical-center'><img src='img/fixation2_sml.jpg'</img></div></div>","null","","","","","","","","","",""
"html-keyboard-response","171","353607","0.0-7.0-2.27","dstesting","bdp_wmem","Mon May 10 2021 11:05:02 GMT-0400 (Eastern Daylight Time)","545512","Match,No Match","","null","","","","ARRAY","","<div class='trialBorder'><div class='vertical-center'><img style='vertical-align:center; align:center' src='img/fixation2_sml.jpg'></div><div class='arrayDiv1'><div class='tc'><img class='introPic' src='trustrating_stim/white_00050_931230_fa_edt.bmp'><br><font color='red'><strong>Keep</strong></font></div></div></div>","null","1","trustrating_stim/white_00050_931230_fa_edt.bmp","0","noMatchOutcome","i","1500","","","",""
"html-keyboard-response","172","357613","0.0-7.0-3.27","dstesting","bdp_wmem","Mon May 10 2021 11:05:02 GMT-0400 (Eastern Daylight Time)","545512","Match,No Match","","null","","","","DELAY","","<div class='trialBorder'><div class='vertical-center'><img src='img/fixation2_sml.jpg'</img></div></div>","null","","","","","","","","","",""
"html-keyboard-response","173","358761","0.0-7.0-4.27","dstesting","bdp_wmem","Mon May 10 2021 11:05:02 GMT-0400 (Eastern Daylight Time)","545512","Match,No Match","","1147","","","","TARGET","","<div class='trialBorder'><div class='targDiv'><div class='tc'><img class='introPic' src='trustrating_stim/white_00050_931230_fa_edt.bmp'><br><font color='green'><strong>Share</strong></font></div></div><div class='respDiv'><div class='respDivL'>Match<br>(e)</div><div class='respDivR'>No Match<br>(i)</div></div></div>","i","1","trustrating_stim/white_00050_931230_fa_edt.bmp","0","noMatchOutcome","i","","trustrating_stim/white_00050_931230_fa_edt.bmp","green","Share","1"
"html-keyboard-response","174","359265","0.0-7.0-5.27","dstesting","bdp_wmem","Mon May 10 2021 11:05:02 GMT-0400 (Eastern Daylight Time)","545512","Match,No Match","","null","","","","FEEDBACK","","<div class='trialBorder'><div class='vertical-center'><img src='img/correct.jpg'></div><div class='respDiv'><div class='respDivL'>Match<br>(e)</div><div class='respDivR'><font style='color:orange'>No Match<br>(i)</font></div></div></div>","null","","","","","","","","","",""
"html-keyboard-response","175","359766","0.0-7.0-1.28","dstesting","bdp_wmem","Mon May 10 2021 11:05:02 GMT-0400 (Eastern Daylight Time)","545512","Match,No Match","","null","","","","FIX","","<div class='trialBorder'><div class='vertical-center'><img src='img/fixation2_sml.jpg'</img></div></div>","null","","","","","","","","","",""
"html-keyboard-response","176","364268","0.0-7.0-2.28","dstesting","bdp_wmem","Mon May 10 2021 11:05:02 GMT-0400 (Eastern Daylight Time)","545512","Match,No Match","","null","","","","ARRAY","","<div class='trialBorder'><div class='vertical-center'><img style='vertical-align:center; align:center' src='img/fixation2_sml.jpg'></div><div class='arrayDiv3'><div class='tl'><img class='introPic' src='trustrating_stim/white_mw040.bmp'><br><font color='green'><strong>Share</strong></font></div><div class='tc'><img class='introPic' src='trustrating_stim/white_mw033.bmp'><br><font color='green'><strong>Share</strong></font></div><div class='tr'><img class='introPic' src='trustrating_stim/white_mw070.bmp'><br><font color='red'><strong>Keep</strong></font></div></div></div>","null","3","trustrating_stim/white_mw040.bmp,trustrating_stim/white_mw033.bmp,trustrating_stim/white_mw070.bmp","1,1,0","Match","e","4500","","","",""
"html-keyboard-response","177","368273","0.0-7.0-3.28","dstesting","bdp_wmem","Mon May 10 2021 11:05:02 GMT-0400 (Eastern Daylight Time)","545512","Match,No Match","","null","","","","DELAY","","<div class='trialBorder'><div class='vertical-center'><img src='img/fixation2_sml.jpg'</img></div></div>","null","","","","","","","","","",""
"html-keyboard-response","178","369190","0.0-7.0-4.28","dstesting","bdp_wmem","Mon May 10 2021 11:05:02 GMT-0400 (Eastern Daylight Time)","545512","Match,No Match","","916","","","","TARGET","","<div class='trialBorder'><div class='targDiv'><div class='tc'><img class='introPic' src='trustrating_stim/white_mw040.bmp'><br><font color='green'><strong>Share</strong></font></div></div><div class='respDiv'><div class='respDivL'>Match<br>(e)</div><div class='respDivR'>No Match<br>(i)</div></div></div>","e","3","trustrating_stim/white_mw040.bmp,trustrating_stim/white_mw033.bmp,trustrating_stim/white_mw070.bmp","1,1,0","Match","e","","trustrating_stim/white_mw040.bmp","green","Share","1"
"html-keyboard-response","179","369692","0.0-7.0-5.28","dstesting","bdp_wmem","Mon May 10 2021 11:05:02 GMT-0400 (Eastern Daylight Time)","545512","Match,No Match","","null","","","","FEEDBACK","","<div class='trialBorder'><div class='vertical-center'><img src='img/correct.jpg'></div><div class='respDiv'><div class='respDivL'><font style='color:orange'>Match<br>(e)</font></div><div class='respDivR'>No Match<br>(i)</div></div></div>","null","","","","","","","","","",""
"html-keyboard-response","180","370198","0.0-7.0-1.29","dstesting","bdp_wmem","Mon May 10 2021 11:05:02 GMT-0400 (Eastern Daylight Time)","545512","Match,No Match","","null","","","","FIX","","<div class='trialBorder'><div class='vertical-center'><img src='img/fixation2_sml.jpg'</img></div></div>","null","","","","","","","","","",""
"html-keyboard-response","181","371703","0.0-7.0-2.29","dstesting","bdp_wmem","Mon May 10 2021 11:05:02 GMT-0400 (Eastern Daylight Time)","545512","Match,No Match","","null","","","","ARRAY","","<div class='trialBorder'><div class='vertical-center'><img style='vertical-align:center; align:center' src='img/fixation2_sml.jpg'></div><div class='arrayDiv1'><div class='tc'><img class='introPic' src='trustrating_stim/white_mw015.bmp'><br><font color='red'><strong>Keep</strong></font></div></div></div>","null","1","trustrating_stim/white_mw015.bmp","0","Match","e","1500","","","",""
"html-keyboard-response","182","375708","0.0-7.0-3.29","dstesting","bdp_wmem","Mon May 10 2021 11:05:02 GMT-0400 (Eastern Daylight Time)","545512","Match,No Match","","null","","","","DELAY","","<div class='trialBorder'><div class='vertical-center'><img src='img/fixation2_sml.jpg'</img></div></div>","null","","","","","","","","","",""
"html-keyboard-response","183","376890","0.0-7.0-4.29","dstesting","bdp_wmem","Mon May 10 2021 11:05:02 GMT-0400 (Eastern Daylight Time)","545512","Match,No Match","","1181","","","","TARGET","","<div class='trialBorder'><div class='targDiv'><div class='tc'><img class='introPic' src='trustrating_stim/white_mw015.bmp'><br><font color='red'><strong>Keep</strong></font></div></div><div class='respDiv'><div class='respDivL'>Match<br>(e)</div><div class='respDivR'>No Match<br>(i)</div></div></div>","e","1","trustrating_stim/white_mw015.bmp","0","Match","e","","trustrating_stim/white_mw015.bmp","red","Keep","1"
"html-keyboard-response","184","377393","0.0-7.0-5.29","dstesting","bdp_wmem","Mon May 10 2021 11:05:02 GMT-0400 (Eastern Daylight Time)","545512","Match,No Match","","null","","","","FEEDBACK","","<div class='trialBorder'><div class='vertical-center'><img src='img/correct.jpg'></div><div class='respDiv'><div class='respDivL'><font style='color:orange'>Match<br>(e)</font></div><div class='respDivR'>No Match<br>(i)</div></div></div>","null","","","","","","","","","",""
"html-keyboard-response","185","377894","0.0-7.0-1.30","dstesting","bdp_wmem","Mon May 10 2021 11:05:02 GMT-0400 (Eastern Daylight Time)","545512","Match,No Match","","null","","","","FIX","","<div class='trialBorder'><div class='vertical-center'><img src='img/fixation2_sml.jpg'</img></div></div>","null","","","","","","","","","",""
"html-keyboard-response","186","380899","0.0-7.0-2.30","dstesting","bdp_wmem","Mon May 10 2021 11:05:02 GMT-0400 (Eastern Daylight Time)","545512","Match,No Match","","null","","","","ARRAY","","<div class='trialBorder'><div class='vertical-center'><img style='vertical-align:center; align:center' src='img/fixation2_sml.jpg'></div><div class='arrayDiv2'><div class='tl'><img class='introPic' src='trustrating_stim/white_mw092.bmp'><br><font color='green'><strong>Share</strong></font></div><div class='tr'><img class='introPic' src='trustrating_stim/white_mw070.bmp'><br><font color='red'><strong>Keep</strong></font></div></div></div>","null","2","trustrating_stim/white_mw092.bmp,trustrating_stim/white_mw070.bmp","1,0","noMatchFace","i","3000","","","",""
"html-keyboard-response","187","384903","0.0-7.0-3.30","dstesting","bdp_wmem","Mon May 10 2021 11:05:02 GMT-0400 (Eastern Daylight Time)","545512","Match,No Match","","null","","","","DELAY","","<div class='trialBorder'><div class='vertical-center'><img src='img/fixation2_sml.jpg'</img></div></div>","null","","","","","","","","","",""
"html-keyboard-response","188","385533","0.0-7.0-4.30","dstesting","bdp_wmem","Mon May 10 2021 11:05:02 GMT-0400 (Eastern Daylight Time)","545512","Match,No Match","","629","","","","TARGET","","<div class='trialBorder'><div class='targDiv'><div class='tc'><img class='introPic' src='trustrating_stim/white_mw015.bmp'><br><font color='green'><strong>Share</strong></font></div></div><div class='respDiv'><div class='respDivL'>Match<br>(e)</div><div class='respDivR'>No Match<br>(i)</div></div></div>","i","2","trustrating_stim/white_mw092.bmp,trustrating_stim/white_mw070.bmp","1,0","noMatchFace","i","","trustrating_stim/white_mw015.bmp","green","Share","1"
"html-keyboard-response","189","386039","0.0-7.0-5.30","dstesting","bdp_wmem","Mon May 10 2021 11:05:02 GMT-0400 (Eastern Daylight Time)","545512","Match,No Match","","null","","","","FEEDBACK","","<div class='trialBorder'><div class='vertical-center'><img src='img/correct.jpg'></div><div class='respDiv'><div class='respDivL'>Match<br>(e)</div><div class='respDivR'><font style='color:orange'>No Match<br>(i)</font></div></div></div>","null","","","","","","","","","",""
"html-keyboard-response","190","386540","0.0-7.0-1.31","dstesting","bdp_wmem","Mon May 10 2021 11:05:02 GMT-0400 (Eastern Daylight Time)","545512","Match,No Match","","null","","","","FIX","","<div class='trialBorder'><div class='vertical-center'><img src='img/fixation2_sml.jpg'</img></div></div>","null","","","","","","","","","",""
"html-keyboard-response","191","391043","0.0-7.0-2.31","dstesting","bdp_wmem","Mon May 10 2021 11:05:02 GMT-0400 (Eastern Daylight Time)","545512","Match,No Match","","null","","","","ARRAY","","<div class='trialBorder'><div class='vertical-center'><img style='vertical-align:center; align:center' src='img/fixation2_sml.jpg'></div><div class='arrayDiv3'><div class='tl'><img class='introPic' src='trustrating_stim/white_mw033.bmp'><br><font color='green'><strong>Share</strong></font></div><div class='tc'><img class='introPic' src='trustrating_stim/white_mw091.bmp'><br><font color='green'><strong>Share</strong></font></div><div class='tr'><img class='introPic' src='trustrating_stim/white_mw015.bmp'><br><font color='red'><strong>Keep</strong></font></div></div></div>","null","3","trustrating_stim/white_mw033.bmp,trustrating_stim/white_mw091.bmp,trustrating_stim/white_mw015.bmp","1,1,0","Match","e","4500","","","",""
"html-keyboard-response","192","395047","0.0-7.0-3.31","dstesting","bdp_wmem","Mon May 10 2021 11:05:02 GMT-0400 (Eastern Daylight Time)","545512","Match,No Match","","null","","","","DELAY","","<div class='trialBorder'><div class='vertical-center'><img src='img/fixation2_sml.jpg'</img></div></div>","null","","","","","","","","","",""
"html-keyboard-response","193","396005","0.0-7.0-4.31","dstesting","bdp_wmem","Mon May 10 2021 11:05:02 GMT-0400 (Eastern Daylight Time)","545512","Match,No Match","","957","","","","TARGET","","<div class='trialBorder'><div class='targDiv'><div class='tc'><img class='introPic' src='trustrating_stim/white_mw033.bmp'><br><font color='green'><strong>Share</strong></font></div></div><div class='respDiv'><div class='respDivL'>Match<br>(e)</div><div class='respDivR'>No Match<br>(i)</div></div></div>","e","3","trustrating_stim/white_mw033.bmp,trustrating_stim/white_mw091.bmp,trustrating_stim/white_mw015.bmp","1,1,0","Match","e","","trustrating_stim/white_mw033.bmp","green","Share","1"
"html-keyboard-response","194","396508","0.0-7.0-5.31","dstesting","bdp_wmem","Mon May 10 2021 11:05:02 GMT-0400 (Eastern Daylight Time)","545512","Match,No Match","","null","","","","FEEDBACK","","<div class='trialBorder'><div class='vertical-center'><img src='img/correct.jpg'></div><div class='respDiv'><div class='respDivL'><font style='color:orange'>Match<br>(e)</font></div><div class='respDivR'>No Match<br>(i)</div></div></div>","null","","","","","","","","","",""
"html-keyboard-response","195","397009","0.0-7.0-1.32","dstesting","bdp_wmem","Mon May 10 2021 11:05:02 GMT-0400 (Eastern Daylight Time)","545512","Match,No Match","","null","","","","FIX","","<div class='trialBorder'><div class='vertical-center'><img src='img/fixation2_sml.jpg'</img></div></div>","null","","","","","","","","","",""
