"trial_type","trial_index","time_elapsed","internal_node_id","subject_id","task","startTime","totalTime","labels","view_history","rt","event","trial","time","trialtype","success","stimulus","key_press","arraySize","arrayFaces","arrayOutcomes","matchType","corrResp","trial_duration","targFace","targCol","targOutcome","corr"
"pavlovia","0","2","0.0-0.0","testing","bdp_wmem","Fri Dec 11 2020 23:01:40 GMT-0500 (Eastern Standard Time)","651228","Match,No Match","","","","","","","","","","","","","","","","","","",""
"instructions","1","7097","0.0-1.0","testing","bdp_wmem","Fri Dec 11 2020 23:01:40 GMT-0500 (Eastern Standard Time)","651228","Match,No Match","[{""page_index"":0,""viewing_time"":7095}]","7095","","","","","","","","","","","","","","","","",""
"","","","","testing","bdp_wmem","Fri Dec 11 2020 23:01:40 GMT-0500 (Eastern Standard Time)","651228","Match,No Match","","","fullscreenenter","2","10335","fullscreenenter","","","","","","","","","","","","",""
"fullscreen","2","11329","0.0-2.0","testing","bdp_wmem","Fri Dec 11 2020 23:01:40 GMT-0500 (Eastern Standard Time)","651228","Match,No Match","","","","","","","true","","","","","","","","","","","",""
"instructions","3","130695","0.0-4.0","testing","bdp_wmem","Fri Dec 11 2020 23:01:40 GMT-0500 (Eastern Standard Time)","651228","Match,No Match","[{""page_index"":0,""viewing_time"":30305},{""page_index"":1,""viewing_time"":25946},{""page_index"":2,""viewing_time"":10848},{""page_index"":3,""viewing_time"":22980},{""page_index"":4,""viewing_time"":29286}]","119366","","","","","","","","","","","","","","","","",""
"html-keyboard-response","4","131196","0.0-5.0-1.0","testing","bdp_wmem","Fri Dec 11 2020 23:01:40 GMT-0500 (Eastern Standard Time)","651228","Match,No Match","","null","","","","FIX","","<div class='trialBorder'><div class='vertical-center'><img src='img/fixation2_sml.jpg'</img></div></div>","null","","","","","","","","","",""
"html-keyboard-response","5","133197","0.0-5.0-2.0","testing","bdp_wmem","Fri Dec 11 2020 23:01:40 GMT-0500 (Eastern Standard Time)","651228","Match,No Match","","null","","","","ARRAY","","<div class='trialBorder'><div class='vertical-center'><div class='trialDiv2'><div class='vertical-center'><img style='vertical-align:center; align:center' src='img/fixation2_sml.jpg'></div><div class='tc'><div class='vertical-center'><img class='introPic' src='trustrating_stim/white_mw015.bmp'><br><font color='red'><strong>Keep</strong></font></div></div><div class='bc'><div class='vertical-center'><img class='introPic' src='trustrating_stim/white_00050_931230_fa_edt.bmp'><br><font color='green'><strong>Share</strong></font></div></div></div></div></div>","null","2","trustrating_stim/white_mw015.bmp,trustrating_stim/white_00050_931230_fa_edt.bmp","0,1","noMatchFace","i","2000","","","",""
"html-keyboard-response","6","137199","0.0-5.0-3.0","testing","bdp_wmem","Fri Dec 11 2020 23:01:40 GMT-0500 (Eastern Standard Time)","651228","Match,No Match","","null","","","","DELAY","","<div class='trialBorder'><div class='vertical-center'><img src='img/fixation2_sml.jpg'</img></div></div>","null","","","","","","","","","",""
"html-keyboard-response","7","139312","0.0-5.0-4.0","testing","bdp_wmem","Fri Dec 11 2020 23:01:40 GMT-0500 (Eastern Standard Time)","651228","Match,No Match","","2112","","","","TARGET","","<div class='trialBorder'><div class='vertical-center'><div class='trialFBDiv'><div class='trialDiv1'><div class='vertical-center'><img class='introPic' src='trustrating_stim/white_mw038.bmp'><br><font color='green'><strong>Share</strong></font></div></div><div class='respDivL'>Match<p>(e)</div><div class='respDivR'>No Match<p>(i)</div></div></div></div>","i","2","trustrating_stim/white_mw015.bmp,trustrating_stim/white_00050_931230_fa_edt.bmp","0,1","noMatchFace","i","","trustrating_stim/white_mw038.bmp","green","Share","1"
"html-keyboard-response","8","139814","0.0-5.0-5.0","testing","bdp_wmem","Fri Dec 11 2020 23:01:40 GMT-0500 (Eastern Standard Time)","651228","Match,No Match","","null","","","","FEEDBACK","","<div class='trialBorder'><div class='vertical-center'><div class='trialFBDiv'><div class='trialDiv1'><div class='vertical-center'><img src='img/correct.jpg'></div></div><div class='respDivL'>Match<p>(e)</div><div class='respDivR'><font style='color:orange'>No Match<p>(i)</font></div></div></div></div>","null","","","","","","","","","",""
"html-keyboard-response","9","140314","0.0-5.0-1.1","testing","bdp_wmem","Fri Dec 11 2020 23:01:40 GMT-0500 (Eastern Standard Time)","651228","Match,No Match","","null","","","","FIX","","<div class='trialBorder'><div class='vertical-center'><img src='img/fixation2_sml.jpg'</img></div></div>","null","","","","","","","","","",""
"html-keyboard-response","10","144316","0.0-5.0-2.1","testing","bdp_wmem","Fri Dec 11 2020 23:01:40 GMT-0500 (Eastern Standard Time)","651228","Match,No Match","","null","","","","ARRAY","","<div class='trialBorder'><div class='vertical-center'><div class='trialDiv4'><div class='vertical-center'><img style='vertical-align:center; align:center' src='img/fixation2_sml.jpg'></div><div class='tl'><div class='vertical-center'><img class='introPic' src='trustrating_stim/white_mw013.bmp'><br><font color='green'><strong>Share</strong></font></div></div><div class='tr'><div class='vertical-center'><img class='introPic' src='trustrating_stim/white_mw092.bmp'><br><font color='green'><strong>Share</strong></font></div></div><div class='bl'><div class='vertical-center'><img class='introPic' src='trustrating_stim/white_mw033.bmp'><br><font color='red'><strong>Keep</strong></font></div></div><div class='br'><div class='vertical-center'><img class='introPic' src='trustrating_stim/white_mw070.bmp'><br><font color='red'><strong>Keep</strong></font></div></div></div></div></div>","null","4","trustrating_stim/white_mw013.bmp,trustrating_stim/white_mw092.bmp,trustrating_stim/white_mw033.bmp,trustrating_stim/white_mw070.bmp","1,1,0,0","Match","e","4000","","","",""
"html-keyboard-response","11","148317","0.0-5.0-3.1","testing","bdp_wmem","Fri Dec 11 2020 23:01:40 GMT-0500 (Eastern Standard Time)","651228","Match,No Match","","null","","","","DELAY","","<div class='trialBorder'><div class='vertical-center'><img src='img/fixation2_sml.jpg'</img></div></div>","null","","","","","","","","","",""
"html-keyboard-response","12","150258","0.0-5.0-4.1","testing","bdp_wmem","Fri Dec 11 2020 23:01:40 GMT-0500 (Eastern Standard Time)","651228","Match,No Match","","1939","","","","TARGET","","<div class='trialBorder'><div class='vertical-center'><div class='trialFBDiv'><div class='trialDiv1'><div class='vertical-center'><img class='introPic' src='trustrating_stim/white_mw033.bmp'><br><font color='red'><strong>Keep</strong></font></div></div><div class='respDivL'>Match<p>(e)</div><div class='respDivR'>No Match<p>(i)</div></div></div></div>","e","4","trustrating_stim/white_mw013.bmp,trustrating_stim/white_mw092.bmp,trustrating_stim/white_mw033.bmp,trustrating_stim/white_mw070.bmp","1,1,0,0","Match","e","","trustrating_stim/white_mw038.bmp","green","Share","1"
"html-keyboard-response","13","150758","0.0-5.0-5.1","testing","bdp_wmem","Fri Dec 11 2020 23:01:40 GMT-0500 (Eastern Standard Time)","651228","Match,No Match","","null","","","","FEEDBACK","","<div class='trialBorder'><div class='vertical-center'><div class='trialFBDiv'><div class='trialDiv1'><div class='vertical-center'><img src='img/correct.jpg'></div></div><div class='respDivL'><font style='color:orange'>Match<p>(e)</font></div><div class='respDivR'>No Match<p>(i)</div></div></div></div>","null","","","","","","","","","",""
"html-keyboard-response","14","151259","0.0-5.0-1.2","testing","bdp_wmem","Fri Dec 11 2020 23:01:40 GMT-0500 (Eastern Standard Time)","651228","Match,No Match","","null","","","","FIX","","<div class='trialBorder'><div class='vertical-center'><img src='img/fixation2_sml.jpg'</img></div></div>","null","","","","","","","","","",""
"html-keyboard-response","15","153260","0.0-5.0-2.2","testing","bdp_wmem","Fri Dec 11 2020 23:01:40 GMT-0500 (Eastern Standard Time)","651228","Match,No Match","","null","","","","ARRAY","","<div class='trialBorder'><div class='vertical-center'><div class='trialDiv2'><div class='vertical-center'><img style='vertical-align:center; align:center' src='img/fixation2_sml.jpg'></div><div class='tc'><div class='vertical-center'><img class='introPic' src='trustrating_stim/white_mw091.bmp'><br><font color='green'><strong>Share</strong></font></div></div><div class='bc'><div class='vertical-center'><img class='introPic' src='trustrating_stim/white_mw033.bmp'><br><font color='red'><strong>Keep</strong></font></div></div></div></div></div>","null","2","trustrating_stim/white_mw091.bmp,trustrating_stim/white_mw033.bmp","1,0","Match","e","2000","","","",""
"html-keyboard-response","16","157262","0.0-5.0-3.2","testing","bdp_wmem","Fri Dec 11 2020 23:01:40 GMT-0500 (Eastern Standard Time)","651228","Match,No Match","","null","","","","DELAY","","<div class='trialBorder'><div class='vertical-center'><img src='img/fixation2_sml.jpg'</img></div></div>","null","","","","","","","","","",""
"html-keyboard-response","17","159230","0.0-5.0-4.2","testing","bdp_wmem","Fri Dec 11 2020 23:01:40 GMT-0500 (Eastern Standard Time)","651228","Match,No Match","","1967","","","","TARGET","","<div class='trialBorder'><div class='vertical-center'><div class='trialFBDiv'><div class='trialDiv1'><div class='vertical-center'><img class='introPic' src='trustrating_stim/white_mw033.bmp'><br><font color='red'><strong>Keep</strong></font></div></div><div class='respDivL'>Match<p>(e)</div><div class='respDivR'>No Match<p>(i)</div></div></div></div>","i","2","trustrating_stim/white_mw091.bmp,trustrating_stim/white_mw033.bmp","1,0","Match","e","","trustrating_stim/white_mw038.bmp","green","Share","0"
"html-keyboard-response","18","159731","0.0-5.0-5.2","testing","bdp_wmem","Fri Dec 11 2020 23:01:40 GMT-0500 (Eastern Standard Time)","651228","Match,No Match","","null","","","","FEEDBACK","","<div class='trialBorder'><div class='vertical-center'><div class='trialFBDiv'><div class='trialDiv1'><div class='vertical-center'><img src='img/error.jpg'></div></div><div class='respDivL'>Match<p>(e)</div><div class='respDivR'><font style='color:orange'>No Match<p>(i)</font></div></div></div></div>","null","","","","","","","","","",""
"html-keyboard-response","19","160232","0.0-5.0-1.3","testing","bdp_wmem","Fri Dec 11 2020 23:01:40 GMT-0500 (Eastern Standard Time)","651228","Match,No Match","","null","","","","FIX","","<div class='trialBorder'><div class='vertical-center'><img src='img/fixation2_sml.jpg'</img></div></div>","null","","","","","","","","","",""
"html-keyboard-response","20","162233","0.0-5.0-2.3","testing","bdp_wmem","Fri Dec 11 2020 23:01:40 GMT-0500 (Eastern Standard Time)","651228","Match,No Match","","null","","","","ARRAY","","<div class='trialBorder'><div class='vertical-center'><div class='trialDiv4'><div class='vertical-center'><img style='vertical-align:center; align:center' src='img/fixation2_sml.jpg'></div><div class='tc'><div class='vertical-center'><img class='introPic' src='trustrating_stim/white_mw033.bmp'><br><font color='green'><strong>Share</strong></font></div></div><div class='bl'><div class='vertical-center'><img class='introPic' src='trustrating_stim/white_mw091.bmp'><br><font color='green'><strong>Share</strong></font></div></div><div class='br'><div class='vertical-center'><img class='introPic' src='trustrating_stim/white_00050_931230_fa_edt.bmp'><br><font color='red'><strong>Keep</strong></font></div></div></div></div></div>","null","3","trustrating_stim/white_mw033.bmp,trustrating_stim/white_mw091.bmp,trustrating_stim/white_00050_931230_fa_edt.bmp","1,1,0","noMatchOutcome","i","2000","","","",""
"html-keyboard-response","21","166235","0.0-5.0-3.3","testing","bdp_wmem","Fri Dec 11 2020 23:01:40 GMT-0500 (Eastern Standard Time)","651228","Match,No Match","","null","","","","DELAY","","<div class='trialBorder'><div class='vertical-center'><img src='img/fixation2_sml.jpg'</img></div></div>","null","","","","","","","","","",""
"html-keyboard-response","22","167823","0.0-5.0-4.3","testing","bdp_wmem","Fri Dec 11 2020 23:01:40 GMT-0500 (Eastern Standard Time)","651228","Match,No Match","","1588","","","","TARGET","","<div class='trialBorder'><div class='vertical-center'><div class='trialFBDiv'><div class='trialDiv1'><div class='vertical-center'><img class='introPic' src='trustrating_stim/white_mw091.bmp'><br><font color='red'><strong>Keep</strong></font></div></div><div class='respDivL'>Match<p>(e)</div><div class='respDivR'>No Match<p>(i)</div></div></div></div>","i","3","trustrating_stim/white_mw033.bmp,trustrating_stim/white_mw091.bmp,trustrating_stim/white_00050_931230_fa_edt.bmp","1,1,0","noMatchOutcome","i","","trustrating_stim/white_mw038.bmp","green","Share","1"
"html-keyboard-response","23","168325","0.0-5.0-5.3","testing","bdp_wmem","Fri Dec 11 2020 23:01:40 GMT-0500 (Eastern Standard Time)","651228","Match,No Match","","null","","","","FEEDBACK","","<div class='trialBorder'><div class='vertical-center'><div class='trialFBDiv'><div class='trialDiv1'><div class='vertical-center'><img src='img/correct.jpg'></div></div><div class='respDivL'>Match<p>(e)</div><div class='respDivR'><font style='color:orange'>No Match<p>(i)</font></div></div></div></div>","null","","","","","","","","","",""
"html-keyboard-response","24","168826","0.0-5.0-1.4","testing","bdp_wmem","Fri Dec 11 2020 23:01:40 GMT-0500 (Eastern Standard Time)","651228","Match,No Match","","null","","","","FIX","","<div class='trialBorder'><div class='vertical-center'><img src='img/fixation2_sml.jpg'</img></div></div>","null","","","","","","","","","",""
"html-keyboard-response","25","170827","0.0-5.0-2.4","testing","bdp_wmem","Fri Dec 11 2020 23:01:40 GMT-0500 (Eastern Standard Time)","651228","Match,No Match","","null","","","","ARRAY","","<div class='trialBorder'><div class='vertical-center'><div class='trialDiv4'><div class='vertical-center'><img style='vertical-align:center; align:center' src='img/fixation2_sml.jpg'></div><div class='tc'><div class='vertical-center'><img class='introPic' src='trustrating_stim/white_mw070.bmp'><br><font color='green'><strong>Share</strong></font></div></div><div class='bl'><div class='vertical-center'><img class='introPic' src='trustrating_stim/white_mw003.bmp'><br><font color='red'><strong>Keep</strong></font></div></div><div class='br'><div class='vertical-center'><img class='introPic' src='trustrating_stim/white_mw015.bmp'><br><font color='red'><strong>Keep</strong></font></div></div></div></div></div>","null","3","trustrating_stim/white_mw070.bmp,trustrating_stim/white_mw003.bmp,trustrating_stim/white_mw015.bmp","1,0,0","Match","e","2000","","","",""
"html-keyboard-response","26","174829","0.0-5.0-3.4","testing","bdp_wmem","Fri Dec 11 2020 23:01:40 GMT-0500 (Eastern Standard Time)","651228","Match,No Match","","null","","","","DELAY","","<div class='trialBorder'><div class='vertical-center'><img src='img/fixation2_sml.jpg'</img></div></div>","null","","","","","","","","","",""
"html-keyboard-response","27","176054","0.0-5.0-4.4","testing","bdp_wmem","Fri Dec 11 2020 23:01:40 GMT-0500 (Eastern Standard Time)","651228","Match,No Match","","1224","","","","TARGET","","<div class='trialBorder'><div class='vertical-center'><div class='trialFBDiv'><div class='trialDiv1'><div class='vertical-center'><img class='introPic' src='trustrating_stim/white_mw003.bmp'><br><font color='red'><strong>Keep</strong></font></div></div><div class='respDivL'>Match<p>(e)</div><div class='respDivR'>No Match<p>(i)</div></div></div></div>","i","3","trustrating_stim/white_mw070.bmp,trustrating_stim/white_mw003.bmp,trustrating_stim/white_mw015.bmp","1,0,0","Match","e","","trustrating_stim/white_mw038.bmp","green","Share","0"
"html-keyboard-response","28","176556","0.0-5.0-5.4","testing","bdp_wmem","Fri Dec 11 2020 23:01:40 GMT-0500 (Eastern Standard Time)","651228","Match,No Match","","null","","","","FEEDBACK","","<div class='trialBorder'><div class='vertical-center'><div class='trialFBDiv'><div class='trialDiv1'><div class='vertical-center'><img src='img/error.jpg'></div></div><div class='respDivL'>Match<p>(e)</div><div class='respDivR'><font style='color:orange'>No Match<p>(i)</font></div></div></div></div>","null","","","","","","","","","",""
"html-keyboard-response","29","177056","0.0-5.0-1.5","testing","bdp_wmem","Fri Dec 11 2020 23:01:40 GMT-0500 (Eastern Standard Time)","651228","Match,No Match","","null","","","","FIX","","<div class='trialBorder'><div class='vertical-center'><img src='img/fixation2_sml.jpg'</img></div></div>","null","","","","","","","","","",""
"html-keyboard-response","30","181058","0.0-5.0-2.5","testing","bdp_wmem","Fri Dec 11 2020 23:01:40 GMT-0500 (Eastern Standard Time)","651228","Match,No Match","","null","","","","ARRAY","","<div class='trialBorder'><div class='vertical-center'><div class='trialDiv4'><div class='vertical-center'><img style='vertical-align:center; align:center' src='img/fixation2_sml.jpg'></div><div class='tl'><div class='vertical-center'><img class='introPic' src='trustrating_stim/white_mw070.bmp'><br><font color='green'><strong>Share</strong></font></div></div><div class='tr'><div class='vertical-center'><img class='introPic' src='trustrating_stim/white_mw003.bmp'><br><font color='green'><strong>Share</strong></font></div></div><div class='bl'><div class='vertical-center'><img class='introPic' src='trustrating_stim/white_00807_941205_fb_edt.bmp'><br><font color='red'><strong>Keep</strong></font></div></div><div class='br'><div class='vertical-center'><img class='introPic' src='trustrating_stim/white_mw092.bmp'><br><font color='red'><strong>Keep</strong></font></div></div></div></div></div>","null","4","trustrating_stim/white_mw070.bmp,trustrating_stim/white_mw003.bmp,trustrating_stim/white_00807_941205_fb_edt.bmp,trustrating_stim/white_mw092.bmp","1,1,0,0","noMatchOutcome","i","4000","","","",""
"html-keyboard-response","31","185059","0.0-5.0-3.5","testing","bdp_wmem","Fri Dec 11 2020 23:01:40 GMT-0500 (Eastern Standard Time)","651228","Match,No Match","","null","","","","DELAY","","<div class='trialBorder'><div class='vertical-center'><img src='img/fixation2_sml.jpg'</img></div></div>","null","","","","","","","","","",""
"html-keyboard-response","32","186649","0.0-5.0-4.5","testing","bdp_wmem","Fri Dec 11 2020 23:01:40 GMT-0500 (Eastern Standard Time)","651228","Match,No Match","","1589","","","","TARGET","","<div class='trialBorder'><div class='vertical-center'><div class='trialFBDiv'><div class='trialDiv1'><div class='vertical-center'><img class='introPic' src='trustrating_stim/white_mw003.bmp'><br><font color='red'><strong>Keep</strong></font></div></div><div class='respDivL'>Match<p>(e)</div><div class='respDivR'>No Match<p>(i)</div></div></div></div>","i","4","trustrating_stim/white_mw070.bmp,trustrating_stim/white_mw003.bmp,trustrating_stim/white_00807_941205_fb_edt.bmp,trustrating_stim/white_mw092.bmp","1,1,0,0","noMatchOutcome","i","","trustrating_stim/white_mw038.bmp","green","Share","1"
"html-keyboard-response","33","187150","0.0-5.0-5.5","testing","bdp_wmem","Fri Dec 11 2020 23:01:40 GMT-0500 (Eastern Standard Time)","651228","Match,No Match","","null","","","","FEEDBACK","","<div class='trialBorder'><div class='vertical-center'><div class='trialFBDiv'><div class='trialDiv1'><div class='vertical-center'><img src='img/correct.jpg'></div></div><div class='respDivL'>Match<p>(e)</div><div class='respDivR'><font style='color:orange'>No Match<p>(i)</font></div></div></div></div>","null","","","","","","","","","",""
"instructions","34","216887","0.0-6.0","testing","bdp_wmem","Fri Dec 11 2020 23:01:40 GMT-0500 (Eastern Standard Time)","651228","Match,No Match","[{""page_index"":0,""viewing_time"":29736}]","29737","","","","","","","","","","","","","","","","",""
"html-keyboard-response","35","217388","0.0-7.0-1.0","testing","bdp_wmem","Fri Dec 11 2020 23:01:40 GMT-0500 (Eastern Standard Time)","651228","Match,No Match","","null","","","","FIX","","<div class='trialBorder'><div class='vertical-center'><img src='img/fixation2_sml.jpg'</img></div></div>","null","","","","","","","","","",""
"html-keyboard-response","36","221389","0.0-7.0-2.0","testing","bdp_wmem","Fri Dec 11 2020 23:01:40 GMT-0500 (Eastern Standard Time)","651228","Match,No Match","","null","","","","ARRAY","","<div class='trialBorder'><div class='vertical-center'><div class='trialDiv4'><div class='vertical-center'><img style='vertical-align:center; align:center' src='img/fixation2_sml.jpg'></div><div class='tl'><div class='vertical-center'><img class='introPic' src='trustrating_stim/white_mw012.bmp'><br><font color='red'><strong>Keep</strong></font></div></div><div class='tr'><div class='vertical-center'><img class='introPic' src='trustrating_stim/white_mw070.bmp'><br><font color='green'><strong>Share</strong></font></div></div><div class='bl'><div class='vertical-center'><img class='introPic' src='trustrating_stim/white_mw091.bmp'><br><font color='green'><strong>Share</strong></font></div></div><div class='br'><div class='vertical-center'><img class='introPic' src='trustrating_stim/white_mw015.bmp'><br><font color='red'><strong>Keep</strong></font></div></div></div></div></div>","null","4","trustrating_stim/white_mw012.bmp,trustrating_stim/white_mw070.bmp,trustrating_stim/white_mw091.bmp,trustrating_stim/white_mw015.bmp","0,1,1,0","noMatchFace","i","4000","","","",""
"html-keyboard-response","37","225390","0.0-7.0-3.0","testing","bdp_wmem","Fri Dec 11 2020 23:01:40 GMT-0500 (Eastern Standard Time)","651228","Match,No Match","","null","","","","DELAY","","<div class='trialBorder'><div class='vertical-center'><img src='img/fixation2_sml.jpg'</img></div></div>","null","","","","","","","","","",""
"html-keyboard-response","38","227987","0.0-7.0-4.0","testing","bdp_wmem","Fri Dec 11 2020 23:01:40 GMT-0500 (Eastern Standard Time)","651228","Match,No Match","","2596","","","","TARGET","","<div class='trialBorder'><div class='vertical-center'><div class='trialFBDiv'><div class='trialDiv1'><div class='vertical-center'><img class='introPic' src='trustrating_stim/white_mw033.bmp'><br><font color='green'><strong>Share</strong></font></div></div><div class='respDivL'>Match<p>(e)</div><div class='respDivR'>No Match<p>(i)</div></div></div></div>","e","4","trustrating_stim/white_mw012.bmp,trustrating_stim/white_mw070.bmp,trustrating_stim/white_mw091.bmp,trustrating_stim/white_mw015.bmp","0,1,1,0","noMatchFace","i","","trustrating_stim/white_mw038.bmp","green","Share","0"
"html-keyboard-response","39","228488","0.0-7.0-5.0","testing","bdp_wmem","Fri Dec 11 2020 23:01:40 GMT-0500 (Eastern Standard Time)","651228","Match,No Match","","null","","","","FEEDBACK","","<div class='trialBorder'><div class='vertical-center'><div class='trialFBDiv'><div class='trialDiv1'><div class='vertical-center'><img src='img/error.jpg'></div></div><div class='respDivL'><font style='color:orange'>Match<p>(e)</font></div><div class='respDivR'>No Match<p>(i)</div></div></div></div>","null","","","","","","","","","",""
"html-keyboard-response","40","228989","0.0-7.0-1.1","testing","bdp_wmem","Fri Dec 11 2020 23:01:40 GMT-0500 (Eastern Standard Time)","651228","Match,No Match","","null","","","","FIX","","<div class='trialBorder'><div class='vertical-center'><img src='img/fixation2_sml.jpg'</img></div></div>","null","","","","","","","","","",""
"html-keyboard-response","41","232991","0.0-7.0-2.1","testing","bdp_wmem","Fri Dec 11 2020 23:01:40 GMT-0500 (Eastern Standard Time)","651228","Match,No Match","","null","","","","ARRAY","","<div class='trialBorder'><div class='vertical-center'><div class='trialDiv4'><div class='vertical-center'><img style='vertical-align:center; align:center' src='img/fixation2_sml.jpg'></div><div class='tl'><div class='vertical-center'><img class='introPic' src='trustrating_stim/white_mw012.bmp'><br><font color='green'><strong>Share</strong></font></div></div><div class='tr'><div class='vertical-center'><img class='introPic' src='trustrating_stim/white_mw040.bmp'><br><font color='green'><strong>Share</strong></font></div></div><div class='bl'><div class='vertical-center'><img class='introPic' src='trustrating_stim/white_mw070.bmp'><br><font color='red'><strong>Keep</strong></font></div></div><div class='br'><div class='vertical-center'><img class='introPic' src='trustrating_stim/white_mw091.bmp'><br><font color='red'><strong>Keep</strong></font></div></div></div></div></div>","null","4","trustrating_stim/white_mw012.bmp,trustrating_stim/white_mw040.bmp,trustrating_stim/white_mw070.bmp,trustrating_stim/white_mw091.bmp","1,1,0,0","noMatchFace","i","4000","","","",""
"html-keyboard-response","42","236992","0.0-7.0-3.1","testing","bdp_wmem","Fri Dec 11 2020 23:01:40 GMT-0500 (Eastern Standard Time)","651228","Match,No Match","","null","","","","DELAY","","<div class='trialBorder'><div class='vertical-center'><img src='img/fixation2_sml.jpg'</img></div></div>","null","","","","","","","","","",""
"html-keyboard-response","43","238546","0.0-7.0-4.1","testing","bdp_wmem","Fri Dec 11 2020 23:01:40 GMT-0500 (Eastern Standard Time)","651228","Match,No Match","","1553","","","","TARGET","","<div class='trialBorder'><div class='vertical-center'><div class='trialFBDiv'><div class='trialDiv1'><div class='vertical-center'><img class='introPic' src='trustrating_stim/white_00807_941205_fb_edt.bmp'><br><font color='red'><strong>Keep</strong></font></div></div><div class='respDivL'>Match<p>(e)</div><div class='respDivR'>No Match<p>(i)</div></div></div></div>","i","4","trustrating_stim/white_mw012.bmp,trustrating_stim/white_mw040.bmp,trustrating_stim/white_mw070.bmp,trustrating_stim/white_mw091.bmp","1,1,0,0","noMatchFace","i","","trustrating_stim/white_mw038.bmp","green","Share","1"
"html-keyboard-response","44","239048","0.0-7.0-5.1","testing","bdp_wmem","Fri Dec 11 2020 23:01:40 GMT-0500 (Eastern Standard Time)","651228","Match,No Match","","null","","","","FEEDBACK","","<div class='trialBorder'><div class='vertical-center'><div class='trialFBDiv'><div class='trialDiv1'><div class='vertical-center'><img src='img/correct.jpg'></div></div><div class='respDivL'>Match<p>(e)</div><div class='respDivR'><font style='color:orange'>No Match<p>(i)</font></div></div></div></div>","null","","","","","","","","","",""
"html-keyboard-response","45","239549","0.0-7.0-1.2","testing","bdp_wmem","Fri Dec 11 2020 23:01:40 GMT-0500 (Eastern Standard Time)","651228","Match,No Match","","null","","","","FIX","","<div class='trialBorder'><div class='vertical-center'><img src='img/fixation2_sml.jpg'</img></div></div>","null","","","","","","","","","",""
"html-keyboard-response","46","243551","0.0-7.0-2.2","testing","bdp_wmem","Fri Dec 11 2020 23:01:40 GMT-0500 (Eastern Standard Time)","651228","Match,No Match","","null","","","","ARRAY","","<div class='trialBorder'><div class='vertical-center'><div class='trialDiv4'><div class='vertical-center'><img style='vertical-align:center; align:center' src='img/fixation2_sml.jpg'></div><div class='tl'><div class='vertical-center'><img class='introPic' src='trustrating_stim/white_mw012.bmp'><br><font color='green'><strong>Share</strong></font></div></div><div class='tr'><div class='vertical-center'><img class='introPic' src='trustrating_stim/white_mw013.bmp'><br><font color='red'><strong>Keep</strong></font></div></div><div class='bl'><div class='vertical-center'><img class='introPic' src='trustrating_stim/white_mw091.bmp'><br><font color='red'><strong>Keep</strong></font></div></div><div class='br'><div class='vertical-center'><img class='introPic' src='trustrating_stim/white_mw070.bmp'><br><font color='green'><strong>Share</strong></font></div></div></div></div></div>","null","4","trustrating_stim/white_mw012.bmp,trustrating_stim/white_mw013.bmp,trustrating_stim/white_mw091.bmp,trustrating_stim/white_mw070.bmp","1,0,0,1","Match","e","4000","","","",""
"html-keyboard-response","47","247553","0.0-7.0-3.2","testing","bdp_wmem","Fri Dec 11 2020 23:01:40 GMT-0500 (Eastern Standard Time)","651228","Match,No Match","","null","","","","DELAY","","<div class='trialBorder'><div class='vertical-center'><img src='img/fixation2_sml.jpg'</img></div></div>","null","","","","","","","","","",""
"html-keyboard-response","48","249462","0.0-7.0-4.2","testing","bdp_wmem","Fri Dec 11 2020 23:01:40 GMT-0500 (Eastern Standard Time)","651228","Match,No Match","","1909","","","","TARGET","","<div class='trialBorder'><div class='vertical-center'><div class='trialFBDiv'><div class='trialDiv1'><div class='vertical-center'><img class='introPic' src='trustrating_stim/white_mw091.bmp'><br><font color='red'><strong>Keep</strong></font></div></div><div class='respDivL'>Match<p>(e)</div><div class='respDivR'>No Match<p>(i)</div></div></div></div>","i","4","trustrating_stim/white_mw012.bmp,trustrating_stim/white_mw013.bmp,trustrating_stim/white_mw091.bmp,trustrating_stim/white_mw070.bmp","1,0,0,1","Match","e","","trustrating_stim/white_mw038.bmp","green","Share","0"
"html-keyboard-response","49","249964","0.0-7.0-5.2","testing","bdp_wmem","Fri Dec 11 2020 23:01:40 GMT-0500 (Eastern Standard Time)","651228","Match,No Match","","null","","","","FEEDBACK","","<div class='trialBorder'><div class='vertical-center'><div class='trialFBDiv'><div class='trialDiv1'><div class='vertical-center'><img src='img/error.jpg'></div></div><div class='respDivL'>Match<p>(e)</div><div class='respDivR'><font style='color:orange'>No Match<p>(i)</font></div></div></div></div>","null","","","","","","","","","",""
"html-keyboard-response","50","250466","0.0-7.0-1.3","testing","bdp_wmem","Fri Dec 11 2020 23:01:40 GMT-0500 (Eastern Standard Time)","651228","Match,No Match","","null","","","","FIX","","<div class='trialBorder'><div class='vertical-center'><img src='img/fixation2_sml.jpg'</img></div></div>","null","","","","","","","","","",""
"html-keyboard-response","51","254467","0.0-7.0-2.3","testing","bdp_wmem","Fri Dec 11 2020 23:01:40 GMT-0500 (Eastern Standard Time)","651228","Match,No Match","","null","","","","ARRAY","","<div class='trialBorder'><div class='vertical-center'><div class='trialDiv4'><div class='vertical-center'><img style='vertical-align:center; align:center' src='img/fixation2_sml.jpg'></div><div class='tl'><div class='vertical-center'><img class='introPic' src='trustrating_stim/white_mw040.bmp'><br><font color='green'><strong>Share</strong></font></div></div><div class='tr'><div class='vertical-center'><img class='introPic' src='trustrating_stim/white_mw013.bmp'><br><font color='red'><strong>Keep</strong></font></div></div><div class='bl'><div class='vertical-center'><img class='introPic' src='trustrating_stim/white_mw015.bmp'><br><font color='green'><strong>Share</strong></font></div></div><div class='br'><div class='vertical-center'><img class='introPic' src='trustrating_stim/white_mw091.bmp'><br><font color='red'><strong>Keep</strong></font></div></div></div></div></div>","null","4","trustrating_stim/white_mw040.bmp,trustrating_stim/white_mw013.bmp,trustrating_stim/white_mw015.bmp,trustrating_stim/white_mw091.bmp","1,0,1,0","noMatchFace","i","4000","","","",""
"html-keyboard-response","52","258469","0.0-7.0-3.3","testing","bdp_wmem","Fri Dec 11 2020 23:01:40 GMT-0500 (Eastern Standard Time)","651228","Match,No Match","","null","","","","DELAY","","<div class='trialBorder'><div class='vertical-center'><img src='img/fixation2_sml.jpg'</img></div></div>","null","","","","","","","","","",""
"html-keyboard-response","53","260182","0.0-7.0-4.3","testing","bdp_wmem","Fri Dec 11 2020 23:01:40 GMT-0500 (Eastern Standard Time)","651228","Match,No Match","","1713","","","","TARGET","","<div class='trialBorder'><div class='vertical-center'><div class='trialFBDiv'><div class='trialDiv1'><div class='vertical-center'><img class='introPic' src='trustrating_stim/white_mw012.bmp'><br><font color='red'><strong>Keep</strong></font></div></div><div class='respDivL'>Match<p>(e)</div><div class='respDivR'>No Match<p>(i)</div></div></div></div>","e","4","trustrating_stim/white_mw040.bmp,trustrating_stim/white_mw013.bmp,trustrating_stim/white_mw015.bmp,trustrating_stim/white_mw091.bmp","1,0,1,0","noMatchFace","i","","trustrating_stim/white_mw038.bmp","green","Share","0"
"html-keyboard-response","54","260684","0.0-7.0-5.3","testing","bdp_wmem","Fri Dec 11 2020 23:01:40 GMT-0500 (Eastern Standard Time)","651228","Match,No Match","","null","","","","FEEDBACK","","<div class='trialBorder'><div class='vertical-center'><div class='trialFBDiv'><div class='trialDiv1'><div class='vertical-center'><img src='img/error.jpg'></div></div><div class='respDivL'><font style='color:orange'>Match<p>(e)</font></div><div class='respDivR'>No Match<p>(i)</div></div></div></div>","null","","","","","","","","","",""
"html-keyboard-response","55","261184","0.0-7.0-1.4","testing","bdp_wmem","Fri Dec 11 2020 23:01:40 GMT-0500 (Eastern Standard Time)","651228","Match,No Match","","null","","","","FIX","","<div class='trialBorder'><div class='vertical-center'><img src='img/fixation2_sml.jpg'</img></div></div>","null","","","","","","","","","",""
"html-keyboard-response","56","265186","0.0-7.0-2.4","testing","bdp_wmem","Fri Dec 11 2020 23:01:40 GMT-0500 (Eastern Standard Time)","651228","Match,No Match","","null","","","","ARRAY","","<div class='trialBorder'><div class='vertical-center'><div class='trialDiv4'><div class='vertical-center'><img style='vertical-align:center; align:center' src='img/fixation2_sml.jpg'></div><div class='tl'><div class='vertical-center'><img class='introPic' src='trustrating_stim/white_mw092.bmp'><br><font color='red'><strong>Keep</strong></font></div></div><div class='tr'><div class='vertical-center'><img class='introPic' src='trustrating_stim/white_mw033.bmp'><br><font color='green'><strong>Share</strong></font></div></div><div class='bl'><div class='vertical-center'><img class='introPic' src='trustrating_stim/white_mw013.bmp'><br><font color='red'><strong>Keep</strong></font></div></div><div class='br'><div class='vertical-center'><img class='introPic' src='trustrating_stim/white_mw040.bmp'><br><font color='green'><strong>Share</strong></font></div></div></div></div></div>","null","4","trustrating_stim/white_mw092.bmp,trustrating_stim/white_mw033.bmp,trustrating_stim/white_mw013.bmp,trustrating_stim/white_mw040.bmp","0,1,0,1","noMatchFace","i","4000","","","",""
"html-keyboard-response","57","269187","0.0-7.0-3.4","testing","bdp_wmem","Fri Dec 11 2020 23:01:40 GMT-0500 (Eastern Standard Time)","651228","Match,No Match","","null","","","","DELAY","","<div class='trialBorder'><div class='vertical-center'><img src='img/fixation2_sml.jpg'</img></div></div>","null","","","","","","","","","",""
"html-keyboard-response","58","270937","0.0-7.0-4.4","testing","bdp_wmem","Fri Dec 11 2020 23:01:40 GMT-0500 (Eastern Standard Time)","651228","Match,No Match","","1749","","","","TARGET","","<div class='trialBorder'><div class='vertical-center'><div class='trialFBDiv'><div class='trialDiv1'><div class='vertical-center'><img class='introPic' src='trustrating_stim/white_mw003.bmp'><br><font color='red'><strong>Keep</strong></font></div></div><div class='respDivL'>Match<p>(e)</div><div class='respDivR'>No Match<p>(i)</div></div></div></div>","i","4","trustrating_stim/white_mw092.bmp,trustrating_stim/white_mw033.bmp,trustrating_stim/white_mw013.bmp,trustrating_stim/white_mw040.bmp","0,1,0,1","noMatchFace","i","","trustrating_stim/white_mw038.bmp","green","Share","1"
"html-keyboard-response","59","271439","0.0-7.0-5.4","testing","bdp_wmem","Fri Dec 11 2020 23:01:40 GMT-0500 (Eastern Standard Time)","651228","Match,No Match","","null","","","","FEEDBACK","","<div class='trialBorder'><div class='vertical-center'><div class='trialFBDiv'><div class='trialDiv1'><div class='vertical-center'><img src='img/correct.jpg'></div></div><div class='respDivL'>Match<p>(e)</div><div class='respDivR'><font style='color:orange'>No Match<p>(i)</font></div></div></div></div>","null","","","","","","","","","",""
"html-keyboard-response","60","271940","0.0-7.0-1.5","testing","bdp_wmem","Fri Dec 11 2020 23:01:40 GMT-0500 (Eastern Standard Time)","651228","Match,No Match","","null","","","","FIX","","<div class='trialBorder'><div class='vertical-center'><img src='img/fixation2_sml.jpg'</img></div></div>","null","","","","","","","","","",""
"html-keyboard-response","61","275941","0.0-7.0-2.5","testing","bdp_wmem","Fri Dec 11 2020 23:01:40 GMT-0500 (Eastern Standard Time)","651228","Match,No Match","","null","","","","ARRAY","","<div class='trialBorder'><div class='vertical-center'><div class='trialDiv4'><div class='vertical-center'><img style='vertical-align:center; align:center' src='img/fixation2_sml.jpg'></div><div class='tl'><div class='vertical-center'><img class='introPic' src='trustrating_stim/white_mw033.bmp'><br><font color='green'><strong>Share</strong></font></div></div><div class='tr'><div class='vertical-center'><img class='introPic' src='trustrating_stim/white_mw013.bmp'><br><font color='green'><strong>Share</strong></font></div></div><div class='bl'><div class='vertical-center'><img class='introPic' src='trustrating_stim/white_mw091.bmp'><br><font color='red'><strong>Keep</strong></font></div></div><div class='br'><div class='vertical-center'><img class='introPic' src='trustrating_stim/white_00807_941205_fb_edt.bmp'><br><font color='red'><strong>Keep</strong></font></div></div></div></div></div>","null","4","trustrating_stim/white_mw033.bmp,trustrating_stim/white_mw013.bmp,trustrating_stim/white_mw091.bmp,trustrating_stim/white_00807_941205_fb_edt.bmp","1,1,0,0","Match","e","4000","","","",""
"html-keyboard-response","62","279943","0.0-7.0-3.5","testing","bdp_wmem","Fri Dec 11 2020 23:01:40 GMT-0500 (Eastern Standard Time)","651228","Match,No Match","","null","","","","DELAY","","<div class='trialBorder'><div class='vertical-center'><img src='img/fixation2_sml.jpg'</img></div></div>","null","","","","","","","","","",""
"html-keyboard-response","63","281898","0.0-7.0-4.5","testing","bdp_wmem","Fri Dec 11 2020 23:01:40 GMT-0500 (Eastern Standard Time)","651228","Match,No Match","","1954","","","","TARGET","","<div class='trialBorder'><div class='vertical-center'><div class='trialFBDiv'><div class='trialDiv1'><div class='vertical-center'><img class='introPic' src='trustrating_stim/white_mw033.bmp'><br><font color='green'><strong>Share</strong></font></div></div><div class='respDivL'>Match<p>(e)</div><div class='respDivR'>No Match<p>(i)</div></div></div></div>","e","4","trustrating_stim/white_mw033.bmp,trustrating_stim/white_mw013.bmp,trustrating_stim/white_mw091.bmp,trustrating_stim/white_00807_941205_fb_edt.bmp","1,1,0,0","Match","e","","trustrating_stim/white_mw038.bmp","green","Share","1"
"html-keyboard-response","64","282399","0.0-7.0-5.5","testing","bdp_wmem","Fri Dec 11 2020 23:01:40 GMT-0500 (Eastern Standard Time)","651228","Match,No Match","","null","","","","FEEDBACK","","<div class='trialBorder'><div class='vertical-center'><div class='trialFBDiv'><div class='trialDiv1'><div class='vertical-center'><img src='img/correct.jpg'></div></div><div class='respDivL'><font style='color:orange'>Match<p>(e)</font></div><div class='respDivR'>No Match<p>(i)</div></div></div></div>","null","","","","","","","","","",""
"html-keyboard-response","65","282900","0.0-7.0-1.6","testing","bdp_wmem","Fri Dec 11 2020 23:01:40 GMT-0500 (Eastern Standard Time)","651228","Match,No Match","","null","","","","FIX","","<div class='trialBorder'><div class='vertical-center'><img src='img/fixation2_sml.jpg'</img></div></div>","null","","","","","","","","","",""
"html-keyboard-response","66","284901","0.0-7.0-2.6","testing","bdp_wmem","Fri Dec 11 2020 23:01:40 GMT-0500 (Eastern Standard Time)","651228","Match,No Match","","null","","","","ARRAY","","<div class='trialBorder'><div class='vertical-center'><div class='trialDiv2'><div class='vertical-center'><img style='vertical-align:center; align:center' src='img/fixation2_sml.jpg'></div><div class='tc'><div class='vertical-center'><img class='introPic' src='trustrating_stim/white_mw091.bmp'><br><font color='green'><strong>Share</strong></font></div></div><div class='bc'><div class='vertical-center'><img class='introPic' src='trustrating_stim/white_mw070.bmp'><br><font color='red'><strong>Keep</strong></font></div></div></div></div></div>","null","2","trustrating_stim/white_mw091.bmp,trustrating_stim/white_mw070.bmp","1,0","Match","e","2000","","","",""
"html-keyboard-response","67","288902","0.0-7.0-3.6","testing","bdp_wmem","Fri Dec 11 2020 23:01:40 GMT-0500 (Eastern Standard Time)","651228","Match,No Match","","null","","","","DELAY","","<div class='trialBorder'><div class='vertical-center'><img src='img/fixation2_sml.jpg'</img></div></div>","null","","","","","","","","","",""
"html-keyboard-response","68","290954","0.0-7.0-4.6","testing","bdp_wmem","Fri Dec 11 2020 23:01:40 GMT-0500 (Eastern Standard Time)","651228","Match,No Match","","2050","","","","TARGET","","<div class='trialBorder'><div class='vertical-center'><div class='trialFBDiv'><div class='trialDiv1'><div class='vertical-center'><img class='introPic' src='trustrating_stim/white_mw070.bmp'><br><font color='red'><strong>Keep</strong></font></div></div><div class='respDivL'>Match<p>(e)</div><div class='respDivR'>No Match<p>(i)</div></div></div></div>","e","2","trustrating_stim/white_mw091.bmp,trustrating_stim/white_mw070.bmp","1,0","Match","e","","trustrating_stim/white_mw038.bmp","green","Share","1"
"html-keyboard-response","69","291455","0.0-7.0-5.6","testing","bdp_wmem","Fri Dec 11 2020 23:01:40 GMT-0500 (Eastern Standard Time)","651228","Match,No Match","","null","","","","FEEDBACK","","<div class='trialBorder'><div class='vertical-center'><div class='trialFBDiv'><div class='trialDiv1'><div class='vertical-center'><img src='img/correct.jpg'></div></div><div class='respDivL'><font style='color:orange'>Match<p>(e)</font></div><div class='respDivR'>No Match<p>(i)</div></div></div></div>","null","","","","","","","","","",""
"html-keyboard-response","70","291956","0.0-7.0-1.7","testing","bdp_wmem","Fri Dec 11 2020 23:01:40 GMT-0500 (Eastern Standard Time)","651228","Match,No Match","","null","","","","FIX","","<div class='trialBorder'><div class='vertical-center'><img src='img/fixation2_sml.jpg'</img></div></div>","null","","","","","","","","","",""
"html-keyboard-response","71","293958","0.0-7.0-2.7","testing","bdp_wmem","Fri Dec 11 2020 23:01:40 GMT-0500 (Eastern Standard Time)","651228","Match,No Match","","null","","","","ARRAY","","<div class='trialBorder'><div class='vertical-center'><div class='trialDiv2'><div class='vertical-center'><img style='vertical-align:center; align:center' src='img/fixation2_sml.jpg'></div><div class='tc'><div class='vertical-center'><img class='introPic' src='trustrating_stim/white_mw070.bmp'><br><font color='green'><strong>Share</strong></font></div></div><div class='bc'><div class='vertical-center'><img class='introPic' src='trustrating_stim/white_mw013.bmp'><br><font color='red'><strong>Keep</strong></font></div></div></div></div></div>","null","2","trustrating_stim/white_mw070.bmp,trustrating_stim/white_mw013.bmp","1,0","noMatchFace","i","2000","","","",""
"html-keyboard-response","72","297959","0.0-7.0-3.7","testing","bdp_wmem","Fri Dec 11 2020 23:01:40 GMT-0500 (Eastern Standard Time)","651228","Match,No Match","","null","","","","DELAY","","<div class='trialBorder'><div class='vertical-center'><img src='img/fixation2_sml.jpg'</img></div></div>","null","","","","","","","","","",""
"html-keyboard-response","73","299131","0.0-7.0-4.7","testing","bdp_wmem","Fri Dec 11 2020 23:01:40 GMT-0500 (Eastern Standard Time)","651228","Match,No Match","","1171","","","","TARGET","","<div class='trialBorder'><div class='vertical-center'><div class='trialFBDiv'><div class='trialDiv1'><div class='vertical-center'><img class='introPic' src='trustrating_stim/white_00807_941205_fb_edt.bmp'><br><font color='red'><strong>Keep</strong></font></div></div><div class='respDivL'>Match<p>(e)</div><div class='respDivR'>No Match<p>(i)</div></div></div></div>","i","2","trustrating_stim/white_mw070.bmp,trustrating_stim/white_mw013.bmp","1,0","noMatchFace","i","","trustrating_stim/white_mw038.bmp","green","Share","1"
"html-keyboard-response","74","299632","0.0-7.0-5.7","testing","bdp_wmem","Fri Dec 11 2020 23:01:40 GMT-0500 (Eastern Standard Time)","651228","Match,No Match","","null","","","","FEEDBACK","","<div class='trialBorder'><div class='vertical-center'><div class='trialFBDiv'><div class='trialDiv1'><div class='vertical-center'><img src='img/correct.jpg'></div></div><div class='respDivL'>Match<p>(e)</div><div class='respDivR'><font style='color:orange'>No Match<p>(i)</font></div></div></div></div>","null","","","","","","","","","",""
"html-keyboard-response","75","300133","0.0-7.0-1.8","testing","bdp_wmem","Fri Dec 11 2020 23:01:40 GMT-0500 (Eastern Standard Time)","651228","Match,No Match","","null","","","","FIX","","<div class='trialBorder'><div class='vertical-center'><img src='img/fixation2_sml.jpg'</img></div></div>","null","","","","","","","","","",""
"html-keyboard-response","76","302134","0.0-7.0-2.8","testing","bdp_wmem","Fri Dec 11 2020 23:01:40 GMT-0500 (Eastern Standard Time)","651228","Match,No Match","","null","","","","ARRAY","","<div class='trialBorder'><div class='vertical-center'><div class='trialDiv4'><div class='vertical-center'><img style='vertical-align:center; align:center' src='img/fixation2_sml.jpg'></div><div class='tc'><div class='vertical-center'><img class='introPic' src='trustrating_stim/white_mw040.bmp'><br><font color='green'><strong>Share</strong></font></div></div><div class='bl'><div class='vertical-center'><img class='introPic' src='trustrating_stim/white_mw091.bmp'><br><font color='red'><strong>Keep</strong></font></div></div><div class='br'><div class='vertical-center'><img class='introPic' src='trustrating_stim/white_mw003.bmp'><br><font color='green'><strong>Share</strong></font></div></div></div></div></div>","null","3","trustrating_stim/white_mw040.bmp,trustrating_stim/white_mw091.bmp,trustrating_stim/white_mw003.bmp","1,0,1","Match","e","2000","","","",""
"html-keyboard-response","77","306136","0.0-7.0-3.8","testing","bdp_wmem","Fri Dec 11 2020 23:01:40 GMT-0500 (Eastern Standard Time)","651228","Match,No Match","","null","","","","DELAY","","<div class='trialBorder'><div class='vertical-center'><img src='img/fixation2_sml.jpg'</img></div></div>","null","","","","","","","","","",""
"html-keyboard-response","78","307825","0.0-7.0-4.8","testing","bdp_wmem","Fri Dec 11 2020 23:01:40 GMT-0500 (Eastern Standard Time)","651228","Match,No Match","","1689","","","","TARGET","","<div class='trialBorder'><div class='vertical-center'><div class='trialFBDiv'><div class='trialDiv1'><div class='vertical-center'><img class='introPic' src='trustrating_stim/white_mw091.bmp'><br><font color='red'><strong>Keep</strong></font></div></div><div class='respDivL'>Match<p>(e)</div><div class='respDivR'>No Match<p>(i)</div></div></div></div>","i","3","trustrating_stim/white_mw040.bmp,trustrating_stim/white_mw091.bmp,trustrating_stim/white_mw003.bmp","1,0,1","Match","e","","trustrating_stim/white_mw038.bmp","green","Share","0"
"html-keyboard-response","79","308326","0.0-7.0-5.8","testing","bdp_wmem","Fri Dec 11 2020 23:01:40 GMT-0500 (Eastern Standard Time)","651228","Match,No Match","","null","","","","FEEDBACK","","<div class='trialBorder'><div class='vertical-center'><div class='trialFBDiv'><div class='trialDiv1'><div class='vertical-center'><img src='img/error.jpg'></div></div><div class='respDivL'>Match<p>(e)</div><div class='respDivR'><font style='color:orange'>No Match<p>(i)</font></div></div></div></div>","null","","","","","","","","","",""
"html-keyboard-response","80","308828","0.0-7.0-1.9","testing","bdp_wmem","Fri Dec 11 2020 23:01:40 GMT-0500 (Eastern Standard Time)","651228","Match,No Match","","null","","","","FIX","","<div class='trialBorder'><div class='vertical-center'><img src='img/fixation2_sml.jpg'</img></div></div>","null","","","","","","","","","",""
"html-keyboard-response","81","310829","0.0-7.0-2.9","testing","bdp_wmem","Fri Dec 11 2020 23:01:40 GMT-0500 (Eastern Standard Time)","651228","Match,No Match","","null","","","","ARRAY","","<div class='trialBorder'><div class='vertical-center'><div class='trialDiv4'><div class='vertical-center'><img style='vertical-align:center; align:center' src='img/fixation2_sml.jpg'></div><div class='tc'><div class='vertical-center'><img class='introPic' src='trustrating_stim/white_00807_941205_fb_edt.bmp'><br><font color='red'><strong>Keep</strong></font></div></div><div class='bl'><div class='vertical-center'><img class='introPic' src='trustrating_stim/white_mw015.bmp'><br><font color='red'><strong>Keep</strong></font></div></div><div class='br'><div class='vertical-center'><img class='introPic' src='trustrating_stim/white_mw070.bmp'><br><font color='green'><strong>Share</strong></font></div></div></div></div></div>","null","3","trustrating_stim/white_00807_941205_fb_edt.bmp,trustrating_stim/white_mw015.bmp,trustrating_stim/white_mw070.bmp","0,0,1","noMatchFace","i","2000","","","",""
"html-keyboard-response","82","314830","0.0-7.0-3.9","testing","bdp_wmem","Fri Dec 11 2020 23:01:40 GMT-0500 (Eastern Standard Time)","651228","Match,No Match","","null","","","","DELAY","","<div class='trialBorder'><div class='vertical-center'><img src='img/fixation2_sml.jpg'</img></div></div>","null","","","","","","","","","",""
"html-keyboard-response","83","316544","0.0-7.0-4.9","testing","bdp_wmem","Fri Dec 11 2020 23:01:40 GMT-0500 (Eastern Standard Time)","651228","Match,No Match","","1712","","","","TARGET","","<div class='trialBorder'><div class='vertical-center'><div class='trialFBDiv'><div class='trialDiv1'><div class='vertical-center'><img class='introPic' src='trustrating_stim/white_mw013.bmp'><br><font color='red'><strong>Keep</strong></font></div></div><div class='respDivL'>Match<p>(e)</div><div class='respDivR'>No Match<p>(i)</div></div></div></div>","i","3","trustrating_stim/white_00807_941205_fb_edt.bmp,trustrating_stim/white_mw015.bmp,trustrating_stim/white_mw070.bmp","0,0,1","noMatchFace","i","","trustrating_stim/white_mw038.bmp","green","Share","1"
"html-keyboard-response","84","317045","0.0-7.0-5.9","testing","bdp_wmem","Fri Dec 11 2020 23:01:40 GMT-0500 (Eastern Standard Time)","651228","Match,No Match","","null","","","","FEEDBACK","","<div class='trialBorder'><div class='vertical-center'><div class='trialFBDiv'><div class='trialDiv1'><div class='vertical-center'><img src='img/correct.jpg'></div></div><div class='respDivL'>Match<p>(e)</div><div class='respDivR'><font style='color:orange'>No Match<p>(i)</font></div></div></div></div>","null","","","","","","","","","",""
"html-keyboard-response","85","317546","0.0-7.0-1.10","testing","bdp_wmem","Fri Dec 11 2020 23:01:40 GMT-0500 (Eastern Standard Time)","651228","Match,No Match","","null","","","","FIX","","<div class='trialBorder'><div class='vertical-center'><img src='img/fixation2_sml.jpg'</img></div></div>","null","","","","","","","","","",""
"html-keyboard-response","86","319548","0.0-7.0-2.10","testing","bdp_wmem","Fri Dec 11 2020 23:01:40 GMT-0500 (Eastern Standard Time)","651228","Match,No Match","","null","","","","ARRAY","","<div class='trialBorder'><div class='vertical-center'><div class='trialDiv4'><div class='vertical-center'><img style='vertical-align:center; align:center' src='img/fixation2_sml.jpg'></div><div class='tc'><div class='vertical-center'><img class='introPic' src='trustrating_stim/white_mw040.bmp'><br><font color='red'><strong>Keep</strong></font></div></div><div class='bl'><div class='vertical-center'><img class='introPic' src='trustrating_stim/white_mw091.bmp'><br><font color='green'><strong>Share</strong></font></div></div><div class='br'><div class='vertical-center'><img class='introPic' src='trustrating_stim/white_00050_931230_fa_edt.bmp'><br><font color='red'><strong>Keep</strong></font></div></div></div></div></div>","null","3","trustrating_stim/white_mw040.bmp,trustrating_stim/white_mw091.bmp,trustrating_stim/white_00050_931230_fa_edt.bmp","0,1,0","Match","e","2000","","","",""
"html-keyboard-response","87","323551","0.0-7.0-3.10","testing","bdp_wmem","Fri Dec 11 2020 23:01:40 GMT-0500 (Eastern Standard Time)","651228","Match,No Match","","null","","","","DELAY","","<div class='trialBorder'><div class='vertical-center'><img src='img/fixation2_sml.jpg'</img></div></div>","null","","","","","","","","","",""
"html-keyboard-response","88","325205","0.0-7.0-4.10","testing","bdp_wmem","Fri Dec 11 2020 23:01:40 GMT-0500 (Eastern Standard Time)","651228","Match,No Match","","1654","","","","TARGET","","<div class='trialBorder'><div class='vertical-center'><div class='trialFBDiv'><div class='trialDiv1'><div class='vertical-center'><img class='introPic' src='trustrating_stim/white_mw091.bmp'><br><font color='green'><strong>Share</strong></font></div></div><div class='respDivL'>Match<p>(e)</div><div class='respDivR'>No Match<p>(i)</div></div></div></div>","e","3","trustrating_stim/white_mw040.bmp,trustrating_stim/white_mw091.bmp,trustrating_stim/white_00050_931230_fa_edt.bmp","0,1,0","Match","e","","trustrating_stim/white_mw038.bmp","green","Share","1"
"html-keyboard-response","89","325706","0.0-7.0-5.10","testing","bdp_wmem","Fri Dec 11 2020 23:01:40 GMT-0500 (Eastern Standard Time)","651228","Match,No Match","","null","","","","FEEDBACK","","<div class='trialBorder'><div class='vertical-center'><div class='trialFBDiv'><div class='trialDiv1'><div class='vertical-center'><img src='img/correct.jpg'></div></div><div class='respDivL'><font style='color:orange'>Match<p>(e)</font></div><div class='respDivR'>No Match<p>(i)</div></div></div></div>","null","","","","","","","","","",""
"html-keyboard-response","90","326207","0.0-7.0-1.11","testing","bdp_wmem","Fri Dec 11 2020 23:01:40 GMT-0500 (Eastern Standard Time)","651228","Match,No Match","","null","","","","FIX","","<div class='trialBorder'><div class='vertical-center'><img src='img/fixation2_sml.jpg'</img></div></div>","null","","","","","","","","","",""
"html-keyboard-response","91","328209","0.0-7.0-2.11","testing","bdp_wmem","Fri Dec 11 2020 23:01:40 GMT-0500 (Eastern Standard Time)","651228","Match,No Match","","null","","","","ARRAY","","<div class='trialBorder'><div class='vertical-center'><div class='trialDiv2'><div class='vertical-center'><img style='vertical-align:center; align:center' src='img/fixation2_sml.jpg'></div><div class='tc'><div class='vertical-center'><img class='introPic' src='trustrating_stim/white_mw070.bmp'><br><font color='green'><strong>Share</strong></font></div></div><div class='bc'><div class='vertical-center'><img class='introPic' src='trustrating_stim/white_mw038.bmp'><br><font color='red'><strong>Keep</strong></font></div></div></div></div></div>","null","2","trustrating_stim/white_mw070.bmp,trustrating_stim/white_mw038.bmp","1,0","Match","e","2000","","","",""
"html-keyboard-response","92","332210","0.0-7.0-3.11","testing","bdp_wmem","Fri Dec 11 2020 23:01:40 GMT-0500 (Eastern Standard Time)","651228","Match,No Match","","null","","","","DELAY","","<div class='trialBorder'><div class='vertical-center'><img src='img/fixation2_sml.jpg'</img></div></div>","null","","","","","","","","","",""
"html-keyboard-response","93","333472","0.0-7.0-4.11","testing","bdp_wmem","Fri Dec 11 2020 23:01:40 GMT-0500 (Eastern Standard Time)","651228","Match,No Match","","1261","","","","TARGET","","<div class='trialBorder'><div class='vertical-center'><div class='trialFBDiv'><div class='trialDiv1'><div class='vertical-center'><img class='introPic' src='trustrating_stim/white_mw070.bmp'><br><font color='green'><strong>Share</strong></font></div></div><div class='respDivL'>Match<p>(e)</div><div class='respDivR'>No Match<p>(i)</div></div></div></div>","i","2","trustrating_stim/white_mw070.bmp,trustrating_stim/white_mw038.bmp","1,0","Match","e","","trustrating_stim/white_mw038.bmp","green","Share","0"
"html-keyboard-response","94","333973","0.0-7.0-5.11","testing","bdp_wmem","Fri Dec 11 2020 23:01:40 GMT-0500 (Eastern Standard Time)","651228","Match,No Match","","null","","","","FEEDBACK","","<div class='trialBorder'><div class='vertical-center'><div class='trialFBDiv'><div class='trialDiv1'><div class='vertical-center'><img src='img/error.jpg'></div></div><div class='respDivL'>Match<p>(e)</div><div class='respDivR'><font style='color:orange'>No Match<p>(i)</font></div></div></div></div>","null","","","","","","","","","",""
"html-keyboard-response","95","334475","0.0-7.0-1.12","testing","bdp_wmem","Fri Dec 11 2020 23:01:40 GMT-0500 (Eastern Standard Time)","651228","Match,No Match","","null","","","","FIX","","<div class='trialBorder'><div class='vertical-center'><img src='img/fixation2_sml.jpg'</img></div></div>","null","","","","","","","","","",""
"html-keyboard-response","96","338476","0.0-7.0-2.12","testing","bdp_wmem","Fri Dec 11 2020 23:01:40 GMT-0500 (Eastern Standard Time)","651228","Match,No Match","","null","","","","ARRAY","","<div class='trialBorder'><div class='vertical-center'><div class='trialDiv4'><div class='vertical-center'><img style='vertical-align:center; align:center' src='img/fixation2_sml.jpg'></div><div class='tl'><div class='vertical-center'><img class='introPic' src='trustrating_stim/white_mw013.bmp'><br><font color='green'><strong>Share</strong></font></div></div><div class='tr'><div class='vertical-center'><img class='introPic' src='trustrating_stim/white_mw092.bmp'><br><font color='green'><strong>Share</strong></font></div></div><div class='bl'><div class='vertical-center'><img class='introPic' src='trustrating_stim/white_mw033.bmp'><br><font color='red'><strong>Keep</strong></font></div></div><div class='br'><div class='vertical-center'><img class='introPic' src='trustrating_stim/white_mw070.bmp'><br><font color='red'><strong>Keep</strong></font></div></div></div></div></div>","null","4","trustrating_stim/white_mw013.bmp,trustrating_stim/white_mw092.bmp,trustrating_stim/white_mw033.bmp,trustrating_stim/white_mw070.bmp","1,1,0,0","Match","e","4000","","","",""
"html-keyboard-response","97","342478","0.0-7.0-3.12","testing","bdp_wmem","Fri Dec 11 2020 23:01:40 GMT-0500 (Eastern Standard Time)","651228","Match,No Match","","null","","","","DELAY","","<div class='trialBorder'><div class='vertical-center'><img src='img/fixation2_sml.jpg'</img></div></div>","null","","","","","","","","","",""
"html-keyboard-response","98","343656","0.0-7.0-4.12","testing","bdp_wmem","Fri Dec 11 2020 23:01:40 GMT-0500 (Eastern Standard Time)","651228","Match,No Match","","1177","","","","TARGET","","<div class='trialBorder'><div class='vertical-center'><div class='trialFBDiv'><div class='trialDiv1'><div class='vertical-center'><img class='introPic' src='trustrating_stim/white_mw033.bmp'><br><font color='red'><strong>Keep</strong></font></div></div><div class='respDivL'>Match<p>(e)</div><div class='respDivR'>No Match<p>(i)</div></div></div></div>","i","4","trustrating_stim/white_mw013.bmp,trustrating_stim/white_mw092.bmp,trustrating_stim/white_mw033.bmp,trustrating_stim/white_mw070.bmp","1,1,0,0","Match","e","","trustrating_stim/white_mw038.bmp","green","Share","0"
"html-keyboard-response","99","344157","0.0-7.0-5.12","testing","bdp_wmem","Fri Dec 11 2020 23:01:40 GMT-0500 (Eastern Standard Time)","651228","Match,No Match","","null","","","","FEEDBACK","","<div class='trialBorder'><div class='vertical-center'><div class='trialFBDiv'><div class='trialDiv1'><div class='vertical-center'><img src='img/error.jpg'></div></div><div class='respDivL'>Match<p>(e)</div><div class='respDivR'><font style='color:orange'>No Match<p>(i)</font></div></div></div></div>","null","","","","","","","","","",""
"html-keyboard-response","100","344659","0.0-7.0-1.13","testing","bdp_wmem","Fri Dec 11 2020 23:01:40 GMT-0500 (Eastern Standard Time)","651228","Match,No Match","","null","","","","FIX","","<div class='trialBorder'><div class='vertical-center'><img src='img/fixation2_sml.jpg'</img></div></div>","null","","","","","","","","","",""
"html-keyboard-response","101","346660","0.0-7.0-2.13","testing","bdp_wmem","Fri Dec 11 2020 23:01:40 GMT-0500 (Eastern Standard Time)","651228","Match,No Match","","null","","","","ARRAY","","<div class='trialBorder'><div class='vertical-center'><div class='trialDiv4'><div class='vertical-center'><img style='vertical-align:center; align:center' src='img/fixation2_sml.jpg'></div><div class='tc'><div class='vertical-center'><img class='introPic' src='trustrating_stim/white_mw015.bmp'><br><font color='green'><strong>Share</strong></font></div></div><div class='bl'><div class='vertical-center'><img class='introPic' src='trustrating_stim/white_mw038.bmp'><br><font color='red'><strong>Keep</strong></font></div></div><div class='br'><div class='vertical-center'><img class='introPic' src='trustrating_stim/white_mw092.bmp'><br><font color='red'><strong>Keep</strong></font></div></div></div></div></div>","null","3","trustrating_stim/white_mw015.bmp,trustrating_stim/white_mw038.bmp,trustrating_stim/white_mw092.bmp","1,0,0","noMatchFace","i","2000","","","",""
"html-keyboard-response","102","350662","0.0-7.0-3.13","testing","bdp_wmem","Fri Dec 11 2020 23:01:40 GMT-0500 (Eastern Standard Time)","651228","Match,No Match","","null","","","","DELAY","","<div class='trialBorder'><div class='vertical-center'><img src='img/fixation2_sml.jpg'</img></div></div>","null","","","","","","","","","",""
"html-keyboard-response","103","351671","0.0-7.0-4.13","testing","bdp_wmem","Fri Dec 11 2020 23:01:40 GMT-0500 (Eastern Standard Time)","651228","Match,No Match","","1009","","","","TARGET","","<div class='trialBorder'><div class='vertical-center'><div class='trialFBDiv'><div class='trialDiv1'><div class='vertical-center'><img class='introPic' src='trustrating_stim/white_00807_941205_fb_edt.bmp'><br><font color='red'><strong>Keep</strong></font></div></div><div class='respDivL'>Match<p>(e)</div><div class='respDivR'>No Match<p>(i)</div></div></div></div>","i","3","trustrating_stim/white_mw015.bmp,trustrating_stim/white_mw038.bmp,trustrating_stim/white_mw092.bmp","1,0,0","noMatchFace","i","","trustrating_stim/white_mw038.bmp","green","Share","1"
"html-keyboard-response","104","352171","0.0-7.0-5.13","testing","bdp_wmem","Fri Dec 11 2020 23:01:40 GMT-0500 (Eastern Standard Time)","651228","Match,No Match","","null","","","","FEEDBACK","","<div class='trialBorder'><div class='vertical-center'><div class='trialFBDiv'><div class='trialDiv1'><div class='vertical-center'><img src='img/correct.jpg'></div></div><div class='respDivL'>Match<p>(e)</div><div class='respDivR'><font style='color:orange'>No Match<p>(i)</font></div></div></div></div>","null","","","","","","","","","",""
"html-keyboard-response","105","352672","0.0-7.0-1.14","testing","bdp_wmem","Fri Dec 11 2020 23:01:40 GMT-0500 (Eastern Standard Time)","651228","Match,No Match","","null","","","","FIX","","<div class='trialBorder'><div class='vertical-center'><img src='img/fixation2_sml.jpg'</img></div></div>","null","","","","","","","","","",""
"html-keyboard-response","106","356674","0.0-7.0-2.14","testing","bdp_wmem","Fri Dec 11 2020 23:01:40 GMT-0500 (Eastern Standard Time)","651228","Match,No Match","","null","","","","ARRAY","","<div class='trialBorder'><div class='vertical-center'><div class='trialDiv4'><div class='vertical-center'><img style='vertical-align:center; align:center' src='img/fixation2_sml.jpg'></div><div class='tl'><div class='vertical-center'><img class='introPic' src='trustrating_stim/white_mw013.bmp'><br><font color='green'><strong>Share</strong></font></div></div><div class='tr'><div class='vertical-center'><img class='introPic' src='trustrating_stim/white_mw003.bmp'><br><font color='green'><strong>Share</strong></font></div></div><div class='bl'><div class='vertical-center'><img class='introPic' src='trustrating_stim/white_mw070.bmp'><br><font color='red'><strong>Keep</strong></font></div></div><div class='br'><div class='vertical-center'><img class='introPic' src='trustrating_stim/white_mw033.bmp'><br><font color='red'><strong>Keep</strong></font></div></div></div></div></div>","null","4","trustrating_stim/white_mw013.bmp,trustrating_stim/white_mw003.bmp,trustrating_stim/white_mw070.bmp,trustrating_stim/white_mw033.bmp","1,1,0,0","noMatchOutcome","i","4000","","","",""
"html-keyboard-response","107","360675","0.0-7.0-3.14","testing","bdp_wmem","Fri Dec 11 2020 23:01:40 GMT-0500 (Eastern Standard Time)","651228","Match,No Match","","null","","","","DELAY","","<div class='trialBorder'><div class='vertical-center'><img src='img/fixation2_sml.jpg'</img></div></div>","null","","","","","","","","","",""
"html-keyboard-response","108","361932","0.0-7.0-4.14","testing","bdp_wmem","Fri Dec 11 2020 23:01:40 GMT-0500 (Eastern Standard Time)","651228","Match,No Match","","1256","","","","TARGET","","<div class='trialBorder'><div class='vertical-center'><div class='trialFBDiv'><div class='trialDiv1'><div class='vertical-center'><img class='introPic' src='trustrating_stim/white_mw013.bmp'><br><font color='red'><strong>Keep</strong></font></div></div><div class='respDivL'>Match<p>(e)</div><div class='respDivR'>No Match<p>(i)</div></div></div></div>","i","4","trustrating_stim/white_mw013.bmp,trustrating_stim/white_mw003.bmp,trustrating_stim/white_mw070.bmp,trustrating_stim/white_mw033.bmp","1,1,0,0","noMatchOutcome","i","","trustrating_stim/white_mw038.bmp","green","Share","1"
"html-keyboard-response","109","362433","0.0-7.0-5.14","testing","bdp_wmem","Fri Dec 11 2020 23:01:40 GMT-0500 (Eastern Standard Time)","651228","Match,No Match","","null","","","","FEEDBACK","","<div class='trialBorder'><div class='vertical-center'><div class='trialFBDiv'><div class='trialDiv1'><div class='vertical-center'><img src='img/correct.jpg'></div></div><div class='respDivL'>Match<p>(e)</div><div class='respDivR'><font style='color:orange'>No Match<p>(i)</font></div></div></div></div>","null","","","","","","","","","",""
"html-keyboard-response","110","362934","0.0-7.0-1.15","testing","bdp_wmem","Fri Dec 11 2020 23:01:40 GMT-0500 (Eastern Standard Time)","651228","Match,No Match","","null","","","","FIX","","<div class='trialBorder'><div class='vertical-center'><img src='img/fixation2_sml.jpg'</img></div></div>","null","","","","","","","","","",""
"html-keyboard-response","111","366936","0.0-7.0-2.15","testing","bdp_wmem","Fri Dec 11 2020 23:01:40 GMT-0500 (Eastern Standard Time)","651228","Match,No Match","","null","","","","ARRAY","","<div class='trialBorder'><div class='vertical-center'><div class='trialDiv4'><div class='vertical-center'><img style='vertical-align:center; align:center' src='img/fixation2_sml.jpg'></div><div class='tl'><div class='vertical-center'><img class='introPic' src='trustrating_stim/white_mw038.bmp'><br><font color='red'><strong>Keep</strong></font></div></div><div class='tr'><div class='vertical-center'><img class='introPic' src='trustrating_stim/white_mw033.bmp'><br><font color='red'><strong>Keep</strong></font></div></div><div class='bl'><div class='vertical-center'><img class='introPic' src='trustrating_stim/white_00807_941205_fb_edt.bmp'><br><font color='green'><strong>Share</strong></font></div></div><div class='br'><div class='vertical-center'><img class='introPic' src='trustrating_stim/white_mw012.bmp'><br><font color='green'><strong>Share</strong></font></div></div></div></div></div>","null","4","trustrating_stim/white_mw038.bmp,trustrating_stim/white_mw033.bmp,trustrating_stim/white_00807_941205_fb_edt.bmp,trustrating_stim/white_mw012.bmp","0,0,1,1","noMatchOutcome","i","4000","","","",""
"html-keyboard-response","112","370937","0.0-7.0-3.15","testing","bdp_wmem","Fri Dec 11 2020 23:01:40 GMT-0500 (Eastern Standard Time)","651228","Match,No Match","","null","","","","DELAY","","<div class='trialBorder'><div class='vertical-center'><img src='img/fixation2_sml.jpg'</img></div></div>","null","","","","","","","","","",""
"html-keyboard-response","113","372318","0.0-7.0-4.15","testing","bdp_wmem","Fri Dec 11 2020 23:01:40 GMT-0500 (Eastern Standard Time)","651228","Match,No Match","","1381","","","","TARGET","","<div class='trialBorder'><div class='vertical-center'><div class='trialFBDiv'><div class='trialDiv1'><div class='vertical-center'><img class='introPic' src='trustrating_stim/white_mw038.bmp'><br><font color='green'><strong>Share</strong></font></div></div><div class='respDivL'>Match<p>(e)</div><div class='respDivR'>No Match<p>(i)</div></div></div></div>","i","4","trustrating_stim/white_mw038.bmp,trustrating_stim/white_mw033.bmp,trustrating_stim/white_00807_941205_fb_edt.bmp,trustrating_stim/white_mw012.bmp","0,0,1,1","noMatchOutcome","i","","trustrating_stim/white_mw038.bmp","green","Share","1"
"html-keyboard-response","114","372819","0.0-7.0-5.15","testing","bdp_wmem","Fri Dec 11 2020 23:01:40 GMT-0500 (Eastern Standard Time)","651228","Match,No Match","","null","","","","FEEDBACK","","<div class='trialBorder'><div class='vertical-center'><div class='trialFBDiv'><div class='trialDiv1'><div class='vertical-center'><img src='img/correct.jpg'></div></div><div class='respDivL'>Match<p>(e)</div><div class='respDivR'><font style='color:orange'>No Match<p>(i)</font></div></div></div></div>","null","","","","","","","","","",""
"html-keyboard-response","115","373320","0.0-7.0-1.16","testing","bdp_wmem","Fri Dec 11 2020 23:01:40 GMT-0500 (Eastern Standard Time)","651228","Match,No Match","","null","","","","FIX","","<div class='trialBorder'><div class='vertical-center'><img src='img/fixation2_sml.jpg'</img></div></div>","null","","","","","","","","","",""
"html-keyboard-response","116","375323","0.0-7.0-2.16","testing","bdp_wmem","Fri Dec 11 2020 23:01:40 GMT-0500 (Eastern Standard Time)","651228","Match,No Match","","null","","","","ARRAY","","<div class='trialBorder'><div class='vertical-center'><div class='trialDiv2'><div class='vertical-center'><img style='vertical-align:center; align:center' src='img/fixation2_sml.jpg'></div><div class='tc'><div class='vertical-center'><img class='introPic' src='trustrating_stim/white_mw003.bmp'><br><font color='red'><strong>Keep</strong></font></div></div><div class='bc'><div class='vertical-center'><img class='introPic' src='trustrating_stim/white_mw070.bmp'><br><font color='green'><strong>Share</strong></font></div></div></div></div></div>","null","2","trustrating_stim/white_mw003.bmp,trustrating_stim/white_mw070.bmp","0,1","noMatchFace","i","2000","","","",""
"html-keyboard-response","117","379324","0.0-7.0-3.16","testing","bdp_wmem","Fri Dec 11 2020 23:01:40 GMT-0500 (Eastern Standard Time)","651228","Match,No Match","","null","","","","DELAY","","<div class='trialBorder'><div class='vertical-center'><img src='img/fixation2_sml.jpg'</img></div></div>","null","","","","","","","","","",""
"html-keyboard-response","118","380901","0.0-7.0-4.16","testing","bdp_wmem","Fri Dec 11 2020 23:01:40 GMT-0500 (Eastern Standard Time)","651228","Match,No Match","","1576","","","","TARGET","","<div class='trialBorder'><div class='vertical-center'><div class='trialFBDiv'><div class='trialDiv1'><div class='vertical-center'><img class='introPic' src='trustrating_stim/white_00807_941205_fb_edt.bmp'><br><font color='green'><strong>Share</strong></font></div></div><div class='respDivL'>Match<p>(e)</div><div class='respDivR'>No Match<p>(i)</div></div></div></div>","i","2","trustrating_stim/white_mw003.bmp,trustrating_stim/white_mw070.bmp","0,1","noMatchFace","i","","trustrating_stim/white_mw038.bmp","green","Share","1"
"html-keyboard-response","119","381402","0.0-7.0-5.16","testing","bdp_wmem","Fri Dec 11 2020 23:01:40 GMT-0500 (Eastern Standard Time)","651228","Match,No Match","","null","","","","FEEDBACK","","<div class='trialBorder'><div class='vertical-center'><div class='trialFBDiv'><div class='trialDiv1'><div class='vertical-center'><img src='img/correct.jpg'></div></div><div class='respDivL'>Match<p>(e)</div><div class='respDivR'><font style='color:orange'>No Match<p>(i)</font></div></div></div></div>","null","","","","","","","","","",""
"html-keyboard-response","120","381904","0.0-7.0-1.17","testing","bdp_wmem","Fri Dec 11 2020 23:01:40 GMT-0500 (Eastern Standard Time)","651228","Match,No Match","","null","","","","FIX","","<div class='trialBorder'><div class='vertical-center'><img src='img/fixation2_sml.jpg'</img></div></div>","null","","","","","","","","","",""
"html-keyboard-response","121","383905","0.0-7.0-2.17","testing","bdp_wmem","Fri Dec 11 2020 23:01:40 GMT-0500 (Eastern Standard Time)","651228","Match,No Match","","null","","","","ARRAY","","<div class='trialBorder'><div class='vertical-center'><div class='trialDiv4'><div class='vertical-center'><img style='vertical-align:center; align:center' src='img/fixation2_sml.jpg'></div><div class='tc'><div class='vertical-center'><img class='introPic' src='trustrating_stim/white_mw013.bmp'><br><font color='green'><strong>Share</strong></font></div></div><div class='bl'><div class='vertical-center'><img class='introPic' src='trustrating_stim/white_mw003.bmp'><br><font color='red'><strong>Keep</strong></font></div></div><div class='br'><div class='vertical-center'><img class='introPic' src='trustrating_stim/white_mw033.bmp'><br><font color='green'><strong>Share</strong></font></div></div></div></div></div>","null","3","trustrating_stim/white_mw013.bmp,trustrating_stim/white_mw003.bmp,trustrating_stim/white_mw033.bmp","1,0,1","noMatchFace","i","2000","","","",""
"html-keyboard-response","122","387905","0.0-7.0-3.17","testing","bdp_wmem","Fri Dec 11 2020 23:01:40 GMT-0500 (Eastern Standard Time)","651228","Match,No Match","","null","","","","DELAY","","<div class='trialBorder'><div class='vertical-center'><img src='img/fixation2_sml.jpg'</img></div></div>","null","","","","","","","","","",""
"html-keyboard-response","123","389136","0.0-7.0-4.17","testing","bdp_wmem","Fri Dec 11 2020 23:01:40 GMT-0500 (Eastern Standard Time)","651228","Match,No Match","","1230","","","","TARGET","","<div class='trialBorder'><div class='vertical-center'><div class='trialFBDiv'><div class='trialDiv1'><div class='vertical-center'><img class='introPic' src='trustrating_stim/white_mw091.bmp'><br><font color='green'><strong>Share</strong></font></div></div><div class='respDivL'>Match<p>(e)</div><div class='respDivR'>No Match<p>(i)</div></div></div></div>","i","3","trustrating_stim/white_mw013.bmp,trustrating_stim/white_mw003.bmp,trustrating_stim/white_mw033.bmp","1,0,1","noMatchFace","i","","trustrating_stim/white_mw038.bmp","green","Share","1"
"html-keyboard-response","124","389637","0.0-7.0-5.17","testing","bdp_wmem","Fri Dec 11 2020 23:01:40 GMT-0500 (Eastern Standard Time)","651228","Match,No Match","","null","","","","FEEDBACK","","<div class='trialBorder'><div class='vertical-center'><div class='trialFBDiv'><div class='trialDiv1'><div class='vertical-center'><img src='img/correct.jpg'></div></div><div class='respDivL'>Match<p>(e)</div><div class='respDivR'><font style='color:orange'>No Match<p>(i)</font></div></div></div></div>","null","","","","","","","","","",""
"html-keyboard-response","125","390138","0.0-7.0-1.18","testing","bdp_wmem","Fri Dec 11 2020 23:01:40 GMT-0500 (Eastern Standard Time)","651228","Match,No Match","","null","","","","FIX","","<div class='trialBorder'><div class='vertical-center'><img src='img/fixation2_sml.jpg'</img></div></div>","null","","","","","","","","","",""
"html-keyboard-response","126","394139","0.0-7.0-2.18","testing","bdp_wmem","Fri Dec 11 2020 23:01:40 GMT-0500 (Eastern Standard Time)","651228","Match,No Match","","null","","","","ARRAY","","<div class='trialBorder'><div class='vertical-center'><div class='trialDiv4'><div class='vertical-center'><img style='vertical-align:center; align:center' src='img/fixation2_sml.jpg'></div><div class='tl'><div class='vertical-center'><img class='introPic' src='trustrating_stim/white_mw012.bmp'><br><font color='green'><strong>Share</strong></font></div></div><div class='tr'><div class='vertical-center'><img class='introPic' src='trustrating_stim/white_mw091.bmp'><br><font color='red'><strong>Keep</strong></font></div></div><div class='bl'><div class='vertical-center'><img class='introPic' src='trustrating_stim/white_mw003.bmp'><br><font color='red'><strong>Keep</strong></font></div></div><div class='br'><div class='vertical-center'><img class='introPic' src='trustrating_stim/white_mw015.bmp'><br><font color='green'><strong>Share</strong></font></div></div></div></div></div>","null","4","trustrating_stim/white_mw012.bmp,trustrating_stim/white_mw091.bmp,trustrating_stim/white_mw003.bmp,trustrating_stim/white_mw015.bmp","1,0,0,1","noMatchOutcome","i","4000","","","",""
"html-keyboard-response","127","398141","0.0-7.0-3.18","testing","bdp_wmem","Fri Dec 11 2020 23:01:40 GMT-0500 (Eastern Standard Time)","651228","Match,No Match","","null","","","","DELAY","","<div class='trialBorder'><div class='vertical-center'><img src='img/fixation2_sml.jpg'</img></div></div>","null","","","","","","","","","",""
"html-keyboard-response","128","399211","0.0-7.0-4.18","testing","bdp_wmem","Fri Dec 11 2020 23:01:40 GMT-0500 (Eastern Standard Time)","651228","Match,No Match","","1070","","","","TARGET","","<div class='trialBorder'><div class='vertical-center'><div class='trialFBDiv'><div class='trialDiv1'><div class='vertical-center'><img class='introPic' src='trustrating_stim/white_mw015.bmp'><br><font color='red'><strong>Keep</strong></font></div></div><div class='respDivL'>Match<p>(e)</div><div class='respDivR'>No Match<p>(i)</div></div></div></div>","i","4","trustrating_stim/white_mw012.bmp,trustrating_stim/white_mw091.bmp,trustrating_stim/white_mw003.bmp,trustrating_stim/white_mw015.bmp","1,0,0,1","noMatchOutcome","i","","trustrating_stim/white_mw038.bmp","green","Share","1"
"html-keyboard-response","129","399712","0.0-7.0-5.18","testing","bdp_wmem","Fri Dec 11 2020 23:01:40 GMT-0500 (Eastern Standard Time)","651228","Match,No Match","","null","","","","FEEDBACK","","<div class='trialBorder'><div class='vertical-center'><div class='trialFBDiv'><div class='trialDiv1'><div class='vertical-center'><img src='img/correct.jpg'></div></div><div class='respDivL'>Match<p>(e)</div><div class='respDivR'><font style='color:orange'>No Match<p>(i)</font></div></div></div></div>","null","","","","","","","","","",""
"html-keyboard-response","130","400213","0.0-7.0-1.19","testing","bdp_wmem","Fri Dec 11 2020 23:01:40 GMT-0500 (Eastern Standard Time)","651228","Match,No Match","","null","","","","FIX","","<div class='trialBorder'><div class='vertical-center'><img src='img/fixation2_sml.jpg'</img></div></div>","null","","","","","","","","","",""
"html-keyboard-response","131","404214","0.0-7.0-2.19","testing","bdp_wmem","Fri Dec 11 2020 23:01:40 GMT-0500 (Eastern Standard Time)","651228","Match,No Match","","null","","","","ARRAY","","<div class='trialBorder'><div class='vertical-center'><div class='trialDiv4'><div class='vertical-center'><img style='vertical-align:center; align:center' src='img/fixation2_sml.jpg'></div><div class='tl'><div class='vertical-center'><img class='introPic' src='trustrating_stim/white_00050_931230_fa_edt.bmp'><br><font color='green'><strong>Share</strong></font></div></div><div class='tr'><div class='vertical-center'><img class='introPic' src='trustrating_stim/white_00807_941205_fb_edt.bmp'><br><font color='red'><strong>Keep</strong></font></div></div><div class='bl'><div class='vertical-center'><img class='introPic' src='trustrating_stim/white_mw091.bmp'><br><font color='green'><strong>Share</strong></font></div></div><div class='br'><div class='vertical-center'><img class='introPic' src='trustrating_stim/white_mw040.bmp'><br><font color='red'><strong>Keep</strong></font></div></div></div></div></div>","null","4","trustrating_stim/white_00050_931230_fa_edt.bmp,trustrating_stim/white_00807_941205_fb_edt.bmp,trustrating_stim/white_mw091.bmp,trustrating_stim/white_mw040.bmp","1,0,1,0","Match","e","4000","","","",""
"html-keyboard-response","132","408215","0.0-7.0-3.19","testing","bdp_wmem","Fri Dec 11 2020 23:01:40 GMT-0500 (Eastern Standard Time)","651228","Match,No Match","","null","","","","DELAY","","<div class='trialBorder'><div class='vertical-center'><img src='img/fixation2_sml.jpg'</img></div></div>","null","","","","","","","","","",""
"html-keyboard-response","133","409887","0.0-7.0-4.19","testing","bdp_wmem","Fri Dec 11 2020 23:01:40 GMT-0500 (Eastern Standard Time)","651228","Match,No Match","","1671","","","","TARGET","","<div class='trialBorder'><div class='vertical-center'><div class='trialFBDiv'><div class='trialDiv1'><div class='vertical-center'><img class='introPic' src='trustrating_stim/white_mw091.bmp'><br><font color='green'><strong>Share</strong></font></div></div><div class='respDivL'>Match<p>(e)</div><div class='respDivR'>No Match<p>(i)</div></div></div></div>","i","4","trustrating_stim/white_00050_931230_fa_edt.bmp,trustrating_stim/white_00807_941205_fb_edt.bmp,trustrating_stim/white_mw091.bmp,trustrating_stim/white_mw040.bmp","1,0,1,0","Match","e","","trustrating_stim/white_mw038.bmp","green","Share","0"
"html-keyboard-response","134","410388","0.0-7.0-5.19","testing","bdp_wmem","Fri Dec 11 2020 23:01:40 GMT-0500 (Eastern Standard Time)","651228","Match,No Match","","null","","","","FEEDBACK","","<div class='trialBorder'><div class='vertical-center'><div class='trialFBDiv'><div class='trialDiv1'><div class='vertical-center'><img src='img/error.jpg'></div></div><div class='respDivL'>Match<p>(e)</div><div class='respDivR'><font style='color:orange'>No Match<p>(i)</font></div></div></div></div>","null","","","","","","","","","",""
"html-keyboard-response","135","410890","0.0-7.0-1.20","testing","bdp_wmem","Fri Dec 11 2020 23:01:40 GMT-0500 (Eastern Standard Time)","651228","Match,No Match","","null","","","","FIX","","<div class='trialBorder'><div class='vertical-center'><img src='img/fixation2_sml.jpg'</img></div></div>","null","","","","","","","","","",""
"html-keyboard-response","136","412892","0.0-7.0-2.20","testing","bdp_wmem","Fri Dec 11 2020 23:01:40 GMT-0500 (Eastern Standard Time)","651228","Match,No Match","","null","","","","ARRAY","","<div class='trialBorder'><div class='vertical-center'><div class='trialDiv4'><div class='vertical-center'><img style='vertical-align:center; align:center' src='img/fixation2_sml.jpg'></div><div class='tc'><div class='vertical-center'><img class='introPic' src='trustrating_stim/white_mw091.bmp'><br><font color='red'><strong>Keep</strong></font></div></div><div class='bl'><div class='vertical-center'><img class='introPic' src='trustrating_stim/white_00807_941205_fb_edt.bmp'><br><font color='red'><strong>Keep</strong></font></div></div><div class='br'><div class='vertical-center'><img class='introPic' src='trustrating_stim/white_mw070.bmp'><br><font color='green'><strong>Share</strong></font></div></div></div></div></div>","null","3","trustrating_stim/white_mw091.bmp,trustrating_stim/white_00807_941205_fb_edt.bmp,trustrating_stim/white_mw070.bmp","0,0,1","Match","e","2000","","","",""
"html-keyboard-response","137","416893","0.0-7.0-3.20","testing","bdp_wmem","Fri Dec 11 2020 23:01:40 GMT-0500 (Eastern Standard Time)","651228","Match,No Match","","null","","","","DELAY","","<div class='trialBorder'><div class='vertical-center'><img src='img/fixation2_sml.jpg'</img></div></div>","null","","","","","","","","","",""
"html-keyboard-response","138","417924","0.0-7.0-4.20","testing","bdp_wmem","Fri Dec 11 2020 23:01:40 GMT-0500 (Eastern Standard Time)","651228","Match,No Match","","1030","","","","TARGET","","<div class='trialBorder'><div class='vertical-center'><div class='trialFBDiv'><div class='trialDiv1'><div class='vertical-center'><img class='introPic' src='trustrating_stim/white_00807_941205_fb_edt.bmp'><br><font color='red'><strong>Keep</strong></font></div></div><div class='respDivL'>Match<p>(e)</div><div class='respDivR'>No Match<p>(i)</div></div></div></div>","i","3","trustrating_stim/white_mw091.bmp,trustrating_stim/white_00807_941205_fb_edt.bmp,trustrating_stim/white_mw070.bmp","0,0,1","Match","e","","trustrating_stim/white_mw038.bmp","green","Share","0"
"html-keyboard-response","139","418425","0.0-7.0-5.20","testing","bdp_wmem","Fri Dec 11 2020 23:01:40 GMT-0500 (Eastern Standard Time)","651228","Match,No Match","","null","","","","FEEDBACK","","<div class='trialBorder'><div class='vertical-center'><div class='trialFBDiv'><div class='trialDiv1'><div class='vertical-center'><img src='img/error.jpg'></div></div><div class='respDivL'>Match<p>(e)</div><div class='respDivR'><font style='color:orange'>No Match<p>(i)</font></div></div></div></div>","null","","","","","","","","","",""
"html-keyboard-response","140","418925","0.0-7.0-1.21","testing","bdp_wmem","Fri Dec 11 2020 23:01:40 GMT-0500 (Eastern Standard Time)","651228","Match,No Match","","null","","","","FIX","","<div class='trialBorder'><div class='vertical-center'><img src='img/fixation2_sml.jpg'</img></div></div>","null","","","","","","","","","",""
"html-keyboard-response","141","420927","0.0-7.0-2.21","testing","bdp_wmem","Fri Dec 11 2020 23:01:40 GMT-0500 (Eastern Standard Time)","651228","Match,No Match","","null","","","","ARRAY","","<div class='trialBorder'><div class='vertical-center'><div class='trialDiv2'><div class='vertical-center'><img style='vertical-align:center; align:center' src='img/fixation2_sml.jpg'></div><div class='tc'><div class='vertical-center'><img class='introPic' src='trustrating_stim/white_mw038.bmp'><br><font color='green'><strong>Share</strong></font></div></div><div class='bc'><div class='vertical-center'><img class='introPic' src='trustrating_stim/white_00807_941205_fb_edt.bmp'><br><font color='red'><strong>Keep</strong></font></div></div></div></div></div>","null","2","trustrating_stim/white_mw038.bmp,trustrating_stim/white_00807_941205_fb_edt.bmp","1,0","Match","e","2000","","","",""
"html-keyboard-response","142","424928","0.0-7.0-3.21","testing","bdp_wmem","Fri Dec 11 2020 23:01:40 GMT-0500 (Eastern Standard Time)","651228","Match,No Match","","null","","","","DELAY","","<div class='trialBorder'><div class='vertical-center'><img src='img/fixation2_sml.jpg'</img></div></div>","null","","","","","","","","","",""
"html-keyboard-response","143","427285","0.0-7.0-4.21","testing","bdp_wmem","Fri Dec 11 2020 23:01:40 GMT-0500 (Eastern Standard Time)","651228","Match,No Match","","2355","","","","TARGET","","<div class='trialBorder'><div class='vertical-center'><div class='trialFBDiv'><div class='trialDiv1'><div class='vertical-center'><img class='introPic' src='trustrating_stim/white_mw038.bmp'><br><font color='green'><strong>Share</strong></font></div></div><div class='respDivL'>Match<p>(e)</div><div class='respDivR'>No Match<p>(i)</div></div></div></div>","e","2","trustrating_stim/white_mw038.bmp,trustrating_stim/white_00807_941205_fb_edt.bmp","1,0","Match","e","","trustrating_stim/white_mw038.bmp","green","Share","1"
"html-keyboard-response","144","427785","0.0-7.0-5.21","testing","bdp_wmem","Fri Dec 11 2020 23:01:40 GMT-0500 (Eastern Standard Time)","651228","Match,No Match","","null","","","","FEEDBACK","","<div class='trialBorder'><div class='vertical-center'><div class='trialFBDiv'><div class='trialDiv1'><div class='vertical-center'><img src='img/correct.jpg'></div></div><div class='respDivL'><font style='color:orange'>Match<p>(e)</font></div><div class='respDivR'>No Match<p>(i)</div></div></div></div>","null","","","","","","","","","",""
"html-keyboard-response","145","428286","0.0-7.0-1.22","testing","bdp_wmem","Fri Dec 11 2020 23:01:40 GMT-0500 (Eastern Standard Time)","651228","Match,No Match","","null","","","","FIX","","<div class='trialBorder'><div class='vertical-center'><img src='img/fixation2_sml.jpg'</img></div></div>","null","","","","","","","","","",""
"html-keyboard-response","146","430288","0.0-7.0-2.22","testing","bdp_wmem","Fri Dec 11 2020 23:01:40 GMT-0500 (Eastern Standard Time)","651228","Match,No Match","","null","","","","ARRAY","","<div class='trialBorder'><div class='vertical-center'><div class='trialDiv2'><div class='vertical-center'><img style='vertical-align:center; align:center' src='img/fixation2_sml.jpg'></div><div class='tc'><div class='vertical-center'><img class='introPic' src='trustrating_stim/white_mw003.bmp'><br><font color='green'><strong>Share</strong></font></div></div><div class='bc'><div class='vertical-center'><img class='introPic' src='trustrating_stim/white_mw040.bmp'><br><font color='red'><strong>Keep</strong></font></div></div></div></div></div>","null","2","trustrating_stim/white_mw003.bmp,trustrating_stim/white_mw040.bmp","1,0","noMatchOutcome","i","2000","","","",""
"html-keyboard-response","147","434289","0.0-7.0-3.22","testing","bdp_wmem","Fri Dec 11 2020 23:01:40 GMT-0500 (Eastern Standard Time)","651228","Match,No Match","","null","","","","DELAY","","<div class='trialBorder'><div class='vertical-center'><img src='img/fixation2_sml.jpg'</img></div></div>","null","","","","","","","","","",""
"html-keyboard-response","148","435620","0.0-7.0-4.22","testing","bdp_wmem","Fri Dec 11 2020 23:01:40 GMT-0500 (Eastern Standard Time)","651228","Match,No Match","","1331","","","","TARGET","","<div class='trialBorder'><div class='vertical-center'><div class='trialFBDiv'><div class='trialDiv1'><div class='vertical-center'><img class='introPic' src='trustrating_stim/white_mw003.bmp'><br><font color='red'><strong>Keep</strong></font></div></div><div class='respDivL'>Match<p>(e)</div><div class='respDivR'>No Match<p>(i)</div></div></div></div>","i","2","trustrating_stim/white_mw003.bmp,trustrating_stim/white_mw040.bmp","1,0","noMatchOutcome","i","","trustrating_stim/white_mw038.bmp","green","Share","1"
"html-keyboard-response","149","436120","0.0-7.0-5.22","testing","bdp_wmem","Fri Dec 11 2020 23:01:40 GMT-0500 (Eastern Standard Time)","651228","Match,No Match","","null","","","","FEEDBACK","","<div class='trialBorder'><div class='vertical-center'><div class='trialFBDiv'><div class='trialDiv1'><div class='vertical-center'><img src='img/correct.jpg'></div></div><div class='respDivL'>Match<p>(e)</div><div class='respDivR'><font style='color:orange'>No Match<p>(i)</font></div></div></div></div>","null","","","","","","","","","",""
"html-keyboard-response","150","436623","0.0-7.0-1.23","testing","bdp_wmem","Fri Dec 11 2020 23:01:40 GMT-0500 (Eastern Standard Time)","651228","Match,No Match","","null","","","","FIX","","<div class='trialBorder'><div class='vertical-center'><img src='img/fixation2_sml.jpg'</img></div></div>","null","","","","","","","","","",""
"html-keyboard-response","151","438624","0.0-7.0-2.23","testing","bdp_wmem","Fri Dec 11 2020 23:01:40 GMT-0500 (Eastern Standard Time)","651228","Match,No Match","","null","","","","ARRAY","","<div class='trialBorder'><div class='vertical-center'><div class='trialDiv4'><div class='vertical-center'><img style='vertical-align:center; align:center' src='img/fixation2_sml.jpg'></div><div class='tc'><div class='vertical-center'><img class='introPic' src='trustrating_stim/white_mw070.bmp'><br><font color='red'><strong>Keep</strong></font></div></div><div class='bl'><div class='vertical-center'><img class='introPic' src='trustrating_stim/white_mw033.bmp'><br><font color='green'><strong>Share</strong></font></div></div><div class='br'><div class='vertical-center'><img class='introPic' src='trustrating_stim/white_mw015.bmp'><br><font color='green'><strong>Share</strong></font></div></div></div></div></div>","null","3","trustrating_stim/white_mw070.bmp,trustrating_stim/white_mw033.bmp,trustrating_stim/white_mw015.bmp","0,1,1","noMatchFace","i","2000","","","",""
"html-keyboard-response","152","442626","0.0-7.0-3.23","testing","bdp_wmem","Fri Dec 11 2020 23:01:40 GMT-0500 (Eastern Standard Time)","651228","Match,No Match","","null","","","","DELAY","","<div class='trialBorder'><div class='vertical-center'><img src='img/fixation2_sml.jpg'</img></div></div>","null","","","","","","","","","",""
"html-keyboard-response","153","443526","0.0-7.0-4.23","testing","bdp_wmem","Fri Dec 11 2020 23:01:40 GMT-0500 (Eastern Standard Time)","651228","Match,No Match","","899","","","","TARGET","","<div class='trialBorder'><div class='vertical-center'><div class='trialFBDiv'><div class='trialDiv1'><div class='vertical-center'><img class='introPic' src='trustrating_stim/white_00807_941205_fb_edt.bmp'><br><font color='green'><strong>Share</strong></font></div></div><div class='respDivL'>Match<p>(e)</div><div class='respDivR'>No Match<p>(i)</div></div></div></div>","i","3","trustrating_stim/white_mw070.bmp,trustrating_stim/white_mw033.bmp,trustrating_stim/white_mw015.bmp","0,1,1","noMatchFace","i","","trustrating_stim/white_mw038.bmp","green","Share","1"
"html-keyboard-response","154","444028","0.0-7.0-5.23","testing","bdp_wmem","Fri Dec 11 2020 23:01:40 GMT-0500 (Eastern Standard Time)","651228","Match,No Match","","null","","","","FEEDBACK","","<div class='trialBorder'><div class='vertical-center'><div class='trialFBDiv'><div class='trialDiv1'><div class='vertical-center'><img src='img/correct.jpg'></div></div><div class='respDivL'>Match<p>(e)</div><div class='respDivR'><font style='color:orange'>No Match<p>(i)</font></div></div></div></div>","null","","","","","","","","","",""
"html-keyboard-response","155","444528","0.0-7.0-1.24","testing","bdp_wmem","Fri Dec 11 2020 23:01:40 GMT-0500 (Eastern Standard Time)","651228","Match,No Match","","null","","","","FIX","","<div class='trialBorder'><div class='vertical-center'><img src='img/fixation2_sml.jpg'</img></div></div>","null","","","","","","","","","",""
"html-keyboard-response","156","446530","0.0-7.0-2.24","testing","bdp_wmem","Fri Dec 11 2020 23:01:40 GMT-0500 (Eastern Standard Time)","651228","Match,No Match","","null","","","","ARRAY","","<div class='trialBorder'><div class='vertical-center'><div class='trialDiv4'><div class='vertical-center'><img style='vertical-align:center; align:center' src='img/fixation2_sml.jpg'></div><div class='tc'><div class='vertical-center'><img class='introPic' src='trustrating_stim/white_mw070.bmp'><br><font color='green'><strong>Share</strong></font></div></div><div class='bl'><div class='vertical-center'><img class='introPic' src='trustrating_stim/white_mw003.bmp'><br><font color='red'><strong>Keep</strong></font></div></div><div class='br'><div class='vertical-center'><img class='introPic' src='trustrating_stim/white_mw015.bmp'><br><font color='red'><strong>Keep</strong></font></div></div></div></div></div>","null","3","trustrating_stim/white_mw070.bmp,trustrating_stim/white_mw003.bmp,trustrating_stim/white_mw015.bmp","1,0,0","Match","e","2000","","","",""
"html-keyboard-response","157","450532","0.0-7.0-3.24","testing","bdp_wmem","Fri Dec 11 2020 23:01:40 GMT-0500 (Eastern Standard Time)","651228","Match,No Match","","null","","","","DELAY","","<div class='trialBorder'><div class='vertical-center'><img src='img/fixation2_sml.jpg'</img></div></div>","null","","","","","","","","","",""
"html-keyboard-response","158","451852","0.0-7.0-4.24","testing","bdp_wmem","Fri Dec 11 2020 23:01:40 GMT-0500 (Eastern Standard Time)","651228","Match,No Match","","1319","","","","TARGET","","<div class='trialBorder'><div class='vertical-center'><div class='trialFBDiv'><div class='trialDiv1'><div class='vertical-center'><img class='introPic' src='trustrating_stim/white_mw003.bmp'><br><font color='red'><strong>Keep</strong></font></div></div><div class='respDivL'>Match<p>(e)</div><div class='respDivR'>No Match<p>(i)</div></div></div></div>","e","3","trustrating_stim/white_mw070.bmp,trustrating_stim/white_mw003.bmp,trustrating_stim/white_mw015.bmp","1,0,0","Match","e","","trustrating_stim/white_mw038.bmp","green","Share","1"
"html-keyboard-response","159","452353","0.0-7.0-5.24","testing","bdp_wmem","Fri Dec 11 2020 23:01:40 GMT-0500 (Eastern Standard Time)","651228","Match,No Match","","null","","","","FEEDBACK","","<div class='trialBorder'><div class='vertical-center'><div class='trialFBDiv'><div class='trialDiv1'><div class='vertical-center'><img src='img/correct.jpg'></div></div><div class='respDivL'><font style='color:orange'>Match<p>(e)</font></div><div class='respDivR'>No Match<p>(i)</div></div></div></div>","null","","","","","","","","","",""
"html-keyboard-response","160","452854","0.0-7.0-1.25","testing","bdp_wmem","Fri Dec 11 2020 23:01:40 GMT-0500 (Eastern Standard Time)","651228","Match,No Match","","null","","","","FIX","","<div class='trialBorder'><div class='vertical-center'><img src='img/fixation2_sml.jpg'</img></div></div>","null","","","","","","","","","",""
"html-keyboard-response","161","454856","0.0-7.0-2.25","testing","bdp_wmem","Fri Dec 11 2020 23:01:40 GMT-0500 (Eastern Standard Time)","651228","Match,No Match","","null","","","","ARRAY","","<div class='trialBorder'><div class='vertical-center'><div class='trialDiv2'><div class='vertical-center'><img style='vertical-align:center; align:center' src='img/fixation2_sml.jpg'></div><div class='tc'><div class='vertical-center'><img class='introPic' src='trustrating_stim/white_mw091.bmp'><br><font color='green'><strong>Share</strong></font></div></div><div class='bc'><div class='vertical-center'><img class='introPic' src='trustrating_stim/white_mw033.bmp'><br><font color='red'><strong>Keep</strong></font></div></div></div></div></div>","null","2","trustrating_stim/white_mw091.bmp,trustrating_stim/white_mw033.bmp","1,0","Match","e","2000","","","",""
"html-keyboard-response","162","458857","0.0-7.0-3.25","testing","bdp_wmem","Fri Dec 11 2020 23:01:40 GMT-0500 (Eastern Standard Time)","651228","Match,No Match","","null","","","","DELAY","","<div class='trialBorder'><div class='vertical-center'><img src='img/fixation2_sml.jpg'</img></div></div>","null","","","","","","","","","",""
"html-keyboard-response","163","459909","0.0-7.0-4.25","testing","bdp_wmem","Fri Dec 11 2020 23:01:40 GMT-0500 (Eastern Standard Time)","651228","Match,No Match","","1051","","","","TARGET","","<div class='trialBorder'><div class='vertical-center'><div class='trialFBDiv'><div class='trialDiv1'><div class='vertical-center'><img class='introPic' src='trustrating_stim/white_mw033.bmp'><br><font color='red'><strong>Keep</strong></font></div></div><div class='respDivL'>Match<p>(e)</div><div class='respDivR'>No Match<p>(i)</div></div></div></div>","i","2","trustrating_stim/white_mw091.bmp,trustrating_stim/white_mw033.bmp","1,0","Match","e","","trustrating_stim/white_mw038.bmp","green","Share","0"
"html-keyboard-response","164","460410","0.0-7.0-5.25","testing","bdp_wmem","Fri Dec 11 2020 23:01:40 GMT-0500 (Eastern Standard Time)","651228","Match,No Match","","null","","","","FEEDBACK","","<div class='trialBorder'><div class='vertical-center'><div class='trialFBDiv'><div class='trialDiv1'><div class='vertical-center'><img src='img/error.jpg'></div></div><div class='respDivL'>Match<p>(e)</div><div class='respDivR'><font style='color:orange'>No Match<p>(i)</font></div></div></div></div>","null","","","","","","","","","",""
"html-keyboard-response","165","460910","0.0-7.0-1.26","testing","bdp_wmem","Fri Dec 11 2020 23:01:40 GMT-0500 (Eastern Standard Time)","651228","Match,No Match","","null","","","","FIX","","<div class='trialBorder'><div class='vertical-center'><img src='img/fixation2_sml.jpg'</img></div></div>","null","","","","","","","","","",""
