"event","trial","time","trialtype","subject_id","task","startTime","totalTime","labels","trial_type","trial_index","time_elapsed","internal_node_id","view_history","rt","success","stimulus","key_press","arraySize","arrayFaces","arrayOutcomes","matchType","corrResp","trial_duration","targFace","targCol","targOutcome","corr"
"focus","0","0","focusevent","testing","bdp_wmem","Sun Dec 13 2020 15:27:36 GMT-0500 (Eastern Standard Time)","692412","Match,No Match","","","","","","","","","","","","","","","","","","",""
"","","","","testing","bdp_wmem","Sun Dec 13 2020 15:27:36 GMT-0500 (Eastern Standard Time)","692412","Match,No Match","pavlovia","0","6","0.0-0.0","","","","","","","","","","","","","","",""
"","","","","testing","bdp_wmem","Sun Dec 13 2020 15:27:36 GMT-0500 (Eastern Standard Time)","692412","Match,No Match","instructions","1","2329","0.0-1.0","[{""page_index"":0,""viewing_time"":2321}]","2321","","","","","","","","","","","","",""
"fullscreenexit","2","7659","fullscreenexit","testing","bdp_wmem","Sun Dec 13 2020 15:27:36 GMT-0500 (Eastern Standard Time)","692412","Match,No Match","","","","","","","","","","","","","","","","","","",""
"","","","","testing","bdp_wmem","Sun Dec 13 2020 15:27:36 GMT-0500 (Eastern Standard Time)","692412","Match,No Match","fullscreen","2","8648","0.0-2.0","","","true","","","","","","","","","","","",""
"","","","fullscreenfail","testing","bdp_wmem","Sun Dec 13 2020 15:27:36 GMT-0500 (Eastern Standard Time)","692412","Match,No Match","image-keyboard-response","3","12380","0.0-3.0-0.0","","3728","","","32","","","","","","","","","",""
"","","","","testing","bdp_wmem","Sun Dec 13 2020 15:27:36 GMT-0500 (Eastern Standard Time)","692412","Match,No Match","instructions","4","173262","0.0-4.0","[{""page_index"":0,""viewing_time"":58643},{""page_index"":1,""viewing_time"":77218},{""page_index"":2,""viewing_time"":10524},{""page_index"":3,""viewing_time"":4256},{""page_index"":4,""viewing_time"":9989}]","160630","","","","","","","","","","","","",""
"","","","FIX","testing","bdp_wmem","Sun Dec 13 2020 15:27:36 GMT-0500 (Eastern Standard Time)","692412","Match,No Match","html-keyboard-response","5","173767","0.0-5.0-1.0","","null","","<div class='trialBorder'><div class='vertical-center'><img src='img/fixation2_sml.jpg'</img></div></div>","null","","","","","","","","","",""
"","","","ARRAY","testing","bdp_wmem","Sun Dec 13 2020 15:27:36 GMT-0500 (Eastern Standard Time)","692412","Match,No Match","html-keyboard-response","6","175777","0.0-5.0-2.0","","null","","<div class='trialBorder'><div class='vertical-center'><div class='trialDiv4'><div class='vertical-center'><img style='vertical-align:center; align:center' src='img/fixation2_sml.jpg'></div><div class='tc'><div class='vertical-center'><img class='introPic' src='trustrating_stim/white_00807_941205_fb_edt.bmp'><br><font color='green'><strong>Share</strong></font></div></div><div class='bl'><div class='vertical-center'><img class='introPic' src='trustrating_stim/white_mw012.bmp'><br><font color='red'><strong>Keep</strong></font></div></div><div class='br'><div class='vertical-center'><img class='introPic' src='trustrating_stim/white_mw013.bmp'><br><font color='green'><strong>Share</strong></font></div></div></div></div></div>","null","3","trustrating_stim/white_00807_941205_fb_edt.bmp,trustrating_stim/white_mw012.bmp,trustrating_stim/white_mw013.bmp","1,0,1","noMatchFace","i","2000","","","",""
"","","","DELAY","testing","bdp_wmem","Sun Dec 13 2020 15:27:36 GMT-0500 (Eastern Standard Time)","692412","Match,No Match","html-keyboard-response","7","179780","0.0-5.0-3.0","","null","","<div class='trialBorder'><div class='vertical-center'><img src='img/fixation2_sml.jpg'</img></div></div>","null","","","","","","","","","",""
"","","","TARGET","testing","bdp_wmem","Sun Dec 13 2020 15:27:36 GMT-0500 (Eastern Standard Time)","692412","Match,No Match","html-keyboard-response","8","181484","0.0-5.0-4.0","","1703","","<div class='trialBorder'><div class='vertical-center'><div class='trialFBDiv'><div class='trialDiv1'><div class='vertical-center'><img class='introPic' src='trustrating_stim/white_mw038.bmp'><br><font color='green'><strong>Share</strong></font></div></div><div class='respDivL'>Match<p>(e)</div><div class='respDivR'>No Match<p>(i)</div></div></div></div>","i","3","trustrating_stim/white_00807_941205_fb_edt.bmp,trustrating_stim/white_mw012.bmp,trustrating_stim/white_mw013.bmp","1,0,1","noMatchFace","i","","trustrating_stim/white_mw015.bmp","red","Keep","1"
"","","","FEEDBACK","testing","bdp_wmem","Sun Dec 13 2020 15:27:36 GMT-0500 (Eastern Standard Time)","692412","Match,No Match","html-keyboard-response","9","181989","0.0-5.0-5.0","","null","","<div class='trialBorder'><div class='vertical-center'><div class='trialFBDiv'><div class='trialDiv1'><div class='vertical-center'><img src='img/correct.jpg'></div></div><div class='respDivL'>Match<p>(e)</div><div class='respDivR'><font style='color:orange'>No Match<p>(i)</font></div></div></div></div>","null","","","","","","","","","",""
"","","","FIX","testing","bdp_wmem","Sun Dec 13 2020 15:27:36 GMT-0500 (Eastern Standard Time)","692412","Match,No Match","html-keyboard-response","10","182493","0.0-5.0-1.1","","null","","<div class='trialBorder'><div class='vertical-center'><img src='img/fixation2_sml.jpg'</img></div></div>","null","","","","","","","","","",""
"","","","ARRAY","testing","bdp_wmem","Sun Dec 13 2020 15:27:36 GMT-0500 (Eastern Standard Time)","692412","Match,No Match","html-keyboard-response","11","186498","0.0-5.0-2.1","","null","","<div class='trialBorder'><div class='vertical-center'><div class='trialDiv4'><div class='vertical-center'><img style='vertical-align:center; align:center' src='img/fixation2_sml.jpg'></div><div class='tl'><div class='vertical-center'><img class='introPic' src='trustrating_stim/white_mw003.bmp'><br><font color='green'><strong>Share</strong></font></div></div><div class='tr'><div class='vertical-center'><img class='introPic' src='trustrating_stim/white_mw092.bmp'><br><font color='red'><strong>Keep</strong></font></div></div><div class='bl'><div class='vertical-center'><img class='introPic' src='trustrating_stim/white_mw040.bmp'><br><font color='red'><strong>Keep</strong></font></div></div><div class='br'><div class='vertical-center'><img class='introPic' src='trustrating_stim/white_mw012.bmp'><br><font color='green'><strong>Share</strong></font></div></div></div></div></div>","null","4","trustrating_stim/white_mw003.bmp,trustrating_stim/white_mw092.bmp,trustrating_stim/white_mw040.bmp,trustrating_stim/white_mw012.bmp","1,0,0,1","noMatchOutcome","i","4000","","","",""
"","","","DELAY","testing","bdp_wmem","Sun Dec 13 2020 15:27:36 GMT-0500 (Eastern Standard Time)","692412","Match,No Match","html-keyboard-response","12","190503","0.0-5.0-3.1","","null","","<div class='trialBorder'><div class='vertical-center'><img src='img/fixation2_sml.jpg'</img></div></div>","null","","","","","","","","","",""
"","","","TARGET","testing","bdp_wmem","Sun Dec 13 2020 15:27:36 GMT-0500 (Eastern Standard Time)","692412","Match,No Match","html-keyboard-response","13","192290","0.0-5.0-4.1","","1786","","<div class='trialBorder'><div class='vertical-center'><div class='trialFBDiv'><div class='trialDiv1'><div class='vertical-center'><img class='introPic' src='trustrating_stim/white_mw003.bmp'><br><font color='red'><strong>Keep</strong></font></div></div><div class='respDivL'>Match<p>(e)</div><div class='respDivR'>No Match<p>(i)</div></div></div></div>","e","4","trustrating_stim/white_mw003.bmp,trustrating_stim/white_mw092.bmp,trustrating_stim/white_mw040.bmp,trustrating_stim/white_mw012.bmp","1,0,0,1","noMatchOutcome","i","","trustrating_stim/white_mw015.bmp","red","Keep","0"
"","","","FEEDBACK","testing","bdp_wmem","Sun Dec 13 2020 15:27:36 GMT-0500 (Eastern Standard Time)","692412","Match,No Match","html-keyboard-response","14","192793","0.0-5.0-5.1","","null","","<div class='trialBorder'><div class='vertical-center'><div class='trialFBDiv'><div class='trialDiv1'><div class='vertical-center'><img src='img/error.jpg'></div></div><div class='respDivL'><font style='color:orange'>Match<p>(e)</font></div><div class='respDivR'>No Match<p>(i)</div></div></div></div>","null","","","","","","","","","",""
"","","","FIX","testing","bdp_wmem","Sun Dec 13 2020 15:27:36 GMT-0500 (Eastern Standard Time)","692412","Match,No Match","html-keyboard-response","15","193300","0.0-5.0-1.2","","null","","<div class='trialBorder'><div class='vertical-center'><img src='img/fixation2_sml.jpg'</img></div></div>","null","","","","","","","","","",""
"","","","ARRAY","testing","bdp_wmem","Sun Dec 13 2020 15:27:36 GMT-0500 (Eastern Standard Time)","692412","Match,No Match","html-keyboard-response","16","195305","0.0-5.0-2.2","","null","","<div class='trialBorder'><div class='vertical-center'><div class='trialDiv2'><div class='vertical-center'><img style='vertical-align:center; align:center' src='img/fixation2_sml.jpg'></div><div class='tc'><div class='vertical-center'><img class='introPic' src='trustrating_stim/white_mw070.bmp'><br><font color='red'><strong>Keep</strong></font></div></div><div class='bc'><div class='vertical-center'><img class='introPic' src='trustrating_stim/white_00050_931230_fa_edt.bmp'><br><font color='green'><strong>Share</strong></font></div></div></div></div></div>","null","2","trustrating_stim/white_mw070.bmp,trustrating_stim/white_00050_931230_fa_edt.bmp","0,1","Match","e","2000","","","",""
"","","","DELAY","testing","bdp_wmem","Sun Dec 13 2020 15:27:36 GMT-0500 (Eastern Standard Time)","692412","Match,No Match","html-keyboard-response","17","199305","0.0-5.0-3.2","","null","","<div class='trialBorder'><div class='vertical-center'><img src='img/fixation2_sml.jpg'</img></div></div>","null","","","","","","","","","",""
"","","","TARGET","testing","bdp_wmem","Sun Dec 13 2020 15:27:36 GMT-0500 (Eastern Standard Time)","692412","Match,No Match","html-keyboard-response","18","200609","0.0-5.0-4.2","","1302","","<div class='trialBorder'><div class='vertical-center'><div class='trialFBDiv'><div class='trialDiv1'><div class='vertical-center'><img class='introPic' src='trustrating_stim/white_mw070.bmp'><br><font color='red'><strong>Keep</strong></font></div></div><div class='respDivL'>Match<p>(e)</div><div class='respDivR'>No Match<p>(i)</div></div></div></div>","e","2","trustrating_stim/white_mw070.bmp,trustrating_stim/white_00050_931230_fa_edt.bmp","0,1","Match","e","","trustrating_stim/white_mw015.bmp","red","Keep","1"
"","","","FEEDBACK","testing","bdp_wmem","Sun Dec 13 2020 15:27:36 GMT-0500 (Eastern Standard Time)","692412","Match,No Match","html-keyboard-response","19","201113","0.0-5.0-5.2","","null","","<div class='trialBorder'><div class='vertical-center'><div class='trialFBDiv'><div class='trialDiv1'><div class='vertical-center'><img src='img/correct.jpg'></div></div><div class='respDivL'><font style='color:orange'>Match<p>(e)</font></div><div class='respDivR'>No Match<p>(i)</div></div></div></div>","null","","","","","","","","","",""
"","","","FIX","testing","bdp_wmem","Sun Dec 13 2020 15:27:36 GMT-0500 (Eastern Standard Time)","692412","Match,No Match","html-keyboard-response","20","201615","0.0-5.0-1.3","","null","","<div class='trialBorder'><div class='vertical-center'><img src='img/fixation2_sml.jpg'</img></div></div>","null","","","","","","","","","",""
"","","","ARRAY","testing","bdp_wmem","Sun Dec 13 2020 15:27:36 GMT-0500 (Eastern Standard Time)","692412","Match,No Match","html-keyboard-response","21","203621","0.0-5.0-2.3","","null","","<div class='trialBorder'><div class='vertical-center'><div class='trialDiv4'><div class='vertical-center'><img style='vertical-align:center; align:center' src='img/fixation2_sml.jpg'></div><div class='tc'><div class='vertical-center'><img class='introPic' src='trustrating_stim/white_mw003.bmp'><br><font color='green'><strong>Share</strong></font></div></div><div class='bl'><div class='vertical-center'><img class='introPic' src='trustrating_stim/white_00807_941205_fb_edt.bmp'><br><font color='red'><strong>Keep</strong></font></div></div><div class='br'><div class='vertical-center'><img class='introPic' src='trustrating_stim/white_mw040.bmp'><br><font color='red'><strong>Keep</strong></font></div></div></div></div></div>","null","3","trustrating_stim/white_mw003.bmp,trustrating_stim/white_00807_941205_fb_edt.bmp,trustrating_stim/white_mw040.bmp","1,0,0","Match","e","2000","","","",""
"","","","DELAY","testing","bdp_wmem","Sun Dec 13 2020 15:27:36 GMT-0500 (Eastern Standard Time)","692412","Match,No Match","html-keyboard-response","22","207622","0.0-5.0-3.3","","null","","<div class='trialBorder'><div class='vertical-center'><img src='img/fixation2_sml.jpg'</img></div></div>","null","","","","","","","","","",""
"","","","TARGET","testing","bdp_wmem","Sun Dec 13 2020 15:27:36 GMT-0500 (Eastern Standard Time)","692412","Match,No Match","html-keyboard-response","23","209428","0.0-5.0-4.3","","1803","","<div class='trialBorder'><div class='vertical-center'><div class='trialFBDiv'><div class='trialDiv1'><div class='vertical-center'><img class='introPic' src='trustrating_stim/white_mw003.bmp'><br><font color='green'><strong>Share</strong></font></div></div><div class='respDivL'>Match<p>(e)</div><div class='respDivR'>No Match<p>(i)</div></div></div></div>","e","3","trustrating_stim/white_mw003.bmp,trustrating_stim/white_00807_941205_fb_edt.bmp,trustrating_stim/white_mw040.bmp","1,0,0","Match","e","","trustrating_stim/white_mw015.bmp","red","Keep","1"
"","","","FEEDBACK","testing","bdp_wmem","Sun Dec 13 2020 15:27:36 GMT-0500 (Eastern Standard Time)","692412","Match,No Match","html-keyboard-response","24","209932","0.0-5.0-5.3","","null","","<div class='trialBorder'><div class='vertical-center'><div class='trialFBDiv'><div class='trialDiv1'><div class='vertical-center'><img src='img/correct.jpg'></div></div><div class='respDivL'><font style='color:orange'>Match<p>(e)</font></div><div class='respDivR'>No Match<p>(i)</div></div></div></div>","null","","","","","","","","","",""
"","","","FIX","testing","bdp_wmem","Sun Dec 13 2020 15:27:36 GMT-0500 (Eastern Standard Time)","692412","Match,No Match","html-keyboard-response","25","210437","0.0-5.0-1.4","","null","","<div class='trialBorder'><div class='vertical-center'><img src='img/fixation2_sml.jpg'</img></div></div>","null","","","","","","","","","",""
"","","","ARRAY","testing","bdp_wmem","Sun Dec 13 2020 15:27:36 GMT-0500 (Eastern Standard Time)","692412","Match,No Match","html-keyboard-response","26","214442","0.0-5.0-2.4","","null","","<div class='trialBorder'><div class='vertical-center'><div class='trialDiv4'><div class='vertical-center'><img style='vertical-align:center; align:center' src='img/fixation2_sml.jpg'></div><div class='tl'><div class='vertical-center'><img class='introPic' src='trustrating_stim/white_mw015.bmp'><br><font color='red'><strong>Keep</strong></font></div></div><div class='tr'><div class='vertical-center'><img class='introPic' src='trustrating_stim/white_mw091.bmp'><br><font color='green'><strong>Share</strong></font></div></div><div class='bl'><div class='vertical-center'><img class='introPic' src='trustrating_stim/white_mw013.bmp'><br><font color='red'><strong>Keep</strong></font></div></div><div class='br'><div class='vertical-center'><img class='introPic' src='trustrating_stim/white_mw033.bmp'><br><font color='green'><strong>Share</strong></font></div></div></div></div></div>","null","4","trustrating_stim/white_mw015.bmp,trustrating_stim/white_mw091.bmp,trustrating_stim/white_mw013.bmp,trustrating_stim/white_mw033.bmp","0,1,0,1","Match","e","4000","","","",""
"","","","DELAY","testing","bdp_wmem","Sun Dec 13 2020 15:27:36 GMT-0500 (Eastern Standard Time)","692412","Match,No Match","html-keyboard-response","27","218448","0.0-5.0-3.4","","null","","<div class='trialBorder'><div class='vertical-center'><img src='img/fixation2_sml.jpg'</img></div></div>","null","","","","","","","","","",""
"","","","TARGET","testing","bdp_wmem","Sun Dec 13 2020 15:27:36 GMT-0500 (Eastern Standard Time)","692412","Match,No Match","html-keyboard-response","28","220118","0.0-5.0-4.4","","1669","","<div class='trialBorder'><div class='vertical-center'><div class='trialFBDiv'><div class='trialDiv1'><div class='vertical-center'><img class='introPic' src='trustrating_stim/white_mw033.bmp'><br><font color='green'><strong>Share</strong></font></div></div><div class='respDivL'>Match<p>(e)</div><div class='respDivR'>No Match<p>(i)</div></div></div></div>","i","4","trustrating_stim/white_mw015.bmp,trustrating_stim/white_mw091.bmp,trustrating_stim/white_mw013.bmp,trustrating_stim/white_mw033.bmp","0,1,0,1","Match","e","","trustrating_stim/white_mw015.bmp","red","Keep","0"
"","","","FEEDBACK","testing","bdp_wmem","Sun Dec 13 2020 15:27:36 GMT-0500 (Eastern Standard Time)","692412","Match,No Match","html-keyboard-response","29","220626","0.0-5.0-5.4","","null","","<div class='trialBorder'><div class='vertical-center'><div class='trialFBDiv'><div class='trialDiv1'><div class='vertical-center'><img src='img/error.jpg'></div></div><div class='respDivL'>Match<p>(e)</div><div class='respDivR'><font style='color:orange'>No Match<p>(i)</font></div></div></div></div>","null","","","","","","","","","",""
"","","","FIX","testing","bdp_wmem","Sun Dec 13 2020 15:27:36 GMT-0500 (Eastern Standard Time)","692412","Match,No Match","html-keyboard-response","30","221127","0.0-5.0-1.5","","null","","<div class='trialBorder'><div class='vertical-center'><img src='img/fixation2_sml.jpg'</img></div></div>","null","","","","","","","","","",""
"","","","ARRAY","testing","bdp_wmem","Sun Dec 13 2020 15:27:36 GMT-0500 (Eastern Standard Time)","692412","Match,No Match","html-keyboard-response","31","223129","0.0-5.0-2.5","","null","","<div class='trialBorder'><div class='vertical-center'><div class='trialDiv2'><div class='vertical-center'><img style='vertical-align:center; align:center' src='img/fixation2_sml.jpg'></div><div class='tc'><div class='vertical-center'><img class='introPic' src='trustrating_stim/white_mw091.bmp'><br><font color='green'><strong>Share</strong></font></div></div><div class='bc'><div class='vertical-center'><img class='introPic' src='trustrating_stim/white_mw040.bmp'><br><font color='red'><strong>Keep</strong></font></div></div></div></div></div>","null","2","trustrating_stim/white_mw091.bmp,trustrating_stim/white_mw040.bmp","1,0","noMatchFace","i","2000","","","",""
"","","","DELAY","testing","bdp_wmem","Sun Dec 13 2020 15:27:36 GMT-0500 (Eastern Standard Time)","692412","Match,No Match","html-keyboard-response","32","227132","0.0-5.0-3.5","","null","","<div class='trialBorder'><div class='vertical-center'><img src='img/fixation2_sml.jpg'</img></div></div>","null","","","","","","","","","",""
"","","","TARGET","testing","bdp_wmem","Sun Dec 13 2020 15:27:36 GMT-0500 (Eastern Standard Time)","692412","Match,No Match","html-keyboard-response","33","228969","0.0-5.0-4.5","","1836","","<div class='trialBorder'><div class='vertical-center'><div class='trialFBDiv'><div class='trialDiv1'><div class='vertical-center'><img class='introPic' src='trustrating_stim/white_mw070.bmp'><br><font color='green'><strong>Share</strong></font></div></div><div class='respDivL'>Match<p>(e)</div><div class='respDivR'>No Match<p>(i)</div></div></div></div>","i","2","trustrating_stim/white_mw091.bmp,trustrating_stim/white_mw040.bmp","1,0","noMatchFace","i","","trustrating_stim/white_mw015.bmp","red","Keep","1"
"","","","FEEDBACK","testing","bdp_wmem","Sun Dec 13 2020 15:27:36 GMT-0500 (Eastern Standard Time)","692412","Match,No Match","html-keyboard-response","34","229471","0.0-5.0-5.5","","null","","<div class='trialBorder'><div class='vertical-center'><div class='trialFBDiv'><div class='trialDiv1'><div class='vertical-center'><img src='img/correct.jpg'></div></div><div class='respDivL'>Match<p>(e)</div><div class='respDivR'><font style='color:orange'>No Match<p>(i)</font></div></div></div></div>","null","","","","","","","","","",""
"","","","","testing","bdp_wmem","Sun Dec 13 2020 15:27:36 GMT-0500 (Eastern Standard Time)","692412","Match,No Match","instructions","35","234607","0.0-6.0","[{""page_index"":0,""viewing_time"":5135}]","5135","","","","","","","","","","","","",""
"","","","FIX","testing","bdp_wmem","Sun Dec 13 2020 15:27:36 GMT-0500 (Eastern Standard Time)","692412","Match,No Match","html-keyboard-response","36","235113","0.0-7.0-1.0","","null","","<div class='trialBorder'><div class='vertical-center'><img src='img/fixation2_sml.jpg'</img></div></div>","null","","","","","","","","","",""
"","","","ARRAY","testing","bdp_wmem","Sun Dec 13 2020 15:27:36 GMT-0500 (Eastern Standard Time)","692412","Match,No Match","html-keyboard-response","37","239115","0.0-7.0-2.0","","null","","<div class='trialBorder'><div class='vertical-center'><div class='trialDiv4'><div class='vertical-center'><img style='vertical-align:center; align:center' src='img/fixation2_sml.jpg'></div><div class='tl'><div class='vertical-center'><img class='introPic' src='trustrating_stim/white_00807_941205_fb_edt.bmp'><br><font color='green'><strong>Share</strong></font></div></div><div class='tr'><div class='vertical-center'><img class='introPic' src='trustrating_stim/white_mw038.bmp'><br><font color='red'><strong>Keep</strong></font></div></div><div class='bl'><div class='vertical-center'><img class='introPic' src='trustrating_stim/white_mw013.bmp'><br><font color='green'><strong>Share</strong></font></div></div><div class='br'><div class='vertical-center'><img class='introPic' src='trustrating_stim/white_mw040.bmp'><br><font color='red'><strong>Keep</strong></font></div></div></div></div></div>","null","4","trustrating_stim/white_00807_941205_fb_edt.bmp,trustrating_stim/white_mw038.bmp,trustrating_stim/white_mw013.bmp,trustrating_stim/white_mw040.bmp","1,0,1,0","Match","e","4000","","","",""
"","","","DELAY","testing","bdp_wmem","Sun Dec 13 2020 15:27:36 GMT-0500 (Eastern Standard Time)","692412","Match,No Match","html-keyboard-response","38","243119","0.0-7.0-3.0","","null","","<div class='trialBorder'><div class='vertical-center'><img src='img/fixation2_sml.jpg'</img></div></div>","null","","","","","","","","","",""
"","","","TARGET","testing","bdp_wmem","Sun Dec 13 2020 15:27:36 GMT-0500 (Eastern Standard Time)","692412","Match,No Match","html-keyboard-response","39","245424","0.0-7.0-4.0","","2303","","<div class='trialBorder'><div class='vertical-center'><div class='trialFBDiv'><div class='trialDiv1'><div class='vertical-center'><img class='introPic' src='trustrating_stim/white_mw040.bmp'><br><font color='red'><strong>Keep</strong></font></div></div><div class='respDivL'>Match<p>(e)</div><div class='respDivR'>No Match<p>(i)</div></div></div></div>","i","4","trustrating_stim/white_00807_941205_fb_edt.bmp,trustrating_stim/white_mw038.bmp,trustrating_stim/white_mw013.bmp,trustrating_stim/white_mw040.bmp","1,0,1,0","Match","e","","trustrating_stim/white_mw015.bmp","red","Keep","0"
"","","","FEEDBACK","testing","bdp_wmem","Sun Dec 13 2020 15:27:36 GMT-0500 (Eastern Standard Time)","692412","Match,No Match","html-keyboard-response","40","245929","0.0-7.0-5.0","","null","","<div class='trialBorder'><div class='vertical-center'><div class='trialFBDiv'><div class='trialDiv1'><div class='vertical-center'><img src='img/error.jpg'></div></div><div class='respDivL'>Match<p>(e)</div><div class='respDivR'><font style='color:orange'>No Match<p>(i)</font></div></div></div></div>","null","","","","","","","","","",""
"","","","FIX","testing","bdp_wmem","Sun Dec 13 2020 15:27:36 GMT-0500 (Eastern Standard Time)","692412","Match,No Match","html-keyboard-response","41","246431","0.0-7.0-1.1","","null","","<div class='trialBorder'><div class='vertical-center'><img src='img/fixation2_sml.jpg'</img></div></div>","null","","","","","","","","","",""
"","","","ARRAY","testing","bdp_wmem","Sun Dec 13 2020 15:27:36 GMT-0500 (Eastern Standard Time)","692412","Match,No Match","html-keyboard-response","42","250433","0.0-7.0-2.1","","null","","<div class='trialBorder'><div class='vertical-center'><div class='trialDiv4'><div class='vertical-center'><img style='vertical-align:center; align:center' src='img/fixation2_sml.jpg'></div><div class='tl'><div class='vertical-center'><img class='introPic' src='trustrating_stim/white_mw033.bmp'><br><font color='green'><strong>Share</strong></font></div></div><div class='tr'><div class='vertical-center'><img class='introPic' src='trustrating_stim/white_mw015.bmp'><br><font color='red'><strong>Keep</strong></font></div></div><div class='bl'><div class='vertical-center'><img class='introPic' src='trustrating_stim/white_mw038.bmp'><br><font color='red'><strong>Keep</strong></font></div></div><div class='br'><div class='vertical-center'><img class='introPic' src='trustrating_stim/white_mw091.bmp'><br><font color='green'><strong>Share</strong></font></div></div></div></div></div>","null","4","trustrating_stim/white_mw033.bmp,trustrating_stim/white_mw015.bmp,trustrating_stim/white_mw038.bmp,trustrating_stim/white_mw091.bmp","1,0,0,1","noMatchFace","i","4000","","","",""
"","","","DELAY","testing","bdp_wmem","Sun Dec 13 2020 15:27:36 GMT-0500 (Eastern Standard Time)","692412","Match,No Match","html-keyboard-response","43","254439","0.0-7.0-3.1","","null","","<div class='trialBorder'><div class='vertical-center'><img src='img/fixation2_sml.jpg'</img></div></div>","null","","","","","","","","","",""
"","","","TARGET","testing","bdp_wmem","Sun Dec 13 2020 15:27:36 GMT-0500 (Eastern Standard Time)","692412","Match,No Match","html-keyboard-response","44","255658","0.0-7.0-4.1","","1218","","<div class='trialBorder'><div class='vertical-center'><div class='trialFBDiv'><div class='trialDiv1'><div class='vertical-center'><img class='introPic' src='trustrating_stim/white_mw070.bmp'><br><font color='green'><strong>Share</strong></font></div></div><div class='respDivL'>Match<p>(e)</div><div class='respDivR'>No Match<p>(i)</div></div></div></div>","i","4","trustrating_stim/white_mw033.bmp,trustrating_stim/white_mw015.bmp,trustrating_stim/white_mw038.bmp,trustrating_stim/white_mw091.bmp","1,0,0,1","noMatchFace","i","","trustrating_stim/white_mw015.bmp","red","Keep","1"
"","","","FEEDBACK","testing","bdp_wmem","Sun Dec 13 2020 15:27:36 GMT-0500 (Eastern Standard Time)","692412","Match,No Match","html-keyboard-response","45","256162","0.0-7.0-5.1","","null","","<div class='trialBorder'><div class='vertical-center'><div class='trialFBDiv'><div class='trialDiv1'><div class='vertical-center'><img src='img/correct.jpg'></div></div><div class='respDivL'>Match<p>(e)</div><div class='respDivR'><font style='color:orange'>No Match<p>(i)</font></div></div></div></div>","null","","","","","","","","","",""
"","","","FIX","testing","bdp_wmem","Sun Dec 13 2020 15:27:36 GMT-0500 (Eastern Standard Time)","692412","Match,No Match","html-keyboard-response","46","256663","0.0-7.0-1.2","","null","","<div class='trialBorder'><div class='vertical-center'><img src='img/fixation2_sml.jpg'</img></div></div>","null","","","","","","","","","",""
"","","","ARRAY","testing","bdp_wmem","Sun Dec 13 2020 15:27:36 GMT-0500 (Eastern Standard Time)","692412","Match,No Match","html-keyboard-response","47","260665","0.0-7.0-2.2","","null","","<div class='trialBorder'><div class='vertical-center'><div class='trialDiv4'><div class='vertical-center'><img style='vertical-align:center; align:center' src='img/fixation2_sml.jpg'></div><div class='tl'><div class='vertical-center'><img class='introPic' src='trustrating_stim/white_00807_941205_fb_edt.bmp'><br><font color='red'><strong>Keep</strong></font></div></div><div class='tr'><div class='vertical-center'><img class='introPic' src='trustrating_stim/white_mw040.bmp'><br><font color='green'><strong>Share</strong></font></div></div><div class='bl'><div class='vertical-center'><img class='introPic' src='trustrating_stim/white_mw038.bmp'><br><font color='red'><strong>Keep</strong></font></div></div><div class='br'><div class='vertical-center'><img class='introPic' src='trustrating_stim/white_00050_931230_fa_edt.bmp'><br><font color='green'><strong>Share</strong></font></div></div></div></div></div>","null","4","trustrating_stim/white_00807_941205_fb_edt.bmp,trustrating_stim/white_mw040.bmp,trustrating_stim/white_mw038.bmp,trustrating_stim/white_00050_931230_fa_edt.bmp","0,1,0,1","Match","e","4000","","","",""
"","","","DELAY","testing","bdp_wmem","Sun Dec 13 2020 15:27:36 GMT-0500 (Eastern Standard Time)","692412","Match,No Match","html-keyboard-response","48","264667","0.0-7.0-3.2","","null","","<div class='trialBorder'><div class='vertical-center'><img src='img/fixation2_sml.jpg'</img></div></div>","null","","","","","","","","","",""
"","","","TARGET","testing","bdp_wmem","Sun Dec 13 2020 15:27:36 GMT-0500 (Eastern Standard Time)","692412","Match,No Match","html-keyboard-response","49","266218","0.0-7.0-4.2","","1550","","<div class='trialBorder'><div class='vertical-center'><div class='trialFBDiv'><div class='trialDiv1'><div class='vertical-center'><img class='introPic' src='trustrating_stim/white_00050_931230_fa_edt.bmp'><br><font color='green'><strong>Share</strong></font></div></div><div class='respDivL'>Match<p>(e)</div><div class='respDivR'>No Match<p>(i)</div></div></div></div>","e","4","trustrating_stim/white_00807_941205_fb_edt.bmp,trustrating_stim/white_mw040.bmp,trustrating_stim/white_mw038.bmp,trustrating_stim/white_00050_931230_fa_edt.bmp","0,1,0,1","Match","e","","trustrating_stim/white_mw015.bmp","red","Keep","1"
"","","","FEEDBACK","testing","bdp_wmem","Sun Dec 13 2020 15:27:36 GMT-0500 (Eastern Standard Time)","692412","Match,No Match","html-keyboard-response","50","266722","0.0-7.0-5.2","","null","","<div class='trialBorder'><div class='vertical-center'><div class='trialFBDiv'><div class='trialDiv1'><div class='vertical-center'><img src='img/correct.jpg'></div></div><div class='respDivL'><font style='color:orange'>Match<p>(e)</font></div><div class='respDivR'>No Match<p>(i)</div></div></div></div>","null","","","","","","","","","",""
"","","","FIX","testing","bdp_wmem","Sun Dec 13 2020 15:27:36 GMT-0500 (Eastern Standard Time)","692412","Match,No Match","html-keyboard-response","51","267223","0.0-7.0-1.3","","null","","<div class='trialBorder'><div class='vertical-center'><img src='img/fixation2_sml.jpg'</img></div></div>","null","","","","","","","","","",""
"","","","ARRAY","testing","bdp_wmem","Sun Dec 13 2020 15:27:36 GMT-0500 (Eastern Standard Time)","692412","Match,No Match","html-keyboard-response","52","269230","0.0-7.0-2.3","","null","","<div class='trialBorder'><div class='vertical-center'><div class='trialDiv4'><div class='vertical-center'><img style='vertical-align:center; align:center' src='img/fixation2_sml.jpg'></div><div class='tc'><div class='vertical-center'><img class='introPic' src='trustrating_stim/white_00807_941205_fb_edt.bmp'><br><font color='green'><strong>Share</strong></font></div></div><div class='bl'><div class='vertical-center'><img class='introPic' src='trustrating_stim/white_mw012.bmp'><br><font color='red'><strong>Keep</strong></font></div></div><div class='br'><div class='vertical-center'><img class='introPic' src='trustrating_stim/white_mw013.bmp'><br><font color='green'><strong>Share</strong></font></div></div></div></div></div>","null","3","trustrating_stim/white_00807_941205_fb_edt.bmp,trustrating_stim/white_mw012.bmp,trustrating_stim/white_mw013.bmp","1,0,1","noMatchFace","i","2000","","","",""
"","","","DELAY","testing","bdp_wmem","Sun Dec 13 2020 15:27:36 GMT-0500 (Eastern Standard Time)","692412","Match,No Match","html-keyboard-response","53","273231","0.0-7.0-3.3","","null","","<div class='trialBorder'><div class='vertical-center'><img src='img/fixation2_sml.jpg'</img></div></div>","null","","","","","","","","","",""
"","","","TARGET","testing","bdp_wmem","Sun Dec 13 2020 15:27:36 GMT-0500 (Eastern Standard Time)","692412","Match,No Match","html-keyboard-response","54","275752","0.0-7.0-4.3","","2521","","<div class='trialBorder'><div class='vertical-center'><div class='trialFBDiv'><div class='trialDiv1'><div class='vertical-center'><img class='introPic' src='trustrating_stim/white_mw038.bmp'><br><font color='green'><strong>Share</strong></font></div></div><div class='respDivL'>Match<p>(e)</div><div class='respDivR'>No Match<p>(i)</div></div></div></div>","i","3","trustrating_stim/white_00807_941205_fb_edt.bmp,trustrating_stim/white_mw012.bmp,trustrating_stim/white_mw013.bmp","1,0,1","noMatchFace","i","","trustrating_stim/white_mw015.bmp","red","Keep","1"
"","","","FEEDBACK","testing","bdp_wmem","Sun Dec 13 2020 15:27:36 GMT-0500 (Eastern Standard Time)","692412","Match,No Match","html-keyboard-response","55","276254","0.0-7.0-5.3","","null","","<div class='trialBorder'><div class='vertical-center'><div class='trialFBDiv'><div class='trialDiv1'><div class='vertical-center'><img src='img/correct.jpg'></div></div><div class='respDivL'>Match<p>(e)</div><div class='respDivR'><font style='color:orange'>No Match<p>(i)</font></div></div></div></div>","null","","","","","","","","","",""
"","","","FIX","testing","bdp_wmem","Sun Dec 13 2020 15:27:36 GMT-0500 (Eastern Standard Time)","692412","Match,No Match","html-keyboard-response","56","276756","0.0-7.0-1.4","","null","","<div class='trialBorder'><div class='vertical-center'><img src='img/fixation2_sml.jpg'</img></div></div>","null","","","","","","","","","",""
"","","","ARRAY","testing","bdp_wmem","Sun Dec 13 2020 15:27:36 GMT-0500 (Eastern Standard Time)","692412","Match,No Match","html-keyboard-response","57","280759","0.0-7.0-2.4","","null","","<div class='trialBorder'><div class='vertical-center'><div class='trialDiv4'><div class='vertical-center'><img style='vertical-align:center; align:center' src='img/fixation2_sml.jpg'></div><div class='tl'><div class='vertical-center'><img class='introPic' src='trustrating_stim/white_mw070.bmp'><br><font color='green'><strong>Share</strong></font></div></div><div class='tr'><div class='vertical-center'><img class='introPic' src='trustrating_stim/white_mw013.bmp'><br><font color='green'><strong>Share</strong></font></div></div><div class='bl'><div class='vertical-center'><img class='introPic' src='trustrating_stim/white_mw092.bmp'><br><font color='red'><strong>Keep</strong></font></div></div><div class='br'><div class='vertical-center'><img class='introPic' src='trustrating_stim/white_00050_931230_fa_edt.bmp'><br><font color='red'><strong>Keep</strong></font></div></div></div></div></div>","null","4","trustrating_stim/white_mw070.bmp,trustrating_stim/white_mw013.bmp,trustrating_stim/white_mw092.bmp,trustrating_stim/white_00050_931230_fa_edt.bmp","1,1,0,0","noMatchOutcome","i","4000","","","",""
"","","","DELAY","testing","bdp_wmem","Sun Dec 13 2020 15:27:36 GMT-0500 (Eastern Standard Time)","692412","Match,No Match","html-keyboard-response","58","284764","0.0-7.0-3.4","","null","","<div class='trialBorder'><div class='vertical-center'><img src='img/fixation2_sml.jpg'</img></div></div>","null","","","","","","","","","",""
"","","","TARGET","testing","bdp_wmem","Sun Dec 13 2020 15:27:36 GMT-0500 (Eastern Standard Time)","692412","Match,No Match","html-keyboard-response","59","287236","0.0-7.0-4.4","","2470","","<div class='trialBorder'><div class='vertical-center'><div class='trialFBDiv'><div class='trialDiv1'><div class='vertical-center'><img class='introPic' src='trustrating_stim/white_mw013.bmp'><br><font color='red'><strong>Keep</strong></font></div></div><div class='respDivL'>Match<p>(e)</div><div class='respDivR'>No Match<p>(i)</div></div></div></div>","e","4","trustrating_stim/white_mw070.bmp,trustrating_stim/white_mw013.bmp,trustrating_stim/white_mw092.bmp,trustrating_stim/white_00050_931230_fa_edt.bmp","1,1,0,0","noMatchOutcome","i","","trustrating_stim/white_mw015.bmp","red","Keep","0"
"","","","FEEDBACK","testing","bdp_wmem","Sun Dec 13 2020 15:27:36 GMT-0500 (Eastern Standard Time)","692412","Match,No Match","html-keyboard-response","60","287743","0.0-7.0-5.4","","null","","<div class='trialBorder'><div class='vertical-center'><div class='trialFBDiv'><div class='trialDiv1'><div class='vertical-center'><img src='img/error.jpg'></div></div><div class='respDivL'><font style='color:orange'>Match<p>(e)</font></div><div class='respDivR'>No Match<p>(i)</div></div></div></div>","null","","","","","","","","","",""
"","","","FIX","testing","bdp_wmem","Sun Dec 13 2020 15:27:36 GMT-0500 (Eastern Standard Time)","692412","Match,No Match","html-keyboard-response","61","288245","0.0-7.0-1.5","","null","","<div class='trialBorder'><div class='vertical-center'><img src='img/fixation2_sml.jpg'</img></div></div>","null","","","","","","","","","",""
"","","","ARRAY","testing","bdp_wmem","Sun Dec 13 2020 15:27:36 GMT-0500 (Eastern Standard Time)","692412","Match,No Match","html-keyboard-response","62","290247","0.0-7.0-2.5","","null","","<div class='trialBorder'><div class='vertical-center'><div class='trialDiv2'><div class='vertical-center'><img style='vertical-align:center; align:center' src='img/fixation2_sml.jpg'></div><div class='tc'><div class='vertical-center'><img class='introPic' src='trustrating_stim/white_mw091.bmp'><br><font color='green'><strong>Share</strong></font></div></div><div class='bc'><div class='vertical-center'><img class='introPic' src='trustrating_stim/white_mw033.bmp'><br><font color='red'><strong>Keep</strong></font></div></div></div></div></div>","null","2","trustrating_stim/white_mw091.bmp,trustrating_stim/white_mw033.bmp","1,0","Match","e","2000","","","",""
"","","","DELAY","testing","bdp_wmem","Sun Dec 13 2020 15:27:36 GMT-0500 (Eastern Standard Time)","692412","Match,No Match","html-keyboard-response","63","294249","0.0-7.0-3.5","","null","","<div class='trialBorder'><div class='vertical-center'><img src='img/fixation2_sml.jpg'</img></div></div>","null","","","","","","","","","",""
"","","","TARGET","testing","bdp_wmem","Sun Dec 13 2020 15:27:36 GMT-0500 (Eastern Standard Time)","692412","Match,No Match","html-keyboard-response","64","297467","0.0-7.0-4.5","","3217","","<div class='trialBorder'><div class='vertical-center'><div class='trialFBDiv'><div class='trialDiv1'><div class='vertical-center'><img class='introPic' src='trustrating_stim/white_mw091.bmp'><br><font color='green'><strong>Share</strong></font></div></div><div class='respDivL'>Match<p>(e)</div><div class='respDivR'>No Match<p>(i)</div></div></div></div>","i","2","trustrating_stim/white_mw091.bmp,trustrating_stim/white_mw033.bmp","1,0","Match","e","","trustrating_stim/white_mw015.bmp","red","Keep","0"
"","","","FEEDBACK","testing","bdp_wmem","Sun Dec 13 2020 15:27:36 GMT-0500 (Eastern Standard Time)","692412","Match,No Match","html-keyboard-response","65","297974","0.0-7.0-5.5","","null","","<div class='trialBorder'><div class='vertical-center'><div class='trialFBDiv'><div class='trialDiv1'><div class='vertical-center'><img src='img/error.jpg'></div></div><div class='respDivL'>Match<p>(e)</div><div class='respDivR'><font style='color:orange'>No Match<p>(i)</font></div></div></div></div>","null","","","","","","","","","",""
"","","","FIX","testing","bdp_wmem","Sun Dec 13 2020 15:27:36 GMT-0500 (Eastern Standard Time)","692412","Match,No Match","html-keyboard-response","66","298475","0.0-7.0-1.6","","null","","<div class='trialBorder'><div class='vertical-center'><img src='img/fixation2_sml.jpg'</img></div></div>","null","","","","","","","","","",""
"","","","ARRAY","testing","bdp_wmem","Sun Dec 13 2020 15:27:36 GMT-0500 (Eastern Standard Time)","692412","Match,No Match","html-keyboard-response","67","300479","0.0-7.0-2.6","","null","","<div class='trialBorder'><div class='vertical-center'><div class='trialDiv2'><div class='vertical-center'><img style='vertical-align:center; align:center' src='img/fixation2_sml.jpg'></div><div class='tc'><div class='vertical-center'><img class='introPic' src='trustrating_stim/white_mw012.bmp'><br><font color='red'><strong>Keep</strong></font></div></div><div class='bc'><div class='vertical-center'><img class='introPic' src='trustrating_stim/white_mw013.bmp'><br><font color='green'><strong>Share</strong></font></div></div></div></div></div>","null","2","trustrating_stim/white_mw012.bmp,trustrating_stim/white_mw013.bmp","0,1","noMatchFace","i","2000","","","",""
"","","","DELAY","testing","bdp_wmem","Sun Dec 13 2020 15:27:36 GMT-0500 (Eastern Standard Time)","692412","Match,No Match","html-keyboard-response","68","304486","0.0-7.0-3.6","","null","","<div class='trialBorder'><div class='vertical-center'><img src='img/fixation2_sml.jpg'</img></div></div>","null","","","","","","","","","",""
"","","","TARGET","testing","bdp_wmem","Sun Dec 13 2020 15:27:36 GMT-0500 (Eastern Standard Time)","692412","Match,No Match","html-keyboard-response","69","307830","0.0-7.0-4.6","","3343","","<div class='trialBorder'><div class='vertical-center'><div class='trialFBDiv'><div class='trialDiv1'><div class='vertical-center'><img class='introPic' src='trustrating_stim/white_mw040.bmp'><br><font color='red'><strong>Keep</strong></font></div></div><div class='respDivL'>Match<p>(e)</div><div class='respDivR'>No Match<p>(i)</div></div></div></div>","i","2","trustrating_stim/white_mw012.bmp,trustrating_stim/white_mw013.bmp","0,1","noMatchFace","i","","trustrating_stim/white_mw015.bmp","red","Keep","1"
"","","","FEEDBACK","testing","bdp_wmem","Sun Dec 13 2020 15:27:36 GMT-0500 (Eastern Standard Time)","692412","Match,No Match","html-keyboard-response","70","308332","0.0-7.0-5.6","","null","","<div class='trialBorder'><div class='vertical-center'><div class='trialFBDiv'><div class='trialDiv1'><div class='vertical-center'><img src='img/correct.jpg'></div></div><div class='respDivL'>Match<p>(e)</div><div class='respDivR'><font style='color:orange'>No Match<p>(i)</font></div></div></div></div>","null","","","","","","","","","",""
"","","","FIX","testing","bdp_wmem","Sun Dec 13 2020 15:27:36 GMT-0500 (Eastern Standard Time)","692412","Match,No Match","html-keyboard-response","71","308838","0.0-7.0-1.7","","null","","<div class='trialBorder'><div class='vertical-center'><img src='img/fixation2_sml.jpg'</img></div></div>","null","","","","","","","","","",""
"","","","ARRAY","testing","bdp_wmem","Sun Dec 13 2020 15:27:36 GMT-0500 (Eastern Standard Time)","692412","Match,No Match","html-keyboard-response","72","310845","0.0-7.0-2.7","","null","","<div class='trialBorder'><div class='vertical-center'><div class='trialDiv2'><div class='vertical-center'><img style='vertical-align:center; align:center' src='img/fixation2_sml.jpg'></div><div class='tc'><div class='vertical-center'><img class='introPic' src='trustrating_stim/white_mw091.bmp'><br><font color='green'><strong>Share</strong></font></div></div><div class='bc'><div class='vertical-center'><img class='introPic' src='trustrating_stim/white_mw033.bmp'><br><font color='red'><strong>Keep</strong></font></div></div></div></div></div>","null","2","trustrating_stim/white_mw091.bmp,trustrating_stim/white_mw033.bmp","1,0","noMatchOutcome","i","2000","","","",""
"","","","DELAY","testing","bdp_wmem","Sun Dec 13 2020 15:27:36 GMT-0500 (Eastern Standard Time)","692412","Match,No Match","html-keyboard-response","73","314846","0.0-7.0-3.7","","null","","<div class='trialBorder'><div class='vertical-center'><img src='img/fixation2_sml.jpg'</img></div></div>","null","","","","","","","","","",""
"","","","TARGET","testing","bdp_wmem","Sun Dec 13 2020 15:27:36 GMT-0500 (Eastern Standard Time)","692412","Match,No Match","html-keyboard-response","74","316284","0.0-7.0-4.7","","1438","","<div class='trialBorder'><div class='vertical-center'><div class='trialFBDiv'><div class='trialDiv1'><div class='vertical-center'><img class='introPic' src='trustrating_stim/white_mw033.bmp'><br><font color='green'><strong>Share</strong></font></div></div><div class='respDivL'>Match<p>(e)</div><div class='respDivR'>No Match<p>(i)</div></div></div></div>","e","2","trustrating_stim/white_mw091.bmp,trustrating_stim/white_mw033.bmp","1,0","noMatchOutcome","i","","trustrating_stim/white_mw015.bmp","red","Keep","0"
"","","","FEEDBACK","testing","bdp_wmem","Sun Dec 13 2020 15:27:36 GMT-0500 (Eastern Standard Time)","692412","Match,No Match","html-keyboard-response","75","316789","0.0-7.0-5.7","","null","","<div class='trialBorder'><div class='vertical-center'><div class='trialFBDiv'><div class='trialDiv1'><div class='vertical-center'><img src='img/error.jpg'></div></div><div class='respDivL'><font style='color:orange'>Match<p>(e)</font></div><div class='respDivR'>No Match<p>(i)</div></div></div></div>","null","","","","","","","","","",""
"","","","FIX","testing","bdp_wmem","Sun Dec 13 2020 15:27:36 GMT-0500 (Eastern Standard Time)","692412","Match,No Match","html-keyboard-response","76","317295","0.0-7.0-1.8","","null","","<div class='trialBorder'><div class='vertical-center'><img src='img/fixation2_sml.jpg'</img></div></div>","null","","","","","","","","","",""
"","","","ARRAY","testing","bdp_wmem","Sun Dec 13 2020 15:27:36 GMT-0500 (Eastern Standard Time)","692412","Match,No Match","html-keyboard-response","77","319301","0.0-7.0-2.8","","null","","<div class='trialBorder'><div class='vertical-center'><div class='trialDiv2'><div class='vertical-center'><img style='vertical-align:center; align:center' src='img/fixation2_sml.jpg'></div><div class='tc'><div class='vertical-center'><img class='introPic' src='trustrating_stim/white_mw070.bmp'><br><font color='red'><strong>Keep</strong></font></div></div><div class='bc'><div class='vertical-center'><img class='introPic' src='trustrating_stim/white_00050_931230_fa_edt.bmp'><br><font color='green'><strong>Share</strong></font></div></div></div></div></div>","null","2","trustrating_stim/white_mw070.bmp,trustrating_stim/white_00050_931230_fa_edt.bmp","0,1","Match","e","2000","","","",""
"","","","DELAY","testing","bdp_wmem","Sun Dec 13 2020 15:27:36 GMT-0500 (Eastern Standard Time)","692412","Match,No Match","html-keyboard-response","78","323307","0.0-7.0-3.8","","null","","<div class='trialBorder'><div class='vertical-center'><img src='img/fixation2_sml.jpg'</img></div></div>","null","","","","","","","","","",""
"","","","TARGET","testing","bdp_wmem","Sun Dec 13 2020 15:27:36 GMT-0500 (Eastern Standard Time)","692412","Match,No Match","html-keyboard-response","79","324716","0.0-7.0-4.8","","1407","","<div class='trialBorder'><div class='vertical-center'><div class='trialFBDiv'><div class='trialDiv1'><div class='vertical-center'><img class='introPic' src='trustrating_stim/white_mw070.bmp'><br><font color='red'><strong>Keep</strong></font></div></div><div class='respDivL'>Match<p>(e)</div><div class='respDivR'>No Match<p>(i)</div></div></div></div>","e","2","trustrating_stim/white_mw070.bmp,trustrating_stim/white_00050_931230_fa_edt.bmp","0,1","Match","e","","trustrating_stim/white_mw015.bmp","red","Keep","1"
"","","","FEEDBACK","testing","bdp_wmem","Sun Dec 13 2020 15:27:36 GMT-0500 (Eastern Standard Time)","692412","Match,No Match","html-keyboard-response","80","325221","0.0-7.0-5.8","","null","","<div class='trialBorder'><div class='vertical-center'><div class='trialFBDiv'><div class='trialDiv1'><div class='vertical-center'><img src='img/correct.jpg'></div></div><div class='respDivL'><font style='color:orange'>Match<p>(e)</font></div><div class='respDivR'>No Match<p>(i)</div></div></div></div>","null","","","","","","","","","",""
"","","","FIX","testing","bdp_wmem","Sun Dec 13 2020 15:27:36 GMT-0500 (Eastern Standard Time)","692412","Match,No Match","html-keyboard-response","81","325722","0.0-7.0-1.9","","null","","<div class='trialBorder'><div class='vertical-center'><img src='img/fixation2_sml.jpg'</img></div></div>","null","","","","","","","","","",""
"","","","ARRAY","testing","bdp_wmem","Sun Dec 13 2020 15:27:36 GMT-0500 (Eastern Standard Time)","692412","Match,No Match","html-keyboard-response","82","329724","0.0-7.0-2.9","","null","","<div class='trialBorder'><div class='vertical-center'><div class='trialDiv4'><div class='vertical-center'><img style='vertical-align:center; align:center' src='img/fixation2_sml.jpg'></div><div class='tl'><div class='vertical-center'><img class='introPic' src='trustrating_stim/white_mw013.bmp'><br><font color='red'><strong>Keep</strong></font></div></div><div class='tr'><div class='vertical-center'><img class='introPic' src='trustrating_stim/white_mw070.bmp'><br><font color='red'><strong>Keep</strong></font></div></div><div class='bl'><div class='vertical-center'><img class='introPic' src='trustrating_stim/white_00050_931230_fa_edt.bmp'><br><font color='green'><strong>Share</strong></font></div></div><div class='br'><div class='vertical-center'><img class='introPic' src='trustrating_stim/white_00807_941205_fb_edt.bmp'><br><font color='green'><strong>Share</strong></font></div></div></div></div></div>","null","4","trustrating_stim/white_mw013.bmp,trustrating_stim/white_mw070.bmp,trustrating_stim/white_00050_931230_fa_edt.bmp,trustrating_stim/white_00807_941205_fb_edt.bmp","0,0,1,1","noMatchFace","i","4000","","","",""
"","","","DELAY","testing","bdp_wmem","Sun Dec 13 2020 15:27:36 GMT-0500 (Eastern Standard Time)","692412","Match,No Match","html-keyboard-response","83","333726","0.0-7.0-3.9","","null","","<div class='trialBorder'><div class='vertical-center'><img src='img/fixation2_sml.jpg'</img></div></div>","null","","","","","","","","","",""
"","","","TARGET","testing","bdp_wmem","Sun Dec 13 2020 15:27:36 GMT-0500 (Eastern Standard Time)","692412","Match,No Match","html-keyboard-response","84","335167","0.0-7.0-4.9","","1440","","<div class='trialBorder'><div class='vertical-center'><div class='trialFBDiv'><div class='trialDiv1'><div class='vertical-center'><img class='introPic' src='trustrating_stim/white_mw003.bmp'><br><font color='green'><strong>Share</strong></font></div></div><div class='respDivL'>Match<p>(e)</div><div class='respDivR'>No Match<p>(i)</div></div></div></div>","i","4","trustrating_stim/white_mw013.bmp,trustrating_stim/white_mw070.bmp,trustrating_stim/white_00050_931230_fa_edt.bmp,trustrating_stim/white_00807_941205_fb_edt.bmp","0,0,1,1","noMatchFace","i","","trustrating_stim/white_mw015.bmp","red","Keep","1"
"","","","FEEDBACK","testing","bdp_wmem","Sun Dec 13 2020 15:27:36 GMT-0500 (Eastern Standard Time)","692412","Match,No Match","html-keyboard-response","85","335671","0.0-7.0-5.9","","null","","<div class='trialBorder'><div class='vertical-center'><div class='trialFBDiv'><div class='trialDiv1'><div class='vertical-center'><img src='img/correct.jpg'></div></div><div class='respDivL'>Match<p>(e)</div><div class='respDivR'><font style='color:orange'>No Match<p>(i)</font></div></div></div></div>","null","","","","","","","","","",""
"","","","FIX","testing","bdp_wmem","Sun Dec 13 2020 15:27:36 GMT-0500 (Eastern Standard Time)","692412","Match,No Match","html-keyboard-response","86","336173","0.0-7.0-1.10","","null","","<div class='trialBorder'><div class='vertical-center'><img src='img/fixation2_sml.jpg'</img></div></div>","null","","","","","","","","","",""
"","","","ARRAY","testing","bdp_wmem","Sun Dec 13 2020 15:27:36 GMT-0500 (Eastern Standard Time)","692412","Match,No Match","html-keyboard-response","87","338178","0.0-7.0-2.10","","null","","<div class='trialBorder'><div class='vertical-center'><div class='trialDiv2'><div class='vertical-center'><img style='vertical-align:center; align:center' src='img/fixation2_sml.jpg'></div><div class='tc'><div class='vertical-center'><img class='introPic' src='trustrating_stim/white_00050_931230_fa_edt.bmp'><br><font color='green'><strong>Share</strong></font></div></div><div class='bc'><div class='vertical-center'><img class='introPic' src='trustrating_stim/white_mw092.bmp'><br><font color='red'><strong>Keep</strong></font></div></div></div></div></div>","null","2","trustrating_stim/white_00050_931230_fa_edt.bmp,trustrating_stim/white_mw092.bmp","1,0","Match","e","2000","","","",""
"","","","DELAY","testing","bdp_wmem","Sun Dec 13 2020 15:27:36 GMT-0500 (Eastern Standard Time)","692412","Match,No Match","html-keyboard-response","88","342184","0.0-7.0-3.10","","null","","<div class='trialBorder'><div class='vertical-center'><img src='img/fixation2_sml.jpg'</img></div></div>","null","","","","","","","","","",""
"","","","TARGET","testing","bdp_wmem","Sun Dec 13 2020 15:27:36 GMT-0500 (Eastern Standard Time)","692412","Match,No Match","html-keyboard-response","89","344265","0.0-7.0-4.10","","2080","","<div class='trialBorder'><div class='vertical-center'><div class='trialFBDiv'><div class='trialDiv1'><div class='vertical-center'><img class='introPic' src='trustrating_stim/white_mw092.bmp'><br><font color='red'><strong>Keep</strong></font></div></div><div class='respDivL'>Match<p>(e)</div><div class='respDivR'>No Match<p>(i)</div></div></div></div>","i","2","trustrating_stim/white_00050_931230_fa_edt.bmp,trustrating_stim/white_mw092.bmp","1,0","Match","e","","trustrating_stim/white_mw015.bmp","red","Keep","0"
"","","","FEEDBACK","testing","bdp_wmem","Sun Dec 13 2020 15:27:36 GMT-0500 (Eastern Standard Time)","692412","Match,No Match","html-keyboard-response","90","344767","0.0-7.0-5.10","","null","","<div class='trialBorder'><div class='vertical-center'><div class='trialFBDiv'><div class='trialDiv1'><div class='vertical-center'><img src='img/error.jpg'></div></div><div class='respDivL'>Match<p>(e)</div><div class='respDivR'><font style='color:orange'>No Match<p>(i)</font></div></div></div></div>","null","","","","","","","","","",""
"","","","FIX","testing","bdp_wmem","Sun Dec 13 2020 15:27:36 GMT-0500 (Eastern Standard Time)","692412","Match,No Match","html-keyboard-response","91","345268","0.0-7.0-1.11","","null","","<div class='trialBorder'><div class='vertical-center'><img src='img/fixation2_sml.jpg'</img></div></div>","null","","","","","","","","","",""
"","","","ARRAY","testing","bdp_wmem","Sun Dec 13 2020 15:27:36 GMT-0500 (Eastern Standard Time)","692412","Match,No Match","html-keyboard-response","92","347273","0.0-7.0-2.11","","null","","<div class='trialBorder'><div class='vertical-center'><div class='trialDiv4'><div class='vertical-center'><img style='vertical-align:center; align:center' src='img/fixation2_sml.jpg'></div><div class='tc'><div class='vertical-center'><img class='introPic' src='trustrating_stim/white_mw033.bmp'><br><font color='green'><strong>Share</strong></font></div></div><div class='bl'><div class='vertical-center'><img class='introPic' src='trustrating_stim/white_mw003.bmp'><br><font color='red'><strong>Keep</strong></font></div></div><div class='br'><div class='vertical-center'><img class='introPic' src='trustrating_stim/white_00807_941205_fb_edt.bmp'><br><font color='green'><strong>Share</strong></font></div></div></div></div></div>","null","3","trustrating_stim/white_mw033.bmp,trustrating_stim/white_mw003.bmp,trustrating_stim/white_00807_941205_fb_edt.bmp","1,0,1","noMatchFace","i","2000","","","",""
"","","","DELAY","testing","bdp_wmem","Sun Dec 13 2020 15:27:36 GMT-0500 (Eastern Standard Time)","692412","Match,No Match","html-keyboard-response","93","351277","0.0-7.0-3.11","","null","","<div class='trialBorder'><div class='vertical-center'><img src='img/fixation2_sml.jpg'</img></div></div>","null","","","","","","","","","",""
"","","","TARGET","testing","bdp_wmem","Sun Dec 13 2020 15:27:36 GMT-0500 (Eastern Standard Time)","692412","Match,No Match","html-keyboard-response","94","352860","0.0-7.0-4.11","","1581","","<div class='trialBorder'><div class='vertical-center'><div class='trialFBDiv'><div class='trialDiv1'><div class='vertical-center'><img class='introPic' src='trustrating_stim/white_mw070.bmp'><br><font color='red'><strong>Keep</strong></font></div></div><div class='respDivL'>Match<p>(e)</div><div class='respDivR'>No Match<p>(i)</div></div></div></div>","i","3","trustrating_stim/white_mw033.bmp,trustrating_stim/white_mw003.bmp,trustrating_stim/white_00807_941205_fb_edt.bmp","1,0,1","noMatchFace","i","","trustrating_stim/white_mw015.bmp","red","Keep","1"
"","","","FEEDBACK","testing","bdp_wmem","Sun Dec 13 2020 15:27:36 GMT-0500 (Eastern Standard Time)","692412","Match,No Match","html-keyboard-response","95","353366","0.0-7.0-5.11","","null","","<div class='trialBorder'><div class='vertical-center'><div class='trialFBDiv'><div class='trialDiv1'><div class='vertical-center'><img src='img/correct.jpg'></div></div><div class='respDivL'>Match<p>(e)</div><div class='respDivR'><font style='color:orange'>No Match<p>(i)</font></div></div></div></div>","null","","","","","","","","","",""
"","","","FIX","testing","bdp_wmem","Sun Dec 13 2020 15:27:36 GMT-0500 (Eastern Standard Time)","692412","Match,No Match","html-keyboard-response","96","353869","0.0-7.0-1.12","","null","","<div class='trialBorder'><div class='vertical-center'><img src='img/fixation2_sml.jpg'</img></div></div>","null","","","","","","","","","",""
"","","","ARRAY","testing","bdp_wmem","Sun Dec 13 2020 15:27:36 GMT-0500 (Eastern Standard Time)","692412","Match,No Match","html-keyboard-response","97","355872","0.0-7.0-2.12","","null","","<div class='trialBorder'><div class='vertical-center'><div class='trialDiv2'><div class='vertical-center'><img style='vertical-align:center; align:center' src='img/fixation2_sml.jpg'></div><div class='tc'><div class='vertical-center'><img class='introPic' src='trustrating_stim/white_mw033.bmp'><br><font color='green'><strong>Share</strong></font></div></div><div class='bc'><div class='vertical-center'><img class='introPic' src='trustrating_stim/white_mw012.bmp'><br><font color='red'><strong>Keep</strong></font></div></div></div></div></div>","null","2","trustrating_stim/white_mw033.bmp,trustrating_stim/white_mw012.bmp","1,0","Match","e","2000","","","",""
"","","","DELAY","testing","bdp_wmem","Sun Dec 13 2020 15:27:36 GMT-0500 (Eastern Standard Time)","692412","Match,No Match","html-keyboard-response","98","359878","0.0-7.0-3.12","","null","","<div class='trialBorder'><div class='vertical-center'><img src='img/fixation2_sml.jpg'</img></div></div>","null","","","","","","","","","",""
"","","","TARGET","testing","bdp_wmem","Sun Dec 13 2020 15:27:36 GMT-0500 (Eastern Standard Time)","692412","Match,No Match","html-keyboard-response","99","361498","0.0-7.0-4.12","","1618","","<div class='trialBorder'><div class='vertical-center'><div class='trialFBDiv'><div class='trialDiv1'><div class='vertical-center'><img class='introPic' src='trustrating_stim/white_mw033.bmp'><br><font color='green'><strong>Share</strong></font></div></div><div class='respDivL'>Match<p>(e)</div><div class='respDivR'>No Match<p>(i)</div></div></div></div>","e","2","trustrating_stim/white_mw033.bmp,trustrating_stim/white_mw012.bmp","1,0","Match","e","","trustrating_stim/white_mw015.bmp","red","Keep","1"
"","","","FEEDBACK","testing","bdp_wmem","Sun Dec 13 2020 15:27:36 GMT-0500 (Eastern Standard Time)","692412","Match,No Match","html-keyboard-response","100","362004","0.0-7.0-5.12","","null","","<div class='trialBorder'><div class='vertical-center'><div class='trialFBDiv'><div class='trialDiv1'><div class='vertical-center'><img src='img/correct.jpg'></div></div><div class='respDivL'><font style='color:orange'>Match<p>(e)</font></div><div class='respDivR'>No Match<p>(i)</div></div></div></div>","null","","","","","","","","","",""
"","","","FIX","testing","bdp_wmem","Sun Dec 13 2020 15:27:36 GMT-0500 (Eastern Standard Time)","692412","Match,No Match","html-keyboard-response","101","362505","0.0-7.0-1.13","","null","","<div class='trialBorder'><div class='vertical-center'><img src='img/fixation2_sml.jpg'</img></div></div>","null","","","","","","","","","",""
"","","","ARRAY","testing","bdp_wmem","Sun Dec 13 2020 15:27:36 GMT-0500 (Eastern Standard Time)","692412","Match,No Match","html-keyboard-response","102","364512","0.0-7.0-2.13","","null","","<div class='trialBorder'><div class='vertical-center'><div class='trialDiv4'><div class='vertical-center'><img style='vertical-align:center; align:center' src='img/fixation2_sml.jpg'></div><div class='tc'><div class='vertical-center'><img class='introPic' src='trustrating_stim/white_mw033.bmp'><br><font color='red'><strong>Keep</strong></font></div></div><div class='bl'><div class='vertical-center'><img class='introPic' src='trustrating_stim/white_mw012.bmp'><br><font color='green'><strong>Share</strong></font></div></div><div class='br'><div class='vertical-center'><img class='introPic' src='trustrating_stim/white_00050_931230_fa_edt.bmp'><br><font color='green'><strong>Share</strong></font></div></div></div></div></div>","null","3","trustrating_stim/white_mw033.bmp,trustrating_stim/white_mw012.bmp,trustrating_stim/white_00050_931230_fa_edt.bmp","0,1,1","Match","e","2000","","","",""
"","","","DELAY","testing","bdp_wmem","Sun Dec 13 2020 15:27:36 GMT-0500 (Eastern Standard Time)","692412","Match,No Match","html-keyboard-response","103","368518","0.0-7.0-3.13","","null","","<div class='trialBorder'><div class='vertical-center'><img src='img/fixation2_sml.jpg'</img></div></div>","null","","","","","","","","","",""
"","","","TARGET","testing","bdp_wmem","Sun Dec 13 2020 15:27:36 GMT-0500 (Eastern Standard Time)","692412","Match,No Match","html-keyboard-response","104","369980","0.0-7.0-4.13","","1461","","<div class='trialBorder'><div class='vertical-center'><div class='trialFBDiv'><div class='trialDiv1'><div class='vertical-center'><img class='introPic' src='trustrating_stim/white_00050_931230_fa_edt.bmp'><br><font color='green'><strong>Share</strong></font></div></div><div class='respDivL'>Match<p>(e)</div><div class='respDivR'>No Match<p>(i)</div></div></div></div>","e","3","trustrating_stim/white_mw033.bmp,trustrating_stim/white_mw012.bmp,trustrating_stim/white_00050_931230_fa_edt.bmp","0,1,1","Match","e","","trustrating_stim/white_mw015.bmp","red","Keep","1"
"","","","FEEDBACK","testing","bdp_wmem","Sun Dec 13 2020 15:27:36 GMT-0500 (Eastern Standard Time)","692412","Match,No Match","html-keyboard-response","105","370486","0.0-7.0-5.13","","null","","<div class='trialBorder'><div class='vertical-center'><div class='trialFBDiv'><div class='trialDiv1'><div class='vertical-center'><img src='img/correct.jpg'></div></div><div class='respDivL'><font style='color:orange'>Match<p>(e)</font></div><div class='respDivR'>No Match<p>(i)</div></div></div></div>","null","","","","","","","","","",""
"","","","FIX","testing","bdp_wmem","Sun Dec 13 2020 15:27:36 GMT-0500 (Eastern Standard Time)","692412","Match,No Match","html-keyboard-response","106","370991","0.0-7.0-1.14","","null","","<div class='trialBorder'><div class='vertical-center'><img src='img/fixation2_sml.jpg'</img></div></div>","null","","","","","","","","","",""
"","","","ARRAY","testing","bdp_wmem","Sun Dec 13 2020 15:27:36 GMT-0500 (Eastern Standard Time)","692412","Match,No Match","html-keyboard-response","107","372995","0.0-7.0-2.14","","null","","<div class='trialBorder'><div class='vertical-center'><div class='trialDiv4'><div class='vertical-center'><img style='vertical-align:center; align:center' src='img/fixation2_sml.jpg'></div><div class='tc'><div class='vertical-center'><img class='introPic' src='trustrating_stim/white_mw091.bmp'><br><font color='red'><strong>Keep</strong></font></div></div><div class='bl'><div class='vertical-center'><img class='introPic' src='trustrating_stim/white_mw092.bmp'><br><font color='green'><strong>Share</strong></font></div></div><div class='br'><div class='vertical-center'><img class='introPic' src='trustrating_stim/white_mw040.bmp'><br><font color='red'><strong>Keep</strong></font></div></div></div></div></div>","null","3","trustrating_stim/white_mw091.bmp,trustrating_stim/white_mw092.bmp,trustrating_stim/white_mw040.bmp","0,1,0","Match","e","2000","","","",""
"","","","DELAY","testing","bdp_wmem","Sun Dec 13 2020 15:27:36 GMT-0500 (Eastern Standard Time)","692412","Match,No Match","html-keyboard-response","108","377001","0.0-7.0-3.14","","null","","<div class='trialBorder'><div class='vertical-center'><img src='img/fixation2_sml.jpg'</img></div></div>","null","","","","","","","","","",""
"","","","TARGET","testing","bdp_wmem","Sun Dec 13 2020 15:27:36 GMT-0500 (Eastern Standard Time)","692412","Match,No Match","html-keyboard-response","109","379182","0.0-7.0-4.14","","2180","","<div class='trialBorder'><div class='vertical-center'><div class='trialFBDiv'><div class='trialDiv1'><div class='vertical-center'><img class='introPic' src='trustrating_stim/white_mw040.bmp'><br><font color='red'><strong>Keep</strong></font></div></div><div class='respDivL'>Match<p>(e)</div><div class='respDivR'>No Match<p>(i)</div></div></div></div>","e","3","trustrating_stim/white_mw091.bmp,trustrating_stim/white_mw092.bmp,trustrating_stim/white_mw040.bmp","0,1,0","Match","e","","trustrating_stim/white_mw015.bmp","red","Keep","1"
"","","","FEEDBACK","testing","bdp_wmem","Sun Dec 13 2020 15:27:36 GMT-0500 (Eastern Standard Time)","692412","Match,No Match","html-keyboard-response","110","379688","0.0-7.0-5.14","","null","","<div class='trialBorder'><div class='vertical-center'><div class='trialFBDiv'><div class='trialDiv1'><div class='vertical-center'><img src='img/correct.jpg'></div></div><div class='respDivL'><font style='color:orange'>Match<p>(e)</font></div><div class='respDivR'>No Match<p>(i)</div></div></div></div>","null","","","","","","","","","",""
"","","","FIX","testing","bdp_wmem","Sun Dec 13 2020 15:27:36 GMT-0500 (Eastern Standard Time)","692412","Match,No Match","html-keyboard-response","111","380194","0.0-7.0-1.15","","null","","<div class='trialBorder'><div class='vertical-center'><img src='img/fixation2_sml.jpg'</img></div></div>","null","","","","","","","","","",""
"","","","ARRAY","testing","bdp_wmem","Sun Dec 13 2020 15:27:36 GMT-0500 (Eastern Standard Time)","692412","Match,No Match","html-keyboard-response","112","382201","0.0-7.0-2.15","","null","","<div class='trialBorder'><div class='vertical-center'><div class='trialDiv4'><div class='vertical-center'><img style='vertical-align:center; align:center' src='img/fixation2_sml.jpg'></div><div class='tc'><div class='vertical-center'><img class='introPic' src='trustrating_stim/white_mw033.bmp'><br><font color='green'><strong>Share</strong></font></div></div><div class='bl'><div class='vertical-center'><img class='introPic' src='trustrating_stim/white_mw092.bmp'><br><font color='red'><strong>Keep</strong></font></div></div><div class='br'><div class='vertical-center'><img class='introPic' src='trustrating_stim/white_mw012.bmp'><br><font color='green'><strong>Share</strong></font></div></div></div></div></div>","null","3","trustrating_stim/white_mw033.bmp,trustrating_stim/white_mw092.bmp,trustrating_stim/white_mw012.bmp","1,0,1","noMatchOutcome","i","2000","","","",""
"","","","DELAY","testing","bdp_wmem","Sun Dec 13 2020 15:27:36 GMT-0500 (Eastern Standard Time)","692412","Match,No Match","html-keyboard-response","113","386206","0.0-7.0-3.15","","null","","<div class='trialBorder'><div class='vertical-center'><img src='img/fixation2_sml.jpg'</img></div></div>","null","","","","","","","","","",""
"","","","TARGET","testing","bdp_wmem","Sun Dec 13 2020 15:27:36 GMT-0500 (Eastern Standard Time)","692412","Match,No Match","html-keyboard-response","114","390558","0.0-7.0-4.15","","4351","","<div class='trialBorder'><div class='vertical-center'><div class='trialFBDiv'><div class='trialDiv1'><div class='vertical-center'><img class='introPic' src='trustrating_stim/white_mw012.bmp'><br><font color='red'><strong>Keep</strong></font></div></div><div class='respDivL'>Match<p>(e)</div><div class='respDivR'>No Match<p>(i)</div></div></div></div>","i","3","trustrating_stim/white_mw033.bmp,trustrating_stim/white_mw092.bmp,trustrating_stim/white_mw012.bmp","1,0,1","noMatchOutcome","i","","trustrating_stim/white_mw015.bmp","red","Keep","1"
"","","","FEEDBACK","testing","bdp_wmem","Sun Dec 13 2020 15:27:36 GMT-0500 (Eastern Standard Time)","692412","Match,No Match","html-keyboard-response","115","391064","0.0-7.0-5.15","","null","","<div class='trialBorder'><div class='vertical-center'><div class='trialFBDiv'><div class='trialDiv1'><div class='vertical-center'><img src='img/correct.jpg'></div></div><div class='respDivL'>Match<p>(e)</div><div class='respDivR'><font style='color:orange'>No Match<p>(i)</font></div></div></div></div>","null","","","","","","","","","",""
"","","","FIX","testing","bdp_wmem","Sun Dec 13 2020 15:27:36 GMT-0500 (Eastern Standard Time)","692412","Match,No Match","html-keyboard-response","116","391568","0.0-7.0-1.16","","null","","<div class='trialBorder'><div class='vertical-center'><img src='img/fixation2_sml.jpg'</img></div></div>","null","","","","","","","","","",""
"","","","ARRAY","testing","bdp_wmem","Sun Dec 13 2020 15:27:36 GMT-0500 (Eastern Standard Time)","692412","Match,No Match","html-keyboard-response","117","393570","0.0-7.0-2.16","","null","","<div class='trialBorder'><div class='vertical-center'><div class='trialDiv4'><div class='vertical-center'><img style='vertical-align:center; align:center' src='img/fixation2_sml.jpg'></div><div class='tc'><div class='vertical-center'><img class='introPic' src='trustrating_stim/white_00807_941205_fb_edt.bmp'><br><font color='green'><strong>Share</strong></font></div></div><div class='bl'><div class='vertical-center'><img class='introPic' src='trustrating_stim/white_mw092.bmp'><br><font color='red'><strong>Keep</strong></font></div></div><div class='br'><div class='vertical-center'><img class='introPic' src='trustrating_stim/white_mw040.bmp'><br><font color='red'><strong>Keep</strong></font></div></div></div></div></div>","null","3","trustrating_stim/white_00807_941205_fb_edt.bmp,trustrating_stim/white_mw092.bmp,trustrating_stim/white_mw040.bmp","1,0,0","Match","e","2000","","","",""
"","","","DELAY","testing","bdp_wmem","Sun Dec 13 2020 15:27:36 GMT-0500 (Eastern Standard Time)","692412","Match,No Match","html-keyboard-response","118","397575","0.0-7.0-3.16","","null","","<div class='trialBorder'><div class='vertical-center'><img src='img/fixation2_sml.jpg'</img></div></div>","null","","","","","","","","","",""
"","","","TARGET","testing","bdp_wmem","Sun Dec 13 2020 15:27:36 GMT-0500 (Eastern Standard Time)","692412","Match,No Match","html-keyboard-response","119","398663","0.0-7.0-4.16","","1086","","<div class='trialBorder'><div class='vertical-center'><div class='trialFBDiv'><div class='trialDiv1'><div class='vertical-center'><img class='introPic' src='trustrating_stim/white_00807_941205_fb_edt.bmp'><br><font color='green'><strong>Share</strong></font></div></div><div class='respDivL'>Match<p>(e)</div><div class='respDivR'>No Match<p>(i)</div></div></div></div>","e","3","trustrating_stim/white_00807_941205_fb_edt.bmp,trustrating_stim/white_mw092.bmp,trustrating_stim/white_mw040.bmp","1,0,0","Match","e","","trustrating_stim/white_mw015.bmp","red","Keep","1"
"","","","FEEDBACK","testing","bdp_wmem","Sun Dec 13 2020 15:27:36 GMT-0500 (Eastern Standard Time)","692412","Match,No Match","html-keyboard-response","120","399168","0.0-7.0-5.16","","null","","<div class='trialBorder'><div class='vertical-center'><div class='trialFBDiv'><div class='trialDiv1'><div class='vertical-center'><img src='img/correct.jpg'></div></div><div class='respDivL'><font style='color:orange'>Match<p>(e)</font></div><div class='respDivR'>No Match<p>(i)</div></div></div></div>","null","","","","","","","","","",""
"","","","FIX","testing","bdp_wmem","Sun Dec 13 2020 15:27:36 GMT-0500 (Eastern Standard Time)","692412","Match,No Match","html-keyboard-response","121","399674","0.0-7.0-1.17","","null","","<div class='trialBorder'><div class='vertical-center'><img src='img/fixation2_sml.jpg'</img></div></div>","null","","","","","","","","","",""
"","","","ARRAY","testing","bdp_wmem","Sun Dec 13 2020 15:27:36 GMT-0500 (Eastern Standard Time)","692412","Match,No Match","html-keyboard-response","122","401677","0.0-7.0-2.17","","null","","<div class='trialBorder'><div class='vertical-center'><div class='trialDiv2'><div class='vertical-center'><img style='vertical-align:center; align:center' src='img/fixation2_sml.jpg'></div><div class='tc'><div class='vertical-center'><img class='introPic' src='trustrating_stim/white_mw070.bmp'><br><font color='green'><strong>Share</strong></font></div></div><div class='bc'><div class='vertical-center'><img class='introPic' src='trustrating_stim/white_00050_931230_fa_edt.bmp'><br><font color='red'><strong>Keep</strong></font></div></div></div></div></div>","null","2","trustrating_stim/white_mw070.bmp,trustrating_stim/white_00050_931230_fa_edt.bmp","1,0","noMatchOutcome","i","2000","","","",""
"","","","DELAY","testing","bdp_wmem","Sun Dec 13 2020 15:27:36 GMT-0500 (Eastern Standard Time)","692412","Match,No Match","html-keyboard-response","123","405682","0.0-7.0-3.17","","null","","<div class='trialBorder'><div class='vertical-center'><img src='img/fixation2_sml.jpg'</img></div></div>","null","","","","","","","","","",""
"","","","TARGET","testing","bdp_wmem","Sun Dec 13 2020 15:27:36 GMT-0500 (Eastern Standard Time)","692412","Match,No Match","html-keyboard-response","124","407867","0.0-7.0-4.17","","2182","","<div class='trialBorder'><div class='vertical-center'><div class='trialFBDiv'><div class='trialDiv1'><div class='vertical-center'><img class='introPic' src='trustrating_stim/white_00050_931230_fa_edt.bmp'><br><font color='green'><strong>Share</strong></font></div></div><div class='respDivL'>Match<p>(e)</div><div class='respDivR'>No Match<p>(i)</div></div></div></div>","i","2","trustrating_stim/white_mw070.bmp,trustrating_stim/white_00050_931230_fa_edt.bmp","1,0","noMatchOutcome","i","","trustrating_stim/white_mw015.bmp","red","Keep","1"
"","","","FEEDBACK","testing","bdp_wmem","Sun Dec 13 2020 15:27:36 GMT-0500 (Eastern Standard Time)","692412","Match,No Match","html-keyboard-response","125","408371","0.0-7.0-5.17","","null","","<div class='trialBorder'><div class='vertical-center'><div class='trialFBDiv'><div class='trialDiv1'><div class='vertical-center'><img src='img/correct.jpg'></div></div><div class='respDivL'>Match<p>(e)</div><div class='respDivR'><font style='color:orange'>No Match<p>(i)</font></div></div></div></div>","null","","","","","","","","","",""
"","","","FIX","testing","bdp_wmem","Sun Dec 13 2020 15:27:36 GMT-0500 (Eastern Standard Time)","692412","Match,No Match","html-keyboard-response","126","408875","0.0-7.0-1.18","","null","","<div class='trialBorder'><div class='vertical-center'><img src='img/fixation2_sml.jpg'</img></div></div>","null","","","","","","","","","",""
"","","","ARRAY","testing","bdp_wmem","Sun Dec 13 2020 15:27:36 GMT-0500 (Eastern Standard Time)","692412","Match,No Match","html-keyboard-response","127","412879","0.0-7.0-2.18","","null","","<div class='trialBorder'><div class='vertical-center'><div class='trialDiv4'><div class='vertical-center'><img style='vertical-align:center; align:center' src='img/fixation2_sml.jpg'></div><div class='tl'><div class='vertical-center'><img class='introPic' src='trustrating_stim/white_mw013.bmp'><br><font color='red'><strong>Keep</strong></font></div></div><div class='tr'><div class='vertical-center'><img class='introPic' src='trustrating_stim/white_mw015.bmp'><br><font color='green'><strong>Share</strong></font></div></div><div class='bl'><div class='vertical-center'><img class='introPic' src='trustrating_stim/white_mw091.bmp'><br><font color='red'><strong>Keep</strong></font></div></div><div class='br'><div class='vertical-center'><img class='introPic' src='trustrating_stim/white_mw012.bmp'><br><font color='green'><strong>Share</strong></font></div></div></div></div></div>","null","4","trustrating_stim/white_mw013.bmp,trustrating_stim/white_mw015.bmp,trustrating_stim/white_mw091.bmp,trustrating_stim/white_mw012.bmp","0,1,0,1","noMatchFace","i","4000","","","",""
"","","","DELAY","testing","bdp_wmem","Sun Dec 13 2020 15:27:36 GMT-0500 (Eastern Standard Time)","692412","Match,No Match","html-keyboard-response","128","416884","0.0-7.0-3.18","","null","","<div class='trialBorder'><div class='vertical-center'><img src='img/fixation2_sml.jpg'</img></div></div>","null","","","","","","","","","",""
"","","","TARGET","testing","bdp_wmem","Sun Dec 13 2020 15:27:36 GMT-0500 (Eastern Standard Time)","692412","Match,No Match","html-keyboard-response","129","418762","0.0-7.0-4.18","","1877","","<div class='trialBorder'><div class='vertical-center'><div class='trialFBDiv'><div class='trialDiv1'><div class='vertical-center'><img class='introPic' src='trustrating_stim/white_00807_941205_fb_edt.bmp'><br><font color='red'><strong>Keep</strong></font></div></div><div class='respDivL'>Match<p>(e)</div><div class='respDivR'>No Match<p>(i)</div></div></div></div>","e","4","trustrating_stim/white_mw013.bmp,trustrating_stim/white_mw015.bmp,trustrating_stim/white_mw091.bmp,trustrating_stim/white_mw012.bmp","0,1,0,1","noMatchFace","i","","trustrating_stim/white_mw015.bmp","red","Keep","0"
"","","","FEEDBACK","testing","bdp_wmem","Sun Dec 13 2020 15:27:36 GMT-0500 (Eastern Standard Time)","692412","Match,No Match","html-keyboard-response","130","419266","0.0-7.0-5.18","","null","","<div class='trialBorder'><div class='vertical-center'><div class='trialFBDiv'><div class='trialDiv1'><div class='vertical-center'><img src='img/error.jpg'></div></div><div class='respDivL'><font style='color:orange'>Match<p>(e)</font></div><div class='respDivR'>No Match<p>(i)</div></div></div></div>","null","","","","","","","","","",""
"","","","FIX","testing","bdp_wmem","Sun Dec 13 2020 15:27:36 GMT-0500 (Eastern Standard Time)","692412","Match,No Match","html-keyboard-response","131","419768","0.0-7.0-1.19","","null","","<div class='trialBorder'><div class='vertical-center'><img src='img/fixation2_sml.jpg'</img></div></div>","null","","","","","","","","","",""
"","","","ARRAY","testing","bdp_wmem","Sun Dec 13 2020 15:27:36 GMT-0500 (Eastern Standard Time)","692412","Match,No Match","html-keyboard-response","132","421770","0.0-7.0-2.19","","null","","<div class='trialBorder'><div class='vertical-center'><div class='trialDiv4'><div class='vertical-center'><img style='vertical-align:center; align:center' src='img/fixation2_sml.jpg'></div><div class='tc'><div class='vertical-center'><img class='introPic' src='trustrating_stim/white_mw003.bmp'><br><font color='red'><strong>Keep</strong></font></div></div><div class='bl'><div class='vertical-center'><img class='introPic' src='trustrating_stim/white_mw013.bmp'><br><font color='green'><strong>Share</strong></font></div></div><div class='br'><div class='vertical-center'><img class='introPic' src='trustrating_stim/white_00050_931230_fa_edt.bmp'><br><font color='green'><strong>Share</strong></font></div></div></div></div></div>","null","3","trustrating_stim/white_mw003.bmp,trustrating_stim/white_mw013.bmp,trustrating_stim/white_00050_931230_fa_edt.bmp","0,1,1","Match","e","2000","","","",""
"","","","DELAY","testing","bdp_wmem","Sun Dec 13 2020 15:27:36 GMT-0500 (Eastern Standard Time)","692412","Match,No Match","html-keyboard-response","133","425777","0.0-7.0-3.19","","null","","<div class='trialBorder'><div class='vertical-center'><img src='img/fixation2_sml.jpg'</img></div></div>","null","","","","","","","","","",""
"","","","TARGET","testing","bdp_wmem","Sun Dec 13 2020 15:27:36 GMT-0500 (Eastern Standard Time)","692412","Match,No Match","html-keyboard-response","134","427062","0.0-7.0-4.19","","1285","","<div class='trialBorder'><div class='vertical-center'><div class='trialFBDiv'><div class='trialDiv1'><div class='vertical-center'><img class='introPic' src='trustrating_stim/white_mw003.bmp'><br><font color='red'><strong>Keep</strong></font></div></div><div class='respDivL'>Match<p>(e)</div><div class='respDivR'>No Match<p>(i)</div></div></div></div>","i","3","trustrating_stim/white_mw003.bmp,trustrating_stim/white_mw013.bmp,trustrating_stim/white_00050_931230_fa_edt.bmp","0,1,1","Match","e","","trustrating_stim/white_mw015.bmp","red","Keep","0"
"","","","FEEDBACK","testing","bdp_wmem","Sun Dec 13 2020 15:27:36 GMT-0500 (Eastern Standard Time)","692412","Match,No Match","html-keyboard-response","135","427568","0.0-7.0-5.19","","null","","<div class='trialBorder'><div class='vertical-center'><div class='trialFBDiv'><div class='trialDiv1'><div class='vertical-center'><img src='img/error.jpg'></div></div><div class='respDivL'>Match<p>(e)</div><div class='respDivR'><font style='color:orange'>No Match<p>(i)</font></div></div></div></div>","null","","","","","","","","","",""
"","","","FIX","testing","bdp_wmem","Sun Dec 13 2020 15:27:36 GMT-0500 (Eastern Standard Time)","692412","Match,No Match","html-keyboard-response","136","428074","0.0-7.0-1.20","","null","","<div class='trialBorder'><div class='vertical-center'><img src='img/fixation2_sml.jpg'</img></div></div>","null","","","","","","","","","",""
"","","","ARRAY","testing","bdp_wmem","Sun Dec 13 2020 15:27:36 GMT-0500 (Eastern Standard Time)","692412","Match,No Match","html-keyboard-response","137","430077","0.0-7.0-2.20","","null","","<div class='trialBorder'><div class='vertical-center'><div class='trialDiv4'><div class='vertical-center'><img style='vertical-align:center; align:center' src='img/fixation2_sml.jpg'></div><div class='tc'><div class='vertical-center'><img class='introPic' src='trustrating_stim/white_mw003.bmp'><br><font color='green'><strong>Share</strong></font></div></div><div class='bl'><div class='vertical-center'><img class='introPic' src='trustrating_stim/white_00807_941205_fb_edt.bmp'><br><font color='red'><strong>Keep</strong></font></div></div><div class='br'><div class='vertical-center'><img class='introPic' src='trustrating_stim/white_mw040.bmp'><br><font color='red'><strong>Keep</strong></font></div></div></div></div></div>","null","3","trustrating_stim/white_mw003.bmp,trustrating_stim/white_00807_941205_fb_edt.bmp,trustrating_stim/white_mw040.bmp","1,0,0","Match","e","2000","","","",""
"","","","DELAY","testing","bdp_wmem","Sun Dec 13 2020 15:27:36 GMT-0500 (Eastern Standard Time)","692412","Match,No Match","html-keyboard-response","138","434080","0.0-7.0-3.20","","null","","<div class='trialBorder'><div class='vertical-center'><img src='img/fixation2_sml.jpg'</img></div></div>","null","","","","","","","","","",""
"","","","TARGET","testing","bdp_wmem","Sun Dec 13 2020 15:27:36 GMT-0500 (Eastern Standard Time)","692412","Match,No Match","html-keyboard-response","139","435621","0.0-7.0-4.20","","1540","","<div class='trialBorder'><div class='vertical-center'><div class='trialFBDiv'><div class='trialDiv1'><div class='vertical-center'><img class='introPic' src='trustrating_stim/white_mw003.bmp'><br><font color='green'><strong>Share</strong></font></div></div><div class='respDivL'>Match<p>(e)</div><div class='respDivR'>No Match<p>(i)</div></div></div></div>","e","3","trustrating_stim/white_mw003.bmp,trustrating_stim/white_00807_941205_fb_edt.bmp,trustrating_stim/white_mw040.bmp","1,0,0","Match","e","","trustrating_stim/white_mw015.bmp","red","Keep","1"
"","","","FEEDBACK","testing","bdp_wmem","Sun Dec 13 2020 15:27:36 GMT-0500 (Eastern Standard Time)","692412","Match,No Match","html-keyboard-response","140","436121","0.0-7.0-5.20","","null","","<div class='trialBorder'><div class='vertical-center'><div class='trialFBDiv'><div class='trialDiv1'><div class='vertical-center'><img src='img/correct.jpg'></div></div><div class='respDivL'><font style='color:orange'>Match<p>(e)</font></div><div class='respDivR'>No Match<p>(i)</div></div></div></div>","null","","","","","","","","","",""
"","","","FIX","testing","bdp_wmem","Sun Dec 13 2020 15:27:36 GMT-0500 (Eastern Standard Time)","692412","Match,No Match","html-keyboard-response","141","436623","0.0-7.0-1.21","","null","","<div class='trialBorder'><div class='vertical-center'><img src='img/fixation2_sml.jpg'</img></div></div>","null","","","","","","","","","",""
"","","","ARRAY","testing","bdp_wmem","Sun Dec 13 2020 15:27:36 GMT-0500 (Eastern Standard Time)","692412","Match,No Match","html-keyboard-response","142","438630","0.0-7.0-2.21","","null","","<div class='trialBorder'><div class='vertical-center'><div class='trialDiv4'><div class='vertical-center'><img style='vertical-align:center; align:center' src='img/fixation2_sml.jpg'></div><div class='tc'><div class='vertical-center'><img class='introPic' src='trustrating_stim/white_mw040.bmp'><br><font color='green'><strong>Share</strong></font></div></div><div class='bl'><div class='vertical-center'><img class='introPic' src='trustrating_stim/white_mw012.bmp'><br><font color='red'><strong>Keep</strong></font></div></div><div class='br'><div class='vertical-center'><img class='introPic' src='trustrating_stim/white_mw038.bmp'><br><font color='green'><strong>Share</strong></font></div></div></div></div></div>","null","3","trustrating_stim/white_mw040.bmp,trustrating_stim/white_mw012.bmp,trustrating_stim/white_mw038.bmp","1,0,1","noMatchOutcome","i","2000","","","",""
"","","","DELAY","testing","bdp_wmem","Sun Dec 13 2020 15:27:36 GMT-0500 (Eastern Standard Time)","692412","Match,No Match","html-keyboard-response","143","442632","0.0-7.0-3.21","","null","","<div class='trialBorder'><div class='vertical-center'><img src='img/fixation2_sml.jpg'</img></div></div>","null","","","","","","","","","",""
"","","","TARGET","testing","bdp_wmem","Sun Dec 13 2020 15:27:36 GMT-0500 (Eastern Standard Time)","692412","Match,No Match","html-keyboard-response","144","444076","0.0-7.0-4.21","","1443","","<div class='trialBorder'><div class='vertical-center'><div class='trialFBDiv'><div class='trialDiv1'><div class='vertical-center'><img class='introPic' src='trustrating_stim/white_mw038.bmp'><br><font color='red'><strong>Keep</strong></font></div></div><div class='respDivL'>Match<p>(e)</div><div class='respDivR'>No Match<p>(i)</div></div></div></div>","i","3","trustrating_stim/white_mw040.bmp,trustrating_stim/white_mw012.bmp,trustrating_stim/white_mw038.bmp","1,0,1","noMatchOutcome","i","","trustrating_stim/white_mw015.bmp","red","Keep","1"
"","","","FEEDBACK","testing","bdp_wmem","Sun Dec 13 2020 15:27:36 GMT-0500 (Eastern Standard Time)","692412","Match,No Match","html-keyboard-response","145","444583","0.0-7.0-5.21","","null","","<div class='trialBorder'><div class='vertical-center'><div class='trialFBDiv'><div class='trialDiv1'><div class='vertical-center'><img src='img/correct.jpg'></div></div><div class='respDivL'>Match<p>(e)</div><div class='respDivR'><font style='color:orange'>No Match<p>(i)</font></div></div></div></div>","null","","","","","","","","","",""
"","","","FIX","testing","bdp_wmem","Sun Dec 13 2020 15:27:36 GMT-0500 (Eastern Standard Time)","692412","Match,No Match","html-keyboard-response","146","445086","0.0-7.0-1.22","","null","","<div class='trialBorder'><div class='vertical-center'><img src='img/fixation2_sml.jpg'</img></div></div>","null","","","","","","","","","",""
"","","","ARRAY","testing","bdp_wmem","Sun Dec 13 2020 15:27:36 GMT-0500 (Eastern Standard Time)","692412","Match,No Match","html-keyboard-response","147","447091","0.0-7.0-2.22","","null","","<div class='trialBorder'><div class='vertical-center'><div class='trialDiv2'><div class='vertical-center'><img style='vertical-align:center; align:center' src='img/fixation2_sml.jpg'></div><div class='tc'><div class='vertical-center'><img class='introPic' src='trustrating_stim/white_mw015.bmp'><br><font color='green'><strong>Share</strong></font></div></div><div class='bc'><div class='vertical-center'><img class='introPic' src='trustrating_stim/white_mw038.bmp'><br><font color='red'><strong>Keep</strong></font></div></div></div></div></div>","null","2","trustrating_stim/white_mw015.bmp,trustrating_stim/white_mw038.bmp","1,0","Match","e","2000","","","",""
"","","","DELAY","testing","bdp_wmem","Sun Dec 13 2020 15:27:36 GMT-0500 (Eastern Standard Time)","692412","Match,No Match","html-keyboard-response","148","451094","0.0-7.0-3.22","","null","","<div class='trialBorder'><div class='vertical-center'><img src='img/fixation2_sml.jpg'</img></div></div>","null","","","","","","","","","",""
"","","","TARGET","testing","bdp_wmem","Sun Dec 13 2020 15:27:36 GMT-0500 (Eastern Standard Time)","692412","Match,No Match","html-keyboard-response","149","452175","0.0-7.0-4.22","","1080","","<div class='trialBorder'><div class='vertical-center'><div class='trialFBDiv'><div class='trialDiv1'><div class='vertical-center'><img class='introPic' src='trustrating_stim/white_mw015.bmp'><br><font color='green'><strong>Share</strong></font></div></div><div class='respDivL'>Match<p>(e)</div><div class='respDivR'>No Match<p>(i)</div></div></div></div>","e","2","trustrating_stim/white_mw015.bmp,trustrating_stim/white_mw038.bmp","1,0","Match","e","","trustrating_stim/white_mw015.bmp","red","Keep","1"
"","","","FEEDBACK","testing","bdp_wmem","Sun Dec 13 2020 15:27:36 GMT-0500 (Eastern Standard Time)","692412","Match,No Match","html-keyboard-response","150","452680","0.0-7.0-5.22","","null","","<div class='trialBorder'><div class='vertical-center'><div class='trialFBDiv'><div class='trialDiv1'><div class='vertical-center'><img src='img/correct.jpg'></div></div><div class='respDivL'><font style='color:orange'>Match<p>(e)</font></div><div class='respDivR'>No Match<p>(i)</div></div></div></div>","null","","","","","","","","","",""
"","","","FIX","testing","bdp_wmem","Sun Dec 13 2020 15:27:36 GMT-0500 (Eastern Standard Time)","692412","Match,No Match","html-keyboard-response","151","453185","0.0-7.0-1.23","","null","","<div class='trialBorder'><div class='vertical-center'><img src='img/fixation2_sml.jpg'</img></div></div>","null","","","","","","","","","",""
"","","","ARRAY","testing","bdp_wmem","Sun Dec 13 2020 15:27:36 GMT-0500 (Eastern Standard Time)","692412","Match,No Match","html-keyboard-response","152","457188","0.0-7.0-2.23","","null","","<div class='trialBorder'><div class='vertical-center'><div class='trialDiv4'><div class='vertical-center'><img style='vertical-align:center; align:center' src='img/fixation2_sml.jpg'></div><div class='tl'><div class='vertical-center'><img class='introPic' src='trustrating_stim/white_mw015.bmp'><br><font color='green'><strong>Share</strong></font></div></div><div class='tr'><div class='vertical-center'><img class='introPic' src='trustrating_stim/white_mw012.bmp'><br><font color='red'><strong>Keep</strong></font></div></div><div class='bl'><div class='vertical-center'><img class='introPic' src='trustrating_stim/white_mw092.bmp'><br><font color='red'><strong>Keep</strong></font></div></div><div class='br'><div class='vertical-center'><img class='introPic' src='trustrating_stim/white_mw091.bmp'><br><font color='green'><strong>Share</strong></font></div></div></div></div></div>","null","4","trustrating_stim/white_mw015.bmp,trustrating_stim/white_mw012.bmp,trustrating_stim/white_mw092.bmp,trustrating_stim/white_mw091.bmp","1,0,0,1","noMatchFace","i","4000","","","",""
"","","","DELAY","testing","bdp_wmem","Sun Dec 13 2020 15:27:36 GMT-0500 (Eastern Standard Time)","692412","Match,No Match","html-keyboard-response","153","461190","0.0-7.0-3.23","","null","","<div class='trialBorder'><div class='vertical-center'><img src='img/fixation2_sml.jpg'</img></div></div>","null","","","","","","","","","",""
"","","","TARGET","testing","bdp_wmem","Sun Dec 13 2020 15:27:36 GMT-0500 (Eastern Standard Time)","692412","Match,No Match","html-keyboard-response","154","464224","0.0-7.0-4.23","","3033","","<div class='trialBorder'><div class='vertical-center'><div class='trialFBDiv'><div class='trialDiv1'><div class='vertical-center'><img class='introPic' src='trustrating_stim/white_mw070.bmp'><br><font color='red'><strong>Keep</strong></font></div></div><div class='respDivL'>Match<p>(e)</div><div class='respDivR'>No Match<p>(i)</div></div></div></div>","e","4","trustrating_stim/white_mw015.bmp,trustrating_stim/white_mw012.bmp,trustrating_stim/white_mw092.bmp,trustrating_stim/white_mw091.bmp","1,0,0,1","noMatchFace","i","","trustrating_stim/white_mw015.bmp","red","Keep","0"
"","","","FEEDBACK","testing","bdp_wmem","Sun Dec 13 2020 15:27:36 GMT-0500 (Eastern Standard Time)","692412","Match,No Match","html-keyboard-response","155","464728","0.0-7.0-5.23","","null","","<div class='trialBorder'><div class='vertical-center'><div class='trialFBDiv'><div class='trialDiv1'><div class='vertical-center'><img src='img/error.jpg'></div></div><div class='respDivL'><font style='color:orange'>Match<p>(e)</font></div><div class='respDivR'>No Match<p>(i)</div></div></div></div>","null","","","","","","","","","",""
"","","","FIX","testing","bdp_wmem","Sun Dec 13 2020 15:27:36 GMT-0500 (Eastern Standard Time)","692412","Match,No Match","html-keyboard-response","156","465230","0.0-7.0-1.24","","null","","<div class='trialBorder'><div class='vertical-center'><img src='img/fixation2_sml.jpg'</img></div></div>","null","","","","","","","","","",""
"","","","ARRAY","testing","bdp_wmem","Sun Dec 13 2020 15:27:36 GMT-0500 (Eastern Standard Time)","692412","Match,No Match","html-keyboard-response","157","467232","0.0-7.0-2.24","","null","","<div class='trialBorder'><div class='vertical-center'><div class='trialDiv4'><div class='vertical-center'><img style='vertical-align:center; align:center' src='img/fixation2_sml.jpg'></div><div class='tc'><div class='vertical-center'><img class='introPic' src='trustrating_stim/white_mw013.bmp'><br><font color='green'><strong>Share</strong></font></div></div><div class='bl'><div class='vertical-center'><img class='introPic' src='trustrating_stim/white_mw070.bmp'><br><font color='green'><strong>Share</strong></font></div></div><div class='br'><div class='vertical-center'><img class='introPic' src='trustrating_stim/white_00050_931230_fa_edt.bmp'><br><font color='red'><strong>Keep</strong></font></div></div></div></div></div>","null","3","trustrating_stim/white_mw013.bmp,trustrating_stim/white_mw070.bmp,trustrating_stim/white_00050_931230_fa_edt.bmp","1,1,0","noMatchOutcome","i","2000","","","",""
"","","","DELAY","testing","bdp_wmem","Sun Dec 13 2020 15:27:36 GMT-0500 (Eastern Standard Time)","692412","Match,No Match","html-keyboard-response","158","471234","0.0-7.0-3.24","","null","","<div class='trialBorder'><div class='vertical-center'><img src='img/fixation2_sml.jpg'</img></div></div>","null","","","","","","","","","",""
"","","","TARGET","testing","bdp_wmem","Sun Dec 13 2020 15:27:36 GMT-0500 (Eastern Standard Time)","692412","Match,No Match","html-keyboard-response","159","473548","0.0-7.0-4.24","","2312","","<div class='trialBorder'><div class='vertical-center'><div class='trialFBDiv'><div class='trialDiv1'><div class='vertical-center'><img class='introPic' src='trustrating_stim/white_mw070.bmp'><br><font color='red'><strong>Keep</strong></font></div></div><div class='respDivL'>Match<p>(e)</div><div class='respDivR'>No Match<p>(i)</div></div></div></div>","i","3","trustrating_stim/white_mw013.bmp,trustrating_stim/white_mw070.bmp,trustrating_stim/white_00050_931230_fa_edt.bmp","1,1,0","noMatchOutcome","i","","trustrating_stim/white_mw015.bmp","red","Keep","1"
"","","","FEEDBACK","testing","bdp_wmem","Sun Dec 13 2020 15:27:36 GMT-0500 (Eastern Standard Time)","692412","Match,No Match","html-keyboard-response","160","474051","0.0-7.0-5.24","","null","","<div class='trialBorder'><div class='vertical-center'><div class='trialFBDiv'><div class='trialDiv1'><div class='vertical-center'><img src='img/correct.jpg'></div></div><div class='respDivL'>Match<p>(e)</div><div class='respDivR'><font style='color:orange'>No Match<p>(i)</font></div></div></div></div>","null","","","","","","","","","",""
"","","","FIX","testing","bdp_wmem","Sun Dec 13 2020 15:27:36 GMT-0500 (Eastern Standard Time)","692412","Match,No Match","html-keyboard-response","161","474553","0.0-7.0-1.25","","null","","<div class='trialBorder'><div class='vertical-center'><img src='img/fixation2_sml.jpg'</img></div></div>","null","","","","","","","","","",""
"","","","ARRAY","testing","bdp_wmem","Sun Dec 13 2020 15:27:36 GMT-0500 (Eastern Standard Time)","692412","Match,No Match","html-keyboard-response","162","476560","0.0-7.0-2.25","","null","","<div class='trialBorder'><div class='vertical-center'><div class='trialDiv2'><div class='vertical-center'><img style='vertical-align:center; align:center' src='img/fixation2_sml.jpg'></div><div class='tc'><div class='vertical-center'><img class='introPic' src='trustrating_stim/white_mw040.bmp'><br><font color='red'><strong>Keep</strong></font></div></div><div class='bc'><div class='vertical-center'><img class='introPic' src='trustrating_stim/white_00807_941205_fb_edt.bmp'><br><font color='green'><strong>Share</strong></font></div></div></div></div></div>","null","2","trustrating_stim/white_mw040.bmp,trustrating_stim/white_00807_941205_fb_edt.bmp","0,1","noMatchFace","i","2000","","","",""
"","","","DELAY","testing","bdp_wmem","Sun Dec 13 2020 15:27:36 GMT-0500 (Eastern Standard Time)","692412","Match,No Match","html-keyboard-response","163","480566","0.0-7.0-3.25","","null","","<div class='trialBorder'><div class='vertical-center'><img src='img/fixation2_sml.jpg'</img></div></div>","null","","","","","","","","","",""
"","","","TARGET","testing","bdp_wmem","Sun Dec 13 2020 15:27:36 GMT-0500 (Eastern Standard Time)","692412","Match,No Match","html-keyboard-response","164","482017","0.0-7.0-4.25","","1449","","<div class='trialBorder'><div class='vertical-center'><div class='trialFBDiv'><div class='trialDiv1'><div class='vertical-center'><img class='introPic' src='trustrating_stim/white_mw070.bmp'><br><font color='green'><strong>Share</strong></font></div></div><div class='respDivL'>Match<p>(e)</div><div class='respDivR'>No Match<p>(i)</div></div></div></div>","e","2","trustrating_stim/white_mw040.bmp,trustrating_stim/white_00807_941205_fb_edt.bmp","0,1","noMatchFace","i","","trustrating_stim/white_mw015.bmp","red","Keep","0"
"","","","FEEDBACK","testing","bdp_wmem","Sun Dec 13 2020 15:27:36 GMT-0500 (Eastern Standard Time)","692412","Match,No Match","html-keyboard-response","165","482517","0.0-7.0-5.25","","null","","<div class='trialBorder'><div class='vertical-center'><div class='trialFBDiv'><div class='trialDiv1'><div class='vertical-center'><img src='img/error.jpg'></div></div><div class='respDivL'><font style='color:orange'>Match<p>(e)</font></div><div class='respDivR'>No Match<p>(i)</div></div></div></div>","null","","","","","","","","","",""
"","","","FIX","testing","bdp_wmem","Sun Dec 13 2020 15:27:36 GMT-0500 (Eastern Standard Time)","692412","Match,No Match","html-keyboard-response","166","483024","0.0-7.0-1.26","","null","","<div class='trialBorder'><div class='vertical-center'><img src='img/fixation2_sml.jpg'</img></div></div>","null","","","","","","","","","",""
