"trial_type","trial_index","time_elapsed","internal_node_id","subject_id","task","startTime","totalTime","labels","event","trial","time","trialtype","numBlurs","view_history","rt","success","stimulus","key_press","arraySize","arrayFaces","arrayOutcomes","matchType","corrResp","trial_duration","targFace","targCol","targOutcome","corr"
"pavlovia","0","4","0.0-0.0","dstest","bdp_wmem","Tue Feb 02 2021 12:24:18 GMT-0500 (Eastern Standard Time)","158310","Match,No Match","","","","","","","","","","","","","","","","","","","",""
"","","","","dstest","bdp_wmem","Tue Feb 02 2021 12:24:18 GMT-0500 (Eastern Standard Time)","158310","Match,No Match","blur","1","2464","blurevent","1","","","","","","","","","","","","","","",""
"","","","","dstest","bdp_wmem","Tue Feb 02 2021 12:24:18 GMT-0500 (Eastern Standard Time)","158310","Match,No Match","focus","1","8958","focusevent","","","","","","","","","","","","","","","",""
"","","","","dstest","bdp_wmem","Tue Feb 02 2021 12:24:18 GMT-0500 (Eastern Standard Time)","158310","Match,No Match","blur","1","11746","blurevent","","","","","","","","","","","","","","","",""
"","","","","dstest","bdp_wmem","Tue Feb 02 2021 12:24:18 GMT-0500 (Eastern Standard Time)","158310","Match,No Match","focus","1","11855","focusevent","","","","","","","","","","","","","","","",""
"instructions","1","12994","0.0-1.0","dstest","bdp_wmem","Tue Feb 02 2021 12:24:18 GMT-0500 (Eastern Standard Time)","158310","Match,No Match","","","","","","[{""page_index"":0,""viewing_time"":12990}]","12990","","","","","","","","","","","","",""
"","","","","dstest","bdp_wmem","Tue Feb 02 2021 12:24:18 GMT-0500 (Eastern Standard Time)","158310","Match,No Match","fullscreenenter","2","14827","fullscreenenter","","","","","","","","","","","","","","","",""
"fullscreen","2","15806","0.0-2.0","dstest","bdp_wmem","Tue Feb 02 2021 12:24:18 GMT-0500 (Eastern Standard Time)","158310","Match,No Match","","","","","","","","true","","","","","","","","","","","",""
"instructions","3","18914","0.0-4.0","dstest","bdp_wmem","Tue Feb 02 2021 12:24:18 GMT-0500 (Eastern Standard Time)","158310","Match,No Match","","","","","","[{""page_index"":0,""viewing_time"":822},{""page_index"":1,""viewing_time"":493},{""page_index"":2,""viewing_time"":635},{""page_index"":3,""viewing_time"":541},{""page_index"":4,""viewing_time"":617}]","3108","","","","","","","","","","","","",""
"html-keyboard-response","4","19418","0.0-5.0-1.0","dstest","bdp_wmem","Tue Feb 02 2021 12:24:18 GMT-0500 (Eastern Standard Time)","158310","Match,No Match","","","","FIX","","","null","","<div class='trialBorder'><div class='vertical-center'><img src='img/fixation2_sml.jpg'</img></div></div>","null","","","","","","","","","",""
"html-keyboard-response","5","22421","0.0-5.0-2.0","dstest","bdp_wmem","Tue Feb 02 2021 12:24:18 GMT-0500 (Eastern Standard Time)","158310","Match,No Match","","","","ARRAY","","","null","","<div class='trialBorder'><div class='vertical-center'><img style='vertical-align:center; align:center' src='img/fixation2_sml.jpg'></div><div class='arrayDiv3'><div class='tl'><img class='introPic' src='trustrating_stim/white_mw091.bmp'><br><font color='red'><strong>Keep</strong></font></div><div class='tc'><img class='introPic' src='trustrating_stim/white_mw070.bmp'><br><font color='red'><strong>Keep</strong></font></div><div class='tr'><img class='introPic' src='trustrating_stim/white_mw092.bmp'><br><font color='green'><strong>Share</strong></font></div></div></div>","null","3","trustrating_stim/white_mw091.bmp,trustrating_stim/white_mw070.bmp,trustrating_stim/white_mw092.bmp","0,0,1","Match","e","3000","","","",""
"html-keyboard-response","6","26427","0.0-5.0-3.0","dstest","bdp_wmem","Tue Feb 02 2021 12:24:18 GMT-0500 (Eastern Standard Time)","158310","Match,No Match","","","","DELAY","","","null","","<div class='trialBorder'><div class='vertical-center'><img src='img/fixation2_sml.jpg'</img></div></div>","null","","","","","","","","","",""
"html-keyboard-response","7","27755","0.0-5.0-4.0","dstest","bdp_wmem","Tue Feb 02 2021 12:24:18 GMT-0500 (Eastern Standard Time)","158310","Match,No Match","","","","TARGET","","","1327","","<div class='trialBorder'><div class='targDiv'><div class='tc'><img class='introPic' src='trustrating_stim/white_mw092.bmp'><br><font color='green'><strong>Share</strong></font></div></div><div class='respDiv'><div class='respDivL'>Match<br>(e)</div><div class='respDivR'>No Match<br>(i)</div></div></div>","e","3","trustrating_stim/white_mw091.bmp,trustrating_stim/white_mw070.bmp,trustrating_stim/white_mw092.bmp","0,0,1","Match","e","","trustrating_stim/white_mw003.bmp","red","Keep","1"
"html-keyboard-response","8","28257","0.0-5.0-5.0","dstest","bdp_wmem","Tue Feb 02 2021 12:24:18 GMT-0500 (Eastern Standard Time)","158310","Match,No Match","","","","FEEDBACK","","","null","","<div class='trialBorder'><div class='vertical-center'><img src='img/correct.jpg'></div><div class='respDiv'><div class='respDivL'><font style='color:orange'>Match<br>(e)</font></div><div class='respDivR'>No Match<br>(i)</div></div></div>","null","","","","","","","","","",""
"html-keyboard-response","9","28759","0.0-5.0-1.1","dstest","bdp_wmem","Tue Feb 02 2021 12:24:18 GMT-0500 (Eastern Standard Time)","158310","Match,No Match","","","","FIX","","","null","","<div class='trialBorder'><div class='vertical-center'><img src='img/fixation2_sml.jpg'</img></div></div>","null","","","","","","","","","",""
"html-keyboard-response","10","30260","0.0-5.0-2.1","dstest","bdp_wmem","Tue Feb 02 2021 12:24:18 GMT-0500 (Eastern Standard Time)","158310","Match,No Match","","","","ARRAY","","","null","","<div class='trialBorder'><div class='vertical-center'><img style='vertical-align:center; align:center' src='img/fixation2_sml.jpg'></div><div class='arrayDiv1'><div class='tc'><img class='introPic' src='trustrating_stim/white_mw013.bmp'><br><font color='red'><strong>Keep</strong></font></div></div></div>","null","1","trustrating_stim/white_mw013.bmp","0","Match","e","1500","","","",""
"html-keyboard-response","11","34265","0.0-5.0-3.1","dstest","bdp_wmem","Tue Feb 02 2021 12:24:18 GMT-0500 (Eastern Standard Time)","158310","Match,No Match","","","","DELAY","","","null","","<div class='trialBorder'><div class='vertical-center'><img src='img/fixation2_sml.jpg'</img></div></div>","null","","","","","","","","","",""
"html-keyboard-response","12","36268","0.0-5.0-4.1","dstest","bdp_wmem","Tue Feb 02 2021 12:24:18 GMT-0500 (Eastern Standard Time)","158310","Match,No Match","","","","TARGET","","","2001","","<div class='trialBorder'><div class='targDiv'><div class='tc'><img class='introPic' src='trustrating_stim/white_mw013.bmp'><br><font color='red'><strong>Keep</strong></font></div></div><div class='respDiv'><div class='respDivL'>Match<br>(e)</div><div class='respDivR'>No Match<br>(i)</div></div></div>","e","1","trustrating_stim/white_mw013.bmp","0","Match","e","","trustrating_stim/white_mw003.bmp","red","Keep","1"
"html-keyboard-response","13","36771","0.0-5.0-5.1","dstest","bdp_wmem","Tue Feb 02 2021 12:24:18 GMT-0500 (Eastern Standard Time)","158310","Match,No Match","","","","FEEDBACK","","","null","","<div class='trialBorder'><div class='vertical-center'><img src='img/correct.jpg'></div><div class='respDiv'><div class='respDivL'><font style='color:orange'>Match<br>(e)</font></div><div class='respDivR'>No Match<br>(i)</div></div></div>","null","","","","","","","","","",""
"html-keyboard-response","14","37272","0.0-5.0-1.2","dstest","bdp_wmem","Tue Feb 02 2021 12:24:18 GMT-0500 (Eastern Standard Time)","158310","Match,No Match","","","","FIX","","","null","","<div class='trialBorder'><div class='vertical-center'><img src='img/fixation2_sml.jpg'</img></div></div>","null","","","","","","","","","",""
"html-keyboard-response","15","40275","0.0-5.0-2.2","dstest","bdp_wmem","Tue Feb 02 2021 12:24:18 GMT-0500 (Eastern Standard Time)","158310","Match,No Match","","","","ARRAY","","","null","","<div class='trialBorder'><div class='vertical-center'><img style='vertical-align:center; align:center' src='img/fixation2_sml.jpg'></div><div class='arrayDiv2'><div class='tl'><img class='introPic' src='trustrating_stim/white_mw040.bmp'><br><font color='green'><strong>Share</strong></font></div><div class='tr'><img class='introPic' src='trustrating_stim/white_00050_931230_fa_edt.bmp'><br><font color='red'><strong>Keep</strong></font></div></div></div>","null","2","trustrating_stim/white_mw040.bmp,trustrating_stim/white_00050_931230_fa_edt.bmp","1,0","Match","e","3000","","","",""
"html-keyboard-response","16","44279","0.0-5.0-3.2","dstest","bdp_wmem","Tue Feb 02 2021 12:24:18 GMT-0500 (Eastern Standard Time)","158310","Match,No Match","","","","DELAY","","","null","","<div class='trialBorder'><div class='vertical-center'><img src='img/fixation2_sml.jpg'</img></div></div>","null","","","","","","","","","",""
"html-keyboard-response","17","45457","0.0-5.0-4.2","dstest","bdp_wmem","Tue Feb 02 2021 12:24:18 GMT-0500 (Eastern Standard Time)","158310","Match,No Match","","","","TARGET","","","1177","","<div class='trialBorder'><div class='targDiv'><div class='tc'><img class='introPic' src='trustrating_stim/white_00050_931230_fa_edt.bmp'><br><font color='red'><strong>Keep</strong></font></div></div><div class='respDiv'><div class='respDivL'>Match<br>(e)</div><div class='respDivR'>No Match<br>(i)</div></div></div>","e","2","trustrating_stim/white_mw040.bmp,trustrating_stim/white_00050_931230_fa_edt.bmp","1,0","Match","e","","trustrating_stim/white_mw003.bmp","red","Keep","1"
"html-keyboard-response","18","45958","0.0-5.0-5.2","dstest","bdp_wmem","Tue Feb 02 2021 12:24:18 GMT-0500 (Eastern Standard Time)","158310","Match,No Match","","","","FEEDBACK","","","null","","<div class='trialBorder'><div class='vertical-center'><img src='img/correct.jpg'></div><div class='respDiv'><div class='respDivL'><font style='color:orange'>Match<br>(e)</font></div><div class='respDivR'>No Match<br>(i)</div></div></div>","null","","","","","","","","","",""
"html-keyboard-response","19","46462","0.0-5.0-1.3","dstest","bdp_wmem","Tue Feb 02 2021 12:24:18 GMT-0500 (Eastern Standard Time)","158310","Match,No Match","","","","FIX","","","null","","<div class='trialBorder'><div class='vertical-center'><img src='img/fixation2_sml.jpg'</img></div></div>","null","","","","","","","","","",""
"html-keyboard-response","20","49464","0.0-5.0-2.3","dstest","bdp_wmem","Tue Feb 02 2021 12:24:18 GMT-0500 (Eastern Standard Time)","158310","Match,No Match","","","","ARRAY","","","null","","<div class='trialBorder'><div class='vertical-center'><img style='vertical-align:center; align:center' src='img/fixation2_sml.jpg'></div><div class='arrayDiv3'><div class='tl'><img class='introPic' src='trustrating_stim/white_mw012.bmp'><br><font color='green'><strong>Share</strong></font></div><div class='tc'><img class='introPic' src='trustrating_stim/white_mw003.bmp'><br><font color='red'><strong>Keep</strong></font></div><div class='tr'><img class='introPic' src='trustrating_stim/white_mw070.bmp'><br><font color='red'><strong>Keep</strong></font></div></div></div>","null","3","trustrating_stim/white_mw012.bmp,trustrating_stim/white_mw003.bmp,trustrating_stim/white_mw070.bmp","1,0,0","noMatchOutcome","i","3000","","","",""
"html-keyboard-response","21","53468","0.0-5.0-3.3","dstest","bdp_wmem","Tue Feb 02 2021 12:24:18 GMT-0500 (Eastern Standard Time)","158310","Match,No Match","","","","DELAY","","","null","","<div class='trialBorder'><div class='vertical-center'><img src='img/fixation2_sml.jpg'</img></div></div>","null","","","","","","","","","",""
"html-keyboard-response","22","54930","0.0-5.0-4.3","dstest","bdp_wmem","Tue Feb 02 2021 12:24:18 GMT-0500 (Eastern Standard Time)","158310","Match,No Match","","","","TARGET","","","1461","","<div class='trialBorder'><div class='targDiv'><div class='tc'><img class='introPic' src='trustrating_stim/white_mw012.bmp'><br><font color='red'><strong>Keep</strong></font></div></div><div class='respDiv'><div class='respDivL'>Match<br>(e)</div><div class='respDivR'>No Match<br>(i)</div></div></div>","e","3","trustrating_stim/white_mw012.bmp,trustrating_stim/white_mw003.bmp,trustrating_stim/white_mw070.bmp","1,0,0","noMatchOutcome","i","","trustrating_stim/white_mw003.bmp","red","Keep","0"
"html-keyboard-response","23","55432","0.0-5.0-5.3","dstest","bdp_wmem","Tue Feb 02 2021 12:24:18 GMT-0500 (Eastern Standard Time)","158310","Match,No Match","","","","FEEDBACK","","","null","","<div class='trialBorder'><div class='vertical-center'><img src='img/error.jpg'></div><div class='respDiv'><div class='respDivL'><font style='color:orange'>Match<br>(e)</font></div><div class='respDivR'>No Match<br>(i)</div></div></div>","null","","","","","","","","","",""
"html-keyboard-response","24","55933","0.0-5.0-1.4","dstest","bdp_wmem","Tue Feb 02 2021 12:24:18 GMT-0500 (Eastern Standard Time)","158310","Match,No Match","","","","FIX","","","null","","<div class='trialBorder'><div class='vertical-center'><img src='img/fixation2_sml.jpg'</img></div></div>","null","","","","","","","","","",""
"html-keyboard-response","25","58936","0.0-5.0-2.4","dstest","bdp_wmem","Tue Feb 02 2021 12:24:18 GMT-0500 (Eastern Standard Time)","158310","Match,No Match","","","","ARRAY","","","null","","<div class='trialBorder'><div class='vertical-center'><img style='vertical-align:center; align:center' src='img/fixation2_sml.jpg'></div><div class='arrayDiv2'><div class='tl'><img class='introPic' src='trustrating_stim/white_mw040.bmp'><br><font color='red'><strong>Keep</strong></font></div><div class='tr'><img class='introPic' src='trustrating_stim/white_mw015.bmp'><br><font color='green'><strong>Share</strong></font></div></div></div>","null","2","trustrating_stim/white_mw040.bmp,trustrating_stim/white_mw015.bmp","0,1","noMatchOutcome","i","3000","","","",""
"html-keyboard-response","26","62937","0.0-5.0-3.4","dstest","bdp_wmem","Tue Feb 02 2021 12:24:18 GMT-0500 (Eastern Standard Time)","158310","Match,No Match","","","","DELAY","","","null","","<div class='trialBorder'><div class='vertical-center'><img src='img/fixation2_sml.jpg'</img></div></div>","null","","","","","","","","","",""
"html-keyboard-response","27","64217","0.0-5.0-4.4","dstest","bdp_wmem","Tue Feb 02 2021 12:24:18 GMT-0500 (Eastern Standard Time)","158310","Match,No Match","","","","TARGET","","","1278","","<div class='trialBorder'><div class='targDiv'><div class='tc'><img class='introPic' src='trustrating_stim/white_mw040.bmp'><br><font color='green'><strong>Share</strong></font></div></div><div class='respDiv'><div class='respDivL'>Match<br>(e)</div><div class='respDivR'>No Match<br>(i)</div></div></div>","e","2","trustrating_stim/white_mw040.bmp,trustrating_stim/white_mw015.bmp","0,1","noMatchOutcome","i","","trustrating_stim/white_mw003.bmp","red","Keep","0"
"html-keyboard-response","28","64722","0.0-5.0-5.4","dstest","bdp_wmem","Tue Feb 02 2021 12:24:18 GMT-0500 (Eastern Standard Time)","158310","Match,No Match","","","","FEEDBACK","","","null","","<div class='trialBorder'><div class='vertical-center'><img src='img/error.jpg'></div><div class='respDiv'><div class='respDivL'><font style='color:orange'>Match<br>(e)</font></div><div class='respDivR'>No Match<br>(i)</div></div></div>","null","","","","","","","","","",""
"html-keyboard-response","29","65224","0.0-5.0-1.5","dstest","bdp_wmem","Tue Feb 02 2021 12:24:18 GMT-0500 (Eastern Standard Time)","158310","Match,No Match","","","","FIX","","","null","","<div class='trialBorder'><div class='vertical-center'><img src='img/fixation2_sml.jpg'</img></div></div>","null","","","","","","","","","",""
"html-keyboard-response","30","66726","0.0-5.0-2.5","dstest","bdp_wmem","Tue Feb 02 2021 12:24:18 GMT-0500 (Eastern Standard Time)","158310","Match,No Match","","","","ARRAY","","","null","","<div class='trialBorder'><div class='vertical-center'><img style='vertical-align:center; align:center' src='img/fixation2_sml.jpg'></div><div class='arrayDiv1'><div class='tc'><img class='introPic' src='trustrating_stim/white_mw012.bmp'><br><font color='green'><strong>Share</strong></font></div></div></div>","null","1","trustrating_stim/white_mw012.bmp","1","noMatchFace","i","1500","","","",""
"html-keyboard-response","31","70727","0.0-5.0-3.5","dstest","bdp_wmem","Tue Feb 02 2021 12:24:18 GMT-0500 (Eastern Standard Time)","158310","Match,No Match","","","","DELAY","","","null","","<div class='trialBorder'><div class='vertical-center'><img src='img/fixation2_sml.jpg'</img></div></div>","null","","","","","","","","","",""
"html-keyboard-response","32","71567","0.0-5.0-4.5","dstest","bdp_wmem","Tue Feb 02 2021 12:24:18 GMT-0500 (Eastern Standard Time)","158310","Match,No Match","","","","TARGET","","","839","","<div class='trialBorder'><div class='targDiv'><div class='tc'><img class='introPic' src='trustrating_stim/white_mw038.bmp'><br><font color='green'><strong>Share</strong></font></div></div><div class='respDiv'><div class='respDivL'>Match<br>(e)</div><div class='respDivR'>No Match<br>(i)</div></div></div>","i","1","trustrating_stim/white_mw012.bmp","1","noMatchFace","i","","trustrating_stim/white_mw003.bmp","red","Keep","1"
"html-keyboard-response","33","72068","0.0-5.0-5.5","dstest","bdp_wmem","Tue Feb 02 2021 12:24:18 GMT-0500 (Eastern Standard Time)","158310","Match,No Match","","","","FEEDBACK","","","null","","<div class='trialBorder'><div class='vertical-center'><img src='img/correct.jpg'></div><div class='respDiv'><div class='respDivL'>Match<br>(e)</div><div class='respDivR'><font style='color:orange'>No Match<br>(i)</font></div></div></div>","null","","","","","","","","","",""
"instructions","34","73440","0.0-6.0","dstest","bdp_wmem","Tue Feb 02 2021 12:24:18 GMT-0500 (Eastern Standard Time)","158310","Match,No Match","","","","","","[{""page_index"":0,""viewing_time"":1370}]","1370","","","","","","","","","","","","",""
"html-keyboard-response","35","73943","0.0-7.0-1.0","dstest","bdp_wmem","Tue Feb 02 2021 12:24:18 GMT-0500 (Eastern Standard Time)","158310","Match,No Match","","","","FIX","","","null","","<div class='trialBorder'><div class='vertical-center'><img src='img/fixation2_sml.jpg'</img></div></div>","null","","","","","","","","","",""
"html-keyboard-response","36","76948","0.0-7.0-2.0","dstest","bdp_wmem","Tue Feb 02 2021 12:24:18 GMT-0500 (Eastern Standard Time)","158310","Match,No Match","","","","ARRAY","","","null","","<div class='trialBorder'><div class='vertical-center'><img style='vertical-align:center; align:center' src='img/fixation2_sml.jpg'></div><div class='arrayDiv2'><div class='tl'><img class='introPic' src='trustrating_stim/white_mw003.bmp'><br><font color='green'><strong>Share</strong></font></div><div class='tr'><img class='introPic' src='trustrating_stim/white_00807_941205_fb_edt.bmp'><br><font color='red'><strong>Keep</strong></font></div></div></div>","null","2","trustrating_stim/white_mw003.bmp,trustrating_stim/white_00807_941205_fb_edt.bmp","1,0","noMatchOutcome","i","3000","","","",""
"html-keyboard-response","37","80953","0.0-7.0-3.0","dstest","bdp_wmem","Tue Feb 02 2021 12:24:18 GMT-0500 (Eastern Standard Time)","158310","Match,No Match","","","","DELAY","","","null","","<div class='trialBorder'><div class='vertical-center'><img src='img/fixation2_sml.jpg'</img></div></div>","null","","","","","","","","","",""
"html-keyboard-response","38","82367","0.0-7.0-4.0","dstest","bdp_wmem","Tue Feb 02 2021 12:24:18 GMT-0500 (Eastern Standard Time)","158310","Match,No Match","","","","TARGET","","","1411","","<div class='trialBorder'><div class='targDiv'><div class='tc'><img class='introPic' src='trustrating_stim/white_mw003.bmp'><br><font color='red'><strong>Keep</strong></font></div></div><div class='respDiv'><div class='respDivL'>Match<br>(e)</div><div class='respDivR'>No Match<br>(i)</div></div></div>","i","2","trustrating_stim/white_mw003.bmp,trustrating_stim/white_00807_941205_fb_edt.bmp","1,0","noMatchOutcome","i","","trustrating_stim/white_mw003.bmp","red","Keep","1"
"html-keyboard-response","39","82872","0.0-7.0-5.0","dstest","bdp_wmem","Tue Feb 02 2021 12:24:18 GMT-0500 (Eastern Standard Time)","158310","Match,No Match","","","","FEEDBACK","","","null","","<div class='trialBorder'><div class='vertical-center'><img src='img/correct.jpg'></div><div class='respDiv'><div class='respDivL'>Match<br>(e)</div><div class='respDivR'><font style='color:orange'>No Match<br>(i)</font></div></div></div>","null","","","","","","","","","",""
"html-keyboard-response","40","83374","0.0-7.0-1.1","dstest","bdp_wmem","Tue Feb 02 2021 12:24:18 GMT-0500 (Eastern Standard Time)","158310","Match,No Match","","","","FIX","","","null","","<div class='trialBorder'><div class='vertical-center'><img src='img/fixation2_sml.jpg'</img></div></div>","null","","","","","","","","","",""
"html-keyboard-response","41","84878","0.0-7.0-2.1","dstest","bdp_wmem","Tue Feb 02 2021 12:24:18 GMT-0500 (Eastern Standard Time)","158310","Match,No Match","","","","ARRAY","","","null","","<div class='trialBorder'><div class='vertical-center'><img style='vertical-align:center; align:center' src='img/fixation2_sml.jpg'></div><div class='arrayDiv1'><div class='tc'><img class='introPic' src='trustrating_stim/white_mw012.bmp'><br><font color='green'><strong>Share</strong></font></div></div></div>","null","1","trustrating_stim/white_mw012.bmp","1","noMatchFace","i","1500","","","",""
"html-keyboard-response","42","88881","0.0-7.0-3.1","dstest","bdp_wmem","Tue Feb 02 2021 12:24:18 GMT-0500 (Eastern Standard Time)","158310","Match,No Match","","","","DELAY","","","null","","<div class='trialBorder'><div class='vertical-center'><img src='img/fixation2_sml.jpg'</img></div></div>","null","","","","","","","","","",""
"html-keyboard-response","43","89770","0.0-7.0-4.1","dstest","bdp_wmem","Tue Feb 02 2021 12:24:18 GMT-0500 (Eastern Standard Time)","158310","Match,No Match","","","","TARGET","","","887","","<div class='trialBorder'><div class='targDiv'><div class='tc'><img class='introPic' src='trustrating_stim/white_mw038.bmp'><br><font color='green'><strong>Share</strong></font></div></div><div class='respDiv'><div class='respDivL'>Match<br>(e)</div><div class='respDivR'>No Match<br>(i)</div></div></div>","i","1","trustrating_stim/white_mw012.bmp","1","noMatchFace","i","","trustrating_stim/white_mw003.bmp","red","Keep","1"
"html-keyboard-response","44","90271","0.0-7.0-5.1","dstest","bdp_wmem","Tue Feb 02 2021 12:24:18 GMT-0500 (Eastern Standard Time)","158310","Match,No Match","","","","FEEDBACK","","","null","","<div class='trialBorder'><div class='vertical-center'><img src='img/correct.jpg'></div><div class='respDiv'><div class='respDivL'>Match<br>(e)</div><div class='respDivR'><font style='color:orange'>No Match<br>(i)</font></div></div></div>","null","","","","","","","","","",""
"html-keyboard-response","45","90777","0.0-7.0-1.2","dstest","bdp_wmem","Tue Feb 02 2021 12:24:18 GMT-0500 (Eastern Standard Time)","158310","Match,No Match","","","","FIX","","","null","","<div class='trialBorder'><div class='vertical-center'><img src='img/fixation2_sml.jpg'</img></div></div>","null","","","","","","","","","",""
"html-keyboard-response","46","93782","0.0-7.0-2.2","dstest","bdp_wmem","Tue Feb 02 2021 12:24:18 GMT-0500 (Eastern Standard Time)","158310","Match,No Match","","","","ARRAY","","","null","","<div class='trialBorder'><div class='vertical-center'><img style='vertical-align:center; align:center' src='img/fixation2_sml.jpg'></div><div class='arrayDiv2'><div class='tl'><img class='introPic' src='trustrating_stim/white_mw091.bmp'><br><font color='green'><strong>Share</strong></font></div><div class='tr'><img class='introPic' src='trustrating_stim/white_mw070.bmp'><br><font color='red'><strong>Keep</strong></font></div></div></div>","null","2","trustrating_stim/white_mw091.bmp,trustrating_stim/white_mw070.bmp","1,0","noMatchFace","i","3000","","","",""
"html-keyboard-response","47","97783","0.0-7.0-3.2","dstest","bdp_wmem","Tue Feb 02 2021 12:24:18 GMT-0500 (Eastern Standard Time)","158310","Match,No Match","","","","DELAY","","","null","","<div class='trialBorder'><div class='vertical-center'><img src='img/fixation2_sml.jpg'</img></div></div>","null","","","","","","","","","",""
"html-keyboard-response","48","98614","0.0-7.0-4.2","dstest","bdp_wmem","Tue Feb 02 2021 12:24:18 GMT-0500 (Eastern Standard Time)","158310","Match,No Match","","","","TARGET","","","829","","<div class='trialBorder'><div class='targDiv'><div class='tc'><img class='introPic' src='trustrating_stim/white_00050_931230_fa_edt.bmp'><br><font color='red'><strong>Keep</strong></font></div></div><div class='respDiv'><div class='respDivL'>Match<br>(e)</div><div class='respDivR'>No Match<br>(i)</div></div></div>","i","2","trustrating_stim/white_mw091.bmp,trustrating_stim/white_mw070.bmp","1,0","noMatchFace","i","","trustrating_stim/white_mw003.bmp","red","Keep","1"
"html-keyboard-response","49","99117","0.0-7.0-5.2","dstest","bdp_wmem","Tue Feb 02 2021 12:24:18 GMT-0500 (Eastern Standard Time)","158310","Match,No Match","","","","FEEDBACK","","","null","","<div class='trialBorder'><div class='vertical-center'><img src='img/correct.jpg'></div><div class='respDiv'><div class='respDivL'>Match<br>(e)</div><div class='respDivR'><font style='color:orange'>No Match<br>(i)</font></div></div></div>","null","","","","","","","","","",""
"html-keyboard-response","50","99618","0.0-7.0-1.3","dstest","bdp_wmem","Tue Feb 02 2021 12:24:18 GMT-0500 (Eastern Standard Time)","158310","Match,No Match","","","","FIX","","","null","","<div class='trialBorder'><div class='vertical-center'><img src='img/fixation2_sml.jpg'</img></div></div>","null","","","","","","","","","",""
"html-keyboard-response","51","102623","0.0-7.0-2.3","dstest","bdp_wmem","Tue Feb 02 2021 12:24:18 GMT-0500 (Eastern Standard Time)","158310","Match,No Match","","","","ARRAY","","","null","","<div class='trialBorder'><div class='vertical-center'><img style='vertical-align:center; align:center' src='img/fixation2_sml.jpg'></div><div class='arrayDiv2'><div class='tl'><img class='introPic' src='trustrating_stim/white_mw040.bmp'><br><font color='green'><strong>Share</strong></font></div><div class='tr'><img class='introPic' src='trustrating_stim/white_00050_931230_fa_edt.bmp'><br><font color='red'><strong>Keep</strong></font></div></div></div>","null","2","trustrating_stim/white_mw040.bmp,trustrating_stim/white_00050_931230_fa_edt.bmp","1,0","Match","e","3000","","","",""
"html-keyboard-response","52","106625","0.0-7.0-3.3","dstest","bdp_wmem","Tue Feb 02 2021 12:24:18 GMT-0500 (Eastern Standard Time)","158310","Match,No Match","","","","DELAY","","","null","","<div class='trialBorder'><div class='vertical-center'><img src='img/fixation2_sml.jpg'</img></div></div>","null","","","","","","","","","",""
"html-keyboard-response","53","107298","0.0-7.0-4.3","dstest","bdp_wmem","Tue Feb 02 2021 12:24:18 GMT-0500 (Eastern Standard Time)","158310","Match,No Match","","","","TARGET","","","671","","<div class='trialBorder'><div class='targDiv'><div class='tc'><img class='introPic' src='trustrating_stim/white_00050_931230_fa_edt.bmp'><br><font color='red'><strong>Keep</strong></font></div></div><div class='respDiv'><div class='respDivL'>Match<br>(e)</div><div class='respDivR'>No Match<br>(i)</div></div></div>","i","2","trustrating_stim/white_mw040.bmp,trustrating_stim/white_00050_931230_fa_edt.bmp","1,0","Match","e","","trustrating_stim/white_mw003.bmp","red","Keep","0"
"html-keyboard-response","54","107799","0.0-7.0-5.3","dstest","bdp_wmem","Tue Feb 02 2021 12:24:18 GMT-0500 (Eastern Standard Time)","158310","Match,No Match","","","","FEEDBACK","","","null","","<div class='trialBorder'><div class='vertical-center'><img src='img/error.jpg'></div><div class='respDiv'><div class='respDivL'>Match<br>(e)</div><div class='respDivR'><font style='color:orange'>No Match<br>(i)</font></div></div></div>","null","","","","","","","","","",""
"html-keyboard-response","55","108303","0.0-7.0-1.4","dstest","bdp_wmem","Tue Feb 02 2021 12:24:18 GMT-0500 (Eastern Standard Time)","158310","Match,No Match","","","","FIX","","","null","","<div class='trialBorder'><div class='vertical-center'><img src='img/fixation2_sml.jpg'</img></div></div>","null","","","","","","","","","",""
"html-keyboard-response","56","111307","0.0-7.0-2.4","dstest","bdp_wmem","Tue Feb 02 2021 12:24:18 GMT-0500 (Eastern Standard Time)","158310","Match,No Match","","","","ARRAY","","","null","","<div class='trialBorder'><div class='vertical-center'><img style='vertical-align:center; align:center' src='img/fixation2_sml.jpg'></div><div class='arrayDiv3'><div class='tl'><img class='introPic' src='trustrating_stim/white_mw091.bmp'><br><font color='red'><strong>Keep</strong></font></div><div class='tc'><img class='introPic' src='trustrating_stim/white_mw070.bmp'><br><font color='red'><strong>Keep</strong></font></div><div class='tr'><img class='introPic' src='trustrating_stim/white_mw092.bmp'><br><font color='green'><strong>Share</strong></font></div></div></div>","null","3","trustrating_stim/white_mw091.bmp,trustrating_stim/white_mw070.bmp,trustrating_stim/white_mw092.bmp","0,0,1","Match","e","3000","","","",""
"html-keyboard-response","57","115308","0.0-7.0-3.4","dstest","bdp_wmem","Tue Feb 02 2021 12:24:18 GMT-0500 (Eastern Standard Time)","158310","Match,No Match","","","","DELAY","","","null","","<div class='trialBorder'><div class='vertical-center'><img src='img/fixation2_sml.jpg'</img></div></div>","null","","","","","","","","","",""
"html-keyboard-response","58","116334","0.0-7.0-4.4","dstest","bdp_wmem","Tue Feb 02 2021 12:24:18 GMT-0500 (Eastern Standard Time)","158310","Match,No Match","","","","TARGET","","","1025","","<div class='trialBorder'><div class='targDiv'><div class='tc'><img class='introPic' src='trustrating_stim/white_mw092.bmp'><br><font color='green'><strong>Share</strong></font></div></div><div class='respDiv'><div class='respDivL'>Match<br>(e)</div><div class='respDivR'>No Match<br>(i)</div></div></div>","e","3","trustrating_stim/white_mw091.bmp,trustrating_stim/white_mw070.bmp,trustrating_stim/white_mw092.bmp","0,0,1","Match","e","","trustrating_stim/white_mw003.bmp","red","Keep","1"
"html-keyboard-response","59","116839","0.0-7.0-5.4","dstest","bdp_wmem","Tue Feb 02 2021 12:24:18 GMT-0500 (Eastern Standard Time)","158310","Match,No Match","","","","FEEDBACK","","","null","","<div class='trialBorder'><div class='vertical-center'><img src='img/correct.jpg'></div><div class='respDiv'><div class='respDivL'><font style='color:orange'>Match<br>(e)</font></div><div class='respDivR'>No Match<br>(i)</div></div></div>","null","","","","","","","","","",""
"html-keyboard-response","60","117340","0.0-7.0-1.5","dstest","bdp_wmem","Tue Feb 02 2021 12:24:18 GMT-0500 (Eastern Standard Time)","158310","Match,No Match","","","","FIX","","","null","","<div class='trialBorder'><div class='vertical-center'><img src='img/fixation2_sml.jpg'</img></div></div>","null","","","","","","","","","",""
"html-keyboard-response","61","120344","0.0-7.0-2.5","dstest","bdp_wmem","Tue Feb 02 2021 12:24:18 GMT-0500 (Eastern Standard Time)","158310","Match,No Match","","","","ARRAY","","","null","","<div class='trialBorder'><div class='vertical-center'><img style='vertical-align:center; align:center' src='img/fixation2_sml.jpg'></div><div class='arrayDiv2'><div class='tl'><img class='introPic' src='trustrating_stim/white_mw003.bmp'><br><font color='green'><strong>Share</strong></font></div><div class='tr'><img class='introPic' src='trustrating_stim/white_mw092.bmp'><br><font color='red'><strong>Keep</strong></font></div></div></div>","null","2","trustrating_stim/white_mw003.bmp,trustrating_stim/white_mw092.bmp","1,0","Match","e","3000","","","",""
"html-keyboard-response","62","124350","0.0-7.0-3.5","dstest","bdp_wmem","Tue Feb 02 2021 12:24:18 GMT-0500 (Eastern Standard Time)","158310","Match,No Match","","","","DELAY","","","null","","<div class='trialBorder'><div class='vertical-center'><img src='img/fixation2_sml.jpg'</img></div></div>","null","","","","","","","","","",""
"html-keyboard-response","63","125657","0.0-7.0-4.5","dstest","bdp_wmem","Tue Feb 02 2021 12:24:18 GMT-0500 (Eastern Standard Time)","158310","Match,No Match","","","","TARGET","","","1306","","<div class='trialBorder'><div class='targDiv'><div class='tc'><img class='introPic' src='trustrating_stim/white_mw092.bmp'><br><font color='red'><strong>Keep</strong></font></div></div><div class='respDiv'><div class='respDivL'>Match<br>(e)</div><div class='respDivR'>No Match<br>(i)</div></div></div>","e","2","trustrating_stim/white_mw003.bmp,trustrating_stim/white_mw092.bmp","1,0","Match","e","","trustrating_stim/white_mw003.bmp","red","Keep","1"
"html-keyboard-response","64","126159","0.0-7.0-5.5","dstest","bdp_wmem","Tue Feb 02 2021 12:24:18 GMT-0500 (Eastern Standard Time)","158310","Match,No Match","","","","FEEDBACK","","","null","","<div class='trialBorder'><div class='vertical-center'><img src='img/correct.jpg'></div><div class='respDiv'><div class='respDivL'><font style='color:orange'>Match<br>(e)</font></div><div class='respDivR'>No Match<br>(i)</div></div></div>","null","","","","","","","","","",""
"html-keyboard-response","65","126663","0.0-7.0-1.6","dstest","bdp_wmem","Tue Feb 02 2021 12:24:18 GMT-0500 (Eastern Standard Time)","158310","Match,No Match","","","","FIX","","","null","","<div class='trialBorder'><div class='vertical-center'><img src='img/fixation2_sml.jpg'</img></div></div>","null","","","","","","","","","",""
"html-keyboard-response","66","129668","0.0-7.0-2.6","dstest","bdp_wmem","Tue Feb 02 2021 12:24:18 GMT-0500 (Eastern Standard Time)","158310","Match,No Match","","","","ARRAY","","","null","","<div class='trialBorder'><div class='vertical-center'><img style='vertical-align:center; align:center' src='img/fixation2_sml.jpg'></div><div class='arrayDiv3'><div class='tl'><img class='introPic' src='trustrating_stim/white_mw038.bmp'><br><font color='green'><strong>Share</strong></font></div><div class='tc'><img class='introPic' src='trustrating_stim/white_mw003.bmp'><br><font color='green'><strong>Share</strong></font></div><div class='tr'><img class='introPic' src='trustrating_stim/white_mw012.bmp'><br><font color='red'><strong>Keep</strong></font></div></div></div>","null","3","trustrating_stim/white_mw038.bmp,trustrating_stim/white_mw003.bmp,trustrating_stim/white_mw012.bmp","1,1,0","noMatchOutcome","i","3000","","","",""
"html-keyboard-response","67","133669","0.0-7.0-3.6","dstest","bdp_wmem","Tue Feb 02 2021 12:24:18 GMT-0500 (Eastern Standard Time)","158310","Match,No Match","","","","DELAY","","","null","","<div class='trialBorder'><div class='vertical-center'><img src='img/fixation2_sml.jpg'</img></div></div>","null","","","","","","","","","",""
"html-keyboard-response","68","134743","0.0-7.0-4.6","dstest","bdp_wmem","Tue Feb 02 2021 12:24:18 GMT-0500 (Eastern Standard Time)","158310","Match,No Match","","","","TARGET","","","1073","","<div class='trialBorder'><div class='targDiv'><div class='tc'><img class='introPic' src='trustrating_stim/white_mw003.bmp'><br><font color='red'><strong>Keep</strong></font></div></div><div class='respDiv'><div class='respDivL'>Match<br>(e)</div><div class='respDivR'>No Match<br>(i)</div></div></div>","i","3","trustrating_stim/white_mw038.bmp,trustrating_stim/white_mw003.bmp,trustrating_stim/white_mw012.bmp","1,1,0","noMatchOutcome","i","","trustrating_stim/white_mw003.bmp","red","Keep","1"
"html-keyboard-response","69","135246","0.0-7.0-5.6","dstest","bdp_wmem","Tue Feb 02 2021 12:24:18 GMT-0500 (Eastern Standard Time)","158310","Match,No Match","","","","FEEDBACK","","","null","","<div class='trialBorder'><div class='vertical-center'><img src='img/correct.jpg'></div><div class='respDiv'><div class='respDivL'>Match<br>(e)</div><div class='respDivR'><font style='color:orange'>No Match<br>(i)</font></div></div></div>","null","","","","","","","","","",""
"html-keyboard-response","70","135747","0.0-7.0-1.7","dstest","bdp_wmem","Tue Feb 02 2021 12:24:18 GMT-0500 (Eastern Standard Time)","158310","Match,No Match","","","","FIX","","","null","","<div class='trialBorder'><div class='vertical-center'><img src='img/fixation2_sml.jpg'</img></div></div>","null","","","","","","","","","",""
"html-keyboard-response","71","137253","0.0-7.0-2.7","dstest","bdp_wmem","Tue Feb 02 2021 12:24:18 GMT-0500 (Eastern Standard Time)","158310","Match,No Match","","","","ARRAY","","","null","","<div class='trialBorder'><div class='vertical-center'><img style='vertical-align:center; align:center' src='img/fixation2_sml.jpg'></div><div class='arrayDiv1'><div class='tc'><img class='introPic' src='trustrating_stim/white_mw013.bmp'><br><font color='green'><strong>Share</strong></font></div></div></div>","null","1","trustrating_stim/white_mw013.bmp","1","noMatchOutcome","i","1500","","","",""
"html-keyboard-response","72","141254","0.0-7.0-3.7","dstest","bdp_wmem","Tue Feb 02 2021 12:24:18 GMT-0500 (Eastern Standard Time)","158310","Match,No Match","","","","DELAY","","","null","","<div class='trialBorder'><div class='vertical-center'><img src='img/fixation2_sml.jpg'</img></div></div>","null","","","","","","","","","",""
"html-keyboard-response","73","141897","0.0-7.0-4.7","dstest","bdp_wmem","Tue Feb 02 2021 12:24:18 GMT-0500 (Eastern Standard Time)","158310","Match,No Match","","","","TARGET","","","641","","<div class='trialBorder'><div class='targDiv'><div class='tc'><img class='introPic' src='trustrating_stim/white_mw013.bmp'><br><font color='red'><strong>Keep</strong></font></div></div><div class='respDiv'><div class='respDivL'>Match<br>(e)</div><div class='respDivR'>No Match<br>(i)</div></div></div>","i","1","trustrating_stim/white_mw013.bmp","1","noMatchOutcome","i","","trustrating_stim/white_mw003.bmp","red","Keep","1"
"html-keyboard-response","74","142397","0.0-7.0-5.7","dstest","bdp_wmem","Tue Feb 02 2021 12:24:18 GMT-0500 (Eastern Standard Time)","158310","Match,No Match","","","","FEEDBACK","","","null","","<div class='trialBorder'><div class='vertical-center'><img src='img/correct.jpg'></div><div class='respDiv'><div class='respDivL'>Match<br>(e)</div><div class='respDivR'><font style='color:orange'>No Match<br>(i)</font></div></div></div>","null","","","","","","","","","",""
"html-keyboard-response","75","142902","0.0-7.0-1.8","dstest","bdp_wmem","Tue Feb 02 2021 12:24:18 GMT-0500 (Eastern Standard Time)","158310","Match,No Match","","","","FIX","","","null","","<div class='trialBorder'><div class='vertical-center'><img src='img/fixation2_sml.jpg'</img></div></div>","null","","","","","","","","","",""
"html-keyboard-response","76","144406","0.0-7.0-2.8","dstest","bdp_wmem","Tue Feb 02 2021 12:24:18 GMT-0500 (Eastern Standard Time)","158310","Match,No Match","","","","ARRAY","","","null","","<div class='trialBorder'><div class='vertical-center'><img style='vertical-align:center; align:center' src='img/fixation2_sml.jpg'></div><div class='arrayDiv1'><div class='tc'><img class='introPic' src='trustrating_stim/white_mw091.bmp'><br><font color='red'><strong>Keep</strong></font></div></div></div>","null","1","trustrating_stim/white_mw091.bmp","0","Match","e","1500","","","",""
"html-keyboard-response","77","148407","0.0-7.0-3.8","dstest","bdp_wmem","Tue Feb 02 2021 12:24:18 GMT-0500 (Eastern Standard Time)","158310","Match,No Match","","","","DELAY","","","null","","<div class='trialBorder'><div class='vertical-center'><img src='img/fixation2_sml.jpg'</img></div></div>","null","","","","","","","","","",""
"html-keyboard-response","78","149494","0.0-7.0-4.8","dstest","bdp_wmem","Tue Feb 02 2021 12:24:18 GMT-0500 (Eastern Standard Time)","158310","Match,No Match","","","","TARGET","","","1086","","<div class='trialBorder'><div class='targDiv'><div class='tc'><img class='introPic' src='trustrating_stim/white_mw091.bmp'><br><font color='red'><strong>Keep</strong></font></div></div><div class='respDiv'><div class='respDivL'>Match<br>(e)</div><div class='respDivR'>No Match<br>(i)</div></div></div>","e","1","trustrating_stim/white_mw091.bmp","0","Match","e","","trustrating_stim/white_mw003.bmp","red","Keep","1"
"html-keyboard-response","79","149996","0.0-7.0-5.8","dstest","bdp_wmem","Tue Feb 02 2021 12:24:18 GMT-0500 (Eastern Standard Time)","158310","Match,No Match","","","","FEEDBACK","","","null","","<div class='trialBorder'><div class='vertical-center'><img src='img/correct.jpg'></div><div class='respDiv'><div class='respDivL'><font style='color:orange'>Match<br>(e)</font></div><div class='respDivR'>No Match<br>(i)</div></div></div>","null","","","","","","","","","",""
"html-keyboard-response","80","150499","0.0-7.0-1.9","dstest","bdp_wmem","Tue Feb 02 2021 12:24:18 GMT-0500 (Eastern Standard Time)","158310","Match,No Match","","","","FIX","","","null","","<div class='trialBorder'><div class='vertical-center'><img src='img/fixation2_sml.jpg'</img></div></div>","null","","","","","","","","","",""
"html-keyboard-response","81","152003","0.0-7.0-2.9","dstest","bdp_wmem","Tue Feb 02 2021 12:24:18 GMT-0500 (Eastern Standard Time)","158310","Match,No Match","","","","ARRAY","","","null","","<div class='trialBorder'><div class='vertical-center'><img style='vertical-align:center; align:center' src='img/fixation2_sml.jpg'></div><div class='arrayDiv1'><div class='tc'><img class='introPic' src='trustrating_stim/white_mw040.bmp'><br><font color='green'><strong>Share</strong></font></div></div></div>","null","1","trustrating_stim/white_mw040.bmp","1","Match","e","1500","","","",""
"html-keyboard-response","82","156006","0.0-7.0-3.9","dstest","bdp_wmem","Tue Feb 02 2021 12:24:18 GMT-0500 (Eastern Standard Time)","158310","Match,No Match","","","","DELAY","","","null","","<div class='trialBorder'><div class='vertical-center'><img src='img/fixation2_sml.jpg'</img></div></div>","null","","","","","","","","","",""
"html-keyboard-response","83","156801","0.0-7.0-4.9","dstest","bdp_wmem","Tue Feb 02 2021 12:24:18 GMT-0500 (Eastern Standard Time)","158310","Match,No Match","","","","TARGET","","","793","","<div class='trialBorder'><div class='targDiv'><div class='tc'><img class='introPic' src='trustrating_stim/white_mw040.bmp'><br><font color='green'><strong>Share</strong></font></div></div><div class='respDiv'><div class='respDivL'>Match<br>(e)</div><div class='respDivR'>No Match<br>(i)</div></div></div>","e","1","trustrating_stim/white_mw040.bmp","1","Match","e","","trustrating_stim/white_mw003.bmp","red","Keep","1"
"html-keyboard-response","84","157304","0.0-7.0-5.9","dstest","bdp_wmem","Tue Feb 02 2021 12:24:18 GMT-0500 (Eastern Standard Time)","158310","Match,No Match","","","","FEEDBACK","","","null","","<div class='trialBorder'><div class='vertical-center'><img src='img/correct.jpg'></div><div class='respDiv'><div class='respDivL'><font style='color:orange'>Match<br>(e)</font></div><div class='respDivR'>No Match<br>(i)</div></div></div>","null","","","","","","","","","",""
"","","","","dstest","bdp_wmem","Tue Feb 02 2021 12:24:18 GMT-0500 (Eastern Standard Time)","158310","Match,No Match","fullscreenexit","85","157325","fullscreenexit","","","","","","","","","","","","","","","",""
"fullscreen","85","158309","0.0-8.0","dstest","bdp_wmem","Tue Feb 02 2021 12:24:18 GMT-0500 (Eastern Standard Time)","158310","Match,No Match","","","","","","","","true","","","","","","","","","","","",""
"html-keyboard-response","86","158813","0.0-9.0","","","","","","","","","","","","null","","","null","","","","","","","","","",""
