"trial_type","trial_index","time_elapsed","internal_node_id","subject_id","task","startTime","totalTime","labels","view_history","rt","event","trial","time","trialtype","success","stimulus","key_press","arraySize","arrayFaces","arrayOutcomes","matchType","corrResp","trial_duration","targFace","targCol","targOutcome","corr"
"pavlovia","0","2","0.0-0.0","testing","bdp_wmem","Thu Dec 10 2020 16:42:06 GMT-0500 (EST)","628391","Match,No Match","","","","","","","","","","","","","","","","","","",""
"instructions","1","5363","0.0-1.0","testing","bdp_wmem","Thu Dec 10 2020 16:42:06 GMT-0500 (EST)","628391","Match,No Match","[{""page_index"":0,""viewing_time"":5359}]","5359","","","","","","","","","","","","","","","","",""
"","","","","testing","bdp_wmem","Thu Dec 10 2020 16:42:06 GMT-0500 (EST)","628391","Match,No Match","","","fullscreenenter","2","7949","fullscreenenter","","","","","","","","","","","","",""
"fullscreen","2","8911","0.0-2.0","testing","bdp_wmem","Thu Dec 10 2020 16:42:06 GMT-0500 (EST)","628391","Match,No Match","","","","","","","true","","","","","","","","","","","",""
"instructions","3","140278","0.0-4.0","testing","bdp_wmem","Thu Dec 10 2020 16:42:06 GMT-0500 (EST)","628391","Match,No Match","[{""page_index"":0,""viewing_time"":34903},{""page_index"":1,""viewing_time"":33967},{""page_index"":2,""viewing_time"":15354},{""page_index"":3,""viewing_time"":8225},{""page_index"":4,""viewing_time"":38916}]","131366","","","","","","","","","","","","","","","","",""
"html-keyboard-response","4","140782","0.0-5.0-1.0","testing","bdp_wmem","Thu Dec 10 2020 16:42:06 GMT-0500 (EST)","628391","Match,No Match","","null","","","","FIX","","<div class='trialBorder'><div class='vertical-center'><img src='img/fixation2_sml.jpg'</img></div></div>","null","","","","","","","","","",""
"html-keyboard-response","5","144786","0.0-5.0-2.0","testing","bdp_wmem","Thu Dec 10 2020 16:42:06 GMT-0500 (EST)","628391","Match,No Match","","null","","","","ARRAY","","<div class='trialBorder'><div class='vertical-center'><div class='trialDiv4'><div class='vertical-center'><img style='vertical-align:center; align:center' src='img/fixation2_sml.jpg'></div><div class='tl'><div class='vertical-center'><img class='introPic' src='trustrating_stim/white_mw013.bmp'><br><font color='green'><strong>Share</strong></font></div></div><div class='tr'><div class='vertical-center'><img class='introPic' src='trustrating_stim/white_mw040.bmp'><br><font color='red'><strong>Keep</strong></font></div></div><div class='bl'><div class='vertical-center'><img class='introPic' src='trustrating_stim/white_mw012.bmp'><br><font color='red'><strong>Keep</strong></font></div></div><div class='br'><div class='vertical-center'><img class='introPic' src='trustrating_stim/white_mw033.bmp'><br><font color='green'><strong>Share</strong></font></div></div></div></div></div>","null","4","trustrating_stim/white_mw013.bmp,trustrating_stim/white_mw040.bmp,trustrating_stim/white_mw012.bmp,trustrating_stim/white_mw033.bmp","1,0,0,1","noMatchOutcome","i","4000","","","",""
"html-keyboard-response","6","148788","0.0-5.0-3.0","testing","bdp_wmem","Thu Dec 10 2020 16:42:06 GMT-0500 (EST)","628391","Match,No Match","","null","","","","DELAY","","<div class='trialBorder'><div class='vertical-center'><img src='img/fixation2_sml.jpg'</img></div></div>","null","","","","","","","","","",""
"html-keyboard-response","7","152412","0.0-5.0-4.0","testing","bdp_wmem","Thu Dec 10 2020 16:42:06 GMT-0500 (EST)","628391","Match,No Match","","3622","","","","TARGET","","<div class='trialBorder'><div class='vertical-center'><div class='trialFBDiv'><div class='trialDiv1'><div class='vertical-center'><img class='introPic' src='trustrating_stim/white_mw012.bmp'><br><font color='green'><strong>Share</strong></font></div></div><div class='respDivL'>Match<p>(e)</div><div class='respDivR'>No Match<p>(i)</div></div></div></div>","e","4","trustrating_stim/white_mw013.bmp,trustrating_stim/white_mw040.bmp,trustrating_stim/white_mw012.bmp,trustrating_stim/white_mw033.bmp","1,0,0,1","noMatchOutcome","i","","trustrating_stim/white_mw070.bmp","red","Keep","0"
"html-keyboard-response","8","152914","0.0-5.0-5.0","testing","bdp_wmem","Thu Dec 10 2020 16:42:06 GMT-0500 (EST)","628391","Match,No Match","","null","","","","FEEDBACK","","<div class='trialBorder'><div class='vertical-center'><div class='trialFBDiv'><div class='trialDiv1'><div class='vertical-center'><img src='img/error.jpg'></div></div><div class='respDivL'><font style='color:orange'>Match<p>(e)</font></div><div class='respDivR'>No Match<p>(i)</div></div></div></div>","null","","","","","","","","","",""
"html-keyboard-response","9","153417","0.0-5.0-1.1","testing","bdp_wmem","Thu Dec 10 2020 16:42:06 GMT-0500 (EST)","628391","Match,No Match","","null","","","","FIX","","<div class='trialBorder'><div class='vertical-center'><img src='img/fixation2_sml.jpg'</img></div></div>","null","","","","","","","","","",""
"html-keyboard-response","10","155421","0.0-5.0-2.1","testing","bdp_wmem","Thu Dec 10 2020 16:42:06 GMT-0500 (EST)","628391","Match,No Match","","null","","","","ARRAY","","<div class='trialBorder'><div class='vertical-center'><div class='trialDiv4'><div class='vertical-center'><img style='vertical-align:center; align:center' src='img/fixation2_sml.jpg'></div><div class='tc'><div class='vertical-center'><img class='introPic' src='trustrating_stim/white_mw033.bmp'><br><font color='red'><strong>Keep</strong></font></div></div><div class='bl'><div class='vertical-center'><img class='introPic' src='trustrating_stim/white_00807_941205_fb_edt.bmp'><br><font color='red'><strong>Keep</strong></font></div></div><div class='br'><div class='vertical-center'><img class='introPic' src='trustrating_stim/white_mw012.bmp'><br><font color='green'><strong>Share</strong></font></div></div></div></div></div>","null","3","trustrating_stim/white_mw033.bmp,trustrating_stim/white_00807_941205_fb_edt.bmp,trustrating_stim/white_mw012.bmp","0,0,1","noMatchFace","i","2000","","","",""
"html-keyboard-response","11","159424","0.0-5.0-3.1","testing","bdp_wmem","Thu Dec 10 2020 16:42:06 GMT-0500 (EST)","628391","Match,No Match","","null","","","","DELAY","","<div class='trialBorder'><div class='vertical-center'><img src='img/fixation2_sml.jpg'</img></div></div>","null","","","","","","","","","",""
"html-keyboard-response","12","165272","0.0-5.0-4.1","testing","bdp_wmem","Thu Dec 10 2020 16:42:06 GMT-0500 (EST)","628391","Match,No Match","","5846","","","","TARGET","","<div class='trialBorder'><div class='vertical-center'><div class='trialFBDiv'><div class='trialDiv1'><div class='vertical-center'><img class='introPic' src='trustrating_stim/white_mw003.bmp'><br><font color='red'><strong>Keep</strong></font></div></div><div class='respDivL'>Match<p>(e)</div><div class='respDivR'>No Match<p>(i)</div></div></div></div>","e","3","trustrating_stim/white_mw033.bmp,trustrating_stim/white_00807_941205_fb_edt.bmp,trustrating_stim/white_mw012.bmp","0,0,1","noMatchFace","i","","trustrating_stim/white_mw070.bmp","red","Keep","0"
"html-keyboard-response","13","165775","0.0-5.0-5.1","testing","bdp_wmem","Thu Dec 10 2020 16:42:06 GMT-0500 (EST)","628391","Match,No Match","","null","","","","FEEDBACK","","<div class='trialBorder'><div class='vertical-center'><div class='trialFBDiv'><div class='trialDiv1'><div class='vertical-center'><img src='img/error.jpg'></div></div><div class='respDivL'><font style='color:orange'>Match<p>(e)</font></div><div class='respDivR'>No Match<p>(i)</div></div></div></div>","null","","","","","","","","","",""
"html-keyboard-response","14","166277","0.0-5.0-1.2","testing","bdp_wmem","Thu Dec 10 2020 16:42:06 GMT-0500 (EST)","628391","Match,No Match","","null","","","","FIX","","<div class='trialBorder'><div class='vertical-center'><img src='img/fixation2_sml.jpg'</img></div></div>","null","","","","","","","","","",""
"html-keyboard-response","15","168280","0.0-5.0-2.2","testing","bdp_wmem","Thu Dec 10 2020 16:42:06 GMT-0500 (EST)","628391","Match,No Match","","null","","","","ARRAY","","<div class='trialBorder'><div class='vertical-center'><div class='trialDiv2'><div class='vertical-center'><img style='vertical-align:center; align:center' src='img/fixation2_sml.jpg'></div><div class='tc'><div class='vertical-center'><img class='introPic' src='trustrating_stim/white_mw012.bmp'><br><font color='red'><strong>Keep</strong></font></div></div><div class='bc'><div class='vertical-center'><img class='introPic' src='trustrating_stim/white_mw013.bmp'><br><font color='green'><strong>Share</strong></font></div></div></div></div></div>","null","2","trustrating_stim/white_mw012.bmp,trustrating_stim/white_mw013.bmp","0,1","noMatchFace","i","2000","","","",""
"html-keyboard-response","16","172283","0.0-5.0-3.2","testing","bdp_wmem","Thu Dec 10 2020 16:42:06 GMT-0500 (EST)","628391","Match,No Match","","null","","","","DELAY","","<div class='trialBorder'><div class='vertical-center'><img src='img/fixation2_sml.jpg'</img></div></div>","null","","","","","","","","","",""
"html-keyboard-response","17","172915","0.0-5.0-4.2","testing","bdp_wmem","Thu Dec 10 2020 16:42:06 GMT-0500 (EST)","628391","Match,No Match","","631","","","","TARGET","","<div class='trialBorder'><div class='vertical-center'><div class='trialFBDiv'><div class='trialDiv1'><div class='vertical-center'><img class='introPic' src='trustrating_stim/white_00807_941205_fb_edt.bmp'><br><font color='green'><strong>Share</strong></font></div></div><div class='respDivL'>Match<p>(e)</div><div class='respDivR'>No Match<p>(i)</div></div></div></div>","e","2","trustrating_stim/white_mw012.bmp,trustrating_stim/white_mw013.bmp","0,1","noMatchFace","i","","trustrating_stim/white_mw070.bmp","red","Keep","0"
"html-keyboard-response","18","173418","0.0-5.0-5.2","testing","bdp_wmem","Thu Dec 10 2020 16:42:06 GMT-0500 (EST)","628391","Match,No Match","","null","","","","FEEDBACK","","<div class='trialBorder'><div class='vertical-center'><div class='trialFBDiv'><div class='trialDiv1'><div class='vertical-center'><img src='img/error.jpg'></div></div><div class='respDivL'><font style='color:orange'>Match<p>(e)</font></div><div class='respDivR'>No Match<p>(i)</div></div></div></div>","null","","","","","","","","","",""
"html-keyboard-response","19","173920","0.0-5.0-1.3","testing","bdp_wmem","Thu Dec 10 2020 16:42:06 GMT-0500 (EST)","628391","Match,No Match","","null","","","","FIX","","<div class='trialBorder'><div class='vertical-center'><img src='img/fixation2_sml.jpg'</img></div></div>","null","","","","","","","","","",""
"html-keyboard-response","20","177925","0.0-5.0-2.3","testing","bdp_wmem","Thu Dec 10 2020 16:42:06 GMT-0500 (EST)","628391","Match,No Match","","null","","","","ARRAY","","<div class='trialBorder'><div class='vertical-center'><div class='trialDiv4'><div class='vertical-center'><img style='vertical-align:center; align:center' src='img/fixation2_sml.jpg'></div><div class='tl'><div class='vertical-center'><img class='introPic' src='trustrating_stim/white_mw015.bmp'><br><font color='red'><strong>Keep</strong></font></div></div><div class='tr'><div class='vertical-center'><img class='introPic' src='trustrating_stim/white_mw092.bmp'><br><font color='green'><strong>Share</strong></font></div></div><div class='bl'><div class='vertical-center'><img class='introPic' src='trustrating_stim/white_mw091.bmp'><br><font color='green'><strong>Share</strong></font></div></div><div class='br'><div class='vertical-center'><img class='introPic' src='trustrating_stim/white_mw013.bmp'><br><font color='red'><strong>Keep</strong></font></div></div></div></div></div>","null","4","trustrating_stim/white_mw015.bmp,trustrating_stim/white_mw092.bmp,trustrating_stim/white_mw091.bmp,trustrating_stim/white_mw013.bmp","0,1,1,0","Match","e","4000","","","",""
"html-keyboard-response","21","181927","0.0-5.0-3.3","testing","bdp_wmem","Thu Dec 10 2020 16:42:06 GMT-0500 (EST)","628391","Match,No Match","","null","","","","DELAY","","<div class='trialBorder'><div class='vertical-center'><img src='img/fixation2_sml.jpg'</img></div></div>","null","","","","","","","","","",""
"html-keyboard-response","22","184021","0.0-5.0-4.3","testing","bdp_wmem","Thu Dec 10 2020 16:42:06 GMT-0500 (EST)","628391","Match,No Match","","2093","","","","TARGET","","<div class='trialBorder'><div class='vertical-center'><div class='trialFBDiv'><div class='trialDiv1'><div class='vertical-center'><img class='introPic' src='trustrating_stim/white_mw091.bmp'><br><font color='green'><strong>Share</strong></font></div></div><div class='respDivL'>Match<p>(e)</div><div class='respDivR'>No Match<p>(i)</div></div></div></div>","i","4","trustrating_stim/white_mw015.bmp,trustrating_stim/white_mw092.bmp,trustrating_stim/white_mw091.bmp,trustrating_stim/white_mw013.bmp","0,1,1,0","Match","e","","trustrating_stim/white_mw070.bmp","red","Keep","0"
"html-keyboard-response","23","184523","0.0-5.0-5.3","testing","bdp_wmem","Thu Dec 10 2020 16:42:06 GMT-0500 (EST)","628391","Match,No Match","","null","","","","FEEDBACK","","<div class='trialBorder'><div class='vertical-center'><div class='trialFBDiv'><div class='trialDiv1'><div class='vertical-center'><img src='img/error.jpg'></div></div><div class='respDivL'>Match<p>(e)</div><div class='respDivR'><font style='color:orange'>No Match<p>(i)</font></div></div></div></div>","null","","","","","","","","","",""
"html-keyboard-response","24","185026","0.0-5.0-1.4","testing","bdp_wmem","Thu Dec 10 2020 16:42:06 GMT-0500 (EST)","628391","Match,No Match","","null","","","","FIX","","<div class='trialBorder'><div class='vertical-center'><img src='img/fixation2_sml.jpg'</img></div></div>","null","","","","","","","","","",""
"html-keyboard-response","25","187029","0.0-5.0-2.4","testing","bdp_wmem","Thu Dec 10 2020 16:42:06 GMT-0500 (EST)","628391","Match,No Match","","null","","","","ARRAY","","<div class='trialBorder'><div class='vertical-center'><div class='trialDiv4'><div class='vertical-center'><img style='vertical-align:center; align:center' src='img/fixation2_sml.jpg'></div><div class='tc'><div class='vertical-center'><img class='introPic' src='trustrating_stim/white_mw012.bmp'><br><font color='green'><strong>Share</strong></font></div></div><div class='bl'><div class='vertical-center'><img class='introPic' src='trustrating_stim/white_mw092.bmp'><br><font color='red'><strong>Keep</strong></font></div></div><div class='br'><div class='vertical-center'><img class='introPic' src='trustrating_stim/white_mw003.bmp'><br><font color='green'><strong>Share</strong></font></div></div></div></div></div>","null","3","trustrating_stim/white_mw012.bmp,trustrating_stim/white_mw092.bmp,trustrating_stim/white_mw003.bmp","1,0,1","Match","e","2000","","","",""
"html-keyboard-response","26","191031","0.0-5.0-3.4","testing","bdp_wmem","Thu Dec 10 2020 16:42:06 GMT-0500 (EST)","628391","Match,No Match","","null","","","","DELAY","","<div class='trialBorder'><div class='vertical-center'><img src='img/fixation2_sml.jpg'</img></div></div>","null","","","","","","","","","",""
"html-keyboard-response","27","191566","0.0-5.0-4.4","testing","bdp_wmem","Thu Dec 10 2020 16:42:06 GMT-0500 (EST)","628391","Match,No Match","","534","","","","TARGET","","<div class='trialBorder'><div class='vertical-center'><div class='trialFBDiv'><div class='trialDiv1'><div class='vertical-center'><img class='introPic' src='trustrating_stim/white_mw003.bmp'><br><font color='green'><strong>Share</strong></font></div></div><div class='respDivL'>Match<p>(e)</div><div class='respDivR'>No Match<p>(i)</div></div></div></div>","i","3","trustrating_stim/white_mw012.bmp,trustrating_stim/white_mw092.bmp,trustrating_stim/white_mw003.bmp","1,0,1","Match","e","","trustrating_stim/white_mw070.bmp","red","Keep","0"
"html-keyboard-response","28","192069","0.0-5.0-5.4","testing","bdp_wmem","Thu Dec 10 2020 16:42:06 GMT-0500 (EST)","628391","Match,No Match","","null","","","","FEEDBACK","","<div class='trialBorder'><div class='vertical-center'><div class='trialFBDiv'><div class='trialDiv1'><div class='vertical-center'><img src='img/error.jpg'></div></div><div class='respDivL'>Match<p>(e)</div><div class='respDivR'><font style='color:orange'>No Match<p>(i)</font></div></div></div></div>","null","","","","","","","","","",""
"html-keyboard-response","29","192571","0.0-5.0-1.5","testing","bdp_wmem","Thu Dec 10 2020 16:42:06 GMT-0500 (EST)","628391","Match,No Match","","null","","","","FIX","","<div class='trialBorder'><div class='vertical-center'><img src='img/fixation2_sml.jpg'</img></div></div>","null","","","","","","","","","",""
"html-keyboard-response","30","194574","0.0-5.0-2.5","testing","bdp_wmem","Thu Dec 10 2020 16:42:06 GMT-0500 (EST)","628391","Match,No Match","","null","","","","ARRAY","","<div class='trialBorder'><div class='vertical-center'><div class='trialDiv2'><div class='vertical-center'><img style='vertical-align:center; align:center' src='img/fixation2_sml.jpg'></div><div class='tc'><div class='vertical-center'><img class='introPic' src='trustrating_stim/white_00807_941205_fb_edt.bmp'><br><font color='red'><strong>Keep</strong></font></div></div><div class='bc'><div class='vertical-center'><img class='introPic' src='trustrating_stim/white_00050_931230_fa_edt.bmp'><br><font color='green'><strong>Share</strong></font></div></div></div></div></div>","null","2","trustrating_stim/white_00807_941205_fb_edt.bmp,trustrating_stim/white_00050_931230_fa_edt.bmp","0,1","Match","e","2000","","","",""
"html-keyboard-response","31","198577","0.0-5.0-3.5","testing","bdp_wmem","Thu Dec 10 2020 16:42:06 GMT-0500 (EST)","628391","Match,No Match","","null","","","","DELAY","","<div class='trialBorder'><div class='vertical-center'><img src='img/fixation2_sml.jpg'</img></div></div>","null","","","","","","","","","",""
"html-keyboard-response","32","201101","0.0-5.0-4.5","testing","bdp_wmem","Thu Dec 10 2020 16:42:06 GMT-0500 (EST)","628391","Match,No Match","","2522","","","","TARGET","","<div class='trialBorder'><div class='vertical-center'><div class='trialFBDiv'><div class='trialDiv1'><div class='vertical-center'><img class='introPic' src='trustrating_stim/white_00050_931230_fa_edt.bmp'><br><font color='green'><strong>Share</strong></font></div></div><div class='respDivL'>Match<p>(e)</div><div class='respDivR'>No Match<p>(i)</div></div></div></div>","e","2","trustrating_stim/white_00807_941205_fb_edt.bmp,trustrating_stim/white_00050_931230_fa_edt.bmp","0,1","Match","e","","trustrating_stim/white_mw070.bmp","red","Keep","1"
"html-keyboard-response","33","201604","0.0-5.0-5.5","testing","bdp_wmem","Thu Dec 10 2020 16:42:06 GMT-0500 (EST)","628391","Match,No Match","","null","","","","FEEDBACK","","<div class='trialBorder'><div class='vertical-center'><div class='trialFBDiv'><div class='trialDiv1'><div class='vertical-center'><img src='img/correct.jpg'></div></div><div class='respDivL'><font style='color:orange'>Match<p>(e)</font></div><div class='respDivR'>No Match<p>(i)</div></div></div></div>","null","","","","","","","","","",""
"instructions","34","210807","0.0-6.0","testing","bdp_wmem","Thu Dec 10 2020 16:42:06 GMT-0500 (EST)","628391","Match,No Match","[{""page_index"":0,""viewing_time"":9202}]","9202","","","","","","","","","","","","","","","","",""
"html-keyboard-response","35","211310","0.0-7.0-1.0","testing","bdp_wmem","Thu Dec 10 2020 16:42:06 GMT-0500 (EST)","628391","Match,No Match","","null","","","","FIX","","<div class='trialBorder'><div class='vertical-center'><img src='img/fixation2_sml.jpg'</img></div></div>","null","","","","","","","","","",""
"html-keyboard-response","36","213313","0.0-7.0-2.0","testing","bdp_wmem","Thu Dec 10 2020 16:42:06 GMT-0500 (EST)","628391","Match,No Match","","null","","","","ARRAY","","<div class='trialBorder'><div class='vertical-center'><div class='trialDiv2'><div class='vertical-center'><img style='vertical-align:center; align:center' src='img/fixation2_sml.jpg'></div><div class='tc'><div class='vertical-center'><img class='introPic' src='trustrating_stim/white_mw013.bmp'><br><font color='red'><strong>Keep</strong></font></div></div><div class='bc'><div class='vertical-center'><img class='introPic' src='trustrating_stim/white_mw092.bmp'><br><font color='green'><strong>Share</strong></font></div></div></div></div></div>","null","2","trustrating_stim/white_mw013.bmp,trustrating_stim/white_mw092.bmp","0,1","noMatchOutcome","i","2000","","","",""
"html-keyboard-response","37","217315","0.0-7.0-3.0","testing","bdp_wmem","Thu Dec 10 2020 16:42:06 GMT-0500 (EST)","628391","Match,No Match","","null","","","","DELAY","","<div class='trialBorder'><div class='vertical-center'><img src='img/fixation2_sml.jpg'</img></div></div>","null","","","","","","","","","",""
"html-keyboard-response","38","218773","0.0-7.0-4.0","testing","bdp_wmem","Thu Dec 10 2020 16:42:06 GMT-0500 (EST)","628391","Match,No Match","","1456","","","","TARGET","","<div class='trialBorder'><div class='vertical-center'><div class='trialFBDiv'><div class='trialDiv1'><div class='vertical-center'><img class='introPic' src='trustrating_stim/white_mw013.bmp'><br><font color='green'><strong>Share</strong></font></div></div><div class='respDivL'>Match<p>(e)</div><div class='respDivR'>No Match<p>(i)</div></div></div></div>","i","2","trustrating_stim/white_mw013.bmp,trustrating_stim/white_mw092.bmp","0,1","noMatchOutcome","i","","trustrating_stim/white_mw070.bmp","red","Keep","1"
"html-keyboard-response","39","219276","0.0-7.0-5.0","testing","bdp_wmem","Thu Dec 10 2020 16:42:06 GMT-0500 (EST)","628391","Match,No Match","","null","","","","FEEDBACK","","<div class='trialBorder'><div class='vertical-center'><div class='trialFBDiv'><div class='trialDiv1'><div class='vertical-center'><img src='img/correct.jpg'></div></div><div class='respDivL'>Match<p>(e)</div><div class='respDivR'><font style='color:orange'>No Match<p>(i)</font></div></div></div></div>","null","","","","","","","","","",""
"html-keyboard-response","40","219778","0.0-7.0-1.1","testing","bdp_wmem","Thu Dec 10 2020 16:42:06 GMT-0500 (EST)","628391","Match,No Match","","null","","","","FIX","","<div class='trialBorder'><div class='vertical-center'><img src='img/fixation2_sml.jpg'</img></div></div>","null","","","","","","","","","",""
"html-keyboard-response","41","221781","0.0-7.0-2.1","testing","bdp_wmem","Thu Dec 10 2020 16:42:06 GMT-0500 (EST)","628391","Match,No Match","","null","","","","ARRAY","","<div class='trialBorder'><div class='vertical-center'><div class='trialDiv2'><div class='vertical-center'><img style='vertical-align:center; align:center' src='img/fixation2_sml.jpg'></div><div class='tc'><div class='vertical-center'><img class='introPic' src='trustrating_stim/white_mw092.bmp'><br><font color='green'><strong>Share</strong></font></div></div><div class='bc'><div class='vertical-center'><img class='introPic' src='trustrating_stim/white_00807_941205_fb_edt.bmp'><br><font color='red'><strong>Keep</strong></font></div></div></div></div></div>","null","2","trustrating_stim/white_mw092.bmp,trustrating_stim/white_00807_941205_fb_edt.bmp","1,0","Match","e","2000","","","",""
"html-keyboard-response","42","225783","0.0-7.0-3.1","testing","bdp_wmem","Thu Dec 10 2020 16:42:06 GMT-0500 (EST)","628391","Match,No Match","","null","","","","DELAY","","<div class='trialBorder'><div class='vertical-center'><img src='img/fixation2_sml.jpg'</img></div></div>","null","","","","","","","","","",""
"html-keyboard-response","43","227909","0.0-7.0-4.1","testing","bdp_wmem","Thu Dec 10 2020 16:42:06 GMT-0500 (EST)","628391","Match,No Match","","2125","","","","TARGET","","<div class='trialBorder'><div class='vertical-center'><div class='trialFBDiv'><div class='trialDiv1'><div class='vertical-center'><img class='introPic' src='trustrating_stim/white_00807_941205_fb_edt.bmp'><br><font color='red'><strong>Keep</strong></font></div></div><div class='respDivL'>Match<p>(e)</div><div class='respDivR'>No Match<p>(i)</div></div></div></div>","e","2","trustrating_stim/white_mw092.bmp,trustrating_stim/white_00807_941205_fb_edt.bmp","1,0","Match","e","","trustrating_stim/white_mw070.bmp","red","Keep","1"
"html-keyboard-response","44","228412","0.0-7.0-5.1","testing","bdp_wmem","Thu Dec 10 2020 16:42:06 GMT-0500 (EST)","628391","Match,No Match","","null","","","","FEEDBACK","","<div class='trialBorder'><div class='vertical-center'><div class='trialFBDiv'><div class='trialDiv1'><div class='vertical-center'><img src='img/correct.jpg'></div></div><div class='respDivL'><font style='color:orange'>Match<p>(e)</font></div><div class='respDivR'>No Match<p>(i)</div></div></div></div>","null","","","","","","","","","",""
"html-keyboard-response","45","228914","0.0-7.0-1.2","testing","bdp_wmem","Thu Dec 10 2020 16:42:06 GMT-0500 (EST)","628391","Match,No Match","","null","","","","FIX","","<div class='trialBorder'><div class='vertical-center'><img src='img/fixation2_sml.jpg'</img></div></div>","null","","","","","","","","","",""
"html-keyboard-response","46","232917","0.0-7.0-2.2","testing","bdp_wmem","Thu Dec 10 2020 16:42:06 GMT-0500 (EST)","628391","Match,No Match","","null","","","","ARRAY","","<div class='trialBorder'><div class='vertical-center'><div class='trialDiv4'><div class='vertical-center'><img style='vertical-align:center; align:center' src='img/fixation2_sml.jpg'></div><div class='tl'><div class='vertical-center'><img class='introPic' src='trustrating_stim/white_mw033.bmp'><br><font color='red'><strong>Keep</strong></font></div></div><div class='tr'><div class='vertical-center'><img class='introPic' src='trustrating_stim/white_mw092.bmp'><br><font color='green'><strong>Share</strong></font></div></div><div class='bl'><div class='vertical-center'><img class='introPic' src='trustrating_stim/white_mw070.bmp'><br><font color='green'><strong>Share</strong></font></div></div><div class='br'><div class='vertical-center'><img class='introPic' src='trustrating_stim/white_mw015.bmp'><br><font color='red'><strong>Keep</strong></font></div></div></div></div></div>","null","4","trustrating_stim/white_mw033.bmp,trustrating_stim/white_mw092.bmp,trustrating_stim/white_mw070.bmp,trustrating_stim/white_mw015.bmp","0,1,1,0","noMatchOutcome","i","4000","","","",""
"html-keyboard-response","47","236920","0.0-7.0-3.2","testing","bdp_wmem","Thu Dec 10 2020 16:42:06 GMT-0500 (EST)","628391","Match,No Match","","null","","","","DELAY","","<div class='trialBorder'><div class='vertical-center'><img src='img/fixation2_sml.jpg'</img></div></div>","null","","","","","","","","","",""
"html-keyboard-response","48","238492","0.0-7.0-4.2","testing","bdp_wmem","Thu Dec 10 2020 16:42:06 GMT-0500 (EST)","628391","Match,No Match","","1571","","","","TARGET","","<div class='trialBorder'><div class='vertical-center'><div class='trialFBDiv'><div class='trialDiv1'><div class='vertical-center'><img class='introPic' src='trustrating_stim/white_mw015.bmp'><br><font color='green'><strong>Share</strong></font></div></div><div class='respDivL'>Match<p>(e)</div><div class='respDivR'>No Match<p>(i)</div></div></div></div>","i","4","trustrating_stim/white_mw033.bmp,trustrating_stim/white_mw092.bmp,trustrating_stim/white_mw070.bmp,trustrating_stim/white_mw015.bmp","0,1,1,0","noMatchOutcome","i","","trustrating_stim/white_mw070.bmp","red","Keep","1"
"html-keyboard-response","49","238995","0.0-7.0-5.2","testing","bdp_wmem","Thu Dec 10 2020 16:42:06 GMT-0500 (EST)","628391","Match,No Match","","null","","","","FEEDBACK","","<div class='trialBorder'><div class='vertical-center'><div class='trialFBDiv'><div class='trialDiv1'><div class='vertical-center'><img src='img/correct.jpg'></div></div><div class='respDivL'>Match<p>(e)</div><div class='respDivR'><font style='color:orange'>No Match<p>(i)</font></div></div></div></div>","null","","","","","","","","","",""
"html-keyboard-response","50","239497","0.0-7.0-1.3","testing","bdp_wmem","Thu Dec 10 2020 16:42:06 GMT-0500 (EST)","628391","Match,No Match","","null","","","","FIX","","<div class='trialBorder'><div class='vertical-center'><img src='img/fixation2_sml.jpg'</img></div></div>","null","","","","","","","","","",""
"html-keyboard-response","51","243500","0.0-7.0-2.3","testing","bdp_wmem","Thu Dec 10 2020 16:42:06 GMT-0500 (EST)","628391","Match,No Match","","null","","","","ARRAY","","<div class='trialBorder'><div class='vertical-center'><div class='trialDiv4'><div class='vertical-center'><img style='vertical-align:center; align:center' src='img/fixation2_sml.jpg'></div><div class='tl'><div class='vertical-center'><img class='introPic' src='trustrating_stim/white_mw033.bmp'><br><font color='green'><strong>Share</strong></font></div></div><div class='tr'><div class='vertical-center'><img class='introPic' src='trustrating_stim/white_mw091.bmp'><br><font color='red'><strong>Keep</strong></font></div></div><div class='bl'><div class='vertical-center'><img class='introPic' src='trustrating_stim/white_mw070.bmp'><br><font color='red'><strong>Keep</strong></font></div></div><div class='br'><div class='vertical-center'><img class='introPic' src='trustrating_stim/white_mw038.bmp'><br><font color='green'><strong>Share</strong></font></div></div></div></div></div>","null","4","trustrating_stim/white_mw033.bmp,trustrating_stim/white_mw091.bmp,trustrating_stim/white_mw070.bmp,trustrating_stim/white_mw038.bmp","1,0,0,1","Match","e","4000","","","",""
"html-keyboard-response","52","247502","0.0-7.0-3.3","testing","bdp_wmem","Thu Dec 10 2020 16:42:06 GMT-0500 (EST)","628391","Match,No Match","","null","","","","DELAY","","<div class='trialBorder'><div class='vertical-center'><img src='img/fixation2_sml.jpg'</img></div></div>","null","","","","","","","","","",""
"html-keyboard-response","53","248958","0.0-7.0-4.3","testing","bdp_wmem","Thu Dec 10 2020 16:42:06 GMT-0500 (EST)","628391","Match,No Match","","1454","","","","TARGET","","<div class='trialBorder'><div class='vertical-center'><div class='trialFBDiv'><div class='trialDiv1'><div class='vertical-center'><img class='introPic' src='trustrating_stim/white_mw033.bmp'><br><font color='green'><strong>Share</strong></font></div></div><div class='respDivL'>Match<p>(e)</div><div class='respDivR'>No Match<p>(i)</div></div></div></div>","i","4","trustrating_stim/white_mw033.bmp,trustrating_stim/white_mw091.bmp,trustrating_stim/white_mw070.bmp,trustrating_stim/white_mw038.bmp","1,0,0,1","Match","e","","trustrating_stim/white_mw070.bmp","red","Keep","0"
"html-keyboard-response","54","249460","0.0-7.0-5.3","testing","bdp_wmem","Thu Dec 10 2020 16:42:06 GMT-0500 (EST)","628391","Match,No Match","","null","","","","FEEDBACK","","<div class='trialBorder'><div class='vertical-center'><div class='trialFBDiv'><div class='trialDiv1'><div class='vertical-center'><img src='img/error.jpg'></div></div><div class='respDivL'>Match<p>(e)</div><div class='respDivR'><font style='color:orange'>No Match<p>(i)</font></div></div></div></div>","null","","","","","","","","","",""
"html-keyboard-response","55","249962","0.0-7.0-1.4","testing","bdp_wmem","Thu Dec 10 2020 16:42:06 GMT-0500 (EST)","628391","Match,No Match","","null","","","","FIX","","<div class='trialBorder'><div class='vertical-center'><img src='img/fixation2_sml.jpg'</img></div></div>","null","","","","","","","","","",""
"html-keyboard-response","56","251964","0.0-7.0-2.4","testing","bdp_wmem","Thu Dec 10 2020 16:42:06 GMT-0500 (EST)","628391","Match,No Match","","null","","","","ARRAY","","<div class='trialBorder'><div class='vertical-center'><div class='trialDiv2'><div class='vertical-center'><img style='vertical-align:center; align:center' src='img/fixation2_sml.jpg'></div><div class='tc'><div class='vertical-center'><img class='introPic' src='trustrating_stim/white_mw070.bmp'><br><font color='green'><strong>Share</strong></font></div></div><div class='bc'><div class='vertical-center'><img class='introPic' src='trustrating_stim/white_mw033.bmp'><br><font color='red'><strong>Keep</strong></font></div></div></div></div></div>","null","2","trustrating_stim/white_mw070.bmp,trustrating_stim/white_mw033.bmp","1,0","Match","e","2000","","","",""
"html-keyboard-response","57","255967","0.0-7.0-3.4","testing","bdp_wmem","Thu Dec 10 2020 16:42:06 GMT-0500 (EST)","628391","Match,No Match","","null","","","","DELAY","","<div class='trialBorder'><div class='vertical-center'><img src='img/fixation2_sml.jpg'</img></div></div>","null","","","","","","","","","",""
"html-keyboard-response","58","256803","0.0-7.0-4.4","testing","bdp_wmem","Thu Dec 10 2020 16:42:06 GMT-0500 (EST)","628391","Match,No Match","","835","","","","TARGET","","<div class='trialBorder'><div class='vertical-center'><div class='trialFBDiv'><div class='trialDiv1'><div class='vertical-center'><img class='introPic' src='trustrating_stim/white_mw033.bmp'><br><font color='red'><strong>Keep</strong></font></div></div><div class='respDivL'>Match<p>(e)</div><div class='respDivR'>No Match<p>(i)</div></div></div></div>","e","2","trustrating_stim/white_mw070.bmp,trustrating_stim/white_mw033.bmp","1,0","Match","e","","trustrating_stim/white_mw070.bmp","red","Keep","1"
"html-keyboard-response","59","257306","0.0-7.0-5.4","testing","bdp_wmem","Thu Dec 10 2020 16:42:06 GMT-0500 (EST)","628391","Match,No Match","","null","","","","FEEDBACK","","<div class='trialBorder'><div class='vertical-center'><div class='trialFBDiv'><div class='trialDiv1'><div class='vertical-center'><img src='img/correct.jpg'></div></div><div class='respDivL'><font style='color:orange'>Match<p>(e)</font></div><div class='respDivR'>No Match<p>(i)</div></div></div></div>","null","","","","","","","","","",""
"html-keyboard-response","60","257807","0.0-7.0-1.5","testing","bdp_wmem","Thu Dec 10 2020 16:42:06 GMT-0500 (EST)","628391","Match,No Match","","null","","","","FIX","","<div class='trialBorder'><div class='vertical-center'><img src='img/fixation2_sml.jpg'</img></div></div>","null","","","","","","","","","",""
"html-keyboard-response","61","261810","0.0-7.0-2.5","testing","bdp_wmem","Thu Dec 10 2020 16:42:06 GMT-0500 (EST)","628391","Match,No Match","","null","","","","ARRAY","","<div class='trialBorder'><div class='vertical-center'><div class='trialDiv4'><div class='vertical-center'><img style='vertical-align:center; align:center' src='img/fixation2_sml.jpg'></div><div class='tl'><div class='vertical-center'><img class='introPic' src='trustrating_stim/white_00050_931230_fa_edt.bmp'><br><font color='red'><strong>Keep</strong></font></div></div><div class='tr'><div class='vertical-center'><img class='introPic' src='trustrating_stim/white_mw013.bmp'><br><font color='red'><strong>Keep</strong></font></div></div><div class='bl'><div class='vertical-center'><img class='introPic' src='trustrating_stim/white_mw070.bmp'><br><font color='green'><strong>Share</strong></font></div></div><div class='br'><div class='vertical-center'><img class='introPic' src='trustrating_stim/white_mw038.bmp'><br><font color='green'><strong>Share</strong></font></div></div></div></div></div>","null","4","trustrating_stim/white_00050_931230_fa_edt.bmp,trustrating_stim/white_mw013.bmp,trustrating_stim/white_mw070.bmp,trustrating_stim/white_mw038.bmp","0,0,1,1","noMatchFace","i","4000","","","",""
"html-keyboard-response","62","265812","0.0-7.0-3.5","testing","bdp_wmem","Thu Dec 10 2020 16:42:06 GMT-0500 (EST)","628391","Match,No Match","","null","","","","DELAY","","<div class='trialBorder'><div class='vertical-center'><img src='img/fixation2_sml.jpg'</img></div></div>","null","","","","","","","","","",""
"html-keyboard-response","63","267081","0.0-7.0-4.5","testing","bdp_wmem","Thu Dec 10 2020 16:42:06 GMT-0500 (EST)","628391","Match,No Match","","1268","","","","TARGET","","<div class='trialBorder'><div class='vertical-center'><div class='trialFBDiv'><div class='trialDiv1'><div class='vertical-center'><img class='introPic' src='trustrating_stim/white_mw015.bmp'><br><font color='red'><strong>Keep</strong></font></div></div><div class='respDivL'>Match<p>(e)</div><div class='respDivR'>No Match<p>(i)</div></div></div></div>","e","4","trustrating_stim/white_00050_931230_fa_edt.bmp,trustrating_stim/white_mw013.bmp,trustrating_stim/white_mw070.bmp,trustrating_stim/white_mw038.bmp","0,0,1,1","noMatchFace","i","","trustrating_stim/white_mw070.bmp","red","Keep","0"
"html-keyboard-response","64","267583","0.0-7.0-5.5","testing","bdp_wmem","Thu Dec 10 2020 16:42:06 GMT-0500 (EST)","628391","Match,No Match","","null","","","","FEEDBACK","","<div class='trialBorder'><div class='vertical-center'><div class='trialFBDiv'><div class='trialDiv1'><div class='vertical-center'><img src='img/error.jpg'></div></div><div class='respDivL'><font style='color:orange'>Match<p>(e)</font></div><div class='respDivR'>No Match<p>(i)</div></div></div></div>","null","","","","","","","","","",""
"html-keyboard-response","65","268084","0.0-7.0-1.6","testing","bdp_wmem","Thu Dec 10 2020 16:42:06 GMT-0500 (EST)","628391","Match,No Match","","null","","","","FIX","","<div class='trialBorder'><div class='vertical-center'><img src='img/fixation2_sml.jpg'</img></div></div>","null","","","","","","","","","",""
"html-keyboard-response","66","270087","0.0-7.0-2.6","testing","bdp_wmem","Thu Dec 10 2020 16:42:06 GMT-0500 (EST)","628391","Match,No Match","","null","","","","ARRAY","","<div class='trialBorder'><div class='vertical-center'><div class='trialDiv2'><div class='vertical-center'><img style='vertical-align:center; align:center' src='img/fixation2_sml.jpg'></div><div class='tc'><div class='vertical-center'><img class='introPic' src='trustrating_stim/white_mw015.bmp'><br><font color='red'><strong>Keep</strong></font></div></div><div class='bc'><div class='vertical-center'><img class='introPic' src='trustrating_stim/white_mw091.bmp'><br><font color='green'><strong>Share</strong></font></div></div></div></div></div>","null","2","trustrating_stim/white_mw015.bmp,trustrating_stim/white_mw091.bmp","0,1","noMatchOutcome","i","2000","","","",""
"html-keyboard-response","67","274089","0.0-7.0-3.6","testing","bdp_wmem","Thu Dec 10 2020 16:42:06 GMT-0500 (EST)","628391","Match,No Match","","null","","","","DELAY","","<div class='trialBorder'><div class='vertical-center'><img src='img/fixation2_sml.jpg'</img></div></div>","null","","","","","","","","","",""
"html-keyboard-response","68","275109","0.0-7.0-4.6","testing","bdp_wmem","Thu Dec 10 2020 16:42:06 GMT-0500 (EST)","628391","Match,No Match","","1019","","","","TARGET","","<div class='trialBorder'><div class='vertical-center'><div class='trialFBDiv'><div class='trialDiv1'><div class='vertical-center'><img class='introPic' src='trustrating_stim/white_mw091.bmp'><br><font color='red'><strong>Keep</strong></font></div></div><div class='respDivL'>Match<p>(e)</div><div class='respDivR'>No Match<p>(i)</div></div></div></div>","e","2","trustrating_stim/white_mw015.bmp,trustrating_stim/white_mw091.bmp","0,1","noMatchOutcome","i","","trustrating_stim/white_mw070.bmp","red","Keep","0"
"html-keyboard-response","69","275611","0.0-7.0-5.6","testing","bdp_wmem","Thu Dec 10 2020 16:42:06 GMT-0500 (EST)","628391","Match,No Match","","null","","","","FEEDBACK","","<div class='trialBorder'><div class='vertical-center'><div class='trialFBDiv'><div class='trialDiv1'><div class='vertical-center'><img src='img/error.jpg'></div></div><div class='respDivL'><font style='color:orange'>Match<p>(e)</font></div><div class='respDivR'>No Match<p>(i)</div></div></div></div>","null","","","","","","","","","",""
"html-keyboard-response","70","276113","0.0-7.0-1.7","testing","bdp_wmem","Thu Dec 10 2020 16:42:06 GMT-0500 (EST)","628391","Match,No Match","","null","","","","FIX","","<div class='trialBorder'><div class='vertical-center'><img src='img/fixation2_sml.jpg'</img></div></div>","null","","","","","","","","","",""
"html-keyboard-response","71","280116","0.0-7.0-2.7","testing","bdp_wmem","Thu Dec 10 2020 16:42:06 GMT-0500 (EST)","628391","Match,No Match","","null","","","","ARRAY","","<div class='trialBorder'><div class='vertical-center'><div class='trialDiv4'><div class='vertical-center'><img style='vertical-align:center; align:center' src='img/fixation2_sml.jpg'></div><div class='tl'><div class='vertical-center'><img class='introPic' src='trustrating_stim/white_mw040.bmp'><br><font color='red'><strong>Keep</strong></font></div></div><div class='tr'><div class='vertical-center'><img class='introPic' src='trustrating_stim/white_mw015.bmp'><br><font color='red'><strong>Keep</strong></font></div></div><div class='bl'><div class='vertical-center'><img class='introPic' src='trustrating_stim/white_00050_931230_fa_edt.bmp'><br><font color='green'><strong>Share</strong></font></div></div><div class='br'><div class='vertical-center'><img class='introPic' src='trustrating_stim/white_00807_941205_fb_edt.bmp'><br><font color='green'><strong>Share</strong></font></div></div></div></div></div>","null","4","trustrating_stim/white_mw040.bmp,trustrating_stim/white_mw015.bmp,trustrating_stim/white_00050_931230_fa_edt.bmp,trustrating_stim/white_00807_941205_fb_edt.bmp","0,0,1,1","noMatchFace","i","4000","","","",""
"html-keyboard-response","72","284119","0.0-7.0-3.7","testing","bdp_wmem","Thu Dec 10 2020 16:42:06 GMT-0500 (EST)","628391","Match,No Match","","null","","","","DELAY","","<div class='trialBorder'><div class='vertical-center'><img src='img/fixation2_sml.jpg'</img></div></div>","null","","","","","","","","","",""
"html-keyboard-response","73","284907","0.0-7.0-4.7","testing","bdp_wmem","Thu Dec 10 2020 16:42:06 GMT-0500 (EST)","628391","Match,No Match","","786","","","","TARGET","","<div class='trialBorder'><div class='vertical-center'><div class='trialFBDiv'><div class='trialDiv1'><div class='vertical-center'><img class='introPic' src='trustrating_stim/white_mw092.bmp'><br><font color='green'><strong>Share</strong></font></div></div><div class='respDivL'>Match<p>(e)</div><div class='respDivR'>No Match<p>(i)</div></div></div></div>","i","4","trustrating_stim/white_mw040.bmp,trustrating_stim/white_mw015.bmp,trustrating_stim/white_00050_931230_fa_edt.bmp,trustrating_stim/white_00807_941205_fb_edt.bmp","0,0,1,1","noMatchFace","i","","trustrating_stim/white_mw070.bmp","red","Keep","1"
"html-keyboard-response","74","285409","0.0-7.0-5.7","testing","bdp_wmem","Thu Dec 10 2020 16:42:06 GMT-0500 (EST)","628391","Match,No Match","","null","","","","FEEDBACK","","<div class='trialBorder'><div class='vertical-center'><div class='trialFBDiv'><div class='trialDiv1'><div class='vertical-center'><img src='img/correct.jpg'></div></div><div class='respDivL'>Match<p>(e)</div><div class='respDivR'><font style='color:orange'>No Match<p>(i)</font></div></div></div></div>","null","","","","","","","","","",""
"html-keyboard-response","75","285910","0.0-7.0-1.8","testing","bdp_wmem","Thu Dec 10 2020 16:42:06 GMT-0500 (EST)","628391","Match,No Match","","null","","","","FIX","","<div class='trialBorder'><div class='vertical-center'><img src='img/fixation2_sml.jpg'</img></div></div>","null","","","","","","","","","",""
"html-keyboard-response","76","287913","0.0-7.0-2.8","testing","bdp_wmem","Thu Dec 10 2020 16:42:06 GMT-0500 (EST)","628391","Match,No Match","","null","","","","ARRAY","","<div class='trialBorder'><div class='vertical-center'><div class='trialDiv2'><div class='vertical-center'><img style='vertical-align:center; align:center' src='img/fixation2_sml.jpg'></div><div class='tc'><div class='vertical-center'><img class='introPic' src='trustrating_stim/white_mw092.bmp'><br><font color='red'><strong>Keep</strong></font></div></div><div class='bc'><div class='vertical-center'><img class='introPic' src='trustrating_stim/white_mw070.bmp'><br><font color='green'><strong>Share</strong></font></div></div></div></div></div>","null","2","trustrating_stim/white_mw092.bmp,trustrating_stim/white_mw070.bmp","0,1","noMatchOutcome","i","2000","","","",""
"html-keyboard-response","77","291915","0.0-7.0-3.8","testing","bdp_wmem","Thu Dec 10 2020 16:42:06 GMT-0500 (EST)","628391","Match,No Match","","null","","","","DELAY","","<div class='trialBorder'><div class='vertical-center'><img src='img/fixation2_sml.jpg'</img></div></div>","null","","","","","","","","","",""
"html-keyboard-response","78","292578","0.0-7.0-4.8","testing","bdp_wmem","Thu Dec 10 2020 16:42:06 GMT-0500 (EST)","628391","Match,No Match","","662","","","","TARGET","","<div class='trialBorder'><div class='vertical-center'><div class='trialFBDiv'><div class='trialDiv1'><div class='vertical-center'><img class='introPic' src='trustrating_stim/white_mw092.bmp'><br><font color='green'><strong>Share</strong></font></div></div><div class='respDivL'>Match<p>(e)</div><div class='respDivR'>No Match<p>(i)</div></div></div></div>","i","2","trustrating_stim/white_mw092.bmp,trustrating_stim/white_mw070.bmp","0,1","noMatchOutcome","i","","trustrating_stim/white_mw070.bmp","red","Keep","1"
"html-keyboard-response","79","293080","0.0-7.0-5.8","testing","bdp_wmem","Thu Dec 10 2020 16:42:06 GMT-0500 (EST)","628391","Match,No Match","","null","","","","FEEDBACK","","<div class='trialBorder'><div class='vertical-center'><div class='trialFBDiv'><div class='trialDiv1'><div class='vertical-center'><img src='img/correct.jpg'></div></div><div class='respDivL'>Match<p>(e)</div><div class='respDivR'><font style='color:orange'>No Match<p>(i)</font></div></div></div></div>","null","","","","","","","","","",""
"html-keyboard-response","80","293582","0.0-7.0-1.9","testing","bdp_wmem","Thu Dec 10 2020 16:42:06 GMT-0500 (EST)","628391","Match,No Match","","null","","","","FIX","","<div class='trialBorder'><div class='vertical-center'><img src='img/fixation2_sml.jpg'</img></div></div>","null","","","","","","","","","",""
"html-keyboard-response","81","295585","0.0-7.0-2.9","testing","bdp_wmem","Thu Dec 10 2020 16:42:06 GMT-0500 (EST)","628391","Match,No Match","","null","","","","ARRAY","","<div class='trialBorder'><div class='vertical-center'><div class='trialDiv4'><div class='vertical-center'><img style='vertical-align:center; align:center' src='img/fixation2_sml.jpg'></div><div class='tc'><div class='vertical-center'><img class='introPic' src='trustrating_stim/white_mw070.bmp'><br><font color='red'><strong>Keep</strong></font></div></div><div class='bl'><div class='vertical-center'><img class='introPic' src='trustrating_stim/white_mw003.bmp'><br><font color='red'><strong>Keep</strong></font></div></div><div class='br'><div class='vertical-center'><img class='introPic' src='trustrating_stim/white_mw038.bmp'><br><font color='green'><strong>Share</strong></font></div></div></div></div></div>","null","3","trustrating_stim/white_mw070.bmp,trustrating_stim/white_mw003.bmp,trustrating_stim/white_mw038.bmp","0,0,1","Match","e","2000","","","",""
"html-keyboard-response","82","299587","0.0-7.0-3.9","testing","bdp_wmem","Thu Dec 10 2020 16:42:06 GMT-0500 (EST)","628391","Match,No Match","","null","","","","DELAY","","<div class='trialBorder'><div class='vertical-center'><img src='img/fixation2_sml.jpg'</img></div></div>","null","","","","","","","","","",""
"html-keyboard-response","83","300367","0.0-7.0-4.9","testing","bdp_wmem","Thu Dec 10 2020 16:42:06 GMT-0500 (EST)","628391","Match,No Match","","779","","","","TARGET","","<div class='trialBorder'><div class='vertical-center'><div class='trialFBDiv'><div class='trialDiv1'><div class='vertical-center'><img class='introPic' src='trustrating_stim/white_mw003.bmp'><br><font color='red'><strong>Keep</strong></font></div></div><div class='respDivL'>Match<p>(e)</div><div class='respDivR'>No Match<p>(i)</div></div></div></div>","e","3","trustrating_stim/white_mw070.bmp,trustrating_stim/white_mw003.bmp,trustrating_stim/white_mw038.bmp","0,0,1","Match","e","","trustrating_stim/white_mw070.bmp","red","Keep","1"
"html-keyboard-response","84","300870","0.0-7.0-5.9","testing","bdp_wmem","Thu Dec 10 2020 16:42:06 GMT-0500 (EST)","628391","Match,No Match","","null","","","","FEEDBACK","","<div class='trialBorder'><div class='vertical-center'><div class='trialFBDiv'><div class='trialDiv1'><div class='vertical-center'><img src='img/correct.jpg'></div></div><div class='respDivL'><font style='color:orange'>Match<p>(e)</font></div><div class='respDivR'>No Match<p>(i)</div></div></div></div>","null","","","","","","","","","",""
"html-keyboard-response","85","301372","0.0-7.0-1.10","testing","bdp_wmem","Thu Dec 10 2020 16:42:06 GMT-0500 (EST)","628391","Match,No Match","","null","","","","FIX","","<div class='trialBorder'><div class='vertical-center'><img src='img/fixation2_sml.jpg'</img></div></div>","null","","","","","","","","","",""
"html-keyboard-response","86","305375","0.0-7.0-2.10","testing","bdp_wmem","Thu Dec 10 2020 16:42:06 GMT-0500 (EST)","628391","Match,No Match","","null","","","","ARRAY","","<div class='trialBorder'><div class='vertical-center'><div class='trialDiv4'><div class='vertical-center'><img style='vertical-align:center; align:center' src='img/fixation2_sml.jpg'></div><div class='tl'><div class='vertical-center'><img class='introPic' src='trustrating_stim/white_mw015.bmp'><br><font color='red'><strong>Keep</strong></font></div></div><div class='tr'><div class='vertical-center'><img class='introPic' src='trustrating_stim/white_mw092.bmp'><br><font color='green'><strong>Share</strong></font></div></div><div class='bl'><div class='vertical-center'><img class='introPic' src='trustrating_stim/white_mw091.bmp'><br><font color='green'><strong>Share</strong></font></div></div><div class='br'><div class='vertical-center'><img class='introPic' src='trustrating_stim/white_mw013.bmp'><br><font color='red'><strong>Keep</strong></font></div></div></div></div></div>","null","4","trustrating_stim/white_mw015.bmp,trustrating_stim/white_mw092.bmp,trustrating_stim/white_mw091.bmp,trustrating_stim/white_mw013.bmp","0,1,1,0","Match","e","4000","","","",""
"html-keyboard-response","87","309377","0.0-7.0-3.10","testing","bdp_wmem","Thu Dec 10 2020 16:42:06 GMT-0500 (EST)","628391","Match,No Match","","null","","","","DELAY","","<div class='trialBorder'><div class='vertical-center'><img src='img/fixation2_sml.jpg'</img></div></div>","null","","","","","","","","","",""
"html-keyboard-response","88","310199","0.0-7.0-4.10","testing","bdp_wmem","Thu Dec 10 2020 16:42:06 GMT-0500 (EST)","628391","Match,No Match","","821","","","","TARGET","","<div class='trialBorder'><div class='vertical-center'><div class='trialFBDiv'><div class='trialDiv1'><div class='vertical-center'><img class='introPic' src='trustrating_stim/white_mw091.bmp'><br><font color='green'><strong>Share</strong></font></div></div><div class='respDivL'>Match<p>(e)</div><div class='respDivR'>No Match<p>(i)</div></div></div></div>","i","4","trustrating_stim/white_mw015.bmp,trustrating_stim/white_mw092.bmp,trustrating_stim/white_mw091.bmp,trustrating_stim/white_mw013.bmp","0,1,1,0","Match","e","","trustrating_stim/white_mw070.bmp","red","Keep","0"
"html-keyboard-response","89","310702","0.0-7.0-5.10","testing","bdp_wmem","Thu Dec 10 2020 16:42:06 GMT-0500 (EST)","628391","Match,No Match","","null","","","","FEEDBACK","","<div class='trialBorder'><div class='vertical-center'><div class='trialFBDiv'><div class='trialDiv1'><div class='vertical-center'><img src='img/error.jpg'></div></div><div class='respDivL'>Match<p>(e)</div><div class='respDivR'><font style='color:orange'>No Match<p>(i)</font></div></div></div></div>","null","","","","","","","","","",""
"html-keyboard-response","90","311203","0.0-7.0-1.11","testing","bdp_wmem","Thu Dec 10 2020 16:42:06 GMT-0500 (EST)","628391","Match,No Match","","null","","","","FIX","","<div class='trialBorder'><div class='vertical-center'><img src='img/fixation2_sml.jpg'</img></div></div>","null","","","","","","","","","",""
"html-keyboard-response","91","313206","0.0-7.0-2.11","testing","bdp_wmem","Thu Dec 10 2020 16:42:06 GMT-0500 (EST)","628391","Match,No Match","","null","","","","ARRAY","","<div class='trialBorder'><div class='vertical-center'><div class='trialDiv4'><div class='vertical-center'><img style='vertical-align:center; align:center' src='img/fixation2_sml.jpg'></div><div class='tc'><div class='vertical-center'><img class='introPic' src='trustrating_stim/white_00807_941205_fb_edt.bmp'><br><font color='red'><strong>Keep</strong></font></div></div><div class='bl'><div class='vertical-center'><img class='introPic' src='trustrating_stim/white_mw013.bmp'><br><font color='green'><strong>Share</strong></font></div></div><div class='br'><div class='vertical-center'><img class='introPic' src='trustrating_stim/white_00050_931230_fa_edt.bmp'><br><font color='red'><strong>Keep</strong></font></div></div></div></div></div>","null","3","trustrating_stim/white_00807_941205_fb_edt.bmp,trustrating_stim/white_mw013.bmp,trustrating_stim/white_00050_931230_fa_edt.bmp","0,1,0","Match","e","2000","","","",""
"html-keyboard-response","92","317208","0.0-7.0-3.11","testing","bdp_wmem","Thu Dec 10 2020 16:42:06 GMT-0500 (EST)","628391","Match,No Match","","null","","","","DELAY","","<div class='trialBorder'><div class='vertical-center'><img src='img/fixation2_sml.jpg'</img></div></div>","null","","","","","","","","","",""
"html-keyboard-response","93","317781","0.0-7.0-4.11","testing","bdp_wmem","Thu Dec 10 2020 16:42:06 GMT-0500 (EST)","628391","Match,No Match","","571","","","","TARGET","","<div class='trialBorder'><div class='vertical-center'><div class='trialFBDiv'><div class='trialDiv1'><div class='vertical-center'><img class='introPic' src='trustrating_stim/white_00050_931230_fa_edt.bmp'><br><font color='red'><strong>Keep</strong></font></div></div><div class='respDivL'>Match<p>(e)</div><div class='respDivR'>No Match<p>(i)</div></div></div></div>","e","3","trustrating_stim/white_00807_941205_fb_edt.bmp,trustrating_stim/white_mw013.bmp,trustrating_stim/white_00050_931230_fa_edt.bmp","0,1,0","Match","e","","trustrating_stim/white_mw070.bmp","red","Keep","1"
"html-keyboard-response","94","318283","0.0-7.0-5.11","testing","bdp_wmem","Thu Dec 10 2020 16:42:06 GMT-0500 (EST)","628391","Match,No Match","","null","","","","FEEDBACK","","<div class='trialBorder'><div class='vertical-center'><div class='trialFBDiv'><div class='trialDiv1'><div class='vertical-center'><img src='img/correct.jpg'></div></div><div class='respDivL'><font style='color:orange'>Match<p>(e)</font></div><div class='respDivR'>No Match<p>(i)</div></div></div></div>","null","","","","","","","","","",""
"html-keyboard-response","95","318785","0.0-7.0-1.12","testing","bdp_wmem","Thu Dec 10 2020 16:42:06 GMT-0500 (EST)","628391","Match,No Match","","null","","","","FIX","","<div class='trialBorder'><div class='vertical-center'><img src='img/fixation2_sml.jpg'</img></div></div>","null","","","","","","","","","",""
"html-keyboard-response","96","320787","0.0-7.0-2.12","testing","bdp_wmem","Thu Dec 10 2020 16:42:06 GMT-0500 (EST)","628391","Match,No Match","","null","","","","ARRAY","","<div class='trialBorder'><div class='vertical-center'><div class='trialDiv4'><div class='vertical-center'><img style='vertical-align:center; align:center' src='img/fixation2_sml.jpg'></div><div class='tc'><div class='vertical-center'><img class='introPic' src='trustrating_stim/white_mw038.bmp'><br><font color='red'><strong>Keep</strong></font></div></div><div class='bl'><div class='vertical-center'><img class='introPic' src='trustrating_stim/white_mw070.bmp'><br><font color='green'><strong>Share</strong></font></div></div><div class='br'><div class='vertical-center'><img class='introPic' src='trustrating_stim/white_mw003.bmp'><br><font color='green'><strong>Share</strong></font></div></div></div></div></div>","null","3","trustrating_stim/white_mw038.bmp,trustrating_stim/white_mw070.bmp,trustrating_stim/white_mw003.bmp","0,1,1","noMatchOutcome","i","2000","","","",""
"html-keyboard-response","97","324789","0.0-7.0-3.12","testing","bdp_wmem","Thu Dec 10 2020 16:42:06 GMT-0500 (EST)","628391","Match,No Match","","null","","","","DELAY","","<div class='trialBorder'><div class='vertical-center'><img src='img/fixation2_sml.jpg'</img></div></div>","null","","","","","","","","","",""
"html-keyboard-response","98","326206","0.0-7.0-4.12","testing","bdp_wmem","Thu Dec 10 2020 16:42:06 GMT-0500 (EST)","628391","Match,No Match","","1416","","","","TARGET","","<div class='trialBorder'><div class='vertical-center'><div class='trialFBDiv'><div class='trialDiv1'><div class='vertical-center'><img class='introPic' src='trustrating_stim/white_mw003.bmp'><br><font color='red'><strong>Keep</strong></font></div></div><div class='respDivL'>Match<p>(e)</div><div class='respDivR'>No Match<p>(i)</div></div></div></div>","i","3","trustrating_stim/white_mw038.bmp,trustrating_stim/white_mw070.bmp,trustrating_stim/white_mw003.bmp","0,1,1","noMatchOutcome","i","","trustrating_stim/white_mw070.bmp","red","Keep","1"
"html-keyboard-response","99","326709","0.0-7.0-5.12","testing","bdp_wmem","Thu Dec 10 2020 16:42:06 GMT-0500 (EST)","628391","Match,No Match","","null","","","","FEEDBACK","","<div class='trialBorder'><div class='vertical-center'><div class='trialFBDiv'><div class='trialDiv1'><div class='vertical-center'><img src='img/correct.jpg'></div></div><div class='respDivL'>Match<p>(e)</div><div class='respDivR'><font style='color:orange'>No Match<p>(i)</font></div></div></div></div>","null","","","","","","","","","",""
"html-keyboard-response","100","327211","0.0-7.0-1.13","testing","bdp_wmem","Thu Dec 10 2020 16:42:06 GMT-0500 (EST)","628391","Match,No Match","","null","","","","FIX","","<div class='trialBorder'><div class='vertical-center'><img src='img/fixation2_sml.jpg'</img></div></div>","null","","","","","","","","","",""
"html-keyboard-response","101","331213","0.0-7.0-2.13","testing","bdp_wmem","Thu Dec 10 2020 16:42:06 GMT-0500 (EST)","628391","Match,No Match","","null","","","","ARRAY","","<div class='trialBorder'><div class='vertical-center'><div class='trialDiv4'><div class='vertical-center'><img style='vertical-align:center; align:center' src='img/fixation2_sml.jpg'></div><div class='tl'><div class='vertical-center'><img class='introPic' src='trustrating_stim/white_mw003.bmp'><br><font color='green'><strong>Share</strong></font></div></div><div class='tr'><div class='vertical-center'><img class='introPic' src='trustrating_stim/white_00050_931230_fa_edt.bmp'><br><font color='red'><strong>Keep</strong></font></div></div><div class='bl'><div class='vertical-center'><img class='introPic' src='trustrating_stim/white_mw015.bmp'><br><font color='red'><strong>Keep</strong></font></div></div><div class='br'><div class='vertical-center'><img class='introPic' src='trustrating_stim/white_mw040.bmp'><br><font color='green'><strong>Share</strong></font></div></div></div></div></div>","null","4","trustrating_stim/white_mw003.bmp,trustrating_stim/white_00050_931230_fa_edt.bmp,trustrating_stim/white_mw015.bmp,trustrating_stim/white_mw040.bmp","1,0,0,1","noMatchFace","i","4000","","","",""
"html-keyboard-response","102","335216","0.0-7.0-3.13","testing","bdp_wmem","Thu Dec 10 2020 16:42:06 GMT-0500 (EST)","628391","Match,No Match","","null","","","","DELAY","","<div class='trialBorder'><div class='vertical-center'><img src='img/fixation2_sml.jpg'</img></div></div>","null","","","","","","","","","",""
"html-keyboard-response","103","335637","0.0-7.0-4.13","testing","bdp_wmem","Thu Dec 10 2020 16:42:06 GMT-0500 (EST)","628391","Match,No Match","","420","","","","TARGET","","<div class='trialBorder'><div class='vertical-center'><div class='trialFBDiv'><div class='trialDiv1'><div class='vertical-center'><img class='introPic' src='trustrating_stim/white_mw091.bmp'><br><font color='red'><strong>Keep</strong></font></div></div><div class='respDivL'>Match<p>(e)</div><div class='respDivR'>No Match<p>(i)</div></div></div></div>","e","4","trustrating_stim/white_mw003.bmp,trustrating_stim/white_00050_931230_fa_edt.bmp,trustrating_stim/white_mw015.bmp,trustrating_stim/white_mw040.bmp","1,0,0,1","noMatchFace","i","","trustrating_stim/white_mw070.bmp","red","Keep","0"
"html-keyboard-response","104","336138","0.0-7.0-5.13","testing","bdp_wmem","Thu Dec 10 2020 16:42:06 GMT-0500 (EST)","628391","Match,No Match","","null","","","","FEEDBACK","","<div class='trialBorder'><div class='vertical-center'><div class='trialFBDiv'><div class='trialDiv1'><div class='vertical-center'><img src='img/error.jpg'></div></div><div class='respDivL'><font style='color:orange'>Match<p>(e)</font></div><div class='respDivR'>No Match<p>(i)</div></div></div></div>","null","","","","","","","","","",""
"html-keyboard-response","105","336641","0.0-7.0-1.14","testing","bdp_wmem","Thu Dec 10 2020 16:42:06 GMT-0500 (EST)","628391","Match,No Match","","null","","","","FIX","","<div class='trialBorder'><div class='vertical-center'><img src='img/fixation2_sml.jpg'</img></div></div>","null","","","","","","","","","",""
"html-keyboard-response","106","338642","0.0-7.0-2.14","testing","bdp_wmem","Thu Dec 10 2020 16:42:06 GMT-0500 (EST)","628391","Match,No Match","","null","","","","ARRAY","","<div class='trialBorder'><div class='vertical-center'><div class='trialDiv2'><div class='vertical-center'><img style='vertical-align:center; align:center' src='img/fixation2_sml.jpg'></div><div class='tc'><div class='vertical-center'><img class='introPic' src='trustrating_stim/white_mw012.bmp'><br><font color='red'><strong>Keep</strong></font></div></div><div class='bc'><div class='vertical-center'><img class='introPic' src='trustrating_stim/white_mw013.bmp'><br><font color='green'><strong>Share</strong></font></div></div></div></div></div>","null","2","trustrating_stim/white_mw012.bmp,trustrating_stim/white_mw013.bmp","0,1","noMatchFace","i","2000","","","",""
"html-keyboard-response","107","342644","0.0-7.0-3.14","testing","bdp_wmem","Thu Dec 10 2020 16:42:06 GMT-0500 (EST)","628391","Match,No Match","","null","","","","DELAY","","<div class='trialBorder'><div class='vertical-center'><img src='img/fixation2_sml.jpg'</img></div></div>","null","","","","","","","","","",""
"html-keyboard-response","108","343280","0.0-7.0-4.14","testing","bdp_wmem","Thu Dec 10 2020 16:42:06 GMT-0500 (EST)","628391","Match,No Match","","635","","","","TARGET","","<div class='trialBorder'><div class='vertical-center'><div class='trialFBDiv'><div class='trialDiv1'><div class='vertical-center'><img class='introPic' src='trustrating_stim/white_00807_941205_fb_edt.bmp'><br><font color='green'><strong>Share</strong></font></div></div><div class='respDivL'>Match<p>(e)</div><div class='respDivR'>No Match<p>(i)</div></div></div></div>","e","2","trustrating_stim/white_mw012.bmp,trustrating_stim/white_mw013.bmp","0,1","noMatchFace","i","","trustrating_stim/white_mw070.bmp","red","Keep","0"
"html-keyboard-response","109","343792","0.0-7.0-5.14","testing","bdp_wmem","Thu Dec 10 2020 16:42:06 GMT-0500 (EST)","628391","Match,No Match","","null","","","","FEEDBACK","","<div class='trialBorder'><div class='vertical-center'><div class='trialFBDiv'><div class='trialDiv1'><div class='vertical-center'><img src='img/error.jpg'></div></div><div class='respDivL'><font style='color:orange'>Match<p>(e)</font></div><div class='respDivR'>No Match<p>(i)</div></div></div></div>","null","","","","","","","","","",""
"html-keyboard-response","110","344294","0.0-7.0-1.15","testing","bdp_wmem","Thu Dec 10 2020 16:42:06 GMT-0500 (EST)","628391","Match,No Match","","null","","","","FIX","","<div class='trialBorder'><div class='vertical-center'><img src='img/fixation2_sml.jpg'</img></div></div>","null","","","","","","","","","",""
"html-keyboard-response","111","348297","0.0-7.0-2.15","testing","bdp_wmem","Thu Dec 10 2020 16:42:06 GMT-0500 (EST)","628391","Match,No Match","","null","","","","ARRAY","","<div class='trialBorder'><div class='vertical-center'><div class='trialDiv4'><div class='vertical-center'><img style='vertical-align:center; align:center' src='img/fixation2_sml.jpg'></div><div class='tl'><div class='vertical-center'><img class='introPic' src='trustrating_stim/white_mw038.bmp'><br><font color='red'><strong>Keep</strong></font></div></div><div class='tr'><div class='vertical-center'><img class='introPic' src='trustrating_stim/white_mw070.bmp'><br><font color='green'><strong>Share</strong></font></div></div><div class='bl'><div class='vertical-center'><img class='introPic' src='trustrating_stim/white_mw013.bmp'><br><font color='red'><strong>Keep</strong></font></div></div><div class='br'><div class='vertical-center'><img class='introPic' src='trustrating_stim/white_mw091.bmp'><br><font color='green'><strong>Share</strong></font></div></div></div></div></div>","null","4","trustrating_stim/white_mw038.bmp,trustrating_stim/white_mw070.bmp,trustrating_stim/white_mw013.bmp,trustrating_stim/white_mw091.bmp","0,1,0,1","noMatchOutcome","i","4000","","","",""
"html-keyboard-response","112","352298","0.0-7.0-3.15","testing","bdp_wmem","Thu Dec 10 2020 16:42:06 GMT-0500 (EST)","628391","Match,No Match","","null","","","","DELAY","","<div class='trialBorder'><div class='vertical-center'><img src='img/fixation2_sml.jpg'</img></div></div>","null","","","","","","","","","",""
"html-keyboard-response","113","353312","0.0-7.0-4.15","testing","bdp_wmem","Thu Dec 10 2020 16:42:06 GMT-0500 (EST)","628391","Match,No Match","","1012","","","","TARGET","","<div class='trialBorder'><div class='vertical-center'><div class='trialFBDiv'><div class='trialDiv1'><div class='vertical-center'><img class='introPic' src='trustrating_stim/white_mw070.bmp'><br><font color='red'><strong>Keep</strong></font></div></div><div class='respDivL'>Match<p>(e)</div><div class='respDivR'>No Match<p>(i)</div></div></div></div>","e","4","trustrating_stim/white_mw038.bmp,trustrating_stim/white_mw070.bmp,trustrating_stim/white_mw013.bmp,trustrating_stim/white_mw091.bmp","0,1,0,1","noMatchOutcome","i","","trustrating_stim/white_mw070.bmp","red","Keep","0"
"html-keyboard-response","114","353813","0.0-7.0-5.15","testing","bdp_wmem","Thu Dec 10 2020 16:42:06 GMT-0500 (EST)","628391","Match,No Match","","null","","","","FEEDBACK","","<div class='trialBorder'><div class='vertical-center'><div class='trialFBDiv'><div class='trialDiv1'><div class='vertical-center'><img src='img/error.jpg'></div></div><div class='respDivL'><font style='color:orange'>Match<p>(e)</font></div><div class='respDivR'>No Match<p>(i)</div></div></div></div>","null","","","","","","","","","",""
"html-keyboard-response","115","354315","0.0-7.0-1.16","testing","bdp_wmem","Thu Dec 10 2020 16:42:06 GMT-0500 (EST)","628391","Match,No Match","","null","","","","FIX","","<div class='trialBorder'><div class='vertical-center'><img src='img/fixation2_sml.jpg'</img></div></div>","null","","","","","","","","","",""
"html-keyboard-response","116","356318","0.0-7.0-2.16","testing","bdp_wmem","Thu Dec 10 2020 16:42:06 GMT-0500 (EST)","628391","Match,No Match","","null","","","","ARRAY","","<div class='trialBorder'><div class='vertical-center'><div class='trialDiv2'><div class='vertical-center'><img style='vertical-align:center; align:center' src='img/fixation2_sml.jpg'></div><div class='tc'><div class='vertical-center'><img class='introPic' src='trustrating_stim/white_mw013.bmp'><br><font color='red'><strong>Keep</strong></font></div></div><div class='bc'><div class='vertical-center'><img class='introPic' src='trustrating_stim/white_mw038.bmp'><br><font color='green'><strong>Share</strong></font></div></div></div></div></div>","null","2","trustrating_stim/white_mw013.bmp,trustrating_stim/white_mw038.bmp","0,1","noMatchFace","i","2000","","","",""
"html-keyboard-response","117","360320","0.0-7.0-3.16","testing","bdp_wmem","Thu Dec 10 2020 16:42:06 GMT-0500 (EST)","628391","Match,No Match","","null","","","","DELAY","","<div class='trialBorder'><div class='vertical-center'><img src='img/fixation2_sml.jpg'</img></div></div>","null","","","","","","","","","",""
"html-keyboard-response","118","361165","0.0-7.0-4.16","testing","bdp_wmem","Thu Dec 10 2020 16:42:06 GMT-0500 (EST)","628391","Match,No Match","","843","","","","TARGET","","<div class='trialBorder'><div class='vertical-center'><div class='trialFBDiv'><div class='trialDiv1'><div class='vertical-center'><img class='introPic' src='trustrating_stim/white_mw091.bmp'><br><font color='green'><strong>Share</strong></font></div></div><div class='respDivL'>Match<p>(e)</div><div class='respDivR'>No Match<p>(i)</div></div></div></div>","i","2","trustrating_stim/white_mw013.bmp,trustrating_stim/white_mw038.bmp","0,1","noMatchFace","i","","trustrating_stim/white_mw070.bmp","red","Keep","1"
"html-keyboard-response","119","361667","0.0-7.0-5.16","testing","bdp_wmem","Thu Dec 10 2020 16:42:06 GMT-0500 (EST)","628391","Match,No Match","","null","","","","FEEDBACK","","<div class='trialBorder'><div class='vertical-center'><div class='trialFBDiv'><div class='trialDiv1'><div class='vertical-center'><img src='img/correct.jpg'></div></div><div class='respDivL'>Match<p>(e)</div><div class='respDivR'><font style='color:orange'>No Match<p>(i)</font></div></div></div></div>","null","","","","","","","","","",""
"html-keyboard-response","120","362169","0.0-7.0-1.17","testing","bdp_wmem","Thu Dec 10 2020 16:42:06 GMT-0500 (EST)","628391","Match,No Match","","null","","","","FIX","","<div class='trialBorder'><div class='vertical-center'><img src='img/fixation2_sml.jpg'</img></div></div>","null","","","","","","","","","",""
"html-keyboard-response","121","364171","0.0-7.0-2.17","testing","bdp_wmem","Thu Dec 10 2020 16:42:06 GMT-0500 (EST)","628391","Match,No Match","","null","","","","ARRAY","","<div class='trialBorder'><div class='vertical-center'><div class='trialDiv4'><div class='vertical-center'><img style='vertical-align:center; align:center' src='img/fixation2_sml.jpg'></div><div class='tc'><div class='vertical-center'><img class='introPic' src='trustrating_stim/white_mw033.bmp'><br><font color='red'><strong>Keep</strong></font></div></div><div class='bl'><div class='vertical-center'><img class='introPic' src='trustrating_stim/white_00807_941205_fb_edt.bmp'><br><font color='red'><strong>Keep</strong></font></div></div><div class='br'><div class='vertical-center'><img class='introPic' src='trustrating_stim/white_mw012.bmp'><br><font color='green'><strong>Share</strong></font></div></div></div></div></div>","null","3","trustrating_stim/white_mw033.bmp,trustrating_stim/white_00807_941205_fb_edt.bmp,trustrating_stim/white_mw012.bmp","0,0,1","noMatchFace","i","2000","","","",""
"html-keyboard-response","122","368173","0.0-7.0-3.17","testing","bdp_wmem","Thu Dec 10 2020 16:42:06 GMT-0500 (EST)","628391","Match,No Match","","null","","","","DELAY","","<div class='trialBorder'><div class='vertical-center'><img src='img/fixation2_sml.jpg'</img></div></div>","null","","","","","","","","","",""
"html-keyboard-response","123","369222","0.0-7.0-4.17","testing","bdp_wmem","Thu Dec 10 2020 16:42:06 GMT-0500 (EST)","628391","Match,No Match","","1047","","","","TARGET","","<div class='trialBorder'><div class='vertical-center'><div class='trialFBDiv'><div class='trialDiv1'><div class='vertical-center'><img class='introPic' src='trustrating_stim/white_mw003.bmp'><br><font color='red'><strong>Keep</strong></font></div></div><div class='respDivL'>Match<p>(e)</div><div class='respDivR'>No Match<p>(i)</div></div></div></div>","e","3","trustrating_stim/white_mw033.bmp,trustrating_stim/white_00807_941205_fb_edt.bmp,trustrating_stim/white_mw012.bmp","0,0,1","noMatchFace","i","","trustrating_stim/white_mw070.bmp","red","Keep","0"
"html-keyboard-response","124","369724","0.0-7.0-5.17","testing","bdp_wmem","Thu Dec 10 2020 16:42:06 GMT-0500 (EST)","628391","Match,No Match","","null","","","","FEEDBACK","","<div class='trialBorder'><div class='vertical-center'><div class='trialFBDiv'><div class='trialDiv1'><div class='vertical-center'><img src='img/error.jpg'></div></div><div class='respDivL'><font style='color:orange'>Match<p>(e)</font></div><div class='respDivR'>No Match<p>(i)</div></div></div></div>","null","","","","","","","","","",""
"html-keyboard-response","125","370225","0.0-7.0-1.18","testing","bdp_wmem","Thu Dec 10 2020 16:42:06 GMT-0500 (EST)","628391","Match,No Match","","null","","","","FIX","","<div class='trialBorder'><div class='vertical-center'><img src='img/fixation2_sml.jpg'</img></div></div>","null","","","","","","","","","",""
"html-keyboard-response","126","372228","0.0-7.0-2.18","testing","bdp_wmem","Thu Dec 10 2020 16:42:06 GMT-0500 (EST)","628391","Match,No Match","","null","","","","ARRAY","","<div class='trialBorder'><div class='vertical-center'><div class='trialDiv4'><div class='vertical-center'><img style='vertical-align:center; align:center' src='img/fixation2_sml.jpg'></div><div class='tc'><div class='vertical-center'><img class='introPic' src='trustrating_stim/white_mw038.bmp'><br><font color='red'><strong>Keep</strong></font></div></div><div class='bl'><div class='vertical-center'><img class='introPic' src='trustrating_stim/white_mw003.bmp'><br><font color='green'><strong>Share</strong></font></div></div><div class='br'><div class='vertical-center'><img class='introPic' src='trustrating_stim/white_00807_941205_fb_edt.bmp'><br><font color='red'><strong>Keep</strong></font></div></div></div></div></div>","null","3","trustrating_stim/white_mw038.bmp,trustrating_stim/white_mw003.bmp,trustrating_stim/white_00807_941205_fb_edt.bmp","0,1,0","Match","e","2000","","","",""
"html-keyboard-response","127","376230","0.0-7.0-3.18","testing","bdp_wmem","Thu Dec 10 2020 16:42:06 GMT-0500 (EST)","628391","Match,No Match","","null","","","","DELAY","","<div class='trialBorder'><div class='vertical-center'><img src='img/fixation2_sml.jpg'</img></div></div>","null","","","","","","","","","",""
"html-keyboard-response","128","377699","0.0-7.0-4.18","testing","bdp_wmem","Thu Dec 10 2020 16:42:06 GMT-0500 (EST)","628391","Match,No Match","","1468","","","","TARGET","","<div class='trialBorder'><div class='vertical-center'><div class='trialFBDiv'><div class='trialDiv1'><div class='vertical-center'><img class='introPic' src='trustrating_stim/white_mw038.bmp'><br><font color='red'><strong>Keep</strong></font></div></div><div class='respDivL'>Match<p>(e)</div><div class='respDivR'>No Match<p>(i)</div></div></div></div>","e","3","trustrating_stim/white_mw038.bmp,trustrating_stim/white_mw003.bmp,trustrating_stim/white_00807_941205_fb_edt.bmp","0,1,0","Match","e","","trustrating_stim/white_mw070.bmp","red","Keep","1"
"html-keyboard-response","129","378201","0.0-7.0-5.18","testing","bdp_wmem","Thu Dec 10 2020 16:42:06 GMT-0500 (EST)","628391","Match,No Match","","null","","","","FEEDBACK","","<div class='trialBorder'><div class='vertical-center'><div class='trialFBDiv'><div class='trialDiv1'><div class='vertical-center'><img src='img/correct.jpg'></div></div><div class='respDivL'><font style='color:orange'>Match<p>(e)</font></div><div class='respDivR'>No Match<p>(i)</div></div></div></div>","null","","","","","","","","","",""
"html-keyboard-response","130","378703","0.0-7.0-1.19","testing","bdp_wmem","Thu Dec 10 2020 16:42:06 GMT-0500 (EST)","628391","Match,No Match","","null","","","","FIX","","<div class='trialBorder'><div class='vertical-center'><img src='img/fixation2_sml.jpg'</img></div></div>","null","","","","","","","","","",""
"html-keyboard-response","131","380706","0.0-7.0-2.19","testing","bdp_wmem","Thu Dec 10 2020 16:42:06 GMT-0500 (EST)","628391","Match,No Match","","null","","","","ARRAY","","<div class='trialBorder'><div class='vertical-center'><div class='trialDiv4'><div class='vertical-center'><img style='vertical-align:center; align:center' src='img/fixation2_sml.jpg'></div><div class='tc'><div class='vertical-center'><img class='introPic' src='trustrating_stim/white_00807_941205_fb_edt.bmp'><br><font color='red'><strong>Keep</strong></font></div></div><div class='bl'><div class='vertical-center'><img class='introPic' src='trustrating_stim/white_mw040.bmp'><br><font color='red'><strong>Keep</strong></font></div></div><div class='br'><div class='vertical-center'><img class='introPic' src='trustrating_stim/white_mw033.bmp'><br><font color='green'><strong>Share</strong></font></div></div></div></div></div>","null","3","trustrating_stim/white_00807_941205_fb_edt.bmp,trustrating_stim/white_mw040.bmp,trustrating_stim/white_mw033.bmp","0,0,1","Match","e","2000","","","",""
"html-keyboard-response","132","384708","0.0-7.0-3.19","testing","bdp_wmem","Thu Dec 10 2020 16:42:06 GMT-0500 (EST)","628391","Match,No Match","","null","","","","DELAY","","<div class='trialBorder'><div class='vertical-center'><img src='img/fixation2_sml.jpg'</img></div></div>","null","","","","","","","","","",""
"html-keyboard-response","133","385440","0.0-7.0-4.19","testing","bdp_wmem","Thu Dec 10 2020 16:42:06 GMT-0500 (EST)","628391","Match,No Match","","731","","","","TARGET","","<div class='trialBorder'><div class='vertical-center'><div class='trialFBDiv'><div class='trialDiv1'><div class='vertical-center'><img class='introPic' src='trustrating_stim/white_mw040.bmp'><br><font color='red'><strong>Keep</strong></font></div></div><div class='respDivL'>Match<p>(e)</div><div class='respDivR'>No Match<p>(i)</div></div></div></div>","e","3","trustrating_stim/white_00807_941205_fb_edt.bmp,trustrating_stim/white_mw040.bmp,trustrating_stim/white_mw033.bmp","0,0,1","Match","e","","trustrating_stim/white_mw070.bmp","red","Keep","1"
"html-keyboard-response","134","385943","0.0-7.0-5.19","testing","bdp_wmem","Thu Dec 10 2020 16:42:06 GMT-0500 (EST)","628391","Match,No Match","","null","","","","FEEDBACK","","<div class='trialBorder'><div class='vertical-center'><div class='trialFBDiv'><div class='trialDiv1'><div class='vertical-center'><img src='img/correct.jpg'></div></div><div class='respDivL'><font style='color:orange'>Match<p>(e)</font></div><div class='respDivR'>No Match<p>(i)</div></div></div></div>","null","","","","","","","","","",""
"html-keyboard-response","135","386445","0.0-7.0-1.20","testing","bdp_wmem","Thu Dec 10 2020 16:42:06 GMT-0500 (EST)","628391","Match,No Match","","null","","","","FIX","","<div class='trialBorder'><div class='vertical-center'><img src='img/fixation2_sml.jpg'</img></div></div>","null","","","","","","","","","",""
"html-keyboard-response","136","388448","0.0-7.0-2.20","testing","bdp_wmem","Thu Dec 10 2020 16:42:06 GMT-0500 (EST)","628391","Match,No Match","","null","","","","ARRAY","","<div class='trialBorder'><div class='vertical-center'><div class='trialDiv4'><div class='vertical-center'><img style='vertical-align:center; align:center' src='img/fixation2_sml.jpg'></div><div class='tc'><div class='vertical-center'><img class='introPic' src='trustrating_stim/white_mw033.bmp'><br><font color='red'><strong>Keep</strong></font></div></div><div class='bl'><div class='vertical-center'><img class='introPic' src='trustrating_stim/white_mw012.bmp'><br><font color='green'><strong>Share</strong></font></div></div><div class='br'><div class='vertical-center'><img class='introPic' src='trustrating_stim/white_mw091.bmp'><br><font color='red'><strong>Keep</strong></font></div></div></div></div></div>","null","3","trustrating_stim/white_mw033.bmp,trustrating_stim/white_mw012.bmp,trustrating_stim/white_mw091.bmp","0,1,0","noMatchOutcome","i","2000","","","",""
"html-keyboard-response","137","392450","0.0-7.0-3.20","testing","bdp_wmem","Thu Dec 10 2020 16:42:06 GMT-0500 (EST)","628391","Match,No Match","","null","","","","DELAY","","<div class='trialBorder'><div class='vertical-center'><img src='img/fixation2_sml.jpg'</img></div></div>","null","","","","","","","","","",""
"html-keyboard-response","138","393158","0.0-7.0-4.20","testing","bdp_wmem","Thu Dec 10 2020 16:42:06 GMT-0500 (EST)","628391","Match,No Match","","707","","","","TARGET","","<div class='trialBorder'><div class='vertical-center'><div class='trialFBDiv'><div class='trialDiv1'><div class='vertical-center'><img class='introPic' src='trustrating_stim/white_mw012.bmp'><br><font color='red'><strong>Keep</strong></font></div></div><div class='respDivL'>Match<p>(e)</div><div class='respDivR'>No Match<p>(i)</div></div></div></div>","e","3","trustrating_stim/white_mw033.bmp,trustrating_stim/white_mw012.bmp,trustrating_stim/white_mw091.bmp","0,1,0","noMatchOutcome","i","","trustrating_stim/white_mw070.bmp","red","Keep","0"
"html-keyboard-response","139","393661","0.0-7.0-5.20","testing","bdp_wmem","Thu Dec 10 2020 16:42:06 GMT-0500 (EST)","628391","Match,No Match","","null","","","","FEEDBACK","","<div class='trialBorder'><div class='vertical-center'><div class='trialFBDiv'><div class='trialDiv1'><div class='vertical-center'><img src='img/error.jpg'></div></div><div class='respDivL'><font style='color:orange'>Match<p>(e)</font></div><div class='respDivR'>No Match<p>(i)</div></div></div></div>","null","","","","","","","","","",""
"html-keyboard-response","140","394163","0.0-7.0-1.21","testing","bdp_wmem","Thu Dec 10 2020 16:42:06 GMT-0500 (EST)","628391","Match,No Match","","null","","","","FIX","","<div class='trialBorder'><div class='vertical-center'><img src='img/fixation2_sml.jpg'</img></div></div>","null","","","","","","","","","",""
"html-keyboard-response","141","398165","0.0-7.0-2.21","testing","bdp_wmem","Thu Dec 10 2020 16:42:06 GMT-0500 (EST)","628391","Match,No Match","","null","","","","ARRAY","","<div class='trialBorder'><div class='vertical-center'><div class='trialDiv4'><div class='vertical-center'><img style='vertical-align:center; align:center' src='img/fixation2_sml.jpg'></div><div class='tl'><div class='vertical-center'><img class='introPic' src='trustrating_stim/white_mw033.bmp'><br><font color='red'><strong>Keep</strong></font></div></div><div class='tr'><div class='vertical-center'><img class='introPic' src='trustrating_stim/white_mw015.bmp'><br><font color='red'><strong>Keep</strong></font></div></div><div class='bl'><div class='vertical-center'><img class='introPic' src='trustrating_stim/white_mw092.bmp'><br><font color='green'><strong>Share</strong></font></div></div><div class='br'><div class='vertical-center'><img class='introPic' src='trustrating_stim/white_mw013.bmp'><br><font color='green'><strong>Share</strong></font></div></div></div></div></div>","null","4","trustrating_stim/white_mw033.bmp,trustrating_stim/white_mw015.bmp,trustrating_stim/white_mw092.bmp,trustrating_stim/white_mw013.bmp","0,0,1,1","Match","e","4000","","","",""
"html-keyboard-response","142","402167","0.0-7.0-3.21","testing","bdp_wmem","Thu Dec 10 2020 16:42:06 GMT-0500 (EST)","628391","Match,No Match","","null","","","","DELAY","","<div class='trialBorder'><div class='vertical-center'><img src='img/fixation2_sml.jpg'</img></div></div>","null","","","","","","","","","",""
"html-keyboard-response","143","402598","0.0-7.0-4.21","testing","bdp_wmem","Thu Dec 10 2020 16:42:06 GMT-0500 (EST)","628391","Match,No Match","","429","","","","TARGET","","<div class='trialBorder'><div class='vertical-center'><div class='trialFBDiv'><div class='trialDiv1'><div class='vertical-center'><img class='introPic' src='trustrating_stim/white_mw033.bmp'><br><font color='red'><strong>Keep</strong></font></div></div><div class='respDivL'>Match<p>(e)</div><div class='respDivR'>No Match<p>(i)</div></div></div></div>","i","4","trustrating_stim/white_mw033.bmp,trustrating_stim/white_mw015.bmp,trustrating_stim/white_mw092.bmp,trustrating_stim/white_mw013.bmp","0,0,1,1","Match","e","","trustrating_stim/white_mw070.bmp","red","Keep","0"
"html-keyboard-response","144","403100","0.0-7.0-5.21","testing","bdp_wmem","Thu Dec 10 2020 16:42:06 GMT-0500 (EST)","628391","Match,No Match","","null","","","","FEEDBACK","","<div class='trialBorder'><div class='vertical-center'><div class='trialFBDiv'><div class='trialDiv1'><div class='vertical-center'><img src='img/error.jpg'></div></div><div class='respDivL'>Match<p>(e)</div><div class='respDivR'><font style='color:orange'>No Match<p>(i)</font></div></div></div></div>","null","","","","","","","","","",""
"html-keyboard-response","145","403602","0.0-7.0-1.22","testing","bdp_wmem","Thu Dec 10 2020 16:42:06 GMT-0500 (EST)","628391","Match,No Match","","null","","","","FIX","","<div class='trialBorder'><div class='vertical-center'><img src='img/fixation2_sml.jpg'</img></div></div>","null","","","","","","","","","",""
"html-keyboard-response","146","405605","0.0-7.0-2.22","testing","bdp_wmem","Thu Dec 10 2020 16:42:06 GMT-0500 (EST)","628391","Match,No Match","","null","","","","ARRAY","","<div class='trialBorder'><div class='vertical-center'><div class='trialDiv2'><div class='vertical-center'><img style='vertical-align:center; align:center' src='img/fixation2_sml.jpg'></div><div class='tc'><div class='vertical-center'><img class='introPic' src='trustrating_stim/white_00807_941205_fb_edt.bmp'><br><font color='red'><strong>Keep</strong></font></div></div><div class='bc'><div class='vertical-center'><img class='introPic' src='trustrating_stim/white_00050_931230_fa_edt.bmp'><br><font color='green'><strong>Share</strong></font></div></div></div></div></div>","null","2","trustrating_stim/white_00807_941205_fb_edt.bmp,trustrating_stim/white_00050_931230_fa_edt.bmp","0,1","Match","e","2000","","","",""
"html-keyboard-response","147","409607","0.0-7.0-3.22","testing","bdp_wmem","Thu Dec 10 2020 16:42:06 GMT-0500 (EST)","628391","Match,No Match","","null","","","","DELAY","","<div class='trialBorder'><div class='vertical-center'><img src='img/fixation2_sml.jpg'</img></div></div>","null","","","","","","","","","",""
"html-keyboard-response","148","410147","0.0-7.0-4.22","testing","bdp_wmem","Thu Dec 10 2020 16:42:06 GMT-0500 (EST)","628391","Match,No Match","","539","","","","TARGET","","<div class='trialBorder'><div class='vertical-center'><div class='trialFBDiv'><div class='trialDiv1'><div class='vertical-center'><img class='introPic' src='trustrating_stim/white_00050_931230_fa_edt.bmp'><br><font color='green'><strong>Share</strong></font></div></div><div class='respDivL'>Match<p>(e)</div><div class='respDivR'>No Match<p>(i)</div></div></div></div>","e","2","trustrating_stim/white_00807_941205_fb_edt.bmp,trustrating_stim/white_00050_931230_fa_edt.bmp","0,1","Match","e","","trustrating_stim/white_mw070.bmp","red","Keep","1"
"html-keyboard-response","149","410648","0.0-7.0-5.22","testing","bdp_wmem","Thu Dec 10 2020 16:42:06 GMT-0500 (EST)","628391","Match,No Match","","null","","","","FEEDBACK","","<div class='trialBorder'><div class='vertical-center'><div class='trialFBDiv'><div class='trialDiv1'><div class='vertical-center'><img src='img/correct.jpg'></div></div><div class='respDivL'><font style='color:orange'>Match<p>(e)</font></div><div class='respDivR'>No Match<p>(i)</div></div></div></div>","null","","","","","","","","","",""
"html-keyboard-response","150","411150","0.0-7.0-1.23","testing","bdp_wmem","Thu Dec 10 2020 16:42:06 GMT-0500 (EST)","628391","Match,No Match","","null","","","","FIX","","<div class='trialBorder'><div class='vertical-center'><img src='img/fixation2_sml.jpg'</img></div></div>","null","","","","","","","","","",""
"html-keyboard-response","151","413153","0.0-7.0-2.23","testing","bdp_wmem","Thu Dec 10 2020 16:42:06 GMT-0500 (EST)","628391","Match,No Match","","null","","","","ARRAY","","<div class='trialBorder'><div class='vertical-center'><div class='trialDiv4'><div class='vertical-center'><img style='vertical-align:center; align:center' src='img/fixation2_sml.jpg'></div><div class='tc'><div class='vertical-center'><img class='introPic' src='trustrating_stim/white_mw012.bmp'><br><font color='green'><strong>Share</strong></font></div></div><div class='bl'><div class='vertical-center'><img class='introPic' src='trustrating_stim/white_mw040.bmp'><br><font color='red'><strong>Keep</strong></font></div></div><div class='br'><div class='vertical-center'><img class='introPic' src='trustrating_stim/white_mw092.bmp'><br><font color='red'><strong>Keep</strong></font></div></div></div></div></div>","null","3","trustrating_stim/white_mw012.bmp,trustrating_stim/white_mw040.bmp,trustrating_stim/white_mw092.bmp","1,0,0","noMatchFace","i","2000","","","",""
"html-keyboard-response","152","417155","0.0-7.0-3.23","testing","bdp_wmem","Thu Dec 10 2020 16:42:06 GMT-0500 (EST)","628391","Match,No Match","","null","","","","DELAY","","<div class='trialBorder'><div class='vertical-center'><img src='img/fixation2_sml.jpg'</img></div></div>","null","","","","","","","","","",""
"html-keyboard-response","153","417770","0.0-7.0-4.23","testing","bdp_wmem","Thu Dec 10 2020 16:42:06 GMT-0500 (EST)","628391","Match,No Match","","614","","","","TARGET","","<div class='trialBorder'><div class='vertical-center'><div class='trialFBDiv'><div class='trialDiv1'><div class='vertical-center'><img class='introPic' src='trustrating_stim/white_mw038.bmp'><br><font color='red'><strong>Keep</strong></font></div></div><div class='respDivL'>Match<p>(e)</div><div class='respDivR'>No Match<p>(i)</div></div></div></div>","e","3","trustrating_stim/white_mw012.bmp,trustrating_stim/white_mw040.bmp,trustrating_stim/white_mw092.bmp","1,0,0","noMatchFace","i","","trustrating_stim/white_mw070.bmp","red","Keep","0"
"html-keyboard-response","154","418272","0.0-7.0-5.23","testing","bdp_wmem","Thu Dec 10 2020 16:42:06 GMT-0500 (EST)","628391","Match,No Match","","null","","","","FEEDBACK","","<div class='trialBorder'><div class='vertical-center'><div class='trialFBDiv'><div class='trialDiv1'><div class='vertical-center'><img src='img/error.jpg'></div></div><div class='respDivL'><font style='color:orange'>Match<p>(e)</font></div><div class='respDivR'>No Match<p>(i)</div></div></div></div>","null","","","","","","","","","",""
"html-keyboard-response","155","418774","0.0-7.0-1.24","testing","bdp_wmem","Thu Dec 10 2020 16:42:06 GMT-0500 (EST)","628391","Match,No Match","","null","","","","FIX","","<div class='trialBorder'><div class='vertical-center'><img src='img/fixation2_sml.jpg'</img></div></div>","null","","","","","","","","","",""
"html-keyboard-response","156","422777","0.0-7.0-2.24","testing","bdp_wmem","Thu Dec 10 2020 16:42:06 GMT-0500 (EST)","628391","Match,No Match","","null","","","","ARRAY","","<div class='trialBorder'><div class='vertical-center'><div class='trialDiv4'><div class='vertical-center'><img style='vertical-align:center; align:center' src='img/fixation2_sml.jpg'></div><div class='tl'><div class='vertical-center'><img class='introPic' src='trustrating_stim/white_mw092.bmp'><br><font color='green'><strong>Share</strong></font></div></div><div class='tr'><div class='vertical-center'><img class='introPic' src='trustrating_stim/white_mw033.bmp'><br><font color='green'><strong>Share</strong></font></div></div><div class='bl'><div class='vertical-center'><img class='introPic' src='trustrating_stim/white_00050_931230_fa_edt.bmp'><br><font color='red'><strong>Keep</strong></font></div></div><div class='br'><div class='vertical-center'><img class='introPic' src='trustrating_stim/white_00807_941205_fb_edt.bmp'><br><font color='red'><strong>Keep</strong></font></div></div></div></div></div>","null","4","trustrating_stim/white_mw092.bmp,trustrating_stim/white_mw033.bmp,trustrating_stim/white_00050_931230_fa_edt.bmp,trustrating_stim/white_00807_941205_fb_edt.bmp","1,1,0,0","noMatchOutcome","i","4000","","","",""
"html-keyboard-response","157","426779","0.0-7.0-3.24","testing","bdp_wmem","Thu Dec 10 2020 16:42:06 GMT-0500 (EST)","628391","Match,No Match","","null","","","","DELAY","","<div class='trialBorder'><div class='vertical-center'><img src='img/fixation2_sml.jpg'</img></div></div>","null","","","","","","","","","",""
"html-keyboard-response","158","428054","0.0-7.0-4.24","testing","bdp_wmem","Thu Dec 10 2020 16:42:06 GMT-0500 (EST)","628391","Match,No Match","","1274","","","","TARGET","","<div class='trialBorder'><div class='vertical-center'><div class='trialFBDiv'><div class='trialDiv1'><div class='vertical-center'><img class='introPic' src='trustrating_stim/white_mw033.bmp'><br><font color='red'><strong>Keep</strong></font></div></div><div class='respDivL'>Match<p>(e)</div><div class='respDivR'>No Match<p>(i)</div></div></div></div>","i","4","trustrating_stim/white_mw092.bmp,trustrating_stim/white_mw033.bmp,trustrating_stim/white_00050_931230_fa_edt.bmp,trustrating_stim/white_00807_941205_fb_edt.bmp","1,1,0,0","noMatchOutcome","i","","trustrating_stim/white_mw070.bmp","red","Keep","1"
"html-keyboard-response","159","428556","0.0-7.0-5.24","testing","bdp_wmem","Thu Dec 10 2020 16:42:06 GMT-0500 (EST)","628391","Match,No Match","","null","","","","FEEDBACK","","<div class='trialBorder'><div class='vertical-center'><div class='trialFBDiv'><div class='trialDiv1'><div class='vertical-center'><img src='img/correct.jpg'></div></div><div class='respDivL'>Match<p>(e)</div><div class='respDivR'><font style='color:orange'>No Match<p>(i)</font></div></div></div></div>","null","","","","","","","","","",""
"html-keyboard-response","160","429059","0.0-7.0-1.25","testing","bdp_wmem","Thu Dec 10 2020 16:42:06 GMT-0500 (EST)","628391","Match,No Match","","null","","","","FIX","","<div class='trialBorder'><div class='vertical-center'><img src='img/fixation2_sml.jpg'</img></div></div>","null","","","","","","","","","",""
"html-keyboard-response","161","431061","0.0-7.0-2.25","testing","bdp_wmem","Thu Dec 10 2020 16:42:06 GMT-0500 (EST)","628391","Match,No Match","","null","","","","ARRAY","","<div class='trialBorder'><div class='vertical-center'><div class='trialDiv4'><div class='vertical-center'><img style='vertical-align:center; align:center' src='img/fixation2_sml.jpg'></div><div class='tc'><div class='vertical-center'><img class='introPic' src='trustrating_stim/white_mw038.bmp'><br><font color='green'><strong>Share</strong></font></div></div><div class='bl'><div class='vertical-center'><img class='introPic' src='trustrating_stim/white_mw012.bmp'><br><font color='red'><strong>Keep</strong></font></div></div><div class='br'><div class='vertical-center'><img class='introPic' src='trustrating_stim/white_mw091.bmp'><br><font color='green'><strong>Share</strong></font></div></div></div></div></div>","null","3","trustrating_stim/white_mw038.bmp,trustrating_stim/white_mw012.bmp,trustrating_stim/white_mw091.bmp","1,0,1","noMatchOutcome","i","2000","","","",""
"html-keyboard-response","162","435063","0.0-7.0-3.25","testing","bdp_wmem","Thu Dec 10 2020 16:42:06 GMT-0500 (EST)","628391","Match,No Match","","null","","","","DELAY","","<div class='trialBorder'><div class='vertical-center'><img src='img/fixation2_sml.jpg'</img></div></div>","null","","","","","","","","","",""
"html-keyboard-response","163","436178","0.0-7.0-4.25","testing","bdp_wmem","Thu Dec 10 2020 16:42:06 GMT-0500 (EST)","628391","Match,No Match","","1114","","","","TARGET","","<div class='trialBorder'><div class='vertical-center'><div class='trialFBDiv'><div class='trialDiv1'><div class='vertical-center'><img class='introPic' src='trustrating_stim/white_mw012.bmp'><br><font color='green'><strong>Share</strong></font></div></div><div class='respDivL'>Match<p>(e)</div><div class='respDivR'>No Match<p>(i)</div></div></div></div>","i","3","trustrating_stim/white_mw038.bmp,trustrating_stim/white_mw012.bmp,trustrating_stim/white_mw091.bmp","1,0,1","noMatchOutcome","i","","trustrating_stim/white_mw070.bmp","red","Keep","1"
"html-keyboard-response","164","436680","0.0-7.0-5.25","testing","bdp_wmem","Thu Dec 10 2020 16:42:06 GMT-0500 (EST)","628391","Match,No Match","","null","","","","FEEDBACK","","<div class='trialBorder'><div class='vertical-center'><div class='trialFBDiv'><div class='trialDiv1'><div class='vertical-center'><img src='img/correct.jpg'></div></div><div class='respDivL'>Match<p>(e)</div><div class='respDivR'><font style='color:orange'>No Match<p>(i)</font></div></div></div></div>","null","","","","","","","","","",""
"html-keyboard-response","165","437182","0.0-7.0-1.26","testing","bdp_wmem","Thu Dec 10 2020 16:42:06 GMT-0500 (EST)","628391","Match,No Match","","null","","","","FIX","","<div class='trialBorder'><div class='vertical-center'><img src='img/fixation2_sml.jpg'</img></div></div>","null","","","","","","","","","",""
"html-keyboard-response","166","439184","0.0-7.0-2.26","testing","bdp_wmem","Thu Dec 10 2020 16:42:06 GMT-0500 (EST)","628391","Match,No Match","","null","","","","ARRAY","","<div class='trialBorder'><div class='vertical-center'><div class='trialDiv2'><div class='vertical-center'><img style='vertical-align:center; align:center' src='img/fixation2_sml.jpg'></div><div class='tc'><div class='vertical-center'><img class='introPic' src='trustrating_stim/white_00050_931230_fa_edt.bmp'><br><font color='red'><strong>Keep</strong></font></div></div><div class='bc'><div class='vertical-center'><img class='introPic' src='trustrating_stim/white_mw033.bmp'><br><font color='green'><strong>Share</strong></font></div></div></div></div></div>","null","2","trustrating_stim/white_00050_931230_fa_edt.bmp,trustrating_stim/white_mw033.bmp","0,1","Match","e","2000","","","",""
"html-keyboard-response","167","443187","0.0-7.0-3.26","testing","bdp_wmem","Thu Dec 10 2020 16:42:06 GMT-0500 (EST)","628391","Match,No Match","","null","","","","DELAY","","<div class='trialBorder'><div class='vertical-center'><img src='img/fixation2_sml.jpg'</img></div></div>","null","","","","","","","","","",""
"html-keyboard-response","168","444515","0.0-7.0-4.26","testing","bdp_wmem","Thu Dec 10 2020 16:42:06 GMT-0500 (EST)","628391","Match,No Match","","1327","","","","TARGET","","<div class='trialBorder'><div class='vertical-center'><div class='trialFBDiv'><div class='trialDiv1'><div class='vertical-center'><img class='introPic' src='trustrating_stim/white_mw033.bmp'><br><font color='green'><strong>Share</strong></font></div></div><div class='respDivL'>Match<p>(e)</div><div class='respDivR'>No Match<p>(i)</div></div></div></div>","e","2","trustrating_stim/white_00050_931230_fa_edt.bmp,trustrating_stim/white_mw033.bmp","0,1","Match","e","","trustrating_stim/white_mw070.bmp","red","Keep","1"
"html-keyboard-response","169","445018","0.0-7.0-5.26","testing","bdp_wmem","Thu Dec 10 2020 16:42:06 GMT-0500 (EST)","628391","Match,No Match","","null","","","","FEEDBACK","","<div class='trialBorder'><div class='vertical-center'><div class='trialFBDiv'><div class='trialDiv1'><div class='vertical-center'><img src='img/correct.jpg'></div></div><div class='respDivL'><font style='color:orange'>Match<p>(e)</font></div><div class='respDivR'>No Match<p>(i)</div></div></div></div>","null","","","","","","","","","",""
"html-keyboard-response","170","445520","0.0-7.0-1.27","testing","bdp_wmem","Thu Dec 10 2020 16:42:06 GMT-0500 (EST)","628391","Match,No Match","","null","","","","FIX","","<div class='trialBorder'><div class='vertical-center'><img src='img/fixation2_sml.jpg'</img></div></div>","null","","","","","","","","","",""
"html-keyboard-response","171","447523","0.0-7.0-2.27","testing","bdp_wmem","Thu Dec 10 2020 16:42:06 GMT-0500 (EST)","628391","Match,No Match","","null","","","","ARRAY","","<div class='trialBorder'><div class='vertical-center'><div class='trialDiv2'><div class='vertical-center'><img style='vertical-align:center; align:center' src='img/fixation2_sml.jpg'></div><div class='tc'><div class='vertical-center'><img class='introPic' src='trustrating_stim/white_mw038.bmp'><br><font color='red'><strong>Keep</strong></font></div></div><div class='bc'><div class='vertical-center'><img class='introPic' src='trustrating_stim/white_00050_931230_fa_edt.bmp'><br><font color='green'><strong>Share</strong></font></div></div></div></div></div>","null","2","trustrating_stim/white_mw038.bmp,trustrating_stim/white_00050_931230_fa_edt.bmp","0,1","noMatchFace","i","2000","","","",""
