"trial_type","trial_index","time_elapsed","internal_node_id","subject_id","task","startTime","totalTime","fairPartner","unfairPartner","view_history","rt","event","trial","time","trialtype","success","stimulus","key_press","throwsLeft","rtDur","pFair","pUnfair","holder","receiver","animation_sequence","responses"
"pavlovia","0","3","0.0-0.0","63652b3ed1f35f8e04325845","bdp_cybrbll","Mon Mar 27 2023 10:14:12 GMT-0400 (Eastern Daylight Time)","476115","1","3","","","","","","","","","","","","","","","","",""
"instructions","1","4731","0.0-1.0","63652b3ed1f35f8e04325845","bdp_cybrbll","Mon Mar 27 2023 10:14:12 GMT-0400 (Eastern Daylight Time)","476115","1","3","[{""page_index"":0,""viewing_time"":4727}]","4727","","","","","","","","","","","","","","",""
"","","","","63652b3ed1f35f8e04325845","bdp_cybrbll","Mon Mar 27 2023 10:14:12 GMT-0400 (Eastern Daylight Time)","476115","1","3","","","fullscreenenter","2","10180","fullscreenenter","","","","","","","","","","",""
"fullscreen","2","11177","0.0-2.0","63652b3ed1f35f8e04325845","bdp_cybrbll","Mon Mar 27 2023 10:14:12 GMT-0400 (Eastern Daylight Time)","476115","1","3","","","","","","","true","","","","","","","","","",""
"instructions","3","72722","0.0-4.0","63652b3ed1f35f8e04325845","bdp_cybrbll","Mon Mar 27 2023 10:14:12 GMT-0400 (Eastern Daylight Time)","476115","1","3","[{""page_index"":0,""viewing_time"":61545}]","61545","","","","","","","","","","","","","","",""
"image-keyboard-response","4","74674","0.0-5.0-1.0","63652b3ed1f35f8e04325845","bdp_cybrbll","Mon Mar 27 2023 10:14:12 GMT-0400 (Eastern Daylight Time)","476115","1","3","","1950","","","","choice","","img/2to1/1.png","2","225","888","0.5","0.5","2","3","",""
"animation","5","75972","0.0-5.0-2.0","63652b3ed1f35f8e04325845","bdp_cybrbll","Mon Mar 27 2023 10:14:12 GMT-0400 (Eastern Daylight Time)","476115","1","3","","","","","","","","","","225","","","","2","3","[{""stimulus"":""img/2to3/1.png"",""time"":114},{""stimulus"":""img/2to3/2.png"",""time"":206},{""stimulus"":""img/2to3/3.png"",""time"":301},{""stimulus"":""img/2to3/4.png"",""time"":411},{""stimulus"":""img/2to3/5.png"",""time"":502},{""stimulus"":""img/2to3/6.png"",""time"":610},{""stimulus"":""img/2to3/7.png"",""time"":704},{""stimulus"":""img/2to3/8.png"",""time"":796},{""stimulus"":""img/2to3/9.png"",""time"":906},{""stimulus"":""img/2to3/10.png"",""time"":999},{""stimulus"":""img/2to3/11.png"",""time"":1094},{""stimulus"":""img/2to3/12.png"",""time"":1203}]","[]"
"image-keyboard-response","6","76235","0.0-5.0-1.1","63652b3ed1f35f8e04325845","bdp_cybrbll","Mon Mar 27 2023 10:14:12 GMT-0400 (Eastern Daylight Time)","476115","1","3","","null","","","","observe","","img/3to2/1.png","null","224","254","0.5","0.5","3","2","",""
"animation","7","77529","0.0-5.0-2.1","63652b3ed1f35f8e04325845","bdp_cybrbll","Mon Mar 27 2023 10:14:12 GMT-0400 (Eastern Daylight Time)","476115","1","3","","","","","","","","","","224","","","","3","2","[{""stimulus"":""img/3to2/1.png"",""time"":105},{""stimulus"":""img/3to2/2.png"",""time"":200},{""stimulus"":""img/3to2/3.png"",""time"":309},{""stimulus"":""img/3to2/4.png"",""time"":403},{""stimulus"":""img/3to2/5.png"",""time"":496},{""stimulus"":""img/3to2/6.png"",""time"":604},{""stimulus"":""img/3to2/7.png"",""time"":697},{""stimulus"":""img/3to2/8.png"",""time"":806},{""stimulus"":""img/3to2/9.png"",""time"":902},{""stimulus"":""img/3to2/10.png"",""time"":995},{""stimulus"":""img/3to2/11.png"",""time"":1105},{""stimulus"":""img/3to2/12.png"",""time"":1199}]","[]"
"image-keyboard-response","8","78002","0.0-5.0-1.2","63652b3ed1f35f8e04325845","bdp_cybrbll","Mon Mar 27 2023 10:14:12 GMT-0400 (Eastern Daylight Time)","476115","1","3","","473","","","","choice","","img/2to1/1.png","1","223","175","0.5","0.5","2","1","",""
"animation","9","79290","0.0-5.0-2.2","63652b3ed1f35f8e04325845","bdp_cybrbll","Mon Mar 27 2023 10:14:12 GMT-0400 (Eastern Daylight Time)","476115","1","3","","","","","","","","","","223","","","","2","1","[{""stimulus"":""img/2to1/1.png"",""time"":99},{""stimulus"":""img/2to1/2.png"",""time"":203},{""stimulus"":""img/2to1/3.png"",""time"":303},{""stimulus"":""img/2to1/4.png"",""time"":411},{""stimulus"":""img/2to1/5.png"",""time"":505},{""stimulus"":""img/2to1/6.png"",""time"":598},{""stimulus"":""img/2to1/7.png"",""time"":709},{""stimulus"":""img/2to1/8.png"",""time"":803},{""stimulus"":""img/2to1/9.png"",""time"":896},{""stimulus"":""img/2to1/10.png"",""time"":1005},{""stimulus"":""img/2to1/11.png"",""time"":1098},{""stimulus"":""img/2to1/12.png"",""time"":1191}]","[]"
"image-keyboard-response","10","80937","0.0-5.0-1.3","63652b3ed1f35f8e04325845","bdp_cybrbll","Mon Mar 27 2023 10:14:12 GMT-0400 (Eastern Daylight Time)","476115","1","3","","null","","","","observe","","img/1to3/1.png","null","222","1632","0.5","0.5","1","2","",""
"animation","11","82234","0.0-5.0-2.3","63652b3ed1f35f8e04325845","bdp_cybrbll","Mon Mar 27 2023 10:14:12 GMT-0400 (Eastern Daylight Time)","476115","1","3","","","","","","","","","","222","","","","1","2","[{""stimulus"":""img/1to2/1.png"",""time"":109},{""stimulus"":""img/1to2/2.png"",""time"":199},{""stimulus"":""img/1to2/3.png"",""time"":311},{""stimulus"":""img/1to2/4.png"",""time"":397},{""stimulus"":""img/1to2/5.png"",""time"":506},{""stimulus"":""img/1to2/6.png"",""time"":600},{""stimulus"":""img/1to2/7.png"",""time"":695},{""stimulus"":""img/1to2/8.png"",""time"":805},{""stimulus"":""img/1to2/9.png"",""time"":907},{""stimulus"":""img/1to2/10.png"",""time"":1000},{""stimulus"":""img/1to2/11.png"",""time"":1093},{""stimulus"":""img/1to2/12.png"",""time"":1203}]","[]"
"image-keyboard-response","12","83234","0.0-5.0-1.4","63652b3ed1f35f8e04325845","bdp_cybrbll","Mon Mar 27 2023 10:14:12 GMT-0400 (Eastern Daylight Time)","476115","1","3","","1000","","","","choice","","img/2to1/1.png","1","221","707","0.5","0.5","2","1","",""
"animation","13","84522","0.0-5.0-2.4","63652b3ed1f35f8e04325845","bdp_cybrbll","Mon Mar 27 2023 10:14:12 GMT-0400 (Eastern Daylight Time)","476115","1","3","","","","","","","","","","221","","","","2","1","[{""stimulus"":""img/2to1/1.png"",""time"":110},{""stimulus"":""img/2to1/2.png"",""time"":202},{""stimulus"":""img/2to1/3.png"",""time"":310},{""stimulus"":""img/2to1/4.png"",""time"":404},{""stimulus"":""img/2to1/5.png"",""time"":496},{""stimulus"":""img/2to1/6.png"",""time"":607},{""stimulus"":""img/2to1/7.png"",""time"":699},{""stimulus"":""img/2to1/8.png"",""time"":806},{""stimulus"":""img/2to1/9.png"",""time"":899},{""stimulus"":""img/2to1/10.png"",""time"":994},{""stimulus"":""img/2to1/11.png"",""time"":1090},{""stimulus"":""img/2to1/12.png"",""time"":1190}]","[]"
"image-keyboard-response","14","85885","0.0-5.0-1.5","63652b3ed1f35f8e04325845","bdp_cybrbll","Mon Mar 27 2023 10:14:12 GMT-0400 (Eastern Daylight Time)","476115","1","3","","null","","","","observe","","img/1to3/1.png","null","220","1353","0.5","0.5","1","3","",""
"animation","15","87177","0.0-5.0-2.5","63652b3ed1f35f8e04325845","bdp_cybrbll","Mon Mar 27 2023 10:14:12 GMT-0400 (Eastern Daylight Time)","476115","1","3","","","","","","","","","","220","","","","1","3","[{""stimulus"":""img/1to3/1.png"",""time"":108},{""stimulus"":""img/1to3/2.png"",""time"":201},{""stimulus"":""img/1to3/3.png"",""time"":312},{""stimulus"":""img/1to3/4.png"",""time"":406},{""stimulus"":""img/1to3/5.png"",""time"":499},{""stimulus"":""img/1to3/6.png"",""time"":604},{""stimulus"":""img/1to3/7.png"",""time"":697},{""stimulus"":""img/1to3/8.png"",""time"":793},{""stimulus"":""img/1to3/9.png"",""time"":904},{""stimulus"":""img/1to3/10.png"",""time"":998},{""stimulus"":""img/1to3/11.png"",""time"":1105},{""stimulus"":""img/1to3/12.png"",""time"":1198}]","[]"
"image-keyboard-response","16","87534","0.0-5.0-1.6","63652b3ed1f35f8e04325845","bdp_cybrbll","Mon Mar 27 2023 10:14:12 GMT-0400 (Eastern Daylight Time)","476115","1","3","","null","","","","observe","","img/3to2/1.png","null","219","343","0.5","0.5","3","1","",""
"animation","17","88829","0.0-5.0-2.6","63652b3ed1f35f8e04325845","bdp_cybrbll","Mon Mar 27 2023 10:14:12 GMT-0400 (Eastern Daylight Time)","476115","1","3","","","","","","","","","","219","","","","3","1","[{""stimulus"":""img/3to1/1.png"",""time"":108},{""stimulus"":""img/3to1/2.png"",""time"":202},{""stimulus"":""img/3to1/3.png"",""time"":311},{""stimulus"":""img/3to1/4.png"",""time"":406},{""stimulus"":""img/3to1/5.png"",""time"":502},{""stimulus"":""img/3to1/6.png"",""time"":596},{""stimulus"":""img/3to1/7.png"",""time"":707},{""stimulus"":""img/3to1/8.png"",""time"":801},{""stimulus"":""img/3to1/9.png"",""time"":894},{""stimulus"":""img/3to1/10.png"",""time"":999},{""stimulus"":""img/3to1/11.png"",""time"":1093},{""stimulus"":""img/3to1/12.png"",""time"":1201}]","[]"
"image-keyboard-response","18","89166","0.0-5.0-1.7","63652b3ed1f35f8e04325845","bdp_cybrbll","Mon Mar 27 2023 10:14:12 GMT-0400 (Eastern Daylight Time)","476115","1","3","","null","","","","observe","","img/1to3/1.png","null","218","329","0.5","0.5","1","3","",""
"animation","19","90467","0.0-5.0-2.7","63652b3ed1f35f8e04325845","bdp_cybrbll","Mon Mar 27 2023 10:14:12 GMT-0400 (Eastern Daylight Time)","476115","1","3","","","","","","","","","","218","","","","1","3","[{""stimulus"":""img/1to3/1.png"",""time"":108},{""stimulus"":""img/1to3/2.png"",""time"":202},{""stimulus"":""img/1to3/3.png"",""time"":313},{""stimulus"":""img/1to3/4.png"",""time"":406},{""stimulus"":""img/1to3/5.png"",""time"":499},{""stimulus"":""img/1to3/6.png"",""time"":607},{""stimulus"":""img/1to3/7.png"",""time"":703},{""stimulus"":""img/1to3/8.png"",""time"":798},{""stimulus"":""img/1to3/9.png"",""time"":893},{""stimulus"":""img/1to3/10.png"",""time"":1005},{""stimulus"":""img/1to3/11.png"",""time"":1099},{""stimulus"":""img/1to3/12.png"",""time"":1189}]","[]"
"image-keyboard-response","20","91087","0.0-5.0-1.8","63652b3ed1f35f8e04325845","bdp_cybrbll","Mon Mar 27 2023 10:14:12 GMT-0400 (Eastern Daylight Time)","476115","1","3","","null","","","","observe","","img/3to2/1.png","null","217","607","0.5","0.5","3","2","",""
"animation","21","92378","0.0-5.0-2.8","63652b3ed1f35f8e04325845","bdp_cybrbll","Mon Mar 27 2023 10:14:12 GMT-0400 (Eastern Daylight Time)","476115","1","3","","","","","","","","","","217","","","","3","2","[{""stimulus"":""img/3to2/1.png"",""time"":109},{""stimulus"":""img/3to2/2.png"",""time"":199},{""stimulus"":""img/3to2/3.png"",""time"":312},{""stimulus"":""img/3to2/4.png"",""time"":407},{""stimulus"":""img/3to2/5.png"",""time"":496},{""stimulus"":""img/3to2/6.png"",""time"":599},{""stimulus"":""img/3to2/7.png"",""time"":707},{""stimulus"":""img/3to2/8.png"",""time"":793},{""stimulus"":""img/3to2/9.png"",""time"":894},{""stimulus"":""img/3to2/10.png"",""time"":991},{""stimulus"":""img/3to2/11.png"",""time"":1105},{""stimulus"":""img/3to2/12.png"",""time"":1197}]","[]"
"image-keyboard-response","22","92954","0.0-5.0-1.9","63652b3ed1f35f8e04325845","bdp_cybrbll","Mon Mar 27 2023 10:14:12 GMT-0400 (Eastern Daylight Time)","476115","1","3","","575","","","","choice","","img/2to1/1.png","1","216","279","0.5","0.5","2","1","",""
"animation","23","94252","0.0-5.0-2.9","63652b3ed1f35f8e04325845","bdp_cybrbll","Mon Mar 27 2023 10:14:12 GMT-0400 (Eastern Daylight Time)","476115","1","3","","","","","","","","","","216","","","","2","1","[{""stimulus"":""img/2to1/1.png"",""time"":100},{""stimulus"":""img/2to1/2.png"",""time"":208},{""stimulus"":""img/2to1/3.png"",""time"":300},{""stimulus"":""img/2to1/4.png"",""time"":409},{""stimulus"":""img/2to1/5.png"",""time"":502},{""stimulus"":""img/2to1/6.png"",""time"":595},{""stimulus"":""img/2to1/7.png"",""time"":702},{""stimulus"":""img/2to1/8.png"",""time"":795},{""stimulus"":""img/2to1/9.png"",""time"":904},{""stimulus"":""img/2to1/10.png"",""time"":999},{""stimulus"":""img/2to1/11.png"",""time"":1094},{""stimulus"":""img/2to1/12.png"",""time"":1189}]","[]"
"image-keyboard-response","24","94802","0.0-5.0-1.10","63652b3ed1f35f8e04325845","bdp_cybrbll","Mon Mar 27 2023 10:14:12 GMT-0400 (Eastern Daylight Time)","476115","1","3","","null","","","","observe","","img/1to3/1.png","null","215","546","0.5","0.5","1","3","",""
"animation","25","96100","0.0-5.0-2.10","63652b3ed1f35f8e04325845","bdp_cybrbll","Mon Mar 27 2023 10:14:12 GMT-0400 (Eastern Daylight Time)","476115","1","3","","","","","","","","","","215","","","","1","3","[{""stimulus"":""img/1to3/1.png"",""time"":108},{""stimulus"":""img/1to3/2.png"",""time"":204},{""stimulus"":""img/1to3/3.png"",""time"":298},{""stimulus"":""img/1to3/4.png"",""time"":407},{""stimulus"":""img/1to3/5.png"",""time"":500},{""stimulus"":""img/1to3/6.png"",""time"":609},{""stimulus"":""img/1to3/7.png"",""time"":703},{""stimulus"":""img/1to3/8.png"",""time"":793},{""stimulus"":""img/1to3/9.png"",""time"":905},{""stimulus"":""img/1to3/10.png"",""time"":997},{""stimulus"":""img/1to3/11.png"",""time"":1091},{""stimulus"":""img/1to3/12.png"",""time"":1202}]","[]"
"image-keyboard-response","26","96567","0.0-5.0-1.11","63652b3ed1f35f8e04325845","bdp_cybrbll","Mon Mar 27 2023 10:14:12 GMT-0400 (Eastern Daylight Time)","476115","1","3","","null","","","","observe","","img/3to2/1.png","null","214","463","0.5","0.5","3","2","",""
"animation","27","97861","0.0-5.0-2.11","63652b3ed1f35f8e04325845","bdp_cybrbll","Mon Mar 27 2023 10:14:12 GMT-0400 (Eastern Daylight Time)","476115","1","3","","","","","","","","","","214","","","","3","2","[{""stimulus"":""img/3to2/1.png"",""time"":113},{""stimulus"":""img/3to2/2.png"",""time"":199},{""stimulus"":""img/3to2/3.png"",""time"":298},{""stimulus"":""img/3to2/4.png"",""time"":408},{""stimulus"":""img/3to2/5.png"",""time"":501},{""stimulus"":""img/3to2/6.png"",""time"":603},{""stimulus"":""img/3to2/7.png"",""time"":693},{""stimulus"":""img/3to2/8.png"",""time"":806},{""stimulus"":""img/3to2/9.png"",""time"":901},{""stimulus"":""img/3to2/10.png"",""time"":991},{""stimulus"":""img/3to2/11.png"",""time"":1092},{""stimulus"":""img/3to2/12.png"",""time"":1201}]","[]"
"image-keyboard-response","28","98122","0.0-5.0-1.12","63652b3ed1f35f8e04325845","bdp_cybrbll","Mon Mar 27 2023 10:14:12 GMT-0400 (Eastern Daylight Time)","476115","1","3","","260","","","","choice","","img/2to1/1.png","2","213","450","0.5","0.5","2","3","",""
"animation","29","99416","0.0-5.0-2.12","63652b3ed1f35f8e04325845","bdp_cybrbll","Mon Mar 27 2023 10:14:12 GMT-0400 (Eastern Daylight Time)","476115","1","3","","","","","","","","","","213","","","","2","3","[{""stimulus"":""img/2to3/1.png"",""time"":101},{""stimulus"":""img/2to3/2.png"",""time"":200},{""stimulus"":""img/2to3/3.png"",""time"":308},{""stimulus"":""img/2to3/4.png"",""time"":403},{""stimulus"":""img/2to3/5.png"",""time"":510},{""stimulus"":""img/2to3/6.png"",""time"":597},{""stimulus"":""img/2to3/7.png"",""time"":705},{""stimulus"":""img/2to3/8.png"",""time"":799},{""stimulus"":""img/2to3/9.png"",""time"":893},{""stimulus"":""img/2to3/10.png"",""time"":999},{""stimulus"":""img/2to3/11.png"",""time"":1093},{""stimulus"":""img/2to3/12.png"",""time"":1200}]","[]"
"image-keyboard-response","30","100067","0.0-5.0-1.13","63652b3ed1f35f8e04325845","bdp_cybrbll","Mon Mar 27 2023 10:14:12 GMT-0400 (Eastern Daylight Time)","476115","1","3","","null","","","","observe","","img/3to2/1.png","null","212","650","0.5","0.5","3","2","",""
"animation","31","101354","0.0-5.0-2.13","63652b3ed1f35f8e04325845","bdp_cybrbll","Mon Mar 27 2023 10:14:12 GMT-0400 (Eastern Daylight Time)","476115","1","3","","","","","","","","","","212","","","","3","2","[{""stimulus"":""img/3to2/1.png"",""time"":102},{""stimulus"":""img/3to2/2.png"",""time"":198},{""stimulus"":""img/3to2/3.png"",""time"":304},{""stimulus"":""img/3to2/4.png"",""time"":398},{""stimulus"":""img/3to2/5.png"",""time"":509},{""stimulus"":""img/3to2/6.png"",""time"":601},{""stimulus"":""img/3to2/7.png"",""time"":701},{""stimulus"":""img/3to2/8.png"",""time"":792},{""stimulus"":""img/3to2/9.png"",""time"":904},{""stimulus"":""img/3to2/10.png"",""time"":990},{""stimulus"":""img/3to2/11.png"",""time"":1104},{""stimulus"":""img/3to2/12.png"",""time"":1189}]","[]"
"image-keyboard-response","32","101369","0.0-5.0-1.14","63652b3ed1f35f8e04325845","bdp_cybrbll","Mon Mar 27 2023 10:14:12 GMT-0400 (Eastern Daylight Time)","476115","1","3","","15","","","","choice","","img/2to1/1.png","1","211","526","0.5","0.5","2","1","",""
"animation","33","102657","0.0-5.0-2.14","63652b3ed1f35f8e04325845","bdp_cybrbll","Mon Mar 27 2023 10:14:12 GMT-0400 (Eastern Daylight Time)","476115","1","3","","","","","","","","","","211","","","","2","1","[{""stimulus"":""img/2to1/1.png"",""time"":99},{""stimulus"":""img/2to1/2.png"",""time"":199},{""stimulus"":""img/2to1/3.png"",""time"":299},{""stimulus"":""img/2to1/4.png"",""time"":396},{""stimulus"":""img/2to1/5.png"",""time"":505},{""stimulus"":""img/2to1/6.png"",""time"":594},{""stimulus"":""img/2to1/7.png"",""time"":694},{""stimulus"":""img/2to1/8.png"",""time"":805},{""stimulus"":""img/2to1/9.png"",""time"":891},{""stimulus"":""img/2to1/10.png"",""time"":992},{""stimulus"":""img/2to1/11.png"",""time"":1099},{""stimulus"":""img/2to1/12.png"",""time"":1194}]","[]"
"image-keyboard-response","34","103034","0.0-5.0-1.15","63652b3ed1f35f8e04325845","bdp_cybrbll","Mon Mar 27 2023 10:14:12 GMT-0400 (Eastern Daylight Time)","476115","1","3","","null","","","","observe","","img/1to3/1.png","null","210","369","0.5","0.5","1","2","",""
"animation","35","104322","0.0-5.0-2.15","63652b3ed1f35f8e04325845","bdp_cybrbll","Mon Mar 27 2023 10:14:12 GMT-0400 (Eastern Daylight Time)","476115","1","3","","","","","","","","","","210","","","","1","2","[{""stimulus"":""img/1to2/1.png"",""time"":107},{""stimulus"":""img/1to2/2.png"",""time"":210},{""stimulus"":""img/1to2/3.png"",""time"":303},{""stimulus"":""img/1to2/4.png"",""time"":397},{""stimulus"":""img/1to2/5.png"",""time"":506},{""stimulus"":""img/1to2/6.png"",""time"":594},{""stimulus"":""img/1to2/7.png"",""time"":716},{""stimulus"":""img/1to2/8.png"",""time"":794},{""stimulus"":""img/1to2/9.png"",""time"":902},{""stimulus"":""img/1to2/10.png"",""time"":996},{""stimulus"":""img/1to2/11.png"",""time"":1090},{""stimulus"":""img/1to2/12.png"",""time"":1188}]","[]"
"image-keyboard-response","36","104450","0.0-5.0-1.16","63652b3ed1f35f8e04325845","bdp_cybrbll","Mon Mar 27 2023 10:14:12 GMT-0400 (Eastern Daylight Time)","476115","1","3","","128","","","","choice","","img/2to1/1.png","2","209","317","0.5","0.5","2","3","",""
"animation","37","105745","0.0-5.0-2.16","63652b3ed1f35f8e04325845","bdp_cybrbll","Mon Mar 27 2023 10:14:12 GMT-0400 (Eastern Daylight Time)","476115","1","3","","","","","","","","","","209","","","","2","3","[{""stimulus"":""img/2to3/1.png"",""time"":99},{""stimulus"":""img/2to3/2.png"",""time"":202},{""stimulus"":""img/2to3/3.png"",""time"":316},{""stimulus"":""img/2to3/4.png"",""time"":409},{""stimulus"":""img/2to3/5.png"",""time"":495},{""stimulus"":""img/2to3/6.png"",""time"":595},{""stimulus"":""img/2to3/7.png"",""time"":694},{""stimulus"":""img/2to3/8.png"",""time"":800},{""stimulus"":""img/2to3/9.png"",""time"":893},{""stimulus"":""img/2to3/10.png"",""time"":991},{""stimulus"":""img/2to3/11.png"",""time"":1090},{""stimulus"":""img/2to3/12.png"",""time"":1189}]","[]"
"image-keyboard-response","38","106179","0.0-5.0-1.17","63652b3ed1f35f8e04325845","bdp_cybrbll","Mon Mar 27 2023 10:14:12 GMT-0400 (Eastern Daylight Time)","476115","1","3","","null","","","","observe","","img/3to2/1.png","null","208","432","0.5","0.5","3","1","",""
"animation","39","107468","0.0-5.0-2.17","63652b3ed1f35f8e04325845","bdp_cybrbll","Mon Mar 27 2023 10:14:12 GMT-0400 (Eastern Daylight Time)","476115","1","3","","","","","","","","","","208","","","","3","1","[{""stimulus"":""img/3to1/1.png"",""time"":113},{""stimulus"":""img/3to1/2.png"",""time"":199},{""stimulus"":""img/3to1/3.png"",""time"":298},{""stimulus"":""img/3to1/4.png"",""time"":397},{""stimulus"":""img/3to1/5.png"",""time"":496},{""stimulus"":""img/3to1/6.png"",""time"":595},{""stimulus"":""img/3to1/7.png"",""time"":705},{""stimulus"":""img/3to1/8.png"",""time"":798},{""stimulus"":""img/3to1/9.png"",""time"":892},{""stimulus"":""img/3to1/10.png"",""time"":999},{""stimulus"":""img/3to1/11.png"",""time"":1090},{""stimulus"":""img/3to1/12.png"",""time"":1195}]","[]"
"image-keyboard-response","40","108861","0.0-5.0-1.18","63652b3ed1f35f8e04325845","bdp_cybrbll","Mon Mar 27 2023 10:14:12 GMT-0400 (Eastern Daylight Time)","476115","1","3","","null","","","","observe","","img/1to3/1.png","null","207","1390","0.5","0.5","1","2","",""
"animation","41","110154","0.0-5.0-2.18","63652b3ed1f35f8e04325845","bdp_cybrbll","Mon Mar 27 2023 10:14:12 GMT-0400 (Eastern Daylight Time)","476115","1","3","","","","","","","","","","207","","","","1","2","[{""stimulus"":""img/1to2/1.png"",""time"":109},{""stimulus"":""img/1to2/2.png"",""time"":202},{""stimulus"":""img/1to2/3.png"",""time"":298},{""stimulus"":""img/1to2/4.png"",""time"":405},{""stimulus"":""img/1to2/5.png"",""time"":507},{""stimulus"":""img/1to2/6.png"",""time"":601},{""stimulus"":""img/1to2/7.png"",""time"":694},{""stimulus"":""img/1to2/8.png"",""time"":802},{""stimulus"":""img/1to2/9.png"",""time"":897},{""stimulus"":""img/1to2/10.png"",""time"":1013},{""stimulus"":""img/1to2/11.png"",""time"":1090},{""stimulus"":""img/1to2/12.png"",""time"":1199}]","[]"
"image-keyboard-response","42","110578","0.0-5.0-1.19","63652b3ed1f35f8e04325845","bdp_cybrbll","Mon Mar 27 2023 10:14:12 GMT-0400 (Eastern Daylight Time)","476115","1","3","","424","","","","choice","","img/2to1/1.png","1","206","499","0.5","0.5","2","1","",""
"animation","43","111872","0.0-5.0-2.19","63652b3ed1f35f8e04325845","bdp_cybrbll","Mon Mar 27 2023 10:14:12 GMT-0400 (Eastern Daylight Time)","476115","1","3","","","","","","","","","","206","","","","2","1","[{""stimulus"":""img/2to1/1.png"",""time"":101},{""stimulus"":""img/2to1/2.png"",""time"":207},{""stimulus"":""img/2to1/3.png"",""time"":305},{""stimulus"":""img/2to1/4.png"",""time"":397},{""stimulus"":""img/2to1/5.png"",""time"":508},{""stimulus"":""img/2to1/6.png"",""time"":602},{""stimulus"":""img/2to1/7.png"",""time"":693},{""stimulus"":""img/2to1/8.png"",""time"":812},{""stimulus"":""img/2to1/9.png"",""time"":904},{""stimulus"":""img/2to1/10.png"",""time"":991},{""stimulus"":""img/2to1/11.png"",""time"":1091},{""stimulus"":""img/2to1/12.png"",""time"":1201}]","[]"
"image-keyboard-response","44","112228","0.0-5.0-1.20","63652b3ed1f35f8e04325845","bdp_cybrbll","Mon Mar 27 2023 10:14:12 GMT-0400 (Eastern Daylight Time)","476115","1","3","","null","","","","observe","","img/1to3/1.png","null","205","354","0.5","0.5","1","2","",""
"animation","45","113524","0.0-5.0-2.20","63652b3ed1f35f8e04325845","bdp_cybrbll","Mon Mar 27 2023 10:14:12 GMT-0400 (Eastern Daylight Time)","476115","1","3","","","","","","","","","","205","","","","1","2","[{""stimulus"":""img/1to2/1.png"",""time"":110},{""stimulus"":""img/1to2/2.png"",""time"":204},{""stimulus"":""img/1to2/3.png"",""time"":312},{""stimulus"":""img/1to2/4.png"",""time"":404},{""stimulus"":""img/1to2/5.png"",""time"":496},{""stimulus"":""img/1to2/6.png"",""time"":609},{""stimulus"":""img/1to2/7.png"",""time"":695},{""stimulus"":""img/1to2/8.png"",""time"":803},{""stimulus"":""img/1to2/9.png"",""time"":891},{""stimulus"":""img/1to2/10.png"",""time"":991},{""stimulus"":""img/1to2/11.png"",""time"":1090},{""stimulus"":""img/1to2/12.png"",""time"":1190}]","[]"
"image-keyboard-response","46","113809","0.0-5.0-1.21","63652b3ed1f35f8e04325845","bdp_cybrbll","Mon Mar 27 2023 10:14:12 GMT-0400 (Eastern Daylight Time)","476115","1","3","","285","","","","choice","","img/2to1/1.png","2","204","177","0.5","0.5","2","3","",""
"animation","47","115101","0.0-5.0-2.21","63652b3ed1f35f8e04325845","bdp_cybrbll","Mon Mar 27 2023 10:14:12 GMT-0400 (Eastern Daylight Time)","476115","1","3","","","","","","","","","","204","","","","2","3","[{""stimulus"":""img/2to3/1.png"",""time"":110},{""stimulus"":""img/2to3/2.png"",""time"":202},{""stimulus"":""img/2to3/3.png"",""time"":311},{""stimulus"":""img/2to3/4.png"",""time"":405},{""stimulus"":""img/2to3/5.png"",""time"":497},{""stimulus"":""img/2to3/6.png"",""time"":607},{""stimulus"":""img/2to3/7.png"",""time"":700},{""stimulus"":""img/2to3/8.png"",""time"":795},{""stimulus"":""img/2to3/9.png"",""time"":892},{""stimulus"":""img/2to3/10.png"",""time"":998},{""stimulus"":""img/2to3/11.png"",""time"":1091},{""stimulus"":""img/2to3/12.png"",""time"":1199}]","[]"
"image-keyboard-response","48","116014","0.0-5.0-1.22","63652b3ed1f35f8e04325845","bdp_cybrbll","Mon Mar 27 2023 10:14:12 GMT-0400 (Eastern Daylight Time)","476115","1","3","","null","","","","observe","","img/3to2/1.png","null","203","896","0.5","0.5","3","2","",""
"animation","49","117315","0.0-5.0-2.22","63652b3ed1f35f8e04325845","bdp_cybrbll","Mon Mar 27 2023 10:14:12 GMT-0400 (Eastern Daylight Time)","476115","1","3","","","","","","","","","","203","","","","3","2","[{""stimulus"":""img/3to2/1.png"",""time"":107},{""stimulus"":""img/3to2/2.png"",""time"":200},{""stimulus"":""img/3to2/3.png"",""time"":313},{""stimulus"":""img/3to2/4.png"",""time"":397},{""stimulus"":""img/3to2/5.png"",""time"":499},{""stimulus"":""img/3to2/6.png"",""time"":607},{""stimulus"":""img/3to2/7.png"",""time"":699},{""stimulus"":""img/3to2/8.png"",""time"":808},{""stimulus"":""img/3to2/9.png"",""time"":891},{""stimulus"":""img/3to2/10.png"",""time"":991},{""stimulus"":""img/3to2/11.png"",""time"":1097},{""stimulus"":""img/3to2/12.png"",""time"":1188}]","[]"
"image-keyboard-response","50","117994","0.0-5.0-1.23","63652b3ed1f35f8e04325845","bdp_cybrbll","Mon Mar 27 2023 10:14:12 GMT-0400 (Eastern Daylight Time)","476115","1","3","","678","","","","choice","","img/2to1/1.png","1","202","848","0.5","0.5","2","1","",""
"animation","51","119281","0.0-5.0-2.23","63652b3ed1f35f8e04325845","bdp_cybrbll","Mon Mar 27 2023 10:14:12 GMT-0400 (Eastern Daylight Time)","476115","1","3","","","","","","","","","","202","","","","2","1","[{""stimulus"":""img/2to1/1.png"",""time"":100},{""stimulus"":""img/2to1/2.png"",""time"":200},{""stimulus"":""img/2to1/3.png"",""time"":310},{""stimulus"":""img/2to1/4.png"",""time"":404},{""stimulus"":""img/2to1/5.png"",""time"":504},{""stimulus"":""img/2to1/6.png"",""time"":596},{""stimulus"":""img/2to1/7.png"",""time"":694},{""stimulus"":""img/2to1/8.png"",""time"":798},{""stimulus"":""img/2to1/9.png"",""time"":907},{""stimulus"":""img/2to1/10.png"",""time"":1008},{""stimulus"":""img/2to1/11.png"",""time"":1101},{""stimulus"":""img/2to1/12.png"",""time"":1188}]","[]"
"image-keyboard-response","52","119625","0.0-5.0-1.24","63652b3ed1f35f8e04325845","bdp_cybrbll","Mon Mar 27 2023 10:14:12 GMT-0400 (Eastern Daylight Time)","476115","1","3","","null","","","","observe","","img/1to3/1.png","null","201","337","0.5","0.5","1","3","",""
"animation","53","120912","0.0-5.0-2.24","63652b3ed1f35f8e04325845","bdp_cybrbll","Mon Mar 27 2023 10:14:12 GMT-0400 (Eastern Daylight Time)","476115","1","3","","","","","","","","","","201","","","","1","3","[{""stimulus"":""img/1to3/1.png"",""time"":108},{""stimulus"":""img/1to3/2.png"",""time"":199},{""stimulus"":""img/1to3/3.png"",""time"":309},{""stimulus"":""img/1to3/4.png"",""time"":402},{""stimulus"":""img/1to3/5.png"",""time"":495},{""stimulus"":""img/1to3/6.png"",""time"":605},{""stimulus"":""img/1to3/7.png"",""time"":698},{""stimulus"":""img/1to3/8.png"",""time"":806},{""stimulus"":""img/1to3/9.png"",""time"":906},{""stimulus"":""img/1to3/10.png"",""time"":999},{""stimulus"":""img/1to3/11.png"",""time"":1092},{""stimulus"":""img/1to3/12.png"",""time"":1202}]","[]"
"image-keyboard-response","54","121176","0.0-5.0-1.25","63652b3ed1f35f8e04325845","bdp_cybrbll","Mon Mar 27 2023 10:14:12 GMT-0400 (Eastern Daylight Time)","476115","1","3","","null","","","","observe","","img/3to2/1.png","null","200","249","0.5","0.5","3","1","",""
"animation","55","122464","0.0-5.0-2.25","63652b3ed1f35f8e04325845","bdp_cybrbll","Mon Mar 27 2023 10:14:12 GMT-0400 (Eastern Daylight Time)","476115","1","3","","","","","","","","","","200","","","","3","1","[{""stimulus"":""img/3to1/1.png"",""time"":110},{""stimulus"":""img/3to1/2.png"",""time"":203},{""stimulus"":""img/3to1/3.png"",""time"":313},{""stimulus"":""img/3to1/4.png"",""time"":411},{""stimulus"":""img/3to1/5.png"",""time"":504},{""stimulus"":""img/3to1/6.png"",""time"":596},{""stimulus"":""img/3to1/7.png"",""time"":706},{""stimulus"":""img/3to1/8.png"",""time"":800},{""stimulus"":""img/3to1/9.png"",""time"":892},{""stimulus"":""img/3to1/10.png"",""time"":995},{""stimulus"":""img/3to1/11.png"",""time"":1105},{""stimulus"":""img/3to1/12.png"",""time"":1198}]","[]"
"image-keyboard-response","56","122975","0.0-5.0-1.26","63652b3ed1f35f8e04325845","bdp_cybrbll","Mon Mar 27 2023 10:14:12 GMT-0400 (Eastern Daylight Time)","476115","1","3","","null","","","","observe","","img/1to3/1.png","null","199","495","0.5","0.5","1","3","",""
"animation","57","124266","0.0-5.0-2.26","63652b3ed1f35f8e04325845","bdp_cybrbll","Mon Mar 27 2023 10:14:12 GMT-0400 (Eastern Daylight Time)","476115","1","3","","","","","","","","","","199","","","","1","3","[{""stimulus"":""img/1to3/1.png"",""time"":110},{""stimulus"":""img/1to3/2.png"",""time"":199},{""stimulus"":""img/1to3/3.png"",""time"":312},{""stimulus"":""img/1to3/4.png"",""time"":407},{""stimulus"":""img/1to3/5.png"",""time"":503},{""stimulus"":""img/1to3/6.png"",""time"":600},{""stimulus"":""img/1to3/7.png"",""time"":694},{""stimulus"":""img/1to3/8.png"",""time"":803},{""stimulus"":""img/1to3/9.png"",""time"":891},{""stimulus"":""img/1to3/10.png"",""time"":994},{""stimulus"":""img/1to3/11.png"",""time"":1100},{""stimulus"":""img/1to3/12.png"",""time"":1189}]","[]"
"image-keyboard-response","58","125261","0.0-5.0-1.27","63652b3ed1f35f8e04325845","bdp_cybrbll","Mon Mar 27 2023 10:14:12 GMT-0400 (Eastern Daylight Time)","476115","1","3","","null","","","","observe","","img/3to2/1.png","null","198","987","0.5","0.5","3","1","",""
"animation","59","126555","0.0-5.0-2.27","63652b3ed1f35f8e04325845","bdp_cybrbll","Mon Mar 27 2023 10:14:12 GMT-0400 (Eastern Daylight Time)","476115","1","3","","","","","","","","","","198","","","","3","1","[{""stimulus"":""img/3to1/1.png"",""time"":108},{""stimulus"":""img/3to1/2.png"",""time"":204},{""stimulus"":""img/3to1/3.png"",""time"":312},{""stimulus"":""img/3to1/4.png"",""time"":411},{""stimulus"":""img/3to1/5.png"",""time"":503},{""stimulus"":""img/3to1/6.png"",""time"":594},{""stimulus"":""img/3to1/7.png"",""time"":706},{""stimulus"":""img/3to1/8.png"",""time"":792},{""stimulus"":""img/3to1/9.png"",""time"":906},{""stimulus"":""img/3to1/10.png"",""time"":999},{""stimulus"":""img/3to1/11.png"",""time"":1092},{""stimulus"":""img/3to1/12.png"",""time"":1200}]","[]"
"image-keyboard-response","60","127238","0.0-5.0-1.28","63652b3ed1f35f8e04325845","bdp_cybrbll","Mon Mar 27 2023 10:14:12 GMT-0400 (Eastern Daylight Time)","476115","1","3","","null","","","","observe","","img/1to3/1.png","null","197","672","0.5","0.5","1","2","",""
"animation","61","128530","0.0-5.0-2.28","63652b3ed1f35f8e04325845","bdp_cybrbll","Mon Mar 27 2023 10:14:12 GMT-0400 (Eastern Daylight Time)","476115","1","3","","","","","","","","","","197","","","","1","2","[{""stimulus"":""img/1to2/1.png"",""time"":109},{""stimulus"":""img/1to2/2.png"",""time"":199},{""stimulus"":""img/1to2/3.png"",""time"":310},{""stimulus"":""img/1to2/4.png"",""time"":398},{""stimulus"":""img/1to2/5.png"",""time"":506},{""stimulus"":""img/1to2/6.png"",""time"":600},{""stimulus"":""img/1to2/7.png"",""time"":694},{""stimulus"":""img/1to2/8.png"",""time"":793},{""stimulus"":""img/1to2/9.png"",""time"":902},{""stimulus"":""img/1to2/10.png"",""time"":996},{""stimulus"":""img/1to2/11.png"",""time"":1105},{""stimulus"":""img/1to2/12.png"",""time"":1197}]","[]"
"image-keyboard-response","62","128650","0.0-5.0-1.29","63652b3ed1f35f8e04325845","bdp_cybrbll","Mon Mar 27 2023 10:14:12 GMT-0400 (Eastern Daylight Time)","476115","1","3","","120","","","","choice","","img/2to1/1.png","2","196","357","0.5","0.5","2","3","",""
"animation","63","129937","0.0-5.0-2.29","63652b3ed1f35f8e04325845","bdp_cybrbll","Mon Mar 27 2023 10:14:12 GMT-0400 (Eastern Daylight Time)","476115","1","3","","","","","","","","","","196","","","","2","3","[{""stimulus"":""img/2to3/1.png"",""time"":100},{""stimulus"":""img/2to3/2.png"",""time"":198},{""stimulus"":""img/2to3/3.png"",""time"":298},{""stimulus"":""img/2to3/4.png"",""time"":397},{""stimulus"":""img/2to3/5.png"",""time"":502},{""stimulus"":""img/2to3/6.png"",""time"":611},{""stimulus"":""img/2to3/7.png"",""time"":703},{""stimulus"":""img/2to3/8.png"",""time"":793},{""stimulus"":""img/2to3/9.png"",""time"":905},{""stimulus"":""img/2to3/10.png"",""time"":998},{""stimulus"":""img/2to3/11.png"",""time"":1092},{""stimulus"":""img/2to3/12.png"",""time"":1202}]","[]"
"image-keyboard-response","64","130284","0.0-5.0-1.30","63652b3ed1f35f8e04325845","bdp_cybrbll","Mon Mar 27 2023 10:14:12 GMT-0400 (Eastern Daylight Time)","476115","1","3","","null","","","","observe","","img/3to2/1.png","null","195","335","0.5","0.5","3","2","",""
"animation","65","131571","0.0-5.0-2.30","63652b3ed1f35f8e04325845","bdp_cybrbll","Mon Mar 27 2023 10:14:12 GMT-0400 (Eastern Daylight Time)","476115","1","3","","","","","","","","","","195","","","","3","2","[{""stimulus"":""img/3to2/1.png"",""time"":109},{""stimulus"":""img/3to2/2.png"",""time"":199},{""stimulus"":""img/3to2/3.png"",""time"":311},{""stimulus"":""img/3to2/4.png"",""time"":399},{""stimulus"":""img/3to2/5.png"",""time"":508},{""stimulus"":""img/3to2/6.png"",""time"":601},{""stimulus"":""img/3to2/7.png"",""time"":694},{""stimulus"":""img/3to2/8.png"",""time"":805},{""stimulus"":""img/3to2/9.png"",""time"":904},{""stimulus"":""img/3to2/10.png"",""time"":997},{""stimulus"":""img/3to2/11.png"",""time"":1090},{""stimulus"":""img/3to2/12.png"",""time"":1200}]","[]"
"image-keyboard-response","66","131666","0.0-5.0-1.31","63652b3ed1f35f8e04325845","bdp_cybrbll","Mon Mar 27 2023 10:14:12 GMT-0400 (Eastern Daylight Time)","476115","1","3","","93","","","","choice","","img/2to1/1.png","1","194","589","0.5","0.5","2","1","",""
"animation","67","132964","0.0-5.0-2.31","63652b3ed1f35f8e04325845","bdp_cybrbll","Mon Mar 27 2023 10:14:12 GMT-0400 (Eastern Daylight Time)","476115","1","3","","","","","","","","","","194","","","","2","1","[{""stimulus"":""img/2to1/1.png"",""time"":111},{""stimulus"":""img/2to1/2.png"",""time"":203},{""stimulus"":""img/2to1/3.png"",""time"":297},{""stimulus"":""img/2to1/4.png"",""time"":405},{""stimulus"":""img/2to1/5.png"",""time"":499},{""stimulus"":""img/2to1/6.png"",""time"":595},{""stimulus"":""img/2to1/7.png"",""time"":694},{""stimulus"":""img/2to1/8.png"",""time"":801},{""stimulus"":""img/2to1/9.png"",""time"":896},{""stimulus"":""img/2to1/10.png"",""time"":1004},{""stimulus"":""img/2to1/11.png"",""time"":1089},{""stimulus"":""img/2to1/12.png"",""time"":1190}]","[]"
"image-keyboard-response","68","133848","0.0-5.0-1.32","63652b3ed1f35f8e04325845","bdp_cybrbll","Mon Mar 27 2023 10:14:12 GMT-0400 (Eastern Daylight Time)","476115","1","3","","null","","","","observe","","img/1to3/1.png","null","193","871","0.5","0.5","1","3","",""
"animation","69","135143","0.0-5.0-2.32","63652b3ed1f35f8e04325845","bdp_cybrbll","Mon Mar 27 2023 10:14:12 GMT-0400 (Eastern Daylight Time)","476115","1","3","","","","","","","","","","193","","","","1","3","[{""stimulus"":""img/1to3/1.png"",""time"":109},{""stimulus"":""img/1to3/2.png"",""time"":199},{""stimulus"":""img/1to3/3.png"",""time"":312},{""stimulus"":""img/1to3/4.png"",""time"":398},{""stimulus"":""img/1to3/5.png"",""time"":507},{""stimulus"":""img/1to3/6.png"",""time"":600},{""stimulus"":""img/1to3/7.png"",""time"":695},{""stimulus"":""img/1to3/8.png"",""time"":803},{""stimulus"":""img/1to3/9.png"",""time"":892},{""stimulus"":""img/1to3/10.png"",""time"":998},{""stimulus"":""img/1to3/11.png"",""time"":1090},{""stimulus"":""img/1to3/12.png"",""time"":1201}]","[]"
"image-keyboard-response","70","135725","0.0-5.0-1.33","63652b3ed1f35f8e04325845","bdp_cybrbll","Mon Mar 27 2023 10:14:12 GMT-0400 (Eastern Daylight Time)","476115","1","3","","null","","","","observe","","img/3to2/1.png","null","192","576","0.5","0.5","3","2","",""
"animation","71","137012","0.0-5.0-2.33","63652b3ed1f35f8e04325845","bdp_cybrbll","Mon Mar 27 2023 10:14:12 GMT-0400 (Eastern Daylight Time)","476115","1","3","","","","","","","","","","192","","","","3","2","[{""stimulus"":""img/3to2/1.png"",""time"":103},{""stimulus"":""img/3to2/2.png"",""time"":199},{""stimulus"":""img/3to2/3.png"",""time"":298},{""stimulus"":""img/3to2/4.png"",""time"":397},{""stimulus"":""img/3to2/5.png"",""time"":507},{""stimulus"":""img/3to2/6.png"",""time"":600},{""stimulus"":""img/3to2/7.png"",""time"":708},{""stimulus"":""img/3to2/8.png"",""time"":800},{""stimulus"":""img/3to2/9.png"",""time"":892},{""stimulus"":""img/3to2/10.png"",""time"":1001},{""stimulus"":""img/3to2/11.png"",""time"":1093},{""stimulus"":""img/3to2/12.png"",""time"":1201}]","[]"
"image-keyboard-response","72","137146","0.0-5.0-1.34","63652b3ed1f35f8e04325845","bdp_cybrbll","Mon Mar 27 2023 10:14:12 GMT-0400 (Eastern Daylight Time)","476115","1","3","","133","","","","choice","","img/2to1/1.png","2","191","1163","0.5","0.5","2","3","",""
"animation","73","138433","0.0-5.0-2.34","63652b3ed1f35f8e04325845","bdp_cybrbll","Mon Mar 27 2023 10:14:12 GMT-0400 (Eastern Daylight Time)","476115","1","3","","","","","","","","","","191","","","","2","3","[{""stimulus"":""img/2to3/1.png"",""time"":100},{""stimulus"":""img/2to3/2.png"",""time"":205},{""stimulus"":""img/2to3/3.png"",""time"":299},{""stimulus"":""img/2to3/4.png"",""time"":409},{""stimulus"":""img/2to3/5.png"",""time"":500},{""stimulus"":""img/2to3/6.png"",""time"":609},{""stimulus"":""img/2to3/7.png"",""time"":703},{""stimulus"":""img/2to3/8.png"",""time"":796},{""stimulus"":""img/2to3/9.png"",""time"":905},{""stimulus"":""img/2to3/10.png"",""time"":1000},{""stimulus"":""img/2to3/11.png"",""time"":1091},{""stimulus"":""img/2to3/12.png"",""time"":1195}]","[]"
"image-keyboard-response","74","138760","0.0-5.0-1.35","63652b3ed1f35f8e04325845","bdp_cybrbll","Mon Mar 27 2023 10:14:12 GMT-0400 (Eastern Daylight Time)","476115","1","3","","null","","","","observe","","img/3to2/1.png","null","190","325","0.5","0.5","3","1","",""
"animation","75","140048","0.0-5.0-2.35","63652b3ed1f35f8e04325845","bdp_cybrbll","Mon Mar 27 2023 10:14:12 GMT-0400 (Eastern Daylight Time)","476115","1","3","","","","","","","","","","190","","","","3","1","[{""stimulus"":""img/3to1/1.png"",""time"":114},{""stimulus"":""img/3to1/2.png"",""time"":207},{""stimulus"":""img/3to1/3.png"",""time"":300},{""stimulus"":""img/3to1/4.png"",""time"":397},{""stimulus"":""img/3to1/5.png"",""time"":504},{""stimulus"":""img/3to1/6.png"",""time"":609},{""stimulus"":""img/3to1/7.png"",""time"":702},{""stimulus"":""img/3to1/8.png"",""time"":793},{""stimulus"":""img/3to1/9.png"",""time"":904},{""stimulus"":""img/3to1/10.png"",""time"":997},{""stimulus"":""img/3to1/11.png"",""time"":1090},{""stimulus"":""img/3to1/12.png"",""time"":1194}]","[]"
"image-keyboard-response","76","140374","0.0-5.0-1.36","63652b3ed1f35f8e04325845","bdp_cybrbll","Mon Mar 27 2023 10:14:12 GMT-0400 (Eastern Daylight Time)","476115","1","3","","null","","","","observe","","img/1to3/1.png","null","189","317","0.5","0.5","1","2","",""
"animation","77","141672","0.0-5.0-2.36","63652b3ed1f35f8e04325845","bdp_cybrbll","Mon Mar 27 2023 10:14:12 GMT-0400 (Eastern Daylight Time)","476115","1","3","","","","","","","","","","189","","","","1","2","[{""stimulus"":""img/1to2/1.png"",""time"":108},{""stimulus"":""img/1to2/2.png"",""time"":203},{""stimulus"":""img/1to2/3.png"",""time"":298},{""stimulus"":""img/1to2/4.png"",""time"":405},{""stimulus"":""img/1to2/5.png"",""time"":496},{""stimulus"":""img/1to2/6.png"",""time"":601},{""stimulus"":""img/1to2/7.png"",""time"":694},{""stimulus"":""img/1to2/8.png"",""time"":804},{""stimulus"":""img/1to2/9.png"",""time"":892},{""stimulus"":""img/1to2/10.png"",""time"":991},{""stimulus"":""img/1to2/11.png"",""time"":1090},{""stimulus"":""img/1to2/12.png"",""time"":1190}]","[]"
"image-keyboard-response","78","142193","0.0-5.0-1.37","63652b3ed1f35f8e04325845","bdp_cybrbll","Mon Mar 27 2023 10:14:12 GMT-0400 (Eastern Daylight Time)","476115","1","3","","520","","","","choice","","img/2to1/1.png","2","188","480","0.5","0.5","2","3","",""
"animation","79","143481","0.0-5.0-2.37","63652b3ed1f35f8e04325845","bdp_cybrbll","Mon Mar 27 2023 10:14:12 GMT-0400 (Eastern Daylight Time)","476115","1","3","","","","","","","","","","188","","","","2","3","[{""stimulus"":""img/2to3/1.png"",""time"":100},{""stimulus"":""img/2to3/2.png"",""time"":212},{""stimulus"":""img/2to3/3.png"",""time"":306},{""stimulus"":""img/2to3/4.png"",""time"":396},{""stimulus"":""img/2to3/5.png"",""time"":496},{""stimulus"":""img/2to3/6.png"",""time"":606},{""stimulus"":""img/2to3/7.png"",""time"":693},{""stimulus"":""img/2to3/8.png"",""time"":800},{""stimulus"":""img/2to3/9.png"",""time"":893},{""stimulus"":""img/2to3/10.png"",""time"":1003},{""stimulus"":""img/2to3/11.png"",""time"":1089},{""stimulus"":""img/2to3/12.png"",""time"":1200}]","[]"
"image-keyboard-response","80","144000","0.0-5.0-1.38","63652b3ed1f35f8e04325845","bdp_cybrbll","Mon Mar 27 2023 10:14:12 GMT-0400 (Eastern Daylight Time)","476115","1","3","","null","","","","observe","","img/3to2/1.png","null","187","518","0.5","0.5","3","2","",""
"animation","81","145299","0.0-5.0-2.38","63652b3ed1f35f8e04325845","bdp_cybrbll","Mon Mar 27 2023 10:14:12 GMT-0400 (Eastern Daylight Time)","476115","1","3","","","","","","","","","","187","","","","3","2","[{""stimulus"":""img/3to2/1.png"",""time"":115},{""stimulus"":""img/3to2/2.png"",""time"":199},{""stimulus"":""img/3to2/3.png"",""time"":298},{""stimulus"":""img/3to2/4.png"",""time"":403},{""stimulus"":""img/3to2/5.png"",""time"":497},{""stimulus"":""img/3to2/6.png"",""time"":594},{""stimulus"":""img/3to2/7.png"",""time"":700},{""stimulus"":""img/3to2/8.png"",""time"":793},{""stimulus"":""img/3to2/9.png"",""time"":910},{""stimulus"":""img/3to2/10.png"",""time"":1003},{""stimulus"":""img/3to2/11.png"",""time"":1090},{""stimulus"":""img/3to2/12.png"",""time"":1190}]","[]"
"image-keyboard-response","82","146138","0.0-5.0-1.39","63652b3ed1f35f8e04325845","bdp_cybrbll","Mon Mar 27 2023 10:14:12 GMT-0400 (Eastern Daylight Time)","476115","1","3","","839","","","","choice","","img/2to1/1.png","1","186","243","0.5","0.5","2","1","",""
"animation","83","147425","0.0-5.0-2.39","63652b3ed1f35f8e04325845","bdp_cybrbll","Mon Mar 27 2023 10:14:12 GMT-0400 (Eastern Daylight Time)","476115","1","3","","","","","","","","","","186","","","","2","1","[{""stimulus"":""img/2to1/1.png"",""time"":100},{""stimulus"":""img/2to1/2.png"",""time"":211},{""stimulus"":""img/2to1/3.png"",""time"":300},{""stimulus"":""img/2to1/4.png"",""time"":408},{""stimulus"":""img/2to1/5.png"",""time"":502},{""stimulus"":""img/2to1/6.png"",""time"":597},{""stimulus"":""img/2to1/7.png"",""time"":694},{""stimulus"":""img/2to1/8.png"",""time"":793},{""stimulus"":""img/2to1/9.png"",""time"":903},{""stimulus"":""img/2to1/10.png"",""time"":996},{""stimulus"":""img/2to1/11.png"",""time"":1089},{""stimulus"":""img/2to1/12.png"",""time"":1202}]","[]"
"image-keyboard-response","84","147793","0.0-5.0-1.40","63652b3ed1f35f8e04325845","bdp_cybrbll","Mon Mar 27 2023 10:14:12 GMT-0400 (Eastern Daylight Time)","476115","1","3","","null","","","","observe","","img/1to3/1.png","null","185","355","0.5","0.5","1","3","",""
"animation","85","149080","0.0-5.0-2.40","63652b3ed1f35f8e04325845","bdp_cybrbll","Mon Mar 27 2023 10:14:12 GMT-0400 (Eastern Daylight Time)","476115","1","3","","","","","","","","","","185","","","","1","3","[{""stimulus"":""img/1to3/1.png"",""time"":110},{""stimulus"":""img/1to3/2.png"",""time"":204},{""stimulus"":""img/1to3/3.png"",""time"":311},{""stimulus"":""img/1to3/4.png"",""time"":405},{""stimulus"":""img/1to3/5.png"",""time"":500},{""stimulus"":""img/1to3/6.png"",""time"":608},{""stimulus"":""img/1to3/7.png"",""time"":696},{""stimulus"":""img/1to3/8.png"",""time"":805},{""stimulus"":""img/1to3/9.png"",""time"":898},{""stimulus"":""img/1to3/10.png"",""time"":991},{""stimulus"":""img/1to3/11.png"",""time"":1089},{""stimulus"":""img/1to3/12.png"",""time"":1196}]","[]"
"image-keyboard-response","86","149676","0.0-5.0-1.41","63652b3ed1f35f8e04325845","bdp_cybrbll","Mon Mar 27 2023 10:14:12 GMT-0400 (Eastern Daylight Time)","476115","1","3","","null","","","","observe","","img/3to2/1.png","null","184","585","0.5","0.5","3","2","",""
"animation","87","150975","0.0-5.0-2.41","63652b3ed1f35f8e04325845","bdp_cybrbll","Mon Mar 27 2023 10:14:12 GMT-0400 (Eastern Daylight Time)","476115","1","3","","","","","","","","","","184","","","","3","2","[{""stimulus"":""img/3to2/1.png"",""time"":109},{""stimulus"":""img/3to2/2.png"",""time"":202},{""stimulus"":""img/3to2/3.png"",""time"":320},{""stimulus"":""img/3to2/4.png"",""time"":397},{""stimulus"":""img/3to2/5.png"",""time"":496},{""stimulus"":""img/3to2/6.png"",""time"":595},{""stimulus"":""img/3to2/7.png"",""time"":695},{""stimulus"":""img/3to2/8.png"",""time"":803},{""stimulus"":""img/3to2/9.png"",""time"":897},{""stimulus"":""img/3to2/10.png"",""time"":991},{""stimulus"":""img/3to2/11.png"",""time"":1098},{""stimulus"":""img/3to2/12.png"",""time"":1192}]","[]"
"image-keyboard-response","88","151730","0.0-5.0-1.42","63652b3ed1f35f8e04325845","bdp_cybrbll","Mon Mar 27 2023 10:14:12 GMT-0400 (Eastern Daylight Time)","476115","1","3","","755","","","","choice","","img/2to1/1.png","2","183","719","0.5","0.5","2","3","",""
"animation","89","153021","0.0-5.0-2.42","63652b3ed1f35f8e04325845","bdp_cybrbll","Mon Mar 27 2023 10:14:12 GMT-0400 (Eastern Daylight Time)","476115","1","3","","","","","","","","","","183","","","","2","3","[{""stimulus"":""img/2to3/1.png"",""time"":100},{""stimulus"":""img/2to3/2.png"",""time"":210},{""stimulus"":""img/2to3/3.png"",""time"":313},{""stimulus"":""img/2to3/4.png"",""time"":407},{""stimulus"":""img/2to3/5.png"",""time"":496},{""stimulus"":""img/2to3/6.png"",""time"":595},{""stimulus"":""img/2to3/7.png"",""time"":694},{""stimulus"":""img/2to3/8.png"",""time"":794},{""stimulus"":""img/2to3/9.png"",""time"":892},{""stimulus"":""img/2to3/10.png"",""time"":991},{""stimulus"":""img/2to3/11.png"",""time"":1105},{""stimulus"":""img/2to3/12.png"",""time"":1198}]","[]"
"image-keyboard-response","90","154125","0.0-5.0-1.43","63652b3ed1f35f8e04325845","bdp_cybrbll","Mon Mar 27 2023 10:14:12 GMT-0400 (Eastern Daylight Time)","476115","1","3","","null","","","","observe","","img/3to2/1.png","null","182","1098","0.5","0.5","3","1","",""
"animation","91","155419","0.0-5.0-2.43","63652b3ed1f35f8e04325845","bdp_cybrbll","Mon Mar 27 2023 10:14:12 GMT-0400 (Eastern Daylight Time)","476115","1","3","","","","","","","","","","182","","","","3","1","[{""stimulus"":""img/3to1/1.png"",""time"":108},{""stimulus"":""img/3to1/2.png"",""time"":201},{""stimulus"":""img/3to1/3.png"",""time"":312},{""stimulus"":""img/3to1/4.png"",""time"":405},{""stimulus"":""img/3to1/5.png"",""time"":506},{""stimulus"":""img/3to1/6.png"",""time"":599},{""stimulus"":""img/3to1/7.png"",""time"":694},{""stimulus"":""img/3to1/8.png"",""time"":804},{""stimulus"":""img/3to1/9.png"",""time"":897},{""stimulus"":""img/3to1/10.png"",""time"":990},{""stimulus"":""img/3to1/11.png"",""time"":1092},{""stimulus"":""img/3to1/12.png"",""time"":1201}]","[]"
"image-keyboard-response","92","156209","0.0-5.0-1.44","63652b3ed1f35f8e04325845","bdp_cybrbll","Mon Mar 27 2023 10:14:12 GMT-0400 (Eastern Daylight Time)","476115","1","3","","null","","","","observe","","img/1to3/1.png","null","181","778","0.5","0.5","1","3","",""
"animation","93","157501","0.0-5.0-2.44","63652b3ed1f35f8e04325845","bdp_cybrbll","Mon Mar 27 2023 10:14:12 GMT-0400 (Eastern Daylight Time)","476115","1","3","","","","","","","","","","181","","","","1","3","[{""stimulus"":""img/1to3/1.png"",""time"":108},{""stimulus"":""img/1to3/2.png"",""time"":198},{""stimulus"":""img/1to3/3.png"",""time"":298},{""stimulus"":""img/1to3/4.png"",""time"":408},{""stimulus"":""img/1to3/5.png"",""time"":500},{""stimulus"":""img/1to3/6.png"",""time"":595},{""stimulus"":""img/1to3/7.png"",""time"":703},{""stimulus"":""img/1to3/8.png"",""time"":797},{""stimulus"":""img/1to3/9.png"",""time"":905},{""stimulus"":""img/1to3/10.png"",""time"":998},{""stimulus"":""img/1to3/11.png"",""time"":1089},{""stimulus"":""img/1to3/12.png"",""time"":1197}]","[]"
"image-keyboard-response","94","158097","0.0-5.0-1.45","63652b3ed1f35f8e04325845","bdp_cybrbll","Mon Mar 27 2023 10:14:12 GMT-0400 (Eastern Daylight Time)","476115","1","3","","null","","","","observe","","img/3to2/1.png","null","180","595","0.5","0.5","3","2","",""
"animation","95","159385","0.0-5.0-2.45","63652b3ed1f35f8e04325845","bdp_cybrbll","Mon Mar 27 2023 10:14:12 GMT-0400 (Eastern Daylight Time)","476115","1","3","","","","","","","","","","180","","","","3","2","[{""stimulus"":""img/3to2/1.png"",""time"":103},{""stimulus"":""img/3to2/2.png"",""time"":212},{""stimulus"":""img/3to2/3.png"",""time"":298},{""stimulus"":""img/3to2/4.png"",""time"":401},{""stimulus"":""img/3to2/5.png"",""time"":497},{""stimulus"":""img/3to2/6.png"",""time"":596},{""stimulus"":""img/3to2/7.png"",""time"":707},{""stimulus"":""img/3to2/8.png"",""time"":793},{""stimulus"":""img/3to2/9.png"",""time"":893},{""stimulus"":""img/3to2/10.png"",""time"":1003},{""stimulus"":""img/3to2/11.png"",""time"":1090},{""stimulus"":""img/3to2/12.png"",""time"":1196}]","[]"
"image-keyboard-response","96","159962","0.0-5.0-1.46","63652b3ed1f35f8e04325845","bdp_cybrbll","Mon Mar 27 2023 10:14:12 GMT-0400 (Eastern Daylight Time)","476115","1","3","","577","","","","choice","","img/2to1/1.png","1","179","276","0.5","0.5","2","1","",""
"animation","97","161249","0.0-5.0-2.46","63652b3ed1f35f8e04325845","bdp_cybrbll","Mon Mar 27 2023 10:14:12 GMT-0400 (Eastern Daylight Time)","476115","1","3","","","","","","","","","","179","","","","2","1","[{""stimulus"":""img/2to1/1.png"",""time"":99},{""stimulus"":""img/2to1/2.png"",""time"":218},{""stimulus"":""img/2to1/3.png"",""time"":311},{""stimulus"":""img/2to1/4.png"",""time"":404},{""stimulus"":""img/2to1/5.png"",""time"":496},{""stimulus"":""img/2to1/6.png"",""time"":607},{""stimulus"":""img/2to1/7.png"",""time"":694},{""stimulus"":""img/2to1/8.png"",""time"":807},{""stimulus"":""img/2to1/9.png"",""time"":891},{""stimulus"":""img/2to1/10.png"",""time"":991},{""stimulus"":""img/2to1/11.png"",""time"":1089},{""stimulus"":""img/2to1/12.png"",""time"":1188}]","[]"
"image-keyboard-response","98","161447","0.0-5.0-1.47","63652b3ed1f35f8e04325845","bdp_cybrbll","Mon Mar 27 2023 10:14:12 GMT-0400 (Eastern Daylight Time)","476115","1","3","","null","","","","observe","","img/1to3/1.png","null","178","197","0.5","0.5","1","2","",""
"animation","99","162736","0.0-5.0-2.47","63652b3ed1f35f8e04325845","bdp_cybrbll","Mon Mar 27 2023 10:14:12 GMT-0400 (Eastern Daylight Time)","476115","1","3","","","","","","","","","","178","","","","1","2","[{""stimulus"":""img/1to2/1.png"",""time"":105},{""stimulus"":""img/1to2/2.png"",""time"":214},{""stimulus"":""img/1to2/3.png"",""time"":307},{""stimulus"":""img/1to2/4.png"",""time"":396},{""stimulus"":""img/1to2/5.png"",""time"":495},{""stimulus"":""img/1to2/6.png"",""time"":602},{""stimulus"":""img/1to2/7.png"",""time"":693},{""stimulus"":""img/1to2/8.png"",""time"":796},{""stimulus"":""img/1to2/9.png"",""time"":904},{""stimulus"":""img/1to2/10.png"",""time"":990},{""stimulus"":""img/1to2/11.png"",""time"":1092},{""stimulus"":""img/1to2/12.png"",""time"":1201}]","[]"
"image-keyboard-response","100","162929","0.0-5.0-1.48","63652b3ed1f35f8e04325845","bdp_cybrbll","Mon Mar 27 2023 10:14:12 GMT-0400 (Eastern Daylight Time)","476115","1","3","","193","","","","choice","","img/2to1/1.png","2","177","408","0.5","0.5","2","3","",""
"animation","101","164217","0.0-5.0-2.48","63652b3ed1f35f8e04325845","bdp_cybrbll","Mon Mar 27 2023 10:14:12 GMT-0400 (Eastern Daylight Time)","476115","1","3","","","","","","","","","","177","","","","2","3","[{""stimulus"":""img/2to3/1.png"",""time"":102},{""stimulus"":""img/2to3/2.png"",""time"":200},{""stimulus"":""img/2to3/3.png"",""time"":309},{""stimulus"":""img/2to3/4.png"",""time"":403},{""stimulus"":""img/2to3/5.png"",""time"":510},{""stimulus"":""img/2to3/6.png"",""time"":602},{""stimulus"":""img/2to3/7.png"",""time"":694},{""stimulus"":""img/2to3/8.png"",""time"":817},{""stimulus"":""img/2to3/9.png"",""time"":892},{""stimulus"":""img/2to3/10.png"",""time"":1005},{""stimulus"":""img/2to3/11.png"",""time"":1090},{""stimulus"":""img/2to3/12.png"",""time"":1189}]","[]"
"image-keyboard-response","102","164497","0.0-5.0-1.49","63652b3ed1f35f8e04325845","bdp_cybrbll","Mon Mar 27 2023 10:14:12 GMT-0400 (Eastern Daylight Time)","476115","1","3","","null","","","","observe","","img/3to2/1.png","null","176","279","0.5","0.5","3","2","",""
"animation","103","165785","0.0-5.0-2.49","63652b3ed1f35f8e04325845","bdp_cybrbll","Mon Mar 27 2023 10:14:12 GMT-0400 (Eastern Daylight Time)","476115","1","3","","","","","","","","","","176","","","","3","2","[{""stimulus"":""img/3to2/1.png"",""time"":104},{""stimulus"":""img/3to2/2.png"",""time"":213},{""stimulus"":""img/3to2/3.png"",""time"":298},{""stimulus"":""img/3to2/4.png"",""time"":406},{""stimulus"":""img/3to2/5.png"",""time"":499},{""stimulus"":""img/3to2/6.png"",""time"":608},{""stimulus"":""img/3to2/7.png"",""time"":693},{""stimulus"":""img/3to2/8.png"",""time"":792},{""stimulus"":""img/3to2/9.png"",""time"":892},{""stimulus"":""img/3to2/10.png"",""time"":1001},{""stimulus"":""img/3to2/11.png"",""time"":1096},{""stimulus"":""img/3to2/12.png"",""time"":1204}]","[]"
"image-keyboard-response","104","165834","0.0-5.0-1.50","63652b3ed1f35f8e04325845","bdp_cybrbll","Mon Mar 27 2023 10:14:12 GMT-0400 (Eastern Daylight Time)","476115","1","3","","48","","","","choice","","img/2to1/1.png","1","175","494","0.5","0.5","2","1","",""
"animation","105","167128","0.0-5.0-2.50","63652b3ed1f35f8e04325845","bdp_cybrbll","Mon Mar 27 2023 10:14:12 GMT-0400 (Eastern Daylight Time)","476115","1","3","","","","","","","","","","175","","","","2","1","[{""stimulus"":""img/2to1/1.png"",""time"":100},{""stimulus"":""img/2to1/2.png"",""time"":204},{""stimulus"":""img/2to1/3.png"",""time"":297},{""stimulus"":""img/2to1/4.png"",""time"":407},{""stimulus"":""img/2to1/5.png"",""time"":496},{""stimulus"":""img/2to1/6.png"",""time"":604},{""stimulus"":""img/2to1/7.png"",""time"":694},{""stimulus"":""img/2to1/8.png"",""time"":807},{""stimulus"":""img/2to1/9.png"",""time"":899},{""stimulus"":""img/2to1/10.png"",""time"":996},{""stimulus"":""img/2to1/11.png"",""time"":1089},{""stimulus"":""img/2to1/12.png"",""time"":1198}]","[]"
"image-keyboard-response","106","167383","0.0-5.0-1.51","63652b3ed1f35f8e04325845","bdp_cybrbll","Mon Mar 27 2023 10:14:12 GMT-0400 (Eastern Daylight Time)","476115","1","3","","null","","","","observe","","img/1to3/1.png","null","174","235","0.5","0.5","1","2","",""
"animation","107","168678","0.0-5.0-2.51","63652b3ed1f35f8e04325845","bdp_cybrbll","Mon Mar 27 2023 10:14:12 GMT-0400 (Eastern Daylight Time)","476115","1","3","","","","","","","","","","174","","","","1","2","[{""stimulus"":""img/1to2/1.png"",""time"":114},{""stimulus"":""img/1to2/2.png"",""time"":207},{""stimulus"":""img/1to2/3.png"",""time"":297},{""stimulus"":""img/1to2/4.png"",""time"":409},{""stimulus"":""img/1to2/5.png"",""time"":501},{""stimulus"":""img/1to2/6.png"",""time"":595},{""stimulus"":""img/1to2/7.png"",""time"":703},{""stimulus"":""img/1to2/8.png"",""time"":797},{""stimulus"":""img/1to2/9.png"",""time"":906},{""stimulus"":""img/1to2/10.png"",""time"":990},{""stimulus"":""img/1to2/11.png"",""time"":1092},{""stimulus"":""img/1to2/12.png"",""time"":1201}]","[]"
"image-keyboard-response","108","168778","0.0-5.0-1.52","63652b3ed1f35f8e04325845","bdp_cybrbll","Mon Mar 27 2023 10:14:12 GMT-0400 (Eastern Daylight Time)","476115","1","3","","100","","","","choice","","img/2to1/1.png","2","173","1092","0.5","0.5","2","3","",""
"animation","109","170077","0.0-5.0-2.52","63652b3ed1f35f8e04325845","bdp_cybrbll","Mon Mar 27 2023 10:14:12 GMT-0400 (Eastern Daylight Time)","476115","1","3","","","","","","","","","","173","","","","2","3","[{""stimulus"":""img/2to3/1.png"",""time"":100},{""stimulus"":""img/2to3/2.png"",""time"":205},{""stimulus"":""img/2to3/3.png"",""time"":298},{""stimulus"":""img/2to3/4.png"",""time"":405},{""stimulus"":""img/2to3/5.png"",""time"":498},{""stimulus"":""img/2to3/6.png"",""time"":607},{""stimulus"":""img/2to3/7.png"",""time"":699},{""stimulus"":""img/2to3/8.png"",""time"":807},{""stimulus"":""img/2to3/9.png"",""time"":902},{""stimulus"":""img/2to3/10.png"",""time"":996},{""stimulus"":""img/2to3/11.png"",""time"":1097},{""stimulus"":""img/2to3/12.png"",""time"":1188}]","[]"
"image-keyboard-response","110","170364","0.0-5.0-1.53","63652b3ed1f35f8e04325845","bdp_cybrbll","Mon Mar 27 2023 10:14:12 GMT-0400 (Eastern Daylight Time)","476115","1","3","","null","","","","observe","","img/3to2/1.png","null","172","280","0.5","0.5","3","1","",""
"animation","111","171660","0.0-5.0-2.53","63652b3ed1f35f8e04325845","bdp_cybrbll","Mon Mar 27 2023 10:14:12 GMT-0400 (Eastern Daylight Time)","476115","1","3","","","","","","","","","","172","","","","3","1","[{""stimulus"":""img/3to1/1.png"",""time"":110},{""stimulus"":""img/3to1/2.png"",""time"":199},{""stimulus"":""img/3to1/3.png"",""time"":312},{""stimulus"":""img/3to1/4.png"",""time"":405},{""stimulus"":""img/3to1/5.png"",""time"":509},{""stimulus"":""img/3to1/6.png"",""time"":603},{""stimulus"":""img/3to1/7.png"",""time"":696},{""stimulus"":""img/3to1/8.png"",""time"":806},{""stimulus"":""img/3to1/9.png"",""time"":898},{""stimulus"":""img/3to1/10.png"",""time"":1001},{""stimulus"":""img/3to1/11.png"",""time"":1094},{""stimulus"":""img/3to1/12.png"",""time"":1202}]","[]"
"image-keyboard-response","112","172387","0.0-5.0-1.54","63652b3ed1f35f8e04325845","bdp_cybrbll","Mon Mar 27 2023 10:14:12 GMT-0400 (Eastern Daylight Time)","476115","1","3","","null","","","","observe","","img/1to3/1.png","null","171","714","0.5","0.5","1","3","",""
"animation","113","173683","0.0-5.0-2.54","63652b3ed1f35f8e04325845","bdp_cybrbll","Mon Mar 27 2023 10:14:12 GMT-0400 (Eastern Daylight Time)","476115","1","3","","","","","","","","","","171","","","","1","3","[{""stimulus"":""img/1to3/1.png"",""time"":109},{""stimulus"":""img/1to3/2.png"",""time"":202},{""stimulus"":""img/1to3/3.png"",""time"":310},{""stimulus"":""img/1to3/4.png"",""time"":402},{""stimulus"":""img/1to3/5.png"",""time"":507},{""stimulus"":""img/1to3/6.png"",""time"":596},{""stimulus"":""img/1to3/7.png"",""time"":694},{""stimulus"":""img/1to3/8.png"",""time"":804},{""stimulus"":""img/1to3/9.png"",""time"":897},{""stimulus"":""img/1to3/10.png"",""time"":1017},{""stimulus"":""img/1to3/11.png"",""time"":1094},{""stimulus"":""img/1to3/12.png"",""time"":1189}]","[]"
"image-keyboard-response","114","173952","0.0-5.0-1.55","63652b3ed1f35f8e04325845","bdp_cybrbll","Mon Mar 27 2023 10:14:12 GMT-0400 (Eastern Daylight Time)","476115","1","3","","null","","","","observe","","img/3to2/1.png","null","170","264","0.5","0.5","3","2","",""
"animation","115","175249","0.0-5.0-2.55","63652b3ed1f35f8e04325845","bdp_cybrbll","Mon Mar 27 2023 10:14:12 GMT-0400 (Eastern Daylight Time)","476115","1","3","","","","","","","","","","170","","","","3","2","[{""stimulus"":""img/3to2/1.png"",""time"":108},{""stimulus"":""img/3to2/2.png"",""time"":200},{""stimulus"":""img/3to2/3.png"",""time"":298},{""stimulus"":""img/3to2/4.png"",""time"":396},{""stimulus"":""img/3to2/5.png"",""time"":506},{""stimulus"":""img/3to2/6.png"",""time"":599},{""stimulus"":""img/3to2/7.png"",""time"":708},{""stimulus"":""img/3to2/8.png"",""time"":801},{""stimulus"":""img/3to2/9.png"",""time"":892},{""stimulus"":""img/3to2/10.png"",""time"":1001},{""stimulus"":""img/3to2/11.png"",""time"":1093},{""stimulus"":""img/3to2/12.png"",""time"":1189}]","[]"
"image-keyboard-response","116","175466","0.0-5.0-1.56","63652b3ed1f35f8e04325845","bdp_cybrbll","Mon Mar 27 2023 10:14:12 GMT-0400 (Eastern Daylight Time)","476115","1","3","","217","","","","choice","","img/2to1/1.png","2","169","214","0.5","0.5","2","3","",""
"animation","117","176753","0.0-5.0-2.56","63652b3ed1f35f8e04325845","bdp_cybrbll","Mon Mar 27 2023 10:14:12 GMT-0400 (Eastern Daylight Time)","476115","1","3","","","","","","","","","","169","","","","2","3","[{""stimulus"":""img/2to3/1.png"",""time"":100},{""stimulus"":""img/2to3/2.png"",""time"":208},{""stimulus"":""img/2to3/3.png"",""time"":301},{""stimulus"":""img/2to3/4.png"",""time"":412},{""stimulus"":""img/2to3/5.png"",""time"":496},{""stimulus"":""img/2to3/6.png"",""time"":599},{""stimulus"":""img/2to3/7.png"",""time"":694},{""stimulus"":""img/2to3/8.png"",""time"":802},{""stimulus"":""img/2to3/9.png"",""time"":892},{""stimulus"":""img/2to3/10.png"",""time"":994},{""stimulus"":""img/2to3/11.png"",""time"":1103},{""stimulus"":""img/2to3/12.png"",""time"":1198}]","[]"
"image-keyboard-response","118","177265","0.0-5.0-1.57","63652b3ed1f35f8e04325845","bdp_cybrbll","Mon Mar 27 2023 10:14:12 GMT-0400 (Eastern Daylight Time)","476115","1","3","","null","","","","observe","","img/3to2/1.png","null","168","500","0.5","0.5","3","2","",""
"animation","119","178552","0.0-5.0-2.57","63652b3ed1f35f8e04325845","bdp_cybrbll","Mon Mar 27 2023 10:14:12 GMT-0400 (Eastern Daylight Time)","476115","1","3","","","","","","","","","","168","","","","3","2","[{""stimulus"":""img/3to2/1.png"",""time"":109},{""stimulus"":""img/3to2/2.png"",""time"":204},{""stimulus"":""img/3to2/3.png"",""time"":298},{""stimulus"":""img/3to2/4.png"",""time"":406},{""stimulus"":""img/3to2/5.png"",""time"":500},{""stimulus"":""img/3to2/6.png"",""time"":607},{""stimulus"":""img/3to2/7.png"",""time"":693},{""stimulus"":""img/3to2/8.png"",""time"":794},{""stimulus"":""img/3to2/9.png"",""time"":903},{""stimulus"":""img/3to2/10.png"",""time"":991},{""stimulus"":""img/3to2/11.png"",""time"":1090},{""stimulus"":""img/3to2/12.png"",""time"":1189}]","[]"
"image-keyboard-response","120","178714","0.0-5.0-1.58","63652b3ed1f35f8e04325845","bdp_cybrbll","Mon Mar 27 2023 10:14:12 GMT-0400 (Eastern Daylight Time)","476115","1","3","","161","","","","choice","","img/2to1/1.png","1","167","621","0.5","0.5","2","1","",""
"animation","121","180002","0.0-5.0-2.58","63652b3ed1f35f8e04325845","bdp_cybrbll","Mon Mar 27 2023 10:14:12 GMT-0400 (Eastern Daylight Time)","476115","1","3","","","","","","","","","","167","","","","2","1","[{""stimulus"":""img/2to1/1.png"",""time"":100},{""stimulus"":""img/2to1/2.png"",""time"":199},{""stimulus"":""img/2to1/3.png"",""time"":299},{""stimulus"":""img/2to1/4.png"",""time"":406},{""stimulus"":""img/2to1/5.png"",""time"":499},{""stimulus"":""img/2to1/6.png"",""time"":594},{""stimulus"":""img/2to1/7.png"",""time"":693},{""stimulus"":""img/2to1/8.png"",""time"":793},{""stimulus"":""img/2to1/9.png"",""time"":892},{""stimulus"":""img/2to1/10.png"",""time"":990},{""stimulus"":""img/2to1/11.png"",""time"":1090},{""stimulus"":""img/2to1/12.png"",""time"":1189}]","[]"
"image-keyboard-response","122","180505","0.0-5.0-1.59","63652b3ed1f35f8e04325845","bdp_cybrbll","Mon Mar 27 2023 10:14:12 GMT-0400 (Eastern Daylight Time)","476115","1","3","","null","","","","observe","","img/1to3/1.png","null","166","501","0.5","0.5","1","3","",""
"animation","123","181793","0.0-5.0-2.59","63652b3ed1f35f8e04325845","bdp_cybrbll","Mon Mar 27 2023 10:14:12 GMT-0400 (Eastern Daylight Time)","476115","1","3","","","","","","","","","","166","","","","1","3","[{""stimulus"":""img/1to3/1.png"",""time"":110},{""stimulus"":""img/1to3/2.png"",""time"":202},{""stimulus"":""img/1to3/3.png"",""time"":298},{""stimulus"":""img/1to3/4.png"",""time"":397},{""stimulus"":""img/1to3/5.png"",""time"":495},{""stimulus"":""img/1to3/6.png"",""time"":608},{""stimulus"":""img/1to3/7.png"",""time"":693},{""stimulus"":""img/1to3/8.png"",""time"":792},{""stimulus"":""img/1to3/9.png"",""time"":903},{""stimulus"":""img/1to3/10.png"",""time"":990},{""stimulus"":""img/1to3/11.png"",""time"":1104},{""stimulus"":""img/1to3/12.png"",""time"":1196}]","[]"
"image-keyboard-response","124","182487","0.0-5.0-1.60","63652b3ed1f35f8e04325845","bdp_cybrbll","Mon Mar 27 2023 10:14:12 GMT-0400 (Eastern Daylight Time)","476115","1","3","","null","","","","observe","","img/3to2/1.png","null","165","685","0.5","0.5","3","1","",""
"animation","125","183783","0.0-5.0-2.60","63652b3ed1f35f8e04325845","bdp_cybrbll","Mon Mar 27 2023 10:14:12 GMT-0400 (Eastern Daylight Time)","476115","1","3","","","","","","","","","","165","","","","3","1","[{""stimulus"":""img/3to1/1.png"",""time"":113},{""stimulus"":""img/3to1/2.png"",""time"":205},{""stimulus"":""img/3to1/3.png"",""time"":298},{""stimulus"":""img/3to1/4.png"",""time"":397},{""stimulus"":""img/3to1/5.png"",""time"":496},{""stimulus"":""img/3to1/6.png"",""time"":601},{""stimulus"":""img/3to1/7.png"",""time"":694},{""stimulus"":""img/3to1/8.png"",""time"":803},{""stimulus"":""img/3to1/9.png"",""time"":897},{""stimulus"":""img/3to1/10.png"",""time"":991},{""stimulus"":""img/3to1/11.png"",""time"":1093},{""stimulus"":""img/3to1/12.png"",""time"":1203}]","[]"
"image-keyboard-response","126","184224","0.0-5.0-1.61","63652b3ed1f35f8e04325845","bdp_cybrbll","Mon Mar 27 2023 10:14:12 GMT-0400 (Eastern Daylight Time)","476115","1","3","","null","","","","observe","","img/1to3/1.png","null","164","434","0.5","0.5","1","3","",""
"animation","127","185512","0.0-5.0-2.61","63652b3ed1f35f8e04325845","bdp_cybrbll","Mon Mar 27 2023 10:14:12 GMT-0400 (Eastern Daylight Time)","476115","1","3","","","","","","","","","","164","","","","1","3","[{""stimulus"":""img/1to3/1.png"",""time"":108},{""stimulus"":""img/1to3/2.png"",""time"":204},{""stimulus"":""img/1to3/3.png"",""time"":311},{""stimulus"":""img/1to3/4.png"",""time"":407},{""stimulus"":""img/1to3/5.png"",""time"":499},{""stimulus"":""img/1to3/6.png"",""time"":595},{""stimulus"":""img/1to3/7.png"",""time"":694},{""stimulus"":""img/1to3/8.png"",""time"":794},{""stimulus"":""img/1to3/9.png"",""time"":894},{""stimulus"":""img/1to3/10.png"",""time"":1002},{""stimulus"":""img/1to3/11.png"",""time"":1090},{""stimulus"":""img/1to3/12.png"",""time"":1189}]","[]"
"image-keyboard-response","128","186107","0.0-5.0-1.62","63652b3ed1f35f8e04325845","bdp_cybrbll","Mon Mar 27 2023 10:14:12 GMT-0400 (Eastern Daylight Time)","476115","1","3","","null","","","","observe","","img/3to2/1.png","null","163","584","0.5","0.5","3","1","",""
"animation","129","187409","0.0-5.0-2.62","63652b3ed1f35f8e04325845","bdp_cybrbll","Mon Mar 27 2023 10:14:12 GMT-0400 (Eastern Daylight Time)","476115","1","3","","","","","","","","","","163","","","","3","1","[{""stimulus"":""img/3to1/1.png"",""time"":109},{""stimulus"":""img/3to1/2.png"",""time"":202},{""stimulus"":""img/3to1/3.png"",""time"":311},{""stimulus"":""img/3to1/4.png"",""time"":406},{""stimulus"":""img/3to1/5.png"",""time"":503},{""stimulus"":""img/3to1/6.png"",""time"":596},{""stimulus"":""img/3to1/7.png"",""time"":706},{""stimulus"":""img/3to1/8.png"",""time"":798},{""stimulus"":""img/3to1/9.png"",""time"":891},{""stimulus"":""img/3to1/10.png"",""time"":1009},{""stimulus"":""img/3to1/11.png"",""time"":1102},{""stimulus"":""img/3to1/12.png"",""time"":1189}]","[]"
"image-keyboard-response","130","188618","0.0-5.0-1.63","63652b3ed1f35f8e04325845","bdp_cybrbll","Mon Mar 27 2023 10:14:12 GMT-0400 (Eastern Daylight Time)","476115","1","3","","null","","","","observe","","img/1to3/1.png","null","162","1203","0.5","0.5","1","2","",""
"animation","131","189906","0.0-5.0-2.63","63652b3ed1f35f8e04325845","bdp_cybrbll","Mon Mar 27 2023 10:14:12 GMT-0400 (Eastern Daylight Time)","476115","1","3","","","","","","","","","","162","","","","1","2","[{""stimulus"":""img/1to2/1.png"",""time"":105},{""stimulus"":""img/1to2/2.png"",""time"":199},{""stimulus"":""img/1to2/3.png"",""time"":307},{""stimulus"":""img/1to2/4.png"",""time"":399},{""stimulus"":""img/1to2/5.png"",""time"":508},{""stimulus"":""img/1to2/6.png"",""time"":595},{""stimulus"":""img/1to2/7.png"",""time"":695},{""stimulus"":""img/1to2/8.png"",""time"":802},{""stimulus"":""img/1to2/9.png"",""time"":896},{""stimulus"":""img/1to2/10.png"",""time"":1005},{""stimulus"":""img/1to2/11.png"",""time"":1100},{""stimulus"":""img/1to2/12.png"",""time"":1193}]","[]"
"image-keyboard-response","132","190242","0.0-5.0-1.64","63652b3ed1f35f8e04325845","bdp_cybrbll","Mon Mar 27 2023 10:14:12 GMT-0400 (Eastern Daylight Time)","476115","1","3","","335","","","","choice","","img/2to1/1.png","2","161","290","0.5","0.5","2","3","",""
"animation","133","191529","0.0-5.0-2.64","63652b3ed1f35f8e04325845","bdp_cybrbll","Mon Mar 27 2023 10:14:12 GMT-0400 (Eastern Daylight Time)","476115","1","3","","","","","","","","","","161","","","","2","3","[{""stimulus"":""img/2to3/1.png"",""time"":100},{""stimulus"":""img/2to3/2.png"",""time"":212},{""stimulus"":""img/2to3/3.png"",""time"":307},{""stimulus"":""img/2to3/4.png"",""time"":399},{""stimulus"":""img/2to3/5.png"",""time"":508},{""stimulus"":""img/2to3/6.png"",""time"":599},{""stimulus"":""img/2to3/7.png"",""time"":707},{""stimulus"":""img/2to3/8.png"",""time"":801},{""stimulus"":""img/2to3/9.png"",""time"":891},{""stimulus"":""img/2to3/10.png"",""time"":997},{""stimulus"":""img/2to3/11.png"",""time"":1091},{""stimulus"":""img/2to3/12.png"",""time"":1199}]","[]"
"image-keyboard-response","134","192202","0.0-5.0-1.65","63652b3ed1f35f8e04325845","bdp_cybrbll","Mon Mar 27 2023 10:14:12 GMT-0400 (Eastern Daylight Time)","476115","1","3","","null","","","","observe","","img/3to2/1.png","null","160","663","0.5","0.5","3","2","",""
"animation","135","193504","0.0-5.0-2.65","63652b3ed1f35f8e04325845","bdp_cybrbll","Mon Mar 27 2023 10:14:12 GMT-0400 (Eastern Daylight Time)","476115","1","3","","","","","","","","","","160","","","","3","2","[{""stimulus"":""img/3to2/1.png"",""time"":108},{""stimulus"":""img/3to2/2.png"",""time"":199},{""stimulus"":""img/3to2/3.png"",""time"":311},{""stimulus"":""img/3to2/4.png"",""time"":405},{""stimulus"":""img/3to2/5.png"",""time"":505},{""stimulus"":""img/3to2/6.png"",""time"":598},{""stimulus"":""img/3to2/7.png"",""time"":694},{""stimulus"":""img/3to2/8.png"",""time"":799},{""stimulus"":""img/3to2/9.png"",""time"":893},{""stimulus"":""img/3to2/10.png"",""time"":1007},{""stimulus"":""img/3to2/11.png"",""time"":1100},{""stimulus"":""img/3to2/12.png"",""time"":1188}]","[]"
"image-keyboard-response","136","193546","0.0-5.0-1.66","63652b3ed1f35f8e04325845","bdp_cybrbll","Mon Mar 27 2023 10:14:12 GMT-0400 (Eastern Daylight Time)","476115","1","3","","42","","","","choice","","img/2to1/1.png","1","159","471","0.5","0.5","2","1","",""
"animation","137","194845","0.0-5.0-2.66","63652b3ed1f35f8e04325845","bdp_cybrbll","Mon Mar 27 2023 10:14:12 GMT-0400 (Eastern Daylight Time)","476115","1","3","","","","","","","","","","159","","","","2","1","[{""stimulus"":""img/2to1/1.png"",""time"":100},{""stimulus"":""img/2to1/2.png"",""time"":200},{""stimulus"":""img/2to1/3.png"",""time"":308},{""stimulus"":""img/2to1/4.png"",""time"":397},{""stimulus"":""img/2to1/5.png"",""time"":495},{""stimulus"":""img/2to1/6.png"",""time"":603},{""stimulus"":""img/2to1/7.png"",""time"":703},{""stimulus"":""img/2to1/8.png"",""time"":792},{""stimulus"":""img/2to1/9.png"",""time"":904},{""stimulus"":""img/2to1/10.png"",""time"":991},{""stimulus"":""img/2to1/11.png"",""time"":1090},{""stimulus"":""img/2to1/12.png"",""time"":1189}]","[]"
"image-keyboard-response","138","195003","0.0-5.0-1.67","63652b3ed1f35f8e04325845","bdp_cybrbll","Mon Mar 27 2023 10:14:12 GMT-0400 (Eastern Daylight Time)","476115","1","3","","null","","","","observe","","img/1to3/1.png","null","158","157","0.5","0.5","1","3","",""
"animation","139","196296","0.0-5.0-2.67","63652b3ed1f35f8e04325845","bdp_cybrbll","Mon Mar 27 2023 10:14:12 GMT-0400 (Eastern Daylight Time)","476115","1","3","","","","","","","","","","158","","","","1","3","[{""stimulus"":""img/1to3/1.png"",""time"":110},{""stimulus"":""img/1to3/2.png"",""time"":202},{""stimulus"":""img/1to3/3.png"",""time"":310},{""stimulus"":""img/1to3/4.png"",""time"":401},{""stimulus"":""img/1to3/5.png"",""time"":511},{""stimulus"":""img/1to3/6.png"",""time"":595},{""stimulus"":""img/1to3/7.png"",""time"":697},{""stimulus"":""img/1to3/8.png"",""time"":805},{""stimulus"":""img/1to3/9.png"",""time"":898},{""stimulus"":""img/1to3/10.png"",""time"":991},{""stimulus"":""img/1to3/11.png"",""time"":1100},{""stimulus"":""img/1to3/12.png"",""time"":1189}]","[]"
"image-keyboard-response","140","196909","0.0-5.0-1.68","63652b3ed1f35f8e04325845","bdp_cybrbll","Mon Mar 27 2023 10:14:12 GMT-0400 (Eastern Daylight Time)","476115","1","3","","null","","","","observe","","img/3to2/1.png","null","157","604","0.5","0.5","3","2","",""
"animation","141","198197","0.0-5.0-2.68","63652b3ed1f35f8e04325845","bdp_cybrbll","Mon Mar 27 2023 10:14:12 GMT-0400 (Eastern Daylight Time)","476115","1","3","","","","","","","","","","157","","","","3","2","[{""stimulus"":""img/3to2/1.png"",""time"":109},{""stimulus"":""img/3to2/2.png"",""time"":202},{""stimulus"":""img/3to2/3.png"",""time"":313},{""stimulus"":""img/3to2/4.png"",""time"":397},{""stimulus"":""img/3to2/5.png"",""time"":497},{""stimulus"":""img/3to2/6.png"",""time"":602},{""stimulus"":""img/3to2/7.png"",""time"":696},{""stimulus"":""img/3to2/8.png"",""time"":793},{""stimulus"":""img/3to2/9.png"",""time"":907},{""stimulus"":""img/3to2/10.png"",""time"":1000},{""stimulus"":""img/3to2/11.png"",""time"":1094},{""stimulus"":""img/3to2/12.png"",""time"":1189}]","[]"
"image-keyboard-response","142","199130","0.0-5.0-1.69","63652b3ed1f35f8e04325845","bdp_cybrbll","Mon Mar 27 2023 10:14:12 GMT-0400 (Eastern Daylight Time)","476115","1","3","","932","","","","choice","","img/2to1/1.png","1","156","549","0.5","0.5","2","1","",""
"animation","143","200419","0.0-5.0-2.69","63652b3ed1f35f8e04325845","bdp_cybrbll","Mon Mar 27 2023 10:14:12 GMT-0400 (Eastern Daylight Time)","476115","1","3","","","","","","","","","","156","","","","2","1","[{""stimulus"":""img/2to1/1.png"",""time"":100},{""stimulus"":""img/2to1/2.png"",""time"":200},{""stimulus"":""img/2to1/3.png"",""time"":310},{""stimulus"":""img/2to1/4.png"",""time"":403},{""stimulus"":""img/2to1/5.png"",""time"":496},{""stimulus"":""img/2to1/6.png"",""time"":605},{""stimulus"":""img/2to1/7.png"",""time"":707},{""stimulus"":""img/2to1/8.png"",""time"":793},{""stimulus"":""img/2to1/9.png"",""time"":893},{""stimulus"":""img/2to1/10.png"",""time"":991},{""stimulus"":""img/2to1/11.png"",""time"":1090},{""stimulus"":""img/2to1/12.png"",""time"":1196}]","[]"
"image-keyboard-response","144","200937","0.0-5.0-1.70","63652b3ed1f35f8e04325845","bdp_cybrbll","Mon Mar 27 2023 10:14:12 GMT-0400 (Eastern Daylight Time)","476115","1","3","","null","","","","observe","","img/1to3/1.png","null","155","514","0.5","0.5","1","2","",""
"animation","145","202238","0.0-5.0-2.70","63652b3ed1f35f8e04325845","bdp_cybrbll","Mon Mar 27 2023 10:14:12 GMT-0400 (Eastern Daylight Time)","476115","1","3","","","","","","","","","","155","","","","1","2","[{""stimulus"":""img/1to2/1.png"",""time"":106},{""stimulus"":""img/1to2/2.png"",""time"":214},{""stimulus"":""img/1to2/3.png"",""time"":298},{""stimulus"":""img/1to2/4.png"",""time"":397},{""stimulus"":""img/1to2/5.png"",""time"":506},{""stimulus"":""img/1to2/6.png"",""time"":597},{""stimulus"":""img/1to2/7.png"",""time"":707},{""stimulus"":""img/1to2/8.png"",""time"":799},{""stimulus"":""img/1to2/9.png"",""time"":901},{""stimulus"":""img/1to2/10.png"",""time"":994},{""stimulus"":""img/1to2/11.png"",""time"":1101},{""stimulus"":""img/1to2/12.png"",""time"":1194}]","[]"
"image-keyboard-response","146","202266","0.0-5.0-1.71","63652b3ed1f35f8e04325845","bdp_cybrbll","Mon Mar 27 2023 10:14:12 GMT-0400 (Eastern Daylight Time)","476115","1","3","","27","","","","choice","","img/2to1/1.png","2","154","530","0.5","0.5","2","3","",""
"animation","147","203561","0.0-5.0-2.71","63652b3ed1f35f8e04325845","bdp_cybrbll","Mon Mar 27 2023 10:14:12 GMT-0400 (Eastern Daylight Time)","476115","1","3","","","","","","","","","","154","","","","2","3","[{""stimulus"":""img/2to3/1.png"",""time"":100},{""stimulus"":""img/2to3/2.png"",""time"":203},{""stimulus"":""img/2to3/3.png"",""time"":311},{""stimulus"":""img/2to3/4.png"",""time"":406},{""stimulus"":""img/2to3/5.png"",""time"":495},{""stimulus"":""img/2to3/6.png"",""time"":602},{""stimulus"":""img/2to3/7.png"",""time"":694},{""stimulus"":""img/2to3/8.png"",""time"":803},{""stimulus"":""img/2to3/9.png"",""time"":898},{""stimulus"":""img/2to3/10.png"",""time"":1006},{""stimulus"":""img/2to3/11.png"",""time"":1094},{""stimulus"":""img/2to3/12.png"",""time"":1202}]","[]"
"image-keyboard-response","148","204755","0.0-5.0-1.72","63652b3ed1f35f8e04325845","bdp_cybrbll","Mon Mar 27 2023 10:14:12 GMT-0400 (Eastern Daylight Time)","476115","1","3","","null","","","","observe","","img/3to2/1.png","null","153","1188","0.5","0.5","3","2","",""
"animation","149","206043","0.0-5.0-2.72","63652b3ed1f35f8e04325845","bdp_cybrbll","Mon Mar 27 2023 10:14:12 GMT-0400 (Eastern Daylight Time)","476115","1","3","","","","","","","","","","153","","","","3","2","[{""stimulus"":""img/3to2/1.png"",""time"":113},{""stimulus"":""img/3to2/2.png"",""time"":206},{""stimulus"":""img/3to2/3.png"",""time"":298},{""stimulus"":""img/3to2/4.png"",""time"":409},{""stimulus"":""img/3to2/5.png"",""time"":495},{""stimulus"":""img/3to2/6.png"",""time"":605},{""stimulus"":""img/3to2/7.png"",""time"":693},{""stimulus"":""img/3to2/8.png"",""time"":793},{""stimulus"":""img/3to2/9.png"",""time"":892},{""stimulus"":""img/3to2/10.png"",""time"":995},{""stimulus"":""img/3to2/11.png"",""time"":1089},{""stimulus"":""img/3to2/12.png"",""time"":1195}]","[]"
"image-keyboard-response","150","206298","0.0-5.0-1.73","63652b3ed1f35f8e04325845","bdp_cybrbll","Mon Mar 27 2023 10:14:12 GMT-0400 (Eastern Daylight Time)","476115","1","3","","255","","","","choice","","img/2to1/1.png","1","152","408","0.5","0.5","2","1","",""
"animation","151","207601","0.0-5.0-2.73","63652b3ed1f35f8e04325845","bdp_cybrbll","Mon Mar 27 2023 10:14:12 GMT-0400 (Eastern Daylight Time)","476115","1","3","","","","","","","","","","152","","","","2","1","[{""stimulus"":""img/2to1/1.png"",""time"":100},{""stimulus"":""img/2to1/2.png"",""time"":213},{""stimulus"":""img/2to1/3.png"",""time"":307},{""stimulus"":""img/2to1/4.png"",""time"":400},{""stimulus"":""img/2to1/5.png"",""time"":496},{""stimulus"":""img/2to1/6.png"",""time"":600},{""stimulus"":""img/2to1/7.png"",""time"":694},{""stimulus"":""img/2to1/8.png"",""time"":801},{""stimulus"":""img/2to1/9.png"",""time"":895},{""stimulus"":""img/2to1/10.png"",""time"":1004},{""stimulus"":""img/2to1/11.png"",""time"":1103},{""stimulus"":""img/2to1/12.png"",""time"":1189}]","[]"
"image-keyboard-response","152","208405","0.0-5.0-1.74","63652b3ed1f35f8e04325845","bdp_cybrbll","Mon Mar 27 2023 10:14:12 GMT-0400 (Eastern Daylight Time)","476115","1","3","","null","","","","observe","","img/1to3/1.png","null","151","800","0.5","0.5","1","2","",""
"animation","153","209692","0.0-5.0-2.74","63652b3ed1f35f8e04325845","bdp_cybrbll","Mon Mar 27 2023 10:14:12 GMT-0400 (Eastern Daylight Time)","476115","1","3","","","","","","","","","","151","","","","1","2","[{""stimulus"":""img/1to2/1.png"",""time"":109},{""stimulus"":""img/1to2/2.png"",""time"":202},{""stimulus"":""img/1to2/3.png"",""time"":311},{""stimulus"":""img/1to2/4.png"",""time"":406},{""stimulus"":""img/1to2/5.png"",""time"":503},{""stimulus"":""img/1to2/6.png"",""time"":595},{""stimulus"":""img/1to2/7.png"",""time"":706},{""stimulus"":""img/1to2/8.png"",""time"":792},{""stimulus"":""img/1to2/9.png"",""time"":891},{""stimulus"":""img/1to2/10.png"",""time"":990},{""stimulus"":""img/1to2/11.png"",""time"":1097},{""stimulus"":""img/1to2/12.png"",""time"":1191}]","[]"
"image-keyboard-response","154","209721","0.0-5.0-1.75","63652b3ed1f35f8e04325845","bdp_cybrbll","Mon Mar 27 2023 10:14:12 GMT-0400 (Eastern Daylight Time)","476115","1","3","","28","","","","choice","","img/2to1/1.png","2","150","911","0.5","0.5","2","3","",""
"animation","155","211010","0.0-5.0-2.75","63652b3ed1f35f8e04325845","bdp_cybrbll","Mon Mar 27 2023 10:14:12 GMT-0400 (Eastern Daylight Time)","476115","1","3","","","","","","","","","","150","","","","2","3","[{""stimulus"":""img/2to3/1.png"",""time"":100},{""stimulus"":""img/2to3/2.png"",""time"":200},{""stimulus"":""img/2to3/3.png"",""time"":310},{""stimulus"":""img/2to3/4.png"",""time"":398},{""stimulus"":""img/2to3/5.png"",""time"":497},{""stimulus"":""img/2to3/6.png"",""time"":609},{""stimulus"":""img/2to3/7.png"",""time"":704},{""stimulus"":""img/2to3/8.png"",""time"":793},{""stimulus"":""img/2to3/9.png"",""time"":892},{""stimulus"":""img/2to3/10.png"",""time"":999},{""stimulus"":""img/2to3/11.png"",""time"":1094},{""stimulus"":""img/2to3/12.png"",""time"":1209}]","[]"
"image-keyboard-response","156","211852","0.0-5.0-1.76","63652b3ed1f35f8e04325845","bdp_cybrbll","Mon Mar 27 2023 10:14:12 GMT-0400 (Eastern Daylight Time)","476115","1","3","","null","","","","observe","","img/3to2/1.png","null","149","834","0.5","0.1","3","1","",""
"animation","157","213152","0.0-5.0-2.76","63652b3ed1f35f8e04325845","bdp_cybrbll","Mon Mar 27 2023 10:14:12 GMT-0400 (Eastern Daylight Time)","476115","1","3","","","","","","","","","","149","","","","3","1","[{""stimulus"":""img/3to1/1.png"",""time"":113},{""stimulus"":""img/3to1/2.png"",""time"":199},{""stimulus"":""img/3to1/3.png"",""time"":300},{""stimulus"":""img/3to1/4.png"",""time"":411},{""stimulus"":""img/3to1/5.png"",""time"":504},{""stimulus"":""img/3to1/6.png"",""time"":608},{""stimulus"":""img/3to1/7.png"",""time"":701},{""stimulus"":""img/3to1/8.png"",""time"":794},{""stimulus"":""img/3to1/9.png"",""time"":892},{""stimulus"":""img/3to1/10.png"",""time"":997},{""stimulus"":""img/3to1/11.png"",""time"":1099},{""stimulus"":""img/3to1/12.png"",""time"":1191}]","[]"
"image-keyboard-response","158","213534","0.0-5.0-1.77","63652b3ed1f35f8e04325845","bdp_cybrbll","Mon Mar 27 2023 10:14:12 GMT-0400 (Eastern Daylight Time)","476115","1","3","","null","","","","observe","","img/1to3/1.png","null","148","369","0.5","0.1","1","3","",""
"animation","159","214833","0.0-5.0-2.77","63652b3ed1f35f8e04325845","bdp_cybrbll","Mon Mar 27 2023 10:14:12 GMT-0400 (Eastern Daylight Time)","476115","1","3","","","","","","","","","","148","","","","1","3","[{""stimulus"":""img/1to3/1.png"",""time"":107},{""stimulus"":""img/1to3/2.png"",""time"":200},{""stimulus"":""img/1to3/3.png"",""time"":298},{""stimulus"":""img/1to3/4.png"",""time"":401},{""stimulus"":""img/1to3/5.png"",""time"":496},{""stimulus"":""img/1to3/6.png"",""time"":603},{""stimulus"":""img/1to3/7.png"",""time"":695},{""stimulus"":""img/1to3/8.png"",""time"":793},{""stimulus"":""img/1to3/9.png"",""time"":896},{""stimulus"":""img/1to3/10.png"",""time"":1005},{""stimulus"":""img/1to3/11.png"",""time"":1097},{""stimulus"":""img/1to3/12.png"",""time"":1188}]","[]"
"image-keyboard-response","160","215137","0.0-5.0-1.78","63652b3ed1f35f8e04325845","bdp_cybrbll","Mon Mar 27 2023 10:14:12 GMT-0400 (Eastern Daylight Time)","476115","1","3","","null","","","","observe","","img/3to2/1.png","null","147","303","0.5","0.1","3","1","",""
"animation","161","216438","0.0-5.0-2.78","63652b3ed1f35f8e04325845","bdp_cybrbll","Mon Mar 27 2023 10:14:12 GMT-0400 (Eastern Daylight Time)","476115","1","3","","","","","","","","","","147","","","","3","1","[{""stimulus"":""img/3to1/1.png"",""time"":110},{""stimulus"":""img/3to1/2.png"",""time"":203},{""stimulus"":""img/3to1/3.png"",""time"":299},{""stimulus"":""img/3to1/4.png"",""time"":397},{""stimulus"":""img/3to1/5.png"",""time"":499},{""stimulus"":""img/3to1/6.png"",""time"":595},{""stimulus"":""img/3to1/7.png"",""time"":701},{""stimulus"":""img/3to1/8.png"",""time"":795},{""stimulus"":""img/3to1/9.png"",""time"":897},{""stimulus"":""img/3to1/10.png"",""time"":992},{""stimulus"":""img/3to1/11.png"",""time"":1098},{""stimulus"":""img/3to1/12.png"",""time"":1190}]","[]"
"image-keyboard-response","162","216659","0.0-5.0-1.79","63652b3ed1f35f8e04325845","bdp_cybrbll","Mon Mar 27 2023 10:14:12 GMT-0400 (Eastern Daylight Time)","476115","1","3","","null","","","","observe","","img/1to3/1.png","null","146","219","0.5","0.1","1","3","",""
"animation","163","217954","0.0-5.0-2.79","63652b3ed1f35f8e04325845","bdp_cybrbll","Mon Mar 27 2023 10:14:12 GMT-0400 (Eastern Daylight Time)","476115","1","3","","","","","","","","","","146","","","","1","3","[{""stimulus"":""img/1to3/1.png"",""time"":100},{""stimulus"":""img/1to3/2.png"",""time"":199},{""stimulus"":""img/1to3/3.png"",""time"":303},{""stimulus"":""img/1to3/4.png"",""time"":403},{""stimulus"":""img/1to3/5.png"",""time"":496},{""stimulus"":""img/1to3/6.png"",""time"":594},{""stimulus"":""img/1to3/7.png"",""time"":694},{""stimulus"":""img/1to3/8.png"",""time"":792},{""stimulus"":""img/1to3/9.png"",""time"":891},{""stimulus"":""img/1to3/10.png"",""time"":990},{""stimulus"":""img/1to3/11.png"",""time"":1095},{""stimulus"":""img/1to3/12.png"",""time"":1189}]","[]"
"image-keyboard-response","164","218239","0.0-5.0-1.80","63652b3ed1f35f8e04325845","bdp_cybrbll","Mon Mar 27 2023 10:14:12 GMT-0400 (Eastern Daylight Time)","476115","1","3","","null","","","","observe","","img/3to2/1.png","null","145","283","0.5","0.1","3","1","",""
"animation","165","219543","0.0-5.0-2.80","63652b3ed1f35f8e04325845","bdp_cybrbll","Mon Mar 27 2023 10:14:12 GMT-0400 (Eastern Daylight Time)","476115","1","3","","","","","","","","","","145","","","","3","1","[{""stimulus"":""img/3to1/1.png"",""time"":114},{""stimulus"":""img/3to1/2.png"",""time"":207},{""stimulus"":""img/3to1/3.png"",""time"":310},{""stimulus"":""img/3to1/4.png"",""time"":401},{""stimulus"":""img/3to1/5.png"",""time"":496},{""stimulus"":""img/3to1/6.png"",""time"":595},{""stimulus"":""img/3to1/7.png"",""time"":694},{""stimulus"":""img/3to1/8.png"",""time"":801},{""stimulus"":""img/3to1/9.png"",""time"":892},{""stimulus"":""img/3to1/10.png"",""time"":1004},{""stimulus"":""img/3to1/11.png"",""time"":1097},{""stimulus"":""img/3to1/12.png"",""time"":1189}]","[]"
"image-keyboard-response","166","219856","0.0-5.0-1.81","63652b3ed1f35f8e04325845","bdp_cybrbll","Mon Mar 27 2023 10:14:12 GMT-0400 (Eastern Daylight Time)","476115","1","3","","null","","","","observe","","img/1to3/1.png","null","144","308","0.5","0.1","1","3","",""
"animation","167","221147","0.0-5.0-2.81","63652b3ed1f35f8e04325845","bdp_cybrbll","Mon Mar 27 2023 10:14:12 GMT-0400 (Eastern Daylight Time)","476115","1","3","","","","","","","","","","144","","","","1","3","[{""stimulus"":""img/1to3/1.png"",""time"":109},{""stimulus"":""img/1to3/2.png"",""time"":208},{""stimulus"":""img/1to3/3.png"",""time"":300},{""stimulus"":""img/1to3/4.png"",""time"":410},{""stimulus"":""img/1to3/5.png"",""time"":504},{""stimulus"":""img/1to3/6.png"",""time"":597},{""stimulus"":""img/1to3/7.png"",""time"":699},{""stimulus"":""img/1to3/8.png"",""time"":793},{""stimulus"":""img/1to3/9.png"",""time"":898},{""stimulus"":""img/1to3/10.png"",""time"":992},{""stimulus"":""img/1to3/11.png"",""time"":1102},{""stimulus"":""img/1to3/12.png"",""time"":1189}]","[]"
"image-keyboard-response","168","221615","0.0-5.0-1.82","63652b3ed1f35f8e04325845","bdp_cybrbll","Mon Mar 27 2023 10:14:12 GMT-0400 (Eastern Daylight Time)","476115","1","3","","null","","","","observe","","img/3to2/1.png","null","143","455","0.5","0.1","3","2","",""
"animation","169","222905","0.0-5.0-2.82","63652b3ed1f35f8e04325845","bdp_cybrbll","Mon Mar 27 2023 10:14:12 GMT-0400 (Eastern Daylight Time)","476115","1","3","","","","","","","","","","143","","","","3","2","[{""stimulus"":""img/3to2/1.png"",""time"":109},{""stimulus"":""img/3to2/2.png"",""time"":198},{""stimulus"":""img/3to2/3.png"",""time"":310},{""stimulus"":""img/3to2/4.png"",""time"":403},{""stimulus"":""img/3to2/5.png"",""time"":502},{""stimulus"":""img/3to2/6.png"",""time"":596},{""stimulus"":""img/3to2/7.png"",""time"":705},{""stimulus"":""img/3to2/8.png"",""time"":800},{""stimulus"":""img/3to2/9.png"",""time"":892},{""stimulus"":""img/3to2/10.png"",""time"":991},{""stimulus"":""img/3to2/11.png"",""time"":1090},{""stimulus"":""img/3to2/12.png"",""time"":1197}]","[]"
"image-keyboard-response","170","223002","0.0-5.0-1.83","63652b3ed1f35f8e04325845","bdp_cybrbll","Mon Mar 27 2023 10:14:12 GMT-0400 (Eastern Daylight Time)","476115","1","3","","96","","","","choice","","img/2to1/1.png","1","142","513","0.5","0.1","2","1","",""
"animation","171","224290","0.0-5.0-2.83","63652b3ed1f35f8e04325845","bdp_cybrbll","Mon Mar 27 2023 10:14:12 GMT-0400 (Eastern Daylight Time)","476115","1","3","","","","","","","","","","142","","","","2","1","[{""stimulus"":""img/2to1/1.png"",""time"":100},{""stimulus"":""img/2to1/2.png"",""time"":206},{""stimulus"":""img/2to1/3.png"",""time"":313},{""stimulus"":""img/2to1/4.png"",""time"":408},{""stimulus"":""img/2to1/5.png"",""time"":496},{""stimulus"":""img/2to1/6.png"",""time"":606},{""stimulus"":""img/2to1/7.png"",""time"":695},{""stimulus"":""img/2to1/8.png"",""time"":793},{""stimulus"":""img/2to1/9.png"",""time"":892},{""stimulus"":""img/2to1/10.png"",""time"":997},{""stimulus"":""img/2to1/11.png"",""time"":1113},{""stimulus"":""img/2to1/12.png"",""time"":1190}]","[]"
"image-keyboard-response","172","224679","0.0-5.0-1.84","63652b3ed1f35f8e04325845","bdp_cybrbll","Mon Mar 27 2023 10:14:12 GMT-0400 (Eastern Daylight Time)","476115","1","3","","null","","","","observe","","img/1to3/1.png","null","141","381","0.5","0.1","1","2","",""
"animation","173","225970","0.0-5.0-2.84","63652b3ed1f35f8e04325845","bdp_cybrbll","Mon Mar 27 2023 10:14:12 GMT-0400 (Eastern Daylight Time)","476115","1","3","","","","","","","","","","141","","","","1","2","[{""stimulus"":""img/1to2/1.png"",""time"":109},{""stimulus"":""img/1to2/2.png"",""time"":202},{""stimulus"":""img/1to2/3.png"",""time"":312},{""stimulus"":""img/1to2/4.png"",""time"":405},{""stimulus"":""img/1to2/5.png"",""time"":507},{""stimulus"":""img/1to2/6.png"",""time"":601},{""stimulus"":""img/1to2/7.png"",""time"":694},{""stimulus"":""img/1to2/8.png"",""time"":792},{""stimulus"":""img/1to2/9.png"",""time"":896},{""stimulus"":""img/1to2/10.png"",""time"":993},{""stimulus"":""img/1to2/11.png"",""time"":1101},{""stimulus"":""img/1to2/12.png"",""time"":1195}]","[]"
"image-keyboard-response","174","226009","0.0-5.0-1.85","63652b3ed1f35f8e04325845","bdp_cybrbll","Mon Mar 27 2023 10:14:12 GMT-0400 (Eastern Daylight Time)","476115","1","3","","39","","","","choice","","img/2to1/1.png","2","140","298","0.5","0.1","2","3","",""
"animation","175","227298","0.0-5.0-2.85","63652b3ed1f35f8e04325845","bdp_cybrbll","Mon Mar 27 2023 10:14:12 GMT-0400 (Eastern Daylight Time)","476115","1","3","","","","","","","","","","140","","","","2","3","[{""stimulus"":""img/2to3/1.png"",""time"":100},{""stimulus"":""img/2to3/2.png"",""time"":209},{""stimulus"":""img/2to3/3.png"",""time"":302},{""stimulus"":""img/2to3/4.png"",""time"":397},{""stimulus"":""img/2to3/5.png"",""time"":504},{""stimulus"":""img/2to3/6.png"",""time"":595},{""stimulus"":""img/2to3/7.png"",""time"":696},{""stimulus"":""img/2to3/8.png"",""time"":807},{""stimulus"":""img/2to3/9.png"",""time"":900},{""stimulus"":""img/2to3/10.png"",""time"":992},{""stimulus"":""img/2to3/11.png"",""time"":1101},{""stimulus"":""img/2to3/12.png"",""time"":1195}]","[]"
"image-keyboard-response","176","227691","0.0-5.0-1.86","63652b3ed1f35f8e04325845","bdp_cybrbll","Mon Mar 27 2023 10:14:12 GMT-0400 (Eastern Daylight Time)","476115","1","3","","null","","","","observe","","img/3to2/1.png","null","139","384","0.5","0.1","3","1","",""
"animation","177","228987","0.0-5.0-2.86","63652b3ed1f35f8e04325845","bdp_cybrbll","Mon Mar 27 2023 10:14:12 GMT-0400 (Eastern Daylight Time)","476115","1","3","","","","","","","","","","139","","","","3","1","[{""stimulus"":""img/3to1/1.png"",""time"":109},{""stimulus"":""img/3to1/2.png"",""time"":202},{""stimulus"":""img/3to1/3.png"",""time"":311},{""stimulus"":""img/3to1/4.png"",""time"":403},{""stimulus"":""img/3to1/5.png"",""time"":496},{""stimulus"":""img/3to1/6.png"",""time"":602},{""stimulus"":""img/3to1/7.png"",""time"":694},{""stimulus"":""img/3to1/8.png"",""time"":804},{""stimulus"":""img/3to1/9.png"",""time"":897},{""stimulus"":""img/3to1/10.png"",""time"":1000},{""stimulus"":""img/3to1/11.png"",""time"":1093},{""stimulus"":""img/3to1/12.png"",""time"":1201}]","[]"
"image-keyboard-response","178","229319","0.0-5.0-1.87","63652b3ed1f35f8e04325845","bdp_cybrbll","Mon Mar 27 2023 10:14:12 GMT-0400 (Eastern Daylight Time)","476115","1","3","","null","","","","observe","","img/1to3/1.png","null","138","325","0.5","0.1","1","2","",""
"animation","179","230608","0.0-5.0-2.87","63652b3ed1f35f8e04325845","bdp_cybrbll","Mon Mar 27 2023 10:14:12 GMT-0400 (Eastern Daylight Time)","476115","1","3","","","","","","","","","","138","","","","1","2","[{""stimulus"":""img/1to2/1.png"",""time"":108},{""stimulus"":""img/1to2/2.png"",""time"":203},{""stimulus"":""img/1to2/3.png"",""time"":299},{""stimulus"":""img/1to2/4.png"",""time"":411},{""stimulus"":""img/1to2/5.png"",""time"":496},{""stimulus"":""img/1to2/6.png"",""time"":596},{""stimulus"":""img/1to2/7.png"",""time"":694},{""stimulus"":""img/1to2/8.png"",""time"":794},{""stimulus"":""img/1to2/9.png"",""time"":892},{""stimulus"":""img/1to2/10.png"",""time"":991},{""stimulus"":""img/1to2/11.png"",""time"":1103},{""stimulus"":""img/1to2/12.png"",""time"":1199}]","[]"
"image-keyboard-response","180","230617","0.0-5.0-1.88","63652b3ed1f35f8e04325845","bdp_cybrbll","Mon Mar 27 2023 10:14:12 GMT-0400 (Eastern Daylight Time)","476115","1","3","","9","","","","choice","","img/2to1/1.png","2","137","340","0.5","0.1","2","3","",""
"animation","181","231904","0.0-5.0-2.88","63652b3ed1f35f8e04325845","bdp_cybrbll","Mon Mar 27 2023 10:14:12 GMT-0400 (Eastern Daylight Time)","476115","1","3","","","","","","","","","","137","","","","2","3","[{""stimulus"":""img/2to3/1.png"",""time"":103},{""stimulus"":""img/2to3/2.png"",""time"":201},{""stimulus"":""img/2to3/3.png"",""time"":297},{""stimulus"":""img/2to3/4.png"",""time"":397},{""stimulus"":""img/2to3/5.png"",""time"":508},{""stimulus"":""img/2to3/6.png"",""time"":595},{""stimulus"":""img/2to3/7.png"",""time"":703},{""stimulus"":""img/2to3/8.png"",""time"":795},{""stimulus"":""img/2to3/9.png"",""time"":905},{""stimulus"":""img/2to3/10.png"",""time"":997},{""stimulus"":""img/2to3/11.png"",""time"":1101},{""stimulus"":""img/2to3/12.png"",""time"":1195}]","[]"
"image-keyboard-response","182","232395","0.0-5.0-1.89","63652b3ed1f35f8e04325845","bdp_cybrbll","Mon Mar 27 2023 10:14:12 GMT-0400 (Eastern Daylight Time)","476115","1","3","","null","","","","observe","","img/3to2/1.png","null","136","489","0.5","0.1","3","1","",""
"animation","183","233683","0.0-5.0-2.89","63652b3ed1f35f8e04325845","bdp_cybrbll","Mon Mar 27 2023 10:14:12 GMT-0400 (Eastern Daylight Time)","476115","1","3","","","","","","","","","","136","","","","3","1","[{""stimulus"":""img/3to1/1.png"",""time"":110},{""stimulus"":""img/3to1/2.png"",""time"":204},{""stimulus"":""img/3to1/3.png"",""time"":298},{""stimulus"":""img/3to1/4.png"",""time"":398},{""stimulus"":""img/3to1/5.png"",""time"":507},{""stimulus"":""img/3to1/6.png"",""time"":595},{""stimulus"":""img/3to1/7.png"",""time"":695},{""stimulus"":""img/3to1/8.png"",""time"":804},{""stimulus"":""img/3to1/9.png"",""time"":896},{""stimulus"":""img/3to1/10.png"",""time"":1004},{""stimulus"":""img/3to1/11.png"",""time"":1090},{""stimulus"":""img/3to1/12.png"",""time"":1193}]","[]"
"image-keyboard-response","184","233907","0.0-5.0-1.90","63652b3ed1f35f8e04325845","bdp_cybrbll","Mon Mar 27 2023 10:14:12 GMT-0400 (Eastern Daylight Time)","476115","1","3","","null","","","","observe","","img/1to3/1.png","null","135","224","0.5","0.1","1","2","",""
"animation","185","235203","0.0-5.0-2.90","63652b3ed1f35f8e04325845","bdp_cybrbll","Mon Mar 27 2023 10:14:12 GMT-0400 (Eastern Daylight Time)","476115","1","3","","","","","","","","","","135","","","","1","2","[{""stimulus"":""img/1to2/1.png"",""time"":113},{""stimulus"":""img/1to2/2.png"",""time"":207},{""stimulus"":""img/1to2/3.png"",""time"":301},{""stimulus"":""img/1to2/4.png"",""time"":397},{""stimulus"":""img/1to2/5.png"",""time"":499},{""stimulus"":""img/1to2/6.png"",""time"":595},{""stimulus"":""img/1to2/7.png"",""time"":705},{""stimulus"":""img/1to2/8.png"",""time"":800},{""stimulus"":""img/1to2/9.png"",""time"":899},{""stimulus"":""img/1to2/10.png"",""time"":991},{""stimulus"":""img/1to2/11.png"",""time"":1091},{""stimulus"":""img/1to2/12.png"",""time"":1202}]","[]"
"image-keyboard-response","186","235778","0.0-5.0-1.91","63652b3ed1f35f8e04325845","bdp_cybrbll","Mon Mar 27 2023 10:14:12 GMT-0400 (Eastern Daylight Time)","476115","1","3","","575","","","","choice","","img/2to1/1.png","2","134","265","0.5","0.1","2","3","",""
"animation","187","237065","0.0-5.0-2.91","63652b3ed1f35f8e04325845","bdp_cybrbll","Mon Mar 27 2023 10:14:12 GMT-0400 (Eastern Daylight Time)","476115","1","3","","","","","","","","","","134","","","","2","3","[{""stimulus"":""img/2to3/1.png"",""time"":99},{""stimulus"":""img/2to3/2.png"",""time"":199},{""stimulus"":""img/2to3/3.png"",""time"":309},{""stimulus"":""img/2to3/4.png"",""time"":402},{""stimulus"":""img/2to3/5.png"",""time"":520},{""stimulus"":""img/2to3/6.png"",""time"":599},{""stimulus"":""img/2to3/7.png"",""time"":694},{""stimulus"":""img/2to3/8.png"",""time"":792},{""stimulus"":""img/2to3/9.png"",""time"":894},{""stimulus"":""img/2to3/10.png"",""time"":990},{""stimulus"":""img/2to3/11.png"",""time"":1090},{""stimulus"":""img/2to3/12.png"",""time"":1198}]","[]"
"image-keyboard-response","188","237513","0.0-5.0-1.92","63652b3ed1f35f8e04325845","bdp_cybrbll","Mon Mar 27 2023 10:14:12 GMT-0400 (Eastern Daylight Time)","476115","1","3","","null","","","","observe","","img/3to2/1.png","null","133","440","0.5","0.1","3","1","",""
"animation","189","238806","0.0-5.0-2.92","63652b3ed1f35f8e04325845","bdp_cybrbll","Mon Mar 27 2023 10:14:12 GMT-0400 (Eastern Daylight Time)","476115","1","3","","","","","","","","","","133","","","","3","1","[{""stimulus"":""img/3to1/1.png"",""time"":110},{""stimulus"":""img/3to1/2.png"",""time"":199},{""stimulus"":""img/3to1/3.png"",""time"":300},{""stimulus"":""img/3to1/4.png"",""time"":398},{""stimulus"":""img/3to1/5.png"",""time"":497},{""stimulus"":""img/3to1/6.png"",""time"":609},{""stimulus"":""img/3to1/7.png"",""time"":694},{""stimulus"":""img/3to1/8.png"",""time"":807},{""stimulus"":""img/3to1/9.png"",""time"":900},{""stimulus"":""img/3to1/10.png"",""time"":991},{""stimulus"":""img/3to1/11.png"",""time"":1104},{""stimulus"":""img/3to1/12.png"",""time"":1199}]","[]"
"image-keyboard-response","190","239418","0.0-5.0-1.93","63652b3ed1f35f8e04325845","bdp_cybrbll","Mon Mar 27 2023 10:14:12 GMT-0400 (Eastern Daylight Time)","476115","1","3","","null","","","","observe","","img/1to3/1.png","null","132","597","0.5","0.1","1","2","",""
