"trial_type","trial_index","time_elapsed","internal_node_id","subject_id","task","startTime","totalTime","fairPartner","unfairPartner","view_history","rt","event","trial","time","trialtype","success","stimulus","key_press","throwsLeft","rtDur","pFair","pUnfair","holder","receiver","animation_sequence","responses"
"pavlovia","0","8","0.0-0.0","62d06d1b651d6922f62fab9b","bdp_cybrbll","Sat Mar 25 2023 21:47:07 GMT-0600 (Mountain Daylight Time)","444889","3","1","","","","","","","","","","","","","","","","",""
"instructions","1","2340","0.0-1.0","62d06d1b651d6922f62fab9b","bdp_cybrbll","Sat Mar 25 2023 21:47:07 GMT-0600 (Mountain Daylight Time)","444889","3","1","[{""page_index"":0,""viewing_time"":2328}]","2329","","","","","","","","","","","","","","",""
"","","","","62d06d1b651d6922f62fab9b","bdp_cybrbll","Sat Mar 25 2023 21:47:07 GMT-0600 (Mountain Daylight Time)","444889","3","1","","","fullscreenenter","2","5577","fullscreenenter","","","","","","","","","","",""
"fullscreen","2","6533","0.0-2.0","62d06d1b651d6922f62fab9b","bdp_cybrbll","Sat Mar 25 2023 21:47:07 GMT-0600 (Mountain Daylight Time)","444889","3","1","","","","","","","true","","","","","","","","","",""
"instructions","3","24046","0.0-4.0","62d06d1b651d6922f62fab9b","bdp_cybrbll","Sat Mar 25 2023 21:47:07 GMT-0600 (Mountain Daylight Time)","444889","3","1","[{""page_index"":0,""viewing_time"":17511}]","17511","","","","","","","","","","","","","","",""
"image-keyboard-response","4","26023","0.0-5.0-1.0","62d06d1b651d6922f62fab9b","bdp_cybrbll","Sat Mar 25 2023 21:47:07 GMT-0600 (Mountain Daylight Time)","444889","3","1","","1972","","","","choice","","img/2to1/1.png","1","225","250","0.5","0.5","2","1","",""
"animation","5","27314","0.0-5.0-2.0","62d06d1b651d6922f62fab9b","bdp_cybrbll","Sat Mar 25 2023 21:47:07 GMT-0600 (Mountain Daylight Time)","444889","3","1","","","","","","","","","","225","","","","2","1","[{""stimulus"":""img/2to1/1.png"",""time"":103},{""stimulus"":""img/2to1/2.png"",""time"":211},{""stimulus"":""img/2to1/3.png"",""time"":312},{""stimulus"":""img/2to1/4.png"",""time"":412},{""stimulus"":""img/2to1/5.png"",""time"":506},{""stimulus"":""img/2to1/6.png"",""time"":611},{""stimulus"":""img/2to1/7.png"",""time"":706},{""stimulus"":""img/2to1/8.png"",""time"":811},{""stimulus"":""img/2to1/9.png"",""time"":911},{""stimulus"":""img/2to1/10.png"",""time"":1012},{""stimulus"":""img/2to1/11.png"",""time"":1096},{""stimulus"":""img/2to1/12.png"",""time"":1191}]","[]"
"image-keyboard-response","6","27859","0.0-5.0-1.1","62d06d1b651d6922f62fab9b","bdp_cybrbll","Sat Mar 25 2023 21:47:07 GMT-0600 (Mountain Daylight Time)","444889","3","1","","null","","","","observe","","img/1to3/1.png","null","224","534","0.5","0.5","1","2","",""
"animation","7","29159","0.0-5.0-2.1","62d06d1b651d6922f62fab9b","bdp_cybrbll","Sat Mar 25 2023 21:47:07 GMT-0600 (Mountain Daylight Time)","444889","3","1","","","","","","","","","","224","","","","1","2","[{""stimulus"":""img/1to2/1.png"",""time"":116},{""stimulus"":""img/1to2/2.png"",""time"":215},{""stimulus"":""img/1to2/3.png"",""time"":305},{""stimulus"":""img/1to2/4.png"",""time"":429},{""stimulus"":""img/1to2/5.png"",""time"":500},{""stimulus"":""img/1to2/6.png"",""time"":600},{""stimulus"":""img/1to2/7.png"",""time"":695},{""stimulus"":""img/1to2/8.png"",""time"":800},{""stimulus"":""img/1to2/9.png"",""time"":905},{""stimulus"":""img/1to2/10.png"",""time"":1005},{""stimulus"":""img/1to2/11.png"",""time"":1105},{""stimulus"":""img/1to2/12.png"",""time"":1205}]","[]"
"image-keyboard-response","8","30304","0.0-5.0-1.2","62d06d1b651d6922f62fab9b","bdp_cybrbll","Sat Mar 25 2023 21:47:07 GMT-0600 (Mountain Daylight Time)","444889","3","1","","1144","","","","choice","","img/2to1/1.png","2","223","406","0.5","0.5","2","3","",""
"animation","9","31604","0.0-5.0-2.2","62d06d1b651d6922f62fab9b","bdp_cybrbll","Sat Mar 25 2023 21:47:07 GMT-0600 (Mountain Daylight Time)","444889","3","1","","","","","","","","","","223","","","","2","3","[{""stimulus"":""img/2to3/1.png"",""time"":110},{""stimulus"":""img/2to3/2.png"",""time"":210},{""stimulus"":""img/2to3/3.png"",""time"":310},{""stimulus"":""img/2to3/4.png"",""time"":410},{""stimulus"":""img/2to3/5.png"",""time"":512},{""stimulus"":""img/2to3/6.png"",""time"":602},{""stimulus"":""img/2to3/7.png"",""time"":705},{""stimulus"":""img/2to3/8.png"",""time"":810},{""stimulus"":""img/2to3/9.png"",""time"":906},{""stimulus"":""img/2to3/10.png"",""time"":1010},{""stimulus"":""img/2to3/11.png"",""time"":1100},{""stimulus"":""img/2to3/12.png"",""time"":1200}]","[]"
"image-keyboard-response","10","32034","0.0-5.0-1.3","62d06d1b651d6922f62fab9b","bdp_cybrbll","Sat Mar 25 2023 21:47:07 GMT-0600 (Mountain Daylight Time)","444889","3","1","","null","","","","observe","","img/3to2/1.png","null","222","414","0.5","0.5","3","2","",""
"animation","11","33422","0.0-5.0-2.3","62d06d1b651d6922f62fab9b","bdp_cybrbll","Sat Mar 25 2023 21:47:07 GMT-0600 (Mountain Daylight Time)","444889","3","1","","","","","","","","","","222","","","","3","2","[{""stimulus"":""img/3to2/1.png"",""time"":110},{""stimulus"":""img/3to2/2.png"",""time"":210},{""stimulus"":""img/3to2/3.png"",""time"":303},{""stimulus"":""img/3to2/4.png"",""time"":410},{""stimulus"":""img/3to2/5.png"",""time"":510},{""stimulus"":""img/3to2/6.png"",""time"":611},{""stimulus"":""img/3to2/7.png"",""time"":705},{""stimulus"":""img/3to2/8.png"",""time"":810},{""stimulus"":""img/3to2/9.png"",""time"":910},{""stimulus"":""img/3to2/10.png"",""time"":1010},{""stimulus"":""img/3to2/11.png"",""time"":1227},{""stimulus"":""img/3to2/12.png"",""time"":1292}]","[]"
"image-keyboard-response","12","33779","0.0-5.0-1.4","62d06d1b651d6922f62fab9b","bdp_cybrbll","Sat Mar 25 2023 21:47:07 GMT-0600 (Mountain Daylight Time)","444889","3","1","","356","","","","choice","","img/2to1/1.png","1","221","245","0.5","0.5","2","1","",""
"animation","13","35068","0.0-5.0-2.4","62d06d1b651d6922f62fab9b","bdp_cybrbll","Sat Mar 25 2023 21:47:07 GMT-0600 (Mountain Daylight Time)","444889","3","1","","","","","","","","","","221","","","","2","1","[{""stimulus"":""img/2to1/1.png"",""time"":102},{""stimulus"":""img/2to1/2.png"",""time"":199},{""stimulus"":""img/2to1/3.png"",""time"":299},{""stimulus"":""img/2to1/4.png"",""time"":398},{""stimulus"":""img/2to1/5.png"",""time"":497},{""stimulus"":""img/2to1/6.png"",""time"":596},{""stimulus"":""img/2to1/7.png"",""time"":695},{""stimulus"":""img/2to1/8.png"",""time"":794},{""stimulus"":""img/2to1/9.png"",""time"":894},{""stimulus"":""img/2to1/10.png"",""time"":991},{""stimulus"":""img/2to1/11.png"",""time"":1091},{""stimulus"":""img/2to1/12.png"",""time"":1189}]","[]"
"image-keyboard-response","14","35626","0.0-5.0-1.5","62d06d1b651d6922f62fab9b","bdp_cybrbll","Sat Mar 25 2023 21:47:07 GMT-0600 (Mountain Daylight Time)","444889","3","1","","null","","","","observe","","img/1to3/1.png","null","220","555","0.5","0.5","1","3","",""
"animation","15","36913","0.0-5.0-2.5","62d06d1b651d6922f62fab9b","bdp_cybrbll","Sat Mar 25 2023 21:47:07 GMT-0600 (Mountain Daylight Time)","444889","3","1","","","","","","","","","","220","","","","1","3","[{""stimulus"":""img/1to3/1.png"",""time"":100},{""stimulus"":""img/1to3/2.png"",""time"":200},{""stimulus"":""img/1to3/3.png"",""time"":298},{""stimulus"":""img/1to3/4.png"",""time"":398},{""stimulus"":""img/1to3/5.png"",""time"":499},{""stimulus"":""img/1to3/6.png"",""time"":596},{""stimulus"":""img/1to3/7.png"",""time"":694},{""stimulus"":""img/1to3/8.png"",""time"":793},{""stimulus"":""img/1to3/9.png"",""time"":892},{""stimulus"":""img/1to3/10.png"",""time"":992},{""stimulus"":""img/1to3/11.png"",""time"":1091},{""stimulus"":""img/1to3/12.png"",""time"":1189}]","[]"
"image-keyboard-response","16","37532","0.0-5.0-1.6","62d06d1b651d6922f62fab9b","bdp_cybrbll","Sat Mar 25 2023 21:47:07 GMT-0600 (Mountain Daylight Time)","444889","3","1","","null","","","","observe","","img/3to2/1.png","null","219","616","0.5","0.5","3","1","",""
"animation","17","38820","0.0-5.0-2.6","62d06d1b651d6922f62fab9b","bdp_cybrbll","Sat Mar 25 2023 21:47:07 GMT-0600 (Mountain Daylight Time)","444889","3","1","","","","","","","","","","219","","","","3","1","[{""stimulus"":""img/3to1/1.png"",""time"":101},{""stimulus"":""img/3to1/2.png"",""time"":200},{""stimulus"":""img/3to1/3.png"",""time"":298},{""stimulus"":""img/3to1/4.png"",""time"":397},{""stimulus"":""img/3to1/5.png"",""time"":496},{""stimulus"":""img/3to1/6.png"",""time"":595},{""stimulus"":""img/3to1/7.png"",""time"":695},{""stimulus"":""img/3to1/8.png"",""time"":793},{""stimulus"":""img/3to1/9.png"",""time"":891},{""stimulus"":""img/3to1/10.png"",""time"":992},{""stimulus"":""img/3to1/11.png"",""time"":1091},{""stimulus"":""img/3to1/12.png"",""time"":1189}]","[]"
"image-keyboard-response","18","39186","0.0-5.0-1.7","62d06d1b651d6922f62fab9b","bdp_cybrbll","Sat Mar 25 2023 21:47:07 GMT-0600 (Mountain Daylight Time)","444889","3","1","","null","","","","observe","","img/1to3/1.png","null","218","363","0.5","0.5","1","2","",""
"animation","19","40475","0.0-5.0-2.7","62d06d1b651d6922f62fab9b","bdp_cybrbll","Sat Mar 25 2023 21:47:07 GMT-0600 (Mountain Daylight Time)","444889","3","1","","","","","","","","","","218","","","","1","2","[{""stimulus"":""img/1to2/1.png"",""time"":100},{""stimulus"":""img/1to2/2.png"",""time"":199},{""stimulus"":""img/1to2/3.png"",""time"":298},{""stimulus"":""img/1to2/4.png"",""time"":397},{""stimulus"":""img/1to2/5.png"",""time"":496},{""stimulus"":""img/1to2/6.png"",""time"":596},{""stimulus"":""img/1to2/7.png"",""time"":694},{""stimulus"":""img/1to2/8.png"",""time"":793},{""stimulus"":""img/1to2/9.png"",""time"":892},{""stimulus"":""img/1to2/10.png"",""time"":991},{""stimulus"":""img/1to2/11.png"",""time"":1093},{""stimulus"":""img/1to2/12.png"",""time"":1189}]","[]"
"image-keyboard-response","20","43075","0.0-5.0-1.8","62d06d1b651d6922f62fab9b","bdp_cybrbll","Sat Mar 25 2023 21:47:07 GMT-0600 (Mountain Daylight Time)","444889","3","1","","2599","","","","choice","","img/2to1/1.png","2","217","378","0.5","0.5","2","3","",""
"animation","21","44364","0.0-5.0-2.8","62d06d1b651d6922f62fab9b","bdp_cybrbll","Sat Mar 25 2023 21:47:07 GMT-0600 (Mountain Daylight Time)","444889","3","1","","","","","","","","","","217","","","","2","3","[{""stimulus"":""img/2to3/1.png"",""time"":103},{""stimulus"":""img/2to3/2.png"",""time"":200},{""stimulus"":""img/2to3/3.png"",""time"":300},{""stimulus"":""img/2to3/4.png"",""time"":397},{""stimulus"":""img/2to3/5.png"",""time"":497},{""stimulus"":""img/2to3/6.png"",""time"":597},{""stimulus"":""img/2to3/7.png"",""time"":695},{""stimulus"":""img/2to3/8.png"",""time"":794},{""stimulus"":""img/2to3/9.png"",""time"":893},{""stimulus"":""img/2to3/10.png"",""time"":991},{""stimulus"":""img/2to3/11.png"",""time"":1091},{""stimulus"":""img/2to3/12.png"",""time"":1190}]","[]"
"image-keyboard-response","22","44730","0.0-5.0-1.9","62d06d1b651d6922f62fab9b","bdp_cybrbll","Sat Mar 25 2023 21:47:07 GMT-0600 (Mountain Daylight Time)","444889","3","1","","null","","","","observe","","img/3to2/1.png","null","216","363","0.5","0.5","3","1","",""
"animation","23","46019","0.0-5.0-2.9","62d06d1b651d6922f62fab9b","bdp_cybrbll","Sat Mar 25 2023 21:47:07 GMT-0600 (Mountain Daylight Time)","444889","3","1","","","","","","","","","","216","","","","3","1","[{""stimulus"":""img/3to1/1.png"",""time"":101},{""stimulus"":""img/3to1/2.png"",""time"":199},{""stimulus"":""img/3to1/3.png"",""time"":299},{""stimulus"":""img/3to1/4.png"",""time"":399},{""stimulus"":""img/3to1/5.png"",""time"":502},{""stimulus"":""img/3to1/6.png"",""time"":595},{""stimulus"":""img/3to1/7.png"",""time"":694},{""stimulus"":""img/3to1/8.png"",""time"":793},{""stimulus"":""img/3to1/9.png"",""time"":893},{""stimulus"":""img/3to1/10.png"",""time"":991},{""stimulus"":""img/3to1/11.png"",""time"":1090},{""stimulus"":""img/3to1/12.png"",""time"":1189}]","[]"
"image-keyboard-response","24","46769","0.0-5.0-1.10","62d06d1b651d6922f62fab9b","bdp_cybrbll","Sat Mar 25 2023 21:47:07 GMT-0600 (Mountain Daylight Time)","444889","3","1","","null","","","","observe","","img/1to3/1.png","null","215","748","0.5","0.5","1","2","",""
"animation","25","48058","0.0-5.0-2.10","62d06d1b651d6922f62fab9b","bdp_cybrbll","Sat Mar 25 2023 21:47:07 GMT-0600 (Mountain Daylight Time)","444889","3","1","","","","","","","","","","215","","","","1","2","[{""stimulus"":""img/1to2/1.png"",""time"":101},{""stimulus"":""img/1to2/2.png"",""time"":200},{""stimulus"":""img/1to2/3.png"",""time"":299},{""stimulus"":""img/1to2/4.png"",""time"":398},{""stimulus"":""img/1to2/5.png"",""time"":497},{""stimulus"":""img/1to2/6.png"",""time"":596},{""stimulus"":""img/1to2/7.png"",""time"":695},{""stimulus"":""img/1to2/8.png"",""time"":794},{""stimulus"":""img/1to2/9.png"",""time"":893},{""stimulus"":""img/1to2/10.png"",""time"":991},{""stimulus"":""img/1to2/11.png"",""time"":1091},{""stimulus"":""img/1to2/12.png"",""time"":1190}]","[]"
"image-keyboard-response","26","48708","0.0-5.0-1.11","62d06d1b651d6922f62fab9b","bdp_cybrbll","Sat Mar 25 2023 21:47:07 GMT-0600 (Mountain Daylight Time)","444889","3","1","","648","","","","choice","","img/2to1/1.png","1","214","334","0.5","0.5","2","1","",""
"animation","27","49996","0.0-5.0-2.11","62d06d1b651d6922f62fab9b","bdp_cybrbll","Sat Mar 25 2023 21:47:07 GMT-0600 (Mountain Daylight Time)","444889","3","1","","","","","","","","","","214","","","","2","1","[{""stimulus"":""img/2to1/1.png"",""time"":101},{""stimulus"":""img/2to1/2.png"",""time"":200},{""stimulus"":""img/2to1/3.png"",""time"":299},{""stimulus"":""img/2to1/4.png"",""time"":398},{""stimulus"":""img/2to1/5.png"",""time"":497},{""stimulus"":""img/2to1/6.png"",""time"":596},{""stimulus"":""img/2to1/7.png"",""time"":695},{""stimulus"":""img/2to1/8.png"",""time"":794},{""stimulus"":""img/2to1/9.png"",""time"":893},{""stimulus"":""img/2to1/10.png"",""time"":996},{""stimulus"":""img/2to1/11.png"",""time"":1091},{""stimulus"":""img/2to1/12.png"",""time"":1189}]","[]"
"image-keyboard-response","28","50196","0.0-5.0-1.12","62d06d1b651d6922f62fab9b","bdp_cybrbll","Sat Mar 25 2023 21:47:07 GMT-0600 (Mountain Daylight Time)","444889","3","1","","null","","","","observe","","img/1to3/1.png","null","213","197","0.5","0.5","1","3","",""
"animation","29","51484","0.0-5.0-2.12","62d06d1b651d6922f62fab9b","bdp_cybrbll","Sat Mar 25 2023 21:47:07 GMT-0600 (Mountain Daylight Time)","444889","3","1","","","","","","","","","","213","","","","1","3","[{""stimulus"":""img/1to3/1.png"",""time"":102},{""stimulus"":""img/1to3/2.png"",""time"":201},{""stimulus"":""img/1to3/3.png"",""time"":300},{""stimulus"":""img/1to3/4.png"",""time"":398},{""stimulus"":""img/1to3/5.png"",""time"":497},{""stimulus"":""img/1to3/6.png"",""time"":596},{""stimulus"":""img/1to3/7.png"",""time"":695},{""stimulus"":""img/1to3/8.png"",""time"":793},{""stimulus"":""img/1to3/9.png"",""time"":893},{""stimulus"":""img/1to3/10.png"",""time"":993},{""stimulus"":""img/1to3/11.png"",""time"":1091},{""stimulus"":""img/1to3/12.png"",""time"":1190}]","[]"
"image-keyboard-response","30","51812","0.0-5.0-1.13","62d06d1b651d6922f62fab9b","bdp_cybrbll","Sat Mar 25 2023 21:47:07 GMT-0600 (Mountain Daylight Time)","444889","3","1","","null","","","","observe","","img/3to2/1.png","null","212","326","0.5","0.5","3","1","",""
"animation","31","53101","0.0-5.0-2.13","62d06d1b651d6922f62fab9b","bdp_cybrbll","Sat Mar 25 2023 21:47:07 GMT-0600 (Mountain Daylight Time)","444889","3","1","","","","","","","","","","212","","","","3","1","[{""stimulus"":""img/3to1/1.png"",""time"":100},{""stimulus"":""img/3to1/2.png"",""time"":199},{""stimulus"":""img/3to1/3.png"",""time"":299},{""stimulus"":""img/3to1/4.png"",""time"":397},{""stimulus"":""img/3to1/5.png"",""time"":495},{""stimulus"":""img/3to1/6.png"",""time"":595},{""stimulus"":""img/3to1/7.png"",""time"":694},{""stimulus"":""img/3to1/8.png"",""time"":794},{""stimulus"":""img/3to1/9.png"",""time"":894},{""stimulus"":""img/3to1/10.png"",""time"":991},{""stimulus"":""img/3to1/11.png"",""time"":1091},{""stimulus"":""img/3to1/12.png"",""time"":1190}]","[]"
"image-keyboard-response","32","53425","0.0-5.0-1.14","62d06d1b651d6922f62fab9b","bdp_cybrbll","Sat Mar 25 2023 21:47:07 GMT-0600 (Mountain Daylight Time)","444889","3","1","","null","","","","observe","","img/1to3/1.png","null","211","322","0.5","0.5","1","2","",""
"animation","33","54713","0.0-5.0-2.14","62d06d1b651d6922f62fab9b","bdp_cybrbll","Sat Mar 25 2023 21:47:07 GMT-0600 (Mountain Daylight Time)","444889","3","1","","","","","","","","","","211","","","","1","2","[{""stimulus"":""img/1to2/1.png"",""time"":108},{""stimulus"":""img/1to2/2.png"",""time"":200},{""stimulus"":""img/1to2/3.png"",""time"":299},{""stimulus"":""img/1to2/4.png"",""time"":398},{""stimulus"":""img/1to2/5.png"",""time"":497},{""stimulus"":""img/1to2/6.png"",""time"":596},{""stimulus"":""img/1to2/7.png"",""time"":694},{""stimulus"":""img/1to2/8.png"",""time"":793},{""stimulus"":""img/1to2/9.png"",""time"":893},{""stimulus"":""img/1to2/10.png"",""time"":991},{""stimulus"":""img/1to2/11.png"",""time"":1102},{""stimulus"":""img/1to2/12.png"",""time"":1190}]","[]"
"image-keyboard-response","34","55496","0.0-5.0-1.15","62d06d1b651d6922f62fab9b","bdp_cybrbll","Sat Mar 25 2023 21:47:07 GMT-0600 (Mountain Daylight Time)","444889","3","1","","781","","","","choice","","img/2to1/1.png","2","210","197","0.5","0.5","2","3","",""
"animation","35","56785","0.0-5.0-2.15","62d06d1b651d6922f62fab9b","bdp_cybrbll","Sat Mar 25 2023 21:47:07 GMT-0600 (Mountain Daylight Time)","444889","3","1","","","","","","","","","","210","","","","2","3","[{""stimulus"":""img/2to3/1.png"",""time"":105},{""stimulus"":""img/2to3/2.png"",""time"":199},{""stimulus"":""img/2to3/3.png"",""time"":306},{""stimulus"":""img/2to3/4.png"",""time"":397},{""stimulus"":""img/2to3/5.png"",""time"":497},{""stimulus"":""img/2to3/6.png"",""time"":596},{""stimulus"":""img/2to3/7.png"",""time"":694},{""stimulus"":""img/2to3/8.png"",""time"":793},{""stimulus"":""img/2to3/9.png"",""time"":893},{""stimulus"":""img/2to3/10.png"",""time"":992},{""stimulus"":""img/2to3/11.png"",""time"":1090},{""stimulus"":""img/2to3/12.png"",""time"":1198}]","[]"
"image-keyboard-response","36","57106","0.0-5.0-1.16","62d06d1b651d6922f62fab9b","bdp_cybrbll","Sat Mar 25 2023 21:47:07 GMT-0600 (Mountain Daylight Time)","444889","3","1","","null","","","","observe","","img/3to2/1.png","null","209","319","0.5","0.5","3","2","",""
"animation","37","58395","0.0-5.0-2.16","62d06d1b651d6922f62fab9b","bdp_cybrbll","Sat Mar 25 2023 21:47:07 GMT-0600 (Mountain Daylight Time)","444889","3","1","","","","","","","","","","209","","","","3","2","[{""stimulus"":""img/3to2/1.png"",""time"":100},{""stimulus"":""img/3to2/2.png"",""time"":200},{""stimulus"":""img/3to2/3.png"",""time"":299},{""stimulus"":""img/3to2/4.png"",""time"":397},{""stimulus"":""img/3to2/5.png"",""time"":497},{""stimulus"":""img/3to2/6.png"",""time"":597},{""stimulus"":""img/3to2/7.png"",""time"":694},{""stimulus"":""img/3to2/8.png"",""time"":794},{""stimulus"":""img/3to2/9.png"",""time"":892},{""stimulus"":""img/3to2/10.png"",""time"":991},{""stimulus"":""img/3to2/11.png"",""time"":1091},{""stimulus"":""img/3to2/12.png"",""time"":1189}]","[]"
"image-keyboard-response","38","63840","0.0-5.0-1.17","62d06d1b651d6922f62fab9b","bdp_cybrbll","Sat Mar 25 2023 21:47:07 GMT-0600 (Mountain Daylight Time)","444889","3","1","","5444","","","","choice","","img/2to1/1.png","1","208","216","0.5","0.5","2","1","",""
"animation","39","65129","0.0-5.0-2.17","62d06d1b651d6922f62fab9b","bdp_cybrbll","Sat Mar 25 2023 21:47:07 GMT-0600 (Mountain Daylight Time)","444889","3","1","","","","","","","","","","208","","","","2","1","[{""stimulus"":""img/2to1/1.png"",""time"":102},{""stimulus"":""img/2to1/2.png"",""time"":201},{""stimulus"":""img/2to1/3.png"",""time"":299},{""stimulus"":""img/2to1/4.png"",""time"":398},{""stimulus"":""img/2to1/5.png"",""time"":496},{""stimulus"":""img/2to1/6.png"",""time"":595},{""stimulus"":""img/2to1/7.png"",""time"":695},{""stimulus"":""img/2to1/8.png"",""time"":794},{""stimulus"":""img/2to1/9.png"",""time"":893},{""stimulus"":""img/2to1/10.png"",""time"":992},{""stimulus"":""img/2to1/11.png"",""time"":1091},{""stimulus"":""img/2to1/12.png"",""time"":1190}]","[]"
"image-keyboard-response","40","66483","0.0-5.0-1.18","62d06d1b651d6922f62fab9b","bdp_cybrbll","Sat Mar 25 2023 21:47:07 GMT-0600 (Mountain Daylight Time)","444889","3","1","","null","","","","observe","","img/1to3/1.png","null","207","1353","0.5","0.5","1","2","",""
"animation","41","67771","0.0-5.0-2.18","62d06d1b651d6922f62fab9b","bdp_cybrbll","Sat Mar 25 2023 21:47:07 GMT-0600 (Mountain Daylight Time)","444889","3","1","","","","","","","","","","207","","","","1","2","[{""stimulus"":""img/1to2/1.png"",""time"":101},{""stimulus"":""img/1to2/2.png"",""time"":200},{""stimulus"":""img/1to2/3.png"",""time"":299},{""stimulus"":""img/1to2/4.png"",""time"":398},{""stimulus"":""img/1to2/5.png"",""time"":496},{""stimulus"":""img/1to2/6.png"",""time"":596},{""stimulus"":""img/1to2/7.png"",""time"":694},{""stimulus"":""img/1to2/8.png"",""time"":793},{""stimulus"":""img/1to2/9.png"",""time"":892},{""stimulus"":""img/1to2/10.png"",""time"":991},{""stimulus"":""img/1to2/11.png"",""time"":1091},{""stimulus"":""img/1to2/12.png"",""time"":1190}]","[]"
"image-keyboard-response","42","68080","0.0-5.0-1.19","62d06d1b651d6922f62fab9b","bdp_cybrbll","Sat Mar 25 2023 21:47:07 GMT-0600 (Mountain Daylight Time)","444889","3","1","","308","","","","choice","","img/2to1/1.png","2","206","878","0.5","0.5","2","3","",""
"animation","43","69368","0.0-5.0-2.19","62d06d1b651d6922f62fab9b","bdp_cybrbll","Sat Mar 25 2023 21:47:07 GMT-0600 (Mountain Daylight Time)","444889","3","1","","","","","","","","","","206","","","","2","3","[{""stimulus"":""img/2to3/1.png"",""time"":102},{""stimulus"":""img/2to3/2.png"",""time"":200},{""stimulus"":""img/2to3/3.png"",""time"":300},{""stimulus"":""img/2to3/4.png"",""time"":398},{""stimulus"":""img/2to3/5.png"",""time"":496},{""stimulus"":""img/2to3/6.png"",""time"":596},{""stimulus"":""img/2to3/7.png"",""time"":694},{""stimulus"":""img/2to3/8.png"",""time"":794},{""stimulus"":""img/2to3/9.png"",""time"":893},{""stimulus"":""img/2to3/10.png"",""time"":992},{""stimulus"":""img/2to3/11.png"",""time"":1092},{""stimulus"":""img/2to3/12.png"",""time"":1190}]","[]"
"image-keyboard-response","44","69559","0.0-5.0-1.20","62d06d1b651d6922f62fab9b","bdp_cybrbll","Sat Mar 25 2023 21:47:07 GMT-0600 (Mountain Daylight Time)","444889","3","1","","null","","","","observe","","img/3to2/1.png","null","205","189","0.5","0.5","3","1","",""
"animation","45","70847","0.0-5.0-2.20","62d06d1b651d6922f62fab9b","bdp_cybrbll","Sat Mar 25 2023 21:47:07 GMT-0600 (Mountain Daylight Time)","444889","3","1","","","","","","","","","","205","","","","3","1","[{""stimulus"":""img/3to1/1.png"",""time"":102},{""stimulus"":""img/3to1/2.png"",""time"":200},{""stimulus"":""img/3to1/3.png"",""time"":298},{""stimulus"":""img/3to1/4.png"",""time"":398},{""stimulus"":""img/3to1/5.png"",""time"":496},{""stimulus"":""img/3to1/6.png"",""time"":596},{""stimulus"":""img/3to1/7.png"",""time"":695},{""stimulus"":""img/3to1/8.png"",""time"":794},{""stimulus"":""img/3to1/9.png"",""time"":892},{""stimulus"":""img/3to1/10.png"",""time"":991},{""stimulus"":""img/3to1/11.png"",""time"":1090},{""stimulus"":""img/3to1/12.png"",""time"":1189}]","[]"
"image-keyboard-response","46","71264","0.0-5.0-1.21","62d06d1b651d6922f62fab9b","bdp_cybrbll","Sat Mar 25 2023 21:47:07 GMT-0600 (Mountain Daylight Time)","444889","3","1","","null","","","","observe","","img/1to3/1.png","null","204","415","0.5","0.5","1","2","",""
"animation","47","72553","0.0-5.0-2.21","62d06d1b651d6922f62fab9b","bdp_cybrbll","Sat Mar 25 2023 21:47:07 GMT-0600 (Mountain Daylight Time)","444889","3","1","","","","","","","","","","204","","","","1","2","[{""stimulus"":""img/1to2/1.png"",""time"":101},{""stimulus"":""img/1to2/2.png"",""time"":199},{""stimulus"":""img/1to2/3.png"",""time"":299},{""stimulus"":""img/1to2/4.png"",""time"":399},{""stimulus"":""img/1to2/5.png"",""time"":502},{""stimulus"":""img/1to2/6.png"",""time"":630},{""stimulus"":""img/1to2/7.png"",""time"":694},{""stimulus"":""img/1to2/8.png"",""time"":794},{""stimulus"":""img/1to2/9.png"",""time"":893},{""stimulus"":""img/1to2/10.png"",""time"":992},{""stimulus"":""img/1to2/11.png"",""time"":1090},{""stimulus"":""img/1to2/12.png"",""time"":1190}]","[]"
"image-keyboard-response","48","73258","0.0-5.0-1.22","62d06d1b651d6922f62fab9b","bdp_cybrbll","Sat Mar 25 2023 21:47:07 GMT-0600 (Mountain Daylight Time)","444889","3","1","","703","","","","choice","","img/2to1/1.png","1","203","513","0.5","0.5","2","1","",""
"animation","49","74546","0.0-5.0-2.22","62d06d1b651d6922f62fab9b","bdp_cybrbll","Sat Mar 25 2023 21:47:07 GMT-0600 (Mountain Daylight Time)","444889","3","1","","","","","","","","","","203","","","","2","1","[{""stimulus"":""img/2to1/1.png"",""time"":100},{""stimulus"":""img/2to1/2.png"",""time"":206},{""stimulus"":""img/2to1/3.png"",""time"":298},{""stimulus"":""img/2to1/4.png"",""time"":397},{""stimulus"":""img/2to1/5.png"",""time"":496},{""stimulus"":""img/2to1/6.png"",""time"":595},{""stimulus"":""img/2to1/7.png"",""time"":700},{""stimulus"":""img/2to1/8.png"",""time"":793},{""stimulus"":""img/2to1/9.png"",""time"":892},{""stimulus"":""img/2to1/10.png"",""time"":991},{""stimulus"":""img/2to1/11.png"",""time"":1090},{""stimulus"":""img/2to1/12.png"",""time"":1189}]","[]"
"image-keyboard-response","50","74886","0.0-5.0-1.23","62d06d1b651d6922f62fab9b","bdp_cybrbll","Sat Mar 25 2023 21:47:07 GMT-0600 (Mountain Daylight Time)","444889","3","1","","null","","","","observe","","img/1to3/1.png","null","202","339","0.5","0.5","1","3","",""
"animation","51","76174","0.0-5.0-2.23","62d06d1b651d6922f62fab9b","bdp_cybrbll","Sat Mar 25 2023 21:47:07 GMT-0600 (Mountain Daylight Time)","444889","3","1","","","","","","","","","","202","","","","1","3","[{""stimulus"":""img/1to3/1.png"",""time"":101},{""stimulus"":""img/1to3/2.png"",""time"":200},{""stimulus"":""img/1to3/3.png"",""time"":299},{""stimulus"":""img/1to3/4.png"",""time"":398},{""stimulus"":""img/1to3/5.png"",""time"":497},{""stimulus"":""img/1to3/6.png"",""time"":595},{""stimulus"":""img/1to3/7.png"",""time"":695},{""stimulus"":""img/1to3/8.png"",""time"":793},{""stimulus"":""img/1to3/9.png"",""time"":901},{""stimulus"":""img/1to3/10.png"",""time"":991},{""stimulus"":""img/1to3/11.png"",""time"":1091},{""stimulus"":""img/1to3/12.png"",""time"":1190}]","[]"
"image-keyboard-response","52","76666","0.0-5.0-1.24","62d06d1b651d6922f62fab9b","bdp_cybrbll","Sat Mar 25 2023 21:47:07 GMT-0600 (Mountain Daylight Time)","444889","3","1","","null","","","","observe","","img/3to2/1.png","null","201","480","0.5","0.5","3","1","",""
"animation","53","77953","0.0-5.0-2.24","62d06d1b651d6922f62fab9b","bdp_cybrbll","Sat Mar 25 2023 21:47:07 GMT-0600 (Mountain Daylight Time)","444889","3","1","","","","","","","","","","201","","","","3","1","[{""stimulus"":""img/3to1/1.png"",""time"":100},{""stimulus"":""img/3to1/2.png"",""time"":199},{""stimulus"":""img/3to1/3.png"",""time"":299},{""stimulus"":""img/3to1/4.png"",""time"":397},{""stimulus"":""img/3to1/5.png"",""time"":507},{""stimulus"":""img/3to1/6.png"",""time"":595},{""stimulus"":""img/3to1/7.png"",""time"":694},{""stimulus"":""img/3to1/8.png"",""time"":793},{""stimulus"":""img/3to1/9.png"",""time"":893},{""stimulus"":""img/3to1/10.png"",""time"":992},{""stimulus"":""img/3to1/11.png"",""time"":1091},{""stimulus"":""img/3to1/12.png"",""time"":1189}]","[]"
"image-keyboard-response","54","78202","0.0-5.0-1.25","62d06d1b651d6922f62fab9b","bdp_cybrbll","Sat Mar 25 2023 21:47:07 GMT-0600 (Mountain Daylight Time)","444889","3","1","","null","","","","observe","","img/1to3/1.png","null","200","247","0.5","0.5","1","3","",""
"animation","55","79490","0.0-5.0-2.25","62d06d1b651d6922f62fab9b","bdp_cybrbll","Sat Mar 25 2023 21:47:07 GMT-0600 (Mountain Daylight Time)","444889","3","1","","","","","","","","","","200","","","","1","3","[{""stimulus"":""img/1to3/1.png"",""time"":100},{""stimulus"":""img/1to3/2.png"",""time"":200},{""stimulus"":""img/1to3/3.png"",""time"":298},{""stimulus"":""img/1to3/4.png"",""time"":398},{""stimulus"":""img/1to3/5.png"",""time"":497},{""stimulus"":""img/1to3/6.png"",""time"":594},{""stimulus"":""img/1to3/7.png"",""time"":694},{""stimulus"":""img/1to3/8.png"",""time"":793},{""stimulus"":""img/1to3/9.png"",""time"":892},{""stimulus"":""img/1to3/10.png"",""time"":992},{""stimulus"":""img/1to3/11.png"",""time"":1091},{""stimulus"":""img/1to3/12.png"",""time"":1190}]","[]"
"image-keyboard-response","56","80003","0.0-5.0-1.26","62d06d1b651d6922f62fab9b","bdp_cybrbll","Sat Mar 25 2023 21:47:07 GMT-0600 (Mountain Daylight Time)","444889","3","1","","null","","","","observe","","img/3to2/1.png","null","199","511","0.5","0.5","3","1","",""
"animation","57","81292","0.0-5.0-2.26","62d06d1b651d6922f62fab9b","bdp_cybrbll","Sat Mar 25 2023 21:47:07 GMT-0600 (Mountain Daylight Time)","444889","3","1","","","","","","","","","","199","","","","3","1","[{""stimulus"":""img/3to1/1.png"",""time"":100},{""stimulus"":""img/3to1/2.png"",""time"":198},{""stimulus"":""img/3to1/3.png"",""time"":299},{""stimulus"":""img/3to1/4.png"",""time"":397},{""stimulus"":""img/3to1/5.png"",""time"":496},{""stimulus"":""img/3to1/6.png"",""time"":596},{""stimulus"":""img/3to1/7.png"",""time"":695},{""stimulus"":""img/3to1/8.png"",""time"":793},{""stimulus"":""img/3to1/9.png"",""time"":891},{""stimulus"":""img/3to1/10.png"",""time"":993},{""stimulus"":""img/3to1/11.png"",""time"":1091},{""stimulus"":""img/3to1/12.png"",""time"":1189}]","[]"
"image-keyboard-response","58","81912","0.0-5.0-1.27","62d06d1b651d6922f62fab9b","bdp_cybrbll","Sat Mar 25 2023 21:47:07 GMT-0600 (Mountain Daylight Time)","444889","3","1","","null","","","","observe","","img/1to3/1.png","null","198","618","0.5","0.5","1","2","",""
"animation","59","83202","0.0-5.0-2.27","62d06d1b651d6922f62fab9b","bdp_cybrbll","Sat Mar 25 2023 21:47:07 GMT-0600 (Mountain Daylight Time)","444889","3","1","","","","","","","","","","198","","","","1","2","[{""stimulus"":""img/1to2/1.png"",""time"":103},{""stimulus"":""img/1to2/2.png"",""time"":201},{""stimulus"":""img/1to2/3.png"",""time"":299},{""stimulus"":""img/1to2/4.png"",""time"":398},{""stimulus"":""img/1to2/5.png"",""time"":496},{""stimulus"":""img/1to2/6.png"",""time"":596},{""stimulus"":""img/1to2/7.png"",""time"":708},{""stimulus"":""img/1to2/8.png"",""time"":794},{""stimulus"":""img/1to2/9.png"",""time"":893},{""stimulus"":""img/1to2/10.png"",""time"":993},{""stimulus"":""img/1to2/11.png"",""time"":1091},{""stimulus"":""img/1to2/12.png"",""time"":1189}]","[]"
"image-keyboard-response","60","83466","0.0-5.0-1.28","62d06d1b651d6922f62fab9b","bdp_cybrbll","Sat Mar 25 2023 21:47:07 GMT-0600 (Mountain Daylight Time)","444889","3","1","","263","","","","choice","","img/2to1/1.png","2","197","276","0.5","0.5","2","3","",""
"animation","61","84757","0.0-5.0-2.28","62d06d1b651d6922f62fab9b","bdp_cybrbll","Sat Mar 25 2023 21:47:07 GMT-0600 (Mountain Daylight Time)","444889","3","1","","","","","","","","","","197","","","","2","3","[{""stimulus"":""img/2to3/1.png"",""time"":100},{""stimulus"":""img/2to3/2.png"",""time"":200},{""stimulus"":""img/2to3/3.png"",""time"":299},{""stimulus"":""img/2to3/4.png"",""time"":398},{""stimulus"":""img/2to3/5.png"",""time"":497},{""stimulus"":""img/2to3/6.png"",""time"":598},{""stimulus"":""img/2to3/7.png"",""time"":698},{""stimulus"":""img/2to3/8.png"",""time"":796},{""stimulus"":""img/2to3/9.png"",""time"":895},{""stimulus"":""img/2to3/10.png"",""time"":995},{""stimulus"":""img/2to3/11.png"",""time"":1094},{""stimulus"":""img/2to3/12.png"",""time"":1192}]","[]"
"image-keyboard-response","62","85401","0.0-5.0-1.29","62d06d1b651d6922f62fab9b","bdp_cybrbll","Sat Mar 25 2023 21:47:07 GMT-0600 (Mountain Daylight Time)","444889","3","1","","null","","","","observe","","img/3to2/1.png","null","196","642","0.5","0.5","3","1","",""
"animation","63","86689","0.0-5.0-2.29","62d06d1b651d6922f62fab9b","bdp_cybrbll","Sat Mar 25 2023 21:47:07 GMT-0600 (Mountain Daylight Time)","444889","3","1","","","","","","","","","","196","","","","3","1","[{""stimulus"":""img/3to1/1.png"",""time"":100},{""stimulus"":""img/3to1/2.png"",""time"":199},{""stimulus"":""img/3to1/3.png"",""time"":298},{""stimulus"":""img/3to1/4.png"",""time"":398},{""stimulus"":""img/3to1/5.png"",""time"":497},{""stimulus"":""img/3to1/6.png"",""time"":596},{""stimulus"":""img/3to1/7.png"",""time"":694},{""stimulus"":""img/3to1/8.png"",""time"":794},{""stimulus"":""img/3to1/9.png"",""time"":893},{""stimulus"":""img/3to1/10.png"",""time"":991},{""stimulus"":""img/3to1/11.png"",""time"":1092},{""stimulus"":""img/3to1/12.png"",""time"":1189}]","[]"
"image-keyboard-response","64","87184","0.0-5.0-1.30","62d06d1b651d6922f62fab9b","bdp_cybrbll","Sat Mar 25 2023 21:47:07 GMT-0600 (Mountain Daylight Time)","444889","3","1","","null","","","","observe","","img/1to3/1.png","null","195","493","0.5","0.5","1","2","",""
"animation","65","88472","0.0-5.0-2.30","62d06d1b651d6922f62fab9b","bdp_cybrbll","Sat Mar 25 2023 21:47:07 GMT-0600 (Mountain Daylight Time)","444889","3","1","","","","","","","","","","195","","","","1","2","[{""stimulus"":""img/1to2/1.png"",""time"":100},{""stimulus"":""img/1to2/2.png"",""time"":200},{""stimulus"":""img/1to2/3.png"",""time"":298},{""stimulus"":""img/1to2/4.png"",""time"":398},{""stimulus"":""img/1to2/5.png"",""time"":496},{""stimulus"":""img/1to2/6.png"",""time"":595},{""stimulus"":""img/1to2/7.png"",""time"":694},{""stimulus"":""img/1to2/8.png"",""time"":794},{""stimulus"":""img/1to2/9.png"",""time"":893},{""stimulus"":""img/1to2/10.png"",""time"":992},{""stimulus"":""img/1to2/11.png"",""time"":1090},{""stimulus"":""img/1to2/12.png"",""time"":1189}]","[]"
"image-keyboard-response","66","88977","0.0-5.0-1.31","62d06d1b651d6922f62fab9b","bdp_cybrbll","Sat Mar 25 2023 21:47:07 GMT-0600 (Mountain Daylight Time)","444889","3","1","","504","","","","choice","","img/2to1/1.png","2","194","946","0.5","0.5","2","3","",""
"animation","67","90266","0.0-5.0-2.31","62d06d1b651d6922f62fab9b","bdp_cybrbll","Sat Mar 25 2023 21:47:07 GMT-0600 (Mountain Daylight Time)","444889","3","1","","","","","","","","","","194","","","","2","3","[{""stimulus"":""img/2to3/1.png"",""time"":101},{""stimulus"":""img/2to3/2.png"",""time"":199},{""stimulus"":""img/2to3/3.png"",""time"":298},{""stimulus"":""img/2to3/4.png"",""time"":397},{""stimulus"":""img/2to3/5.png"",""time"":497},{""stimulus"":""img/2to3/6.png"",""time"":596},{""stimulus"":""img/2to3/7.png"",""time"":694},{""stimulus"":""img/2to3/8.png"",""time"":794},{""stimulus"":""img/2to3/9.png"",""time"":893},{""stimulus"":""img/2to3/10.png"",""time"":992},{""stimulus"":""img/2to3/11.png"",""time"":1090},{""stimulus"":""img/2to3/12.png"",""time"":1190}]","[]"
"image-keyboard-response","68","90903","0.0-5.0-1.32","62d06d1b651d6922f62fab9b","bdp_cybrbll","Sat Mar 25 2023 21:47:07 GMT-0600 (Mountain Daylight Time)","444889","3","1","","null","","","","observe","","img/3to2/1.png","null","193","636","0.5","0.5","3","2","",""
"animation","69","92191","0.0-5.0-2.32","62d06d1b651d6922f62fab9b","bdp_cybrbll","Sat Mar 25 2023 21:47:07 GMT-0600 (Mountain Daylight Time)","444889","3","1","","","","","","","","","","193","","","","3","2","[{""stimulus"":""img/3to2/1.png"",""time"":101},{""stimulus"":""img/3to2/2.png"",""time"":199},{""stimulus"":""img/3to2/3.png"",""time"":299},{""stimulus"":""img/3to2/4.png"",""time"":398},{""stimulus"":""img/3to2/5.png"",""time"":498},{""stimulus"":""img/3to2/6.png"",""time"":596},{""stimulus"":""img/3to2/7.png"",""time"":695},{""stimulus"":""img/3to2/8.png"",""time"":794},{""stimulus"":""img/3to2/9.png"",""time"":895},{""stimulus"":""img/3to2/10.png"",""time"":996},{""stimulus"":""img/3to2/11.png"",""time"":1092},{""stimulus"":""img/3to2/12.png"",""time"":1189}]","[]"
"image-keyboard-response","70","92375","0.0-5.0-1.33","62d06d1b651d6922f62fab9b","bdp_cybrbll","Sat Mar 25 2023 21:47:07 GMT-0600 (Mountain Daylight Time)","444889","3","1","","183","","","","choice","","img/2to1/1.png","1","192","358","0.5","0.5","2","1","",""
"animation","71","93663","0.0-5.0-2.33","62d06d1b651d6922f62fab9b","bdp_cybrbll","Sat Mar 25 2023 21:47:07 GMT-0600 (Mountain Daylight Time)","444889","3","1","","","","","","","","","","192","","","","2","1","[{""stimulus"":""img/2to1/1.png"",""time"":100},{""stimulus"":""img/2to1/2.png"",""time"":199},{""stimulus"":""img/2to1/3.png"",""time"":300},{""stimulus"":""img/2to1/4.png"",""time"":398},{""stimulus"":""img/2to1/5.png"",""time"":498},{""stimulus"":""img/2to1/6.png"",""time"":595},{""stimulus"":""img/2to1/7.png"",""time"":695},{""stimulus"":""img/2to1/8.png"",""time"":794},{""stimulus"":""img/2to1/9.png"",""time"":893},{""stimulus"":""img/2to1/10.png"",""time"":992},{""stimulus"":""img/2to1/11.png"",""time"":1090},{""stimulus"":""img/2to1/12.png"",""time"":1190}]","[]"
"image-keyboard-response","72","94475","0.0-5.0-1.34","62d06d1b651d6922f62fab9b","bdp_cybrbll","Sat Mar 25 2023 21:47:07 GMT-0600 (Mountain Daylight Time)","444889","3","1","","null","","","","observe","","img/1to3/1.png","null","191","811","0.5","0.5","1","3","",""
"animation","73","95764","0.0-5.0-2.34","62d06d1b651d6922f62fab9b","bdp_cybrbll","Sat Mar 25 2023 21:47:07 GMT-0600 (Mountain Daylight Time)","444889","3","1","","","","","","","","","","191","","","","1","3","[{""stimulus"":""img/1to3/1.png"",""time"":100},{""stimulus"":""img/1to3/2.png"",""time"":199},{""stimulus"":""img/1to3/3.png"",""time"":298},{""stimulus"":""img/1to3/4.png"",""time"":398},{""stimulus"":""img/1to3/5.png"",""time"":496},{""stimulus"":""img/1to3/6.png"",""time"":595},{""stimulus"":""img/1to3/7.png"",""time"":694},{""stimulus"":""img/1to3/8.png"",""time"":794},{""stimulus"":""img/1to3/9.png"",""time"":893},{""stimulus"":""img/1to3/10.png"",""time"":992},{""stimulus"":""img/1to3/11.png"",""time"":1097},{""stimulus"":""img/1to3/12.png"",""time"":1189}]","[]"
"image-keyboard-response","74","96276","0.0-5.0-1.35","62d06d1b651d6922f62fab9b","bdp_cybrbll","Sat Mar 25 2023 21:47:07 GMT-0600 (Mountain Daylight Time)","444889","3","1","","null","","","","observe","","img/3to2/1.png","null","190","511","0.5","0.5","3","1","",""
"animation","75","97565","0.0-5.0-2.35","62d06d1b651d6922f62fab9b","bdp_cybrbll","Sat Mar 25 2023 21:47:07 GMT-0600 (Mountain Daylight Time)","444889","3","1","","","","","","","","","","190","","","","3","1","[{""stimulus"":""img/3to1/1.png"",""time"":102},{""stimulus"":""img/3to1/2.png"",""time"":200},{""stimulus"":""img/3to1/3.png"",""time"":299},{""stimulus"":""img/3to1/4.png"",""time"":398},{""stimulus"":""img/3to1/5.png"",""time"":497},{""stimulus"":""img/3to1/6.png"",""time"":596},{""stimulus"":""img/3to1/7.png"",""time"":695},{""stimulus"":""img/3to1/8.png"",""time"":794},{""stimulus"":""img/3to1/9.png"",""time"":893},{""stimulus"":""img/3to1/10.png"",""time"":992},{""stimulus"":""img/3to1/11.png"",""time"":1091},{""stimulus"":""img/3to1/12.png"",""time"":1190}]","[]"
"image-keyboard-response","76","97878","0.0-5.0-1.36","62d06d1b651d6922f62fab9b","bdp_cybrbll","Sat Mar 25 2023 21:47:07 GMT-0600 (Mountain Daylight Time)","444889","3","1","","null","","","","observe","","img/1to3/1.png","null","189","312","0.5","0.5","1","3","",""
"animation","77","99166","0.0-5.0-2.36","62d06d1b651d6922f62fab9b","bdp_cybrbll","Sat Mar 25 2023 21:47:07 GMT-0600 (Mountain Daylight Time)","444889","3","1","","","","","","","","","","189","","","","1","3","[{""stimulus"":""img/1to3/1.png"",""time"":101},{""stimulus"":""img/1to3/2.png"",""time"":200},{""stimulus"":""img/1to3/3.png"",""time"":299},{""stimulus"":""img/1to3/4.png"",""time"":398},{""stimulus"":""img/1to3/5.png"",""time"":498},{""stimulus"":""img/1to3/6.png"",""time"":596},{""stimulus"":""img/1to3/7.png"",""time"":694},{""stimulus"":""img/1to3/8.png"",""time"":794},{""stimulus"":""img/1to3/9.png"",""time"":893},{""stimulus"":""img/1to3/10.png"",""time"":992},{""stimulus"":""img/1to3/11.png"",""time"":1092},{""stimulus"":""img/1to3/12.png"",""time"":1191}]","[]"
"image-keyboard-response","78","99493","0.0-5.0-1.37","62d06d1b651d6922f62fab9b","bdp_cybrbll","Sat Mar 25 2023 21:47:07 GMT-0600 (Mountain Daylight Time)","444889","3","1","","null","","","","observe","","img/3to2/1.png","null","188","324","0.5","0.5","3","1","",""
"animation","79","100781","0.0-5.0-2.37","62d06d1b651d6922f62fab9b","bdp_cybrbll","Sat Mar 25 2023 21:47:07 GMT-0600 (Mountain Daylight Time)","444889","3","1","","","","","","","","","","188","","","","3","1","[{""stimulus"":""img/3to1/1.png"",""time"":102},{""stimulus"":""img/3to1/2.png"",""time"":199},{""stimulus"":""img/3to1/3.png"",""time"":300},{""stimulus"":""img/3to1/4.png"",""time"":398},{""stimulus"":""img/3to1/5.png"",""time"":497},{""stimulus"":""img/3to1/6.png"",""time"":596},{""stimulus"":""img/3to1/7.png"",""time"":694},{""stimulus"":""img/3to1/8.png"",""time"":794},{""stimulus"":""img/3to1/9.png"",""time"":892},{""stimulus"":""img/3to1/10.png"",""time"":992},{""stimulus"":""img/3to1/11.png"",""time"":1091},{""stimulus"":""img/3to1/12.png"",""time"":1190}]","[]"
"image-keyboard-response","80","101100","0.0-5.0-1.38","62d06d1b651d6922f62fab9b","bdp_cybrbll","Sat Mar 25 2023 21:47:07 GMT-0600 (Mountain Daylight Time)","444889","3","1","","null","","","","observe","","img/1to3/1.png","null","187","318","0.5","0.5","1","2","",""
"animation","81","102389","0.0-5.0-2.38","62d06d1b651d6922f62fab9b","bdp_cybrbll","Sat Mar 25 2023 21:47:07 GMT-0600 (Mountain Daylight Time)","444889","3","1","","","","","","","","","","187","","","","1","2","[{""stimulus"":""img/1to2/1.png"",""time"":99},{""stimulus"":""img/1to2/2.png"",""time"":198},{""stimulus"":""img/1to2/3.png"",""time"":299},{""stimulus"":""img/1to2/4.png"",""time"":398},{""stimulus"":""img/1to2/5.png"",""time"":496},{""stimulus"":""img/1to2/6.png"",""time"":595},{""stimulus"":""img/1to2/7.png"",""time"":693},{""stimulus"":""img/1to2/8.png"",""time"":794},{""stimulus"":""img/1to2/9.png"",""time"":892},{""stimulus"":""img/1to2/10.png"",""time"":990},{""stimulus"":""img/1to2/11.png"",""time"":1090},{""stimulus"":""img/1to2/12.png"",""time"":1189}]","[]"
"image-keyboard-response","82","103235","0.0-5.0-1.39","62d06d1b651d6922f62fab9b","bdp_cybrbll","Sat Mar 25 2023 21:47:07 GMT-0600 (Mountain Daylight Time)","444889","3","1","","845","","","","choice","","img/2to1/1.png","1","186","776","0.5","0.5","2","1","",""
"animation","83","104523","0.0-5.0-2.39","62d06d1b651d6922f62fab9b","bdp_cybrbll","Sat Mar 25 2023 21:47:07 GMT-0600 (Mountain Daylight Time)","444889","3","1","","","","","","","","","","186","","","","2","1","[{""stimulus"":""img/2to1/1.png"",""time"":100},{""stimulus"":""img/2to1/2.png"",""time"":200},{""stimulus"":""img/2to1/3.png"",""time"":298},{""stimulus"":""img/2to1/4.png"",""time"":398},{""stimulus"":""img/2to1/5.png"",""time"":497},{""stimulus"":""img/2to1/6.png"",""time"":596},{""stimulus"":""img/2to1/7.png"",""time"":695},{""stimulus"":""img/2to1/8.png"",""time"":807},{""stimulus"":""img/2to1/9.png"",""time"":893},{""stimulus"":""img/2to1/10.png"",""time"":991},{""stimulus"":""img/2to1/11.png"",""time"":1090},{""stimulus"":""img/2to1/12.png"",""time"":1189}]","[]"
"image-keyboard-response","84","104853","0.0-5.0-1.40","62d06d1b651d6922f62fab9b","bdp_cybrbll","Sat Mar 25 2023 21:47:07 GMT-0600 (Mountain Daylight Time)","444889","3","1","","null","","","","observe","","img/1to3/1.png","null","185","328","0.5","0.5","1","3","",""
"animation","85","106141","0.0-5.0-2.40","62d06d1b651d6922f62fab9b","bdp_cybrbll","Sat Mar 25 2023 21:47:07 GMT-0600 (Mountain Daylight Time)","444889","3","1","","","","","","","","","","185","","","","1","3","[{""stimulus"":""img/1to3/1.png"",""time"":101},{""stimulus"":""img/1to3/2.png"",""time"":200},{""stimulus"":""img/1to3/3.png"",""time"":299},{""stimulus"":""img/1to3/4.png"",""time"":397},{""stimulus"":""img/1to3/5.png"",""time"":496},{""stimulus"":""img/1to3/6.png"",""time"":608},{""stimulus"":""img/1to3/7.png"",""time"":694},{""stimulus"":""img/1to3/8.png"",""time"":793},{""stimulus"":""img/1to3/9.png"",""time"":892},{""stimulus"":""img/1to3/10.png"",""time"":991},{""stimulus"":""img/1to3/11.png"",""time"":1090},{""stimulus"":""img/1to3/12.png"",""time"":1189}]","[]"
"image-keyboard-response","86","107337","0.0-5.0-1.41","62d06d1b651d6922f62fab9b","bdp_cybrbll","Sat Mar 25 2023 21:47:07 GMT-0600 (Mountain Daylight Time)","444889","3","1","","null","","","","observe","","img/3to2/1.png","null","184","1194","0.5","0.5","3","1","",""
"animation","87","108625","0.0-5.0-2.41","62d06d1b651d6922f62fab9b","bdp_cybrbll","Sat Mar 25 2023 21:47:07 GMT-0600 (Mountain Daylight Time)","444889","3","1","","","","","","","","","","184","","","","3","1","[{""stimulus"":""img/3to1/1.png"",""time"":100},{""stimulus"":""img/3to1/2.png"",""time"":198},{""stimulus"":""img/3to1/3.png"",""time"":298},{""stimulus"":""img/3to1/4.png"",""time"":398},{""stimulus"":""img/3to1/5.png"",""time"":496},{""stimulus"":""img/3to1/6.png"",""time"":595},{""stimulus"":""img/3to1/7.png"",""time"":694},{""stimulus"":""img/3to1/8.png"",""time"":792},{""stimulus"":""img/3to1/9.png"",""time"":892},{""stimulus"":""img/3to1/10.png"",""time"":991},{""stimulus"":""img/3to1/11.png"",""time"":1089},{""stimulus"":""img/3to1/12.png"",""time"":1188}]","[]"
"image-keyboard-response","88","109029","0.0-5.0-1.42","62d06d1b651d6922f62fab9b","bdp_cybrbll","Sat Mar 25 2023 21:47:07 GMT-0600 (Mountain Daylight Time)","444889","3","1","","null","","","","observe","","img/1to3/1.png","null","183","402","0.5","0.5","1","2","",""
"animation","89","110317","0.0-5.0-2.42","62d06d1b651d6922f62fab9b","bdp_cybrbll","Sat Mar 25 2023 21:47:07 GMT-0600 (Mountain Daylight Time)","444889","3","1","","","","","","","","","","183","","","","1","2","[{""stimulus"":""img/1to2/1.png"",""time"":101},{""stimulus"":""img/1to2/2.png"",""time"":200},{""stimulus"":""img/1to2/3.png"",""time"":298},{""stimulus"":""img/1to2/4.png"",""time"":398},{""stimulus"":""img/1to2/5.png"",""time"":497},{""stimulus"":""img/1to2/6.png"",""time"":595},{""stimulus"":""img/1to2/7.png"",""time"":694},{""stimulus"":""img/1to2/8.png"",""time"":793},{""stimulus"":""img/1to2/9.png"",""time"":892},{""stimulus"":""img/1to2/10.png"",""time"":992},{""stimulus"":""img/1to2/11.png"",""time"":1090},{""stimulus"":""img/1to2/12.png"",""time"":1189}]","[]"
"image-keyboard-response","90","110362","0.0-5.0-1.43","62d06d1b651d6922f62fab9b","bdp_cybrbll","Sat Mar 25 2023 21:47:07 GMT-0600 (Mountain Daylight Time)","444889","3","1","","43","","","","choice","","img/2to1/1.png","2","182","500","0.5","0.5","2","3","",""
"animation","91","111651","0.0-5.0-2.43","62d06d1b651d6922f62fab9b","bdp_cybrbll","Sat Mar 25 2023 21:47:07 GMT-0600 (Mountain Daylight Time)","444889","3","1","","","","","","","","","","182","","","","2","3","[{""stimulus"":""img/2to3/1.png"",""time"":100},{""stimulus"":""img/2to3/2.png"",""time"":199},{""stimulus"":""img/2to3/3.png"",""time"":298},{""stimulus"":""img/2to3/4.png"",""time"":398},{""stimulus"":""img/2to3/5.png"",""time"":498},{""stimulus"":""img/2to3/6.png"",""time"":596},{""stimulus"":""img/2to3/7.png"",""time"":695},{""stimulus"":""img/2to3/8.png"",""time"":794},{""stimulus"":""img/2to3/9.png"",""time"":893},{""stimulus"":""img/2to3/10.png"",""time"":992},{""stimulus"":""img/2to3/11.png"",""time"":1090},{""stimulus"":""img/2to3/12.png"",""time"":1190}]","[]"
"image-keyboard-response","92","111839","0.0-5.0-1.44","62d06d1b651d6922f62fab9b","bdp_cybrbll","Sat Mar 25 2023 21:47:07 GMT-0600 (Mountain Daylight Time)","444889","3","1","","null","","","","observe","","img/3to2/1.png","null","181","187","0.5","0.5","3","2","",""
"animation","93","113127","0.0-5.0-2.44","62d06d1b651d6922f62fab9b","bdp_cybrbll","Sat Mar 25 2023 21:47:07 GMT-0600 (Mountain Daylight Time)","444889","3","1","","","","","","","","","","181","","","","3","2","[{""stimulus"":""img/3to2/1.png"",""time"":101},{""stimulus"":""img/3to2/2.png"",""time"":204},{""stimulus"":""img/3to2/3.png"",""time"":298},{""stimulus"":""img/3to2/4.png"",""time"":397},{""stimulus"":""img/3to2/5.png"",""time"":497},{""stimulus"":""img/3to2/6.png"",""time"":596},{""stimulus"":""img/3to2/7.png"",""time"":695},{""stimulus"":""img/3to2/8.png"",""time"":794},{""stimulus"":""img/3to2/9.png"",""time"":892},{""stimulus"":""img/3to2/10.png"",""time"":992},{""stimulus"":""img/3to2/11.png"",""time"":1090},{""stimulus"":""img/3to2/12.png"",""time"":1190}]","[]"
"image-keyboard-response","94","114221","0.0-5.0-1.45","62d06d1b651d6922f62fab9b","bdp_cybrbll","Sat Mar 25 2023 21:47:07 GMT-0600 (Mountain Daylight Time)","444889","3","1","","1092","","","","choice","","img/2to1/1.png","1","180","768","0.5","0.5","2","1","",""
"animation","95","115510","0.0-5.0-2.45","62d06d1b651d6922f62fab9b","bdp_cybrbll","Sat Mar 25 2023 21:47:07 GMT-0600 (Mountain Daylight Time)","444889","3","1","","","","","","","","","","180","","","","2","1","[{""stimulus"":""img/2to1/1.png"",""time"":100},{""stimulus"":""img/2to1/2.png"",""time"":199},{""stimulus"":""img/2to1/3.png"",""time"":299},{""stimulus"":""img/2to1/4.png"",""time"":396},{""stimulus"":""img/2to1/5.png"",""time"":497},{""stimulus"":""img/2to1/6.png"",""time"":596},{""stimulus"":""img/2to1/7.png"",""time"":694},{""stimulus"":""img/2to1/8.png"",""time"":793},{""stimulus"":""img/2to1/9.png"",""time"":891},{""stimulus"":""img/2to1/10.png"",""time"":990},{""stimulus"":""img/2to1/11.png"",""time"":1091},{""stimulus"":""img/2to1/12.png"",""time"":1190}]","[]"
"image-keyboard-response","96","115867","0.0-5.0-1.46","62d06d1b651d6922f62fab9b","bdp_cybrbll","Sat Mar 25 2023 21:47:07 GMT-0600 (Mountain Daylight Time)","444889","3","1","","null","","","","observe","","img/1to3/1.png","null","179","352","0.5","0.5","1","3","",""
"animation","97","117156","0.0-5.0-2.46","62d06d1b651d6922f62fab9b","bdp_cybrbll","Sat Mar 25 2023 21:47:07 GMT-0600 (Mountain Daylight Time)","444889","3","1","","","","","","","","","","179","","","","1","3","[{""stimulus"":""img/1to3/1.png"",""time"":100},{""stimulus"":""img/1to3/2.png"",""time"":199},{""stimulus"":""img/1to3/3.png"",""time"":299},{""stimulus"":""img/1to3/4.png"",""time"":397},{""stimulus"":""img/1to3/5.png"",""time"":497},{""stimulus"":""img/1to3/6.png"",""time"":595},{""stimulus"":""img/1to3/7.png"",""time"":695},{""stimulus"":""img/1to3/8.png"",""time"":793},{""stimulus"":""img/1to3/9.png"",""time"":892},{""stimulus"":""img/1to3/10.png"",""time"":990},{""stimulus"":""img/1to3/11.png"",""time"":1090},{""stimulus"":""img/1to3/12.png"",""time"":1189}]","[]"
"image-keyboard-response","98","118101","0.0-5.0-1.47","62d06d1b651d6922f62fab9b","bdp_cybrbll","Sat Mar 25 2023 21:47:07 GMT-0600 (Mountain Daylight Time)","444889","3","1","","null","","","","observe","","img/3to2/1.png","null","178","943","0.5","0.5","3","2","",""
"animation","99","119389","0.0-5.0-2.47","62d06d1b651d6922f62fab9b","bdp_cybrbll","Sat Mar 25 2023 21:47:07 GMT-0600 (Mountain Daylight Time)","444889","3","1","","","","","","","","","","178","","","","3","2","[{""stimulus"":""img/3to2/1.png"",""time"":100},{""stimulus"":""img/3to2/2.png"",""time"":200},{""stimulus"":""img/3to2/3.png"",""time"":299},{""stimulus"":""img/3to2/4.png"",""time"":397},{""stimulus"":""img/3to2/5.png"",""time"":496},{""stimulus"":""img/3to2/6.png"",""time"":596},{""stimulus"":""img/3to2/7.png"",""time"":694},{""stimulus"":""img/3to2/8.png"",""time"":794},{""stimulus"":""img/3to2/9.png"",""time"":892},{""stimulus"":""img/3to2/10.png"",""time"":991},{""stimulus"":""img/3to2/11.png"",""time"":1090},{""stimulus"":""img/3to2/12.png"",""time"":1189}]","[]"
"image-keyboard-response","100","119404","0.0-5.0-1.48","62d06d1b651d6922f62fab9b","bdp_cybrbll","Sat Mar 25 2023 21:47:07 GMT-0600 (Mountain Daylight Time)","444889","3","1","","14","","","","choice","","img/2to1/1.png","1","177","453","0.5","0.5","2","1","",""
"animation","101","120692","0.0-5.0-2.48","62d06d1b651d6922f62fab9b","bdp_cybrbll","Sat Mar 25 2023 21:47:07 GMT-0600 (Mountain Daylight Time)","444889","3","1","","","","","","","","","","177","","","","2","1","[{""stimulus"":""img/2to1/1.png"",""time"":100},{""stimulus"":""img/2to1/2.png"",""time"":199},{""stimulus"":""img/2to1/3.png"",""time"":298},{""stimulus"":""img/2to1/4.png"",""time"":398},{""stimulus"":""img/2to1/5.png"",""time"":496},{""stimulus"":""img/2to1/6.png"",""time"":596},{""stimulus"":""img/2to1/7.png"",""time"":693},{""stimulus"":""img/2to1/8.png"",""time"":793},{""stimulus"":""img/2to1/9.png"",""time"":892},{""stimulus"":""img/2to1/10.png"",""time"":992},{""stimulus"":""img/2to1/11.png"",""time"":1089},{""stimulus"":""img/2to1/12.png"",""time"":1188}]","[]"
"image-keyboard-response","102","121615","0.0-5.0-1.49","62d06d1b651d6922f62fab9b","bdp_cybrbll","Sat Mar 25 2023 21:47:07 GMT-0600 (Mountain Daylight Time)","444889","3","1","","null","","","","observe","","img/1to3/1.png","null","176","921","0.5","0.5","1","2","",""
"animation","103","122904","0.0-5.0-2.49","62d06d1b651d6922f62fab9b","bdp_cybrbll","Sat Mar 25 2023 21:47:07 GMT-0600 (Mountain Daylight Time)","444889","3","1","","","","","","","","","","176","","","","1","2","[{""stimulus"":""img/1to2/1.png"",""time"":101},{""stimulus"":""img/1to2/2.png"",""time"":200},{""stimulus"":""img/1to2/3.png"",""time"":298},{""stimulus"":""img/1to2/4.png"",""time"":398},{""stimulus"":""img/1to2/5.png"",""time"":497},{""stimulus"":""img/1to2/6.png"",""time"":596},{""stimulus"":""img/1to2/7.png"",""time"":695},{""stimulus"":""img/1to2/8.png"",""time"":793},{""stimulus"":""img/1to2/9.png"",""time"":893},{""stimulus"":""img/1to2/10.png"",""time"":992},{""stimulus"":""img/1to2/11.png"",""time"":1091},{""stimulus"":""img/1to2/12.png"",""time"":1190}]","[]"
"image-keyboard-response","104","127945","0.0-5.0-1.50","62d06d1b651d6922f62fab9b","bdp_cybrbll","Sat Mar 25 2023 21:47:07 GMT-0600 (Mountain Daylight Time)","444889","3","1","","5040","","","","choice","","img/2to1/1.png","2","175","195","0.5","0.5","2","3","",""
"animation","105","129334","0.0-5.0-2.50","62d06d1b651d6922f62fab9b","bdp_cybrbll","Sat Mar 25 2023 21:47:07 GMT-0600 (Mountain Daylight Time)","444889","3","1","","","","","","","","","","175","","","","2","3","[{""stimulus"":""img/2to3/1.png"",""time"":101},{""stimulus"":""img/2to3/2.png"",""time"":199},{""stimulus"":""img/2to3/3.png"",""time"":299},{""stimulus"":""img/2to3/4.png"",""time"":399},{""stimulus"":""img/2to3/5.png"",""time"":498},{""stimulus"":""img/2to3/6.png"",""time"":596},{""stimulus"":""img/2to3/7.png"",""time"":695},{""stimulus"":""img/2to3/8.png"",""time"":794},{""stimulus"":""img/2to3/9.png"",""time"":892},{""stimulus"":""img/2to3/10.png"",""time"":1137},{""stimulus"":""img/2to3/11.png"",""time"":1189},{""stimulus"":""img/2to3/12.png"",""time"":1289}]","[]"
"image-keyboard-response","106","130040","0.0-5.0-1.51","62d06d1b651d6922f62fab9b","bdp_cybrbll","Sat Mar 25 2023 21:47:07 GMT-0600 (Mountain Daylight Time)","444889","3","1","","null","","","","observe","","img/3to2/1.png","null","174","704","0.5","0.5","3","1","",""
"animation","107","131328","0.0-5.0-2.51","62d06d1b651d6922f62fab9b","bdp_cybrbll","Sat Mar 25 2023 21:47:07 GMT-0600 (Mountain Daylight Time)","444889","3","1","","","","","","","","","","174","","","","3","1","[{""stimulus"":""img/3to1/1.png"",""time"":100},{""stimulus"":""img/3to1/2.png"",""time"":200},{""stimulus"":""img/3to1/3.png"",""time"":298},{""stimulus"":""img/3to1/4.png"",""time"":398},{""stimulus"":""img/3to1/5.png"",""time"":496},{""stimulus"":""img/3to1/6.png"",""time"":596},{""stimulus"":""img/3to1/7.png"",""time"":695},{""stimulus"":""img/3to1/8.png"",""time"":793},{""stimulus"":""img/3to1/9.png"",""time"":892},{""stimulus"":""img/3to1/10.png"",""time"":991},{""stimulus"":""img/3to1/11.png"",""time"":1091},{""stimulus"":""img/3to1/12.png"",""time"":1190}]","[]"
"image-keyboard-response","108","132438","0.0-5.0-1.52","62d06d1b651d6922f62fab9b","bdp_cybrbll","Sat Mar 25 2023 21:47:07 GMT-0600 (Mountain Daylight Time)","444889","3","1","","null","","","","observe","","img/1to3/1.png","null","173","1108","0.5","0.5","1","2","",""
"animation","109","133726","0.0-5.0-2.52","62d06d1b651d6922f62fab9b","bdp_cybrbll","Sat Mar 25 2023 21:47:07 GMT-0600 (Mountain Daylight Time)","444889","3","1","","","","","","","","","","173","","","","1","2","[{""stimulus"":""img/1to2/1.png"",""time"":100},{""stimulus"":""img/1to2/2.png"",""time"":199},{""stimulus"":""img/1to2/3.png"",""time"":299},{""stimulus"":""img/1to2/4.png"",""time"":397},{""stimulus"":""img/1to2/5.png"",""time"":496},{""stimulus"":""img/1to2/6.png"",""time"":595},{""stimulus"":""img/1to2/7.png"",""time"":696},{""stimulus"":""img/1to2/8.png"",""time"":793},{""stimulus"":""img/1to2/9.png"",""time"":892},{""stimulus"":""img/1to2/10.png"",""time"":991},{""stimulus"":""img/1to2/11.png"",""time"":1090},{""stimulus"":""img/1to2/12.png"",""time"":1189}]","[]"
"image-keyboard-response","110","133793","0.0-5.0-1.53","62d06d1b651d6922f62fab9b","bdp_cybrbll","Sat Mar 25 2023 21:47:07 GMT-0600 (Mountain Daylight Time)","444889","3","1","","65","","","","choice","","img/2to1/1.png","1","172","191","0.5","0.5","2","1","",""
"animation","111","135080","0.0-5.0-2.53","62d06d1b651d6922f62fab9b","bdp_cybrbll","Sat Mar 25 2023 21:47:07 GMT-0600 (Mountain Daylight Time)","444889","3","1","","","","","","","","","","172","","","","2","1","[{""stimulus"":""img/2to1/1.png"",""time"":100},{""stimulus"":""img/2to1/2.png"",""time"":199},{""stimulus"":""img/2to1/3.png"",""time"":298},{""stimulus"":""img/2to1/4.png"",""time"":397},{""stimulus"":""img/2to1/5.png"",""time"":497},{""stimulus"":""img/2to1/6.png"",""time"":595},{""stimulus"":""img/2to1/7.png"",""time"":694},{""stimulus"":""img/2to1/8.png"",""time"":794},{""stimulus"":""img/2to1/9.png"",""time"":892},{""stimulus"":""img/2to1/10.png"",""time"":991},{""stimulus"":""img/2to1/11.png"",""time"":1090},{""stimulus"":""img/2to1/12.png"",""time"":1190}]","[]"
"image-keyboard-response","112","135249","0.0-5.0-1.54","62d06d1b651d6922f62fab9b","bdp_cybrbll","Sat Mar 25 2023 21:47:07 GMT-0600 (Mountain Daylight Time)","444889","3","1","","null","","","","observe","","img/1to3/1.png","null","171","167","0.5","0.5","1","2","",""
"animation","113","136537","0.0-5.0-2.54","62d06d1b651d6922f62fab9b","bdp_cybrbll","Sat Mar 25 2023 21:47:07 GMT-0600 (Mountain Daylight Time)","444889","3","1","","","","","","","","","","171","","","","1","2","[{""stimulus"":""img/1to2/1.png"",""time"":100},{""stimulus"":""img/1to2/2.png"",""time"":199},{""stimulus"":""img/1to2/3.png"",""time"":299},{""stimulus"":""img/1to2/4.png"",""time"":406},{""stimulus"":""img/1to2/5.png"",""time"":497},{""stimulus"":""img/1to2/6.png"",""time"":595},{""stimulus"":""img/1to2/7.png"",""time"":694},{""stimulus"":""img/1to2/8.png"",""time"":793},{""stimulus"":""img/1to2/9.png"",""time"":892},{""stimulus"":""img/1to2/10.png"",""time"":992},{""stimulus"":""img/1to2/11.png"",""time"":1090},{""stimulus"":""img/1to2/12.png"",""time"":1189}]","[]"
"image-keyboard-response","114","136909","0.0-5.0-1.55","62d06d1b651d6922f62fab9b","bdp_cybrbll","Sat Mar 25 2023 21:47:07 GMT-0600 (Mountain Daylight Time)","444889","3","1","","371","","","","choice","","img/2to1/1.png","2","170","682","0.5","0.5","2","3","",""
"animation","115","138198","0.0-5.0-2.55","62d06d1b651d6922f62fab9b","bdp_cybrbll","Sat Mar 25 2023 21:47:07 GMT-0600 (Mountain Daylight Time)","444889","3","1","","","","","","","","","","170","","","","2","3","[{""stimulus"":""img/2to3/1.png"",""time"":101},{""stimulus"":""img/2to3/2.png"",""time"":200},{""stimulus"":""img/2to3/3.png"",""time"":299},{""stimulus"":""img/2to3/4.png"",""time"":397},{""stimulus"":""img/2to3/5.png"",""time"":496},{""stimulus"":""img/2to3/6.png"",""time"":596},{""stimulus"":""img/2to3/7.png"",""time"":694},{""stimulus"":""img/2to3/8.png"",""time"":793},{""stimulus"":""img/2to3/9.png"",""time"":892},{""stimulus"":""img/2to3/10.png"",""time"":991},{""stimulus"":""img/2to3/11.png"",""time"":1090},{""stimulus"":""img/2to3/12.png"",""time"":1189}]","[]"
"image-keyboard-response","116","138806","0.0-5.0-1.56","62d06d1b651d6922f62fab9b","bdp_cybrbll","Sat Mar 25 2023 21:47:07 GMT-0600 (Mountain Daylight Time)","444889","3","1","","null","","","","observe","","img/3to2/1.png","null","169","607","0.5","0.5","3","1","",""
"animation","117","140095","0.0-5.0-2.56","62d06d1b651d6922f62fab9b","bdp_cybrbll","Sat Mar 25 2023 21:47:07 GMT-0600 (Mountain Daylight Time)","444889","3","1","","","","","","","","","","169","","","","3","1","[{""stimulus"":""img/3to1/1.png"",""time"":100},{""stimulus"":""img/3to1/2.png"",""time"":200},{""stimulus"":""img/3to1/3.png"",""time"":298},{""stimulus"":""img/3to1/4.png"",""time"":397},{""stimulus"":""img/3to1/5.png"",""time"":498},{""stimulus"":""img/3to1/6.png"",""time"":596},{""stimulus"":""img/3to1/7.png"",""time"":695},{""stimulus"":""img/3to1/8.png"",""time"":794},{""stimulus"":""img/3to1/9.png"",""time"":893},{""stimulus"":""img/3to1/10.png"",""time"":991},{""stimulus"":""img/3to1/11.png"",""time"":1090},{""stimulus"":""img/3to1/12.png"",""time"":1190}]","[]"
"image-keyboard-response","118","140986","0.0-5.0-1.57","62d06d1b651d6922f62fab9b","bdp_cybrbll","Sat Mar 25 2023 21:47:07 GMT-0600 (Mountain Daylight Time)","444889","3","1","","null","","","","observe","","img/1to3/1.png","null","168","888","0.5","0.5","1","2","",""
"animation","119","142274","0.0-5.0-2.57","62d06d1b651d6922f62fab9b","bdp_cybrbll","Sat Mar 25 2023 21:47:07 GMT-0600 (Mountain Daylight Time)","444889","3","1","","","","","","","","","","168","","","","1","2","[{""stimulus"":""img/1to2/1.png"",""time"":101},{""stimulus"":""img/1to2/2.png"",""time"":200},{""stimulus"":""img/1to2/3.png"",""time"":299},{""stimulus"":""img/1to2/4.png"",""time"":398},{""stimulus"":""img/1to2/5.png"",""time"":497},{""stimulus"":""img/1to2/6.png"",""time"":596},{""stimulus"":""img/1to2/7.png"",""time"":694},{""stimulus"":""img/1to2/8.png"",""time"":794},{""stimulus"":""img/1to2/9.png"",""time"":893},{""stimulus"":""img/1to2/10.png"",""time"":992},{""stimulus"":""img/1to2/11.png"",""time"":1091},{""stimulus"":""img/1to2/12.png"",""time"":1191}]","[]"
"image-keyboard-response","120","142520","0.0-5.0-1.58","62d06d1b651d6922f62fab9b","bdp_cybrbll","Sat Mar 25 2023 21:47:07 GMT-0600 (Mountain Daylight Time)","444889","3","1","","243","","","","choice","","img/2to1/1.png","1","167","404","0.5","0.5","2","1","",""
"animation","121","143808","0.0-5.0-2.58","62d06d1b651d6922f62fab9b","bdp_cybrbll","Sat Mar 25 2023 21:47:07 GMT-0600 (Mountain Daylight Time)","444889","3","1","","","","","","","","","","167","","","","2","1","[{""stimulus"":""img/2to1/1.png"",""time"":100},{""stimulus"":""img/2to1/2.png"",""time"":199},{""stimulus"":""img/2to1/3.png"",""time"":298},{""stimulus"":""img/2to1/4.png"",""time"":397},{""stimulus"":""img/2to1/5.png"",""time"":496},{""stimulus"":""img/2to1/6.png"",""time"":596},{""stimulus"":""img/2to1/7.png"",""time"":694},{""stimulus"":""img/2to1/8.png"",""time"":793},{""stimulus"":""img/2to1/9.png"",""time"":892},{""stimulus"":""img/2to1/10.png"",""time"":992},{""stimulus"":""img/2to1/11.png"",""time"":1090},{""stimulus"":""img/2to1/12.png"",""time"":1189}]","[]"
"image-keyboard-response","122","144030","0.0-5.0-1.59","62d06d1b651d6922f62fab9b","bdp_cybrbll","Sat Mar 25 2023 21:47:07 GMT-0600 (Mountain Daylight Time)","444889","3","1","","null","","","","observe","","img/1to3/1.png","null","166","220","0.5","0.5","1","3","",""
"animation","123","145319","0.0-5.0-2.59","62d06d1b651d6922f62fab9b","bdp_cybrbll","Sat Mar 25 2023 21:47:07 GMT-0600 (Mountain Daylight Time)","444889","3","1","","","","","","","","","","166","","","","1","3","[{""stimulus"":""img/1to3/1.png"",""time"":102},{""stimulus"":""img/1to3/2.png"",""time"":199},{""stimulus"":""img/1to3/3.png"",""time"":303},{""stimulus"":""img/1to3/4.png"",""time"":397},{""stimulus"":""img/1to3/5.png"",""time"":496},{""stimulus"":""img/1to3/6.png"",""time"":596},{""stimulus"":""img/1to3/7.png"",""time"":695},{""stimulus"":""img/1to3/8.png"",""time"":793},{""stimulus"":""img/1to3/9.png"",""time"":893},{""stimulus"":""img/1to3/10.png"",""time"":992},{""stimulus"":""img/1to3/11.png"",""time"":1091},{""stimulus"":""img/1to3/12.png"",""time"":1189}]","[]"
"image-keyboard-response","124","145582","0.0-5.0-1.60","62d06d1b651d6922f62fab9b","bdp_cybrbll","Sat Mar 25 2023 21:47:07 GMT-0600 (Mountain Daylight Time)","444889","3","1","","null","","","","observe","","img/3to2/1.png","null","165","261","0.5","0.5","3","1","",""
"animation","125","146871","0.0-5.0-2.60","62d06d1b651d6922f62fab9b","bdp_cybrbll","Sat Mar 25 2023 21:47:07 GMT-0600 (Mountain Daylight Time)","444889","3","1","","","","","","","","","","165","","","","3","1","[{""stimulus"":""img/3to1/1.png"",""time"":105},{""stimulus"":""img/3to1/2.png"",""time"":200},{""stimulus"":""img/3to1/3.png"",""time"":299},{""stimulus"":""img/3to1/4.png"",""time"":398},{""stimulus"":""img/3to1/5.png"",""time"":496},{""stimulus"":""img/3to1/6.png"",""time"":595},{""stimulus"":""img/3to1/7.png"",""time"":695},{""stimulus"":""img/3to1/8.png"",""time"":794},{""stimulus"":""img/3to1/9.png"",""time"":894},{""stimulus"":""img/3to1/10.png"",""time"":992},{""stimulus"":""img/3to1/11.png"",""time"":1091},{""stimulus"":""img/3to1/12.png"",""time"":1190}]","[]"
"image-keyboard-response","126","148140","0.0-5.0-1.61","62d06d1b651d6922f62fab9b","bdp_cybrbll","Sat Mar 25 2023 21:47:07 GMT-0600 (Mountain Daylight Time)","444889","3","1","","null","","","","observe","","img/1to3/1.png","null","164","1265","0.5","0.5","1","2","",""
"animation","127","149428","0.0-5.0-2.61","62d06d1b651d6922f62fab9b","bdp_cybrbll","Sat Mar 25 2023 21:47:07 GMT-0600 (Mountain Daylight Time)","444889","3","1","","","","","","","","","","164","","","","1","2","[{""stimulus"":""img/1to2/1.png"",""time"":100},{""stimulus"":""img/1to2/2.png"",""time"":199},{""stimulus"":""img/1to2/3.png"",""time"":298},{""stimulus"":""img/1to2/4.png"",""time"":398},{""stimulus"":""img/1to2/5.png"",""time"":497},{""stimulus"":""img/1to2/6.png"",""time"":595},{""stimulus"":""img/1to2/7.png"",""time"":694},{""stimulus"":""img/1to2/8.png"",""time"":793},{""stimulus"":""img/1to2/9.png"",""time"":892},{""stimulus"":""img/1to2/10.png"",""time"":992},{""stimulus"":""img/1to2/11.png"",""time"":1090},{""stimulus"":""img/1to2/12.png"",""time"":1189}]","[]"
"image-keyboard-response","128","149801","0.0-5.0-1.62","62d06d1b651d6922f62fab9b","bdp_cybrbll","Sat Mar 25 2023 21:47:07 GMT-0600 (Mountain Daylight Time)","444889","3","1","","372","","","","choice","","img/2to1/1.png","2","163","416","0.5","0.5","2","3","",""
"animation","129","151089","0.0-5.0-2.62","62d06d1b651d6922f62fab9b","bdp_cybrbll","Sat Mar 25 2023 21:47:07 GMT-0600 (Mountain Daylight Time)","444889","3","1","","","","","","","","","","163","","","","2","3","[{""stimulus"":""img/2to3/1.png"",""time"":102},{""stimulus"":""img/2to3/2.png"",""time"":200},{""stimulus"":""img/2to3/3.png"",""time"":298},{""stimulus"":""img/2to3/4.png"",""time"":397},{""stimulus"":""img/2to3/5.png"",""time"":497},{""stimulus"":""img/2to3/6.png"",""time"":595},{""stimulus"":""img/2to3/7.png"",""time"":694},{""stimulus"":""img/2to3/8.png"",""time"":794},{""stimulus"":""img/2to3/9.png"",""time"":892},{""stimulus"":""img/2to3/10.png"",""time"":992},{""stimulus"":""img/2to3/11.png"",""time"":1090},{""stimulus"":""img/2to3/12.png"",""time"":1189}]","[]"
"image-keyboard-response","130","151421","0.0-5.0-1.63","62d06d1b651d6922f62fab9b","bdp_cybrbll","Sat Mar 25 2023 21:47:07 GMT-0600 (Mountain Daylight Time)","444889","3","1","","null","","","","observe","","img/3to2/1.png","null","162","330","0.5","0.5","3","2","",""
"animation","131","152710","0.0-5.0-2.63","62d06d1b651d6922f62fab9b","bdp_cybrbll","Sat Mar 25 2023 21:47:07 GMT-0600 (Mountain Daylight Time)","444889","3","1","","","","","","","","","","162","","","","3","2","[{""stimulus"":""img/3to2/1.png"",""time"":101},{""stimulus"":""img/3to2/2.png"",""time"":199},{""stimulus"":""img/3to2/3.png"",""time"":299},{""stimulus"":""img/3to2/4.png"",""time"":397},{""stimulus"":""img/3to2/5.png"",""time"":497},{""stimulus"":""img/3to2/6.png"",""time"":596},{""stimulus"":""img/3to2/7.png"",""time"":694},{""stimulus"":""img/3to2/8.png"",""time"":793},{""stimulus"":""img/3to2/9.png"",""time"":892},{""stimulus"":""img/3to2/10.png"",""time"":991},{""stimulus"":""img/3to2/11.png"",""time"":1091},{""stimulus"":""img/3to2/12.png"",""time"":1190}]","[]"
"image-keyboard-response","132","152783","0.0-5.0-1.64","62d06d1b651d6922f62fab9b","bdp_cybrbll","Sat Mar 25 2023 21:47:07 GMT-0600 (Mountain Daylight Time)","444889","3","1","","72","","","","choice","","img/2to1/1.png","1","161","289","0.5","0.5","2","1","",""
"animation","133","154072","0.0-5.0-2.64","62d06d1b651d6922f62fab9b","bdp_cybrbll","Sat Mar 25 2023 21:47:07 GMT-0600 (Mountain Daylight Time)","444889","3","1","","","","","","","","","","161","","","","2","1","[{""stimulus"":""img/2to1/1.png"",""time"":101},{""stimulus"":""img/2to1/2.png"",""time"":200},{""stimulus"":""img/2to1/3.png"",""time"":303},{""stimulus"":""img/2to1/4.png"",""time"":397},{""stimulus"":""img/2to1/5.png"",""time"":497},{""stimulus"":""img/2to1/6.png"",""time"":595},{""stimulus"":""img/2to1/7.png"",""time"":694},{""stimulus"":""img/2to1/8.png"",""time"":793},{""stimulus"":""img/2to1/9.png"",""time"":893},{""stimulus"":""img/2to1/10.png"",""time"":992},{""stimulus"":""img/2to1/11.png"",""time"":1090},{""stimulus"":""img/2to1/12.png"",""time"":1189}]","[]"
"image-keyboard-response","134","154946","0.0-5.0-1.65","62d06d1b651d6922f62fab9b","bdp_cybrbll","Sat Mar 25 2023 21:47:07 GMT-0600 (Mountain Daylight Time)","444889","3","1","","null","","","","observe","","img/1to3/1.png","null","160","871","0.5","0.5","1","3","",""
"animation","135","156234","0.0-5.0-2.65","62d06d1b651d6922f62fab9b","bdp_cybrbll","Sat Mar 25 2023 21:47:07 GMT-0600 (Mountain Daylight Time)","444889","3","1","","","","","","","","","","160","","","","1","3","[{""stimulus"":""img/1to3/1.png"",""time"":102},{""stimulus"":""img/1to3/2.png"",""time"":200},{""stimulus"":""img/1to3/3.png"",""time"":299},{""stimulus"":""img/1to3/4.png"",""time"":397},{""stimulus"":""img/1to3/5.png"",""time"":498},{""stimulus"":""img/1to3/6.png"",""time"":595},{""stimulus"":""img/1to3/7.png"",""time"":695},{""stimulus"":""img/1to3/8.png"",""time"":794},{""stimulus"":""img/1to3/9.png"",""time"":894},{""stimulus"":""img/1to3/10.png"",""time"":992},{""stimulus"":""img/1to3/11.png"",""time"":1091},{""stimulus"":""img/1to3/12.png"",""time"":1189}]","[]"
"image-keyboard-response","136","156977","0.0-5.0-1.66","62d06d1b651d6922f62fab9b","bdp_cybrbll","Sat Mar 25 2023 21:47:07 GMT-0600 (Mountain Daylight Time)","444889","3","1","","null","","","","observe","","img/3to2/1.png","null","159","741","0.5","0.5","3","1","",""
"animation","137","158264","0.0-5.0-2.66","62d06d1b651d6922f62fab9b","bdp_cybrbll","Sat Mar 25 2023 21:47:07 GMT-0600 (Mountain Daylight Time)","444889","3","1","","","","","","","","","","159","","","","3","1","[{""stimulus"":""img/3to1/1.png"",""time"":102},{""stimulus"":""img/3to1/2.png"",""time"":200},{""stimulus"":""img/3to1/3.png"",""time"":300},{""stimulus"":""img/3to1/4.png"",""time"":397},{""stimulus"":""img/3to1/5.png"",""time"":497},{""stimulus"":""img/3to1/6.png"",""time"":595},{""stimulus"":""img/3to1/7.png"",""time"":696},{""stimulus"":""img/3to1/8.png"",""time"":793},{""stimulus"":""img/3to1/9.png"",""time"":892},{""stimulus"":""img/3to1/10.png"",""time"":993},{""stimulus"":""img/3to1/11.png"",""time"":1092},{""stimulus"":""img/3to1/12.png"",""time"":1190}]","[]"
"image-keyboard-response","138","158997","0.0-5.0-1.67","62d06d1b651d6922f62fab9b","bdp_cybrbll","Sat Mar 25 2023 21:47:07 GMT-0600 (Mountain Daylight Time)","444889","3","1","","null","","","","observe","","img/1to3/1.png","null","158","731","0.5","0.5","1","2","",""
"animation","139","160290","0.0-5.0-2.67","62d06d1b651d6922f62fab9b","bdp_cybrbll","Sat Mar 25 2023 21:47:07 GMT-0600 (Mountain Daylight Time)","444889","3","1","","","","","","","","","","158","","","","1","2","[{""stimulus"":""img/1to2/1.png"",""time"":100},{""stimulus"":""img/1to2/2.png"",""time"":200},{""stimulus"":""img/1to2/3.png"",""time"":311},{""stimulus"":""img/1to2/4.png"",""time"":399},{""stimulus"":""img/1to2/5.png"",""time"":496},{""stimulus"":""img/1to2/6.png"",""time"":596},{""stimulus"":""img/1to2/7.png"",""time"":695},{""stimulus"":""img/1to2/8.png"",""time"":793},{""stimulus"":""img/1to2/9.png"",""time"":893},{""stimulus"":""img/1to2/10.png"",""time"":992},{""stimulus"":""img/1to2/11.png"",""time"":1091},{""stimulus"":""img/1to2/12.png"",""time"":1190}]","[]"
"image-keyboard-response","140","160781","0.0-5.0-1.68","62d06d1b651d6922f62fab9b","bdp_cybrbll","Sat Mar 25 2023 21:47:07 GMT-0600 (Mountain Daylight Time)","444889","3","1","","489","","","","choice","","img/2to1/1.png","2","157","406","0.5","0.5","2","3","",""
"animation","141","162070","0.0-5.0-2.68","62d06d1b651d6922f62fab9b","bdp_cybrbll","Sat Mar 25 2023 21:47:07 GMT-0600 (Mountain Daylight Time)","444889","3","1","","","","","","","","","","157","","","","2","3","[{""stimulus"":""img/2to3/1.png"",""time"":102},{""stimulus"":""img/2to3/2.png"",""time"":198},{""stimulus"":""img/2to3/3.png"",""time"":297},{""stimulus"":""img/2to3/4.png"",""time"":397},{""stimulus"":""img/2to3/5.png"",""time"":496},{""stimulus"":""img/2to3/6.png"",""time"":596},{""stimulus"":""img/2to3/7.png"",""time"":694},{""stimulus"":""img/2to3/8.png"",""time"":792},{""stimulus"":""img/2to3/9.png"",""time"":891},{""stimulus"":""img/2to3/10.png"",""time"":990},{""stimulus"":""img/2to3/11.png"",""time"":1089},{""stimulus"":""img/2to3/12.png"",""time"":1189}]","[]"
"image-keyboard-response","142","162298","0.0-5.0-1.69","62d06d1b651d6922f62fab9b","bdp_cybrbll","Sat Mar 25 2023 21:47:07 GMT-0600 (Mountain Daylight Time)","444889","3","1","","null","","","","observe","","img/3to2/1.png","null","156","226","0.5","0.5","3","1","",""
"animation","143","163588","0.0-5.0-2.69","62d06d1b651d6922f62fab9b","bdp_cybrbll","Sat Mar 25 2023 21:47:07 GMT-0600 (Mountain Daylight Time)","444889","3","1","","","","","","","","","","156","","","","3","1","[{""stimulus"":""img/3to1/1.png"",""time"":101},{""stimulus"":""img/3to1/2.png"",""time"":199},{""stimulus"":""img/3to1/3.png"",""time"":298},{""stimulus"":""img/3to1/4.png"",""time"":398},{""stimulus"":""img/3to1/5.png"",""time"":495},{""stimulus"":""img/3to1/6.png"",""time"":596},{""stimulus"":""img/3to1/7.png"",""time"":693},{""stimulus"":""img/3to1/8.png"",""time"":794},{""stimulus"":""img/3to1/9.png"",""time"":891},{""stimulus"":""img/3to1/10.png"",""time"":992},{""stimulus"":""img/3to1/11.png"",""time"":1091},{""stimulus"":""img/3to1/12.png"",""time"":1190}]","[]"
"image-keyboard-response","144","164065","0.0-5.0-1.70","62d06d1b651d6922f62fab9b","bdp_cybrbll","Sat Mar 25 2023 21:47:07 GMT-0600 (Mountain Daylight Time)","444889","3","1","","null","","","","observe","","img/1to3/1.png","null","155","475","0.5","0.5","1","2","",""
"animation","145","165353","0.0-5.0-2.70","62d06d1b651d6922f62fab9b","bdp_cybrbll","Sat Mar 25 2023 21:47:07 GMT-0600 (Mountain Daylight Time)","444889","3","1","","","","","","","","","","155","","","","1","2","[{""stimulus"":""img/1to2/1.png"",""time"":101},{""stimulus"":""img/1to2/2.png"",""time"":200},{""stimulus"":""img/1to2/3.png"",""time"":299},{""stimulus"":""img/1to2/4.png"",""time"":398},{""stimulus"":""img/1to2/5.png"",""time"":496},{""stimulus"":""img/1to2/6.png"",""time"":596},{""stimulus"":""img/1to2/7.png"",""time"":695},{""stimulus"":""img/1to2/8.png"",""time"":794},{""stimulus"":""img/1to2/9.png"",""time"":892},{""stimulus"":""img/1to2/10.png"",""time"":992},{""stimulus"":""img/1to2/11.png"",""time"":1091},{""stimulus"":""img/1to2/12.png"",""time"":1190}]","[]"
"image-keyboard-response","146","166060","0.0-5.0-1.71","62d06d1b651d6922f62fab9b","bdp_cybrbll","Sat Mar 25 2023 21:47:07 GMT-0600 (Mountain Daylight Time)","444889","3","1","","706","","","","choice","","img/2to1/1.png","1","154","495","0.5","0.5","2","1","",""
"animation","147","167368","0.0-5.0-2.71","62d06d1b651d6922f62fab9b","bdp_cybrbll","Sat Mar 25 2023 21:47:07 GMT-0600 (Mountain Daylight Time)","444889","3","1","","","","","","","","","","154","","","","2","1","[{""stimulus"":""img/2to1/1.png"",""time"":101},{""stimulus"":""img/2to1/2.png"",""time"":200},{""stimulus"":""img/2to1/3.png"",""time"":299},{""stimulus"":""img/2to1/4.png"",""time"":398},{""stimulus"":""img/2to1/5.png"",""time"":497},{""stimulus"":""img/2to1/6.png"",""time"":596},{""stimulus"":""img/2to1/7.png"",""time"":700},{""stimulus"":""img/2to1/8.png"",""time"":799},{""stimulus"":""img/2to1/9.png"",""time"":893},{""stimulus"":""img/2to1/10.png"",""time"":993},{""stimulus"":""img/2to1/11.png"",""time"":1092},{""stimulus"":""img/2to1/12.png"",""time"":1205}]","[]"
"image-keyboard-response","148","167653","0.0-5.0-1.72","62d06d1b651d6922f62fab9b","bdp_cybrbll","Sat Mar 25 2023 21:47:07 GMT-0600 (Mountain Daylight Time)","444889","3","1","","null","","","","observe","","img/1to3/1.png","null","153","283","0.5","0.5","1","2","",""
"animation","149","168941","0.0-5.0-2.72","62d06d1b651d6922f62fab9b","bdp_cybrbll","Sat Mar 25 2023 21:47:07 GMT-0600 (Mountain Daylight Time)","444889","3","1","","","","","","","","","","153","","","","1","2","[{""stimulus"":""img/1to2/1.png"",""time"":100},{""stimulus"":""img/1to2/2.png"",""time"":199},{""stimulus"":""img/1to2/3.png"",""time"":299},{""stimulus"":""img/1to2/4.png"",""time"":398},{""stimulus"":""img/1to2/5.png"",""time"":496},{""stimulus"":""img/1to2/6.png"",""time"":596},{""stimulus"":""img/1to2/7.png"",""time"":694},{""stimulus"":""img/1to2/8.png"",""time"":794},{""stimulus"":""img/1to2/9.png"",""time"":893},{""stimulus"":""img/1to2/10.png"",""time"":992},{""stimulus"":""img/1to2/11.png"",""time"":1091},{""stimulus"":""img/1to2/12.png"",""time"":1190}]","[]"
"image-keyboard-response","150","169189","0.0-5.0-1.73","62d06d1b651d6922f62fab9b","bdp_cybrbll","Sat Mar 25 2023 21:47:07 GMT-0600 (Mountain Daylight Time)","444889","3","1","","247","","","","choice","","img/2to1/1.png","1","152","589","0.5","0.5","2","1","",""
"animation","151","170478","0.0-5.0-2.73","62d06d1b651d6922f62fab9b","bdp_cybrbll","Sat Mar 25 2023 21:47:07 GMT-0600 (Mountain Daylight Time)","444889","3","1","","","","","","","","","","152","","","","2","1","[{""stimulus"":""img/2to1/1.png"",""time"":100},{""stimulus"":""img/2to1/2.png"",""time"":200},{""stimulus"":""img/2to1/3.png"",""time"":299},{""stimulus"":""img/2to1/4.png"",""time"":398},{""stimulus"":""img/2to1/5.png"",""time"":496},{""stimulus"":""img/2to1/6.png"",""time"":595},{""stimulus"":""img/2to1/7.png"",""time"":695},{""stimulus"":""img/2to1/8.png"",""time"":794},{""stimulus"":""img/2to1/9.png"",""time"":893},{""stimulus"":""img/2to1/10.png"",""time"":991},{""stimulus"":""img/2to1/11.png"",""time"":1090},{""stimulus"":""img/2to1/12.png"",""time"":1198}]","[]"
"image-keyboard-response","152","170624","0.0-5.0-1.74","62d06d1b651d6922f62fab9b","bdp_cybrbll","Sat Mar 25 2023 21:47:07 GMT-0600 (Mountain Daylight Time)","444889","3","1","","null","","","","observe","","img/1to3/1.png","null","151","144","0.5","0.5","1","2","",""
"animation","153","171912","0.0-5.0-2.74","62d06d1b651d6922f62fab9b","bdp_cybrbll","Sat Mar 25 2023 21:47:07 GMT-0600 (Mountain Daylight Time)","444889","3","1","","","","","","","","","","151","","","","1","2","[{""stimulus"":""img/1to2/1.png"",""time"":102},{""stimulus"":""img/1to2/2.png"",""time"":199},{""stimulus"":""img/1to2/3.png"",""time"":299},{""stimulus"":""img/1to2/4.png"",""time"":397},{""stimulus"":""img/1to2/5.png"",""time"":497},{""stimulus"":""img/1to2/6.png"",""time"":596},{""stimulus"":""img/1to2/7.png"",""time"":695},{""stimulus"":""img/1to2/8.png"",""time"":793},{""stimulus"":""img/1to2/9.png"",""time"":892},{""stimulus"":""img/1to2/10.png"",""time"":992},{""stimulus"":""img/1to2/11.png"",""time"":1090},{""stimulus"":""img/1to2/12.png"",""time"":1190}]","[]"
"image-keyboard-response","154","173449","0.0-5.0-1.75","62d06d1b651d6922f62fab9b","bdp_cybrbll","Sat Mar 25 2023 21:47:07 GMT-0600 (Mountain Daylight Time)","444889","3","1","","1536","","","","choice","","img/2to1/1.png","1","150","191","0.5","0.5","2","1","",""
"animation","155","174738","0.0-5.0-2.75","62d06d1b651d6922f62fab9b","bdp_cybrbll","Sat Mar 25 2023 21:47:07 GMT-0600 (Mountain Daylight Time)","444889","3","1","","","","","","","","","","150","","","","2","1","[{""stimulus"":""img/2to1/1.png"",""time"":101},{""stimulus"":""img/2to1/2.png"",""time"":200},{""stimulus"":""img/2to1/3.png"",""time"":298},{""stimulus"":""img/2to1/4.png"",""time"":398},{""stimulus"":""img/2to1/5.png"",""time"":497},{""stimulus"":""img/2to1/6.png"",""time"":596},{""stimulus"":""img/2to1/7.png"",""time"":695},{""stimulus"":""img/2to1/8.png"",""time"":794},{""stimulus"":""img/2to1/9.png"",""time"":893},{""stimulus"":""img/2to1/10.png"",""time"":999},{""stimulus"":""img/2to1/11.png"",""time"":1091},{""stimulus"":""img/2to1/12.png"",""time"":1189}]","[]"
"image-keyboard-response","156","176009","0.0-5.0-1.76","62d06d1b651d6922f62fab9b","bdp_cybrbll","Sat Mar 25 2023 21:47:07 GMT-0600 (Mountain Daylight Time)","444889","3","1","","null","","","","observe","","img/1to3/1.png","null","149","1268","0.5","0.1","1","3","",""
"animation","157","177296","0.0-5.0-2.76","62d06d1b651d6922f62fab9b","bdp_cybrbll","Sat Mar 25 2023 21:47:07 GMT-0600 (Mountain Daylight Time)","444889","3","1","","","","","","","","","","149","","","","1","3","[{""stimulus"":""img/1to3/1.png"",""time"":101},{""stimulus"":""img/1to3/2.png"",""time"":199},{""stimulus"":""img/1to3/3.png"",""time"":298},{""stimulus"":""img/1to3/4.png"",""time"":398},{""stimulus"":""img/1to3/5.png"",""time"":497},{""stimulus"":""img/1to3/6.png"",""time"":595},{""stimulus"":""img/1to3/7.png"",""time"":695},{""stimulus"":""img/1to3/8.png"",""time"":794},{""stimulus"":""img/1to3/9.png"",""time"":892},{""stimulus"":""img/1to3/10.png"",""time"":991},{""stimulus"":""img/1to3/11.png"",""time"":1091},{""stimulus"":""img/1to3/12.png"",""time"":1189}]","[]"
"image-keyboard-response","158","178218","0.0-5.0-1.77","62d06d1b651d6922f62fab9b","bdp_cybrbll","Sat Mar 25 2023 21:47:07 GMT-0600 (Mountain Daylight Time)","444889","3","1","","null","","","","observe","","img/3to2/1.png","null","148","919","0.5","0.1","3","2","",""
"animation","159","179507","0.0-5.0-2.77","62d06d1b651d6922f62fab9b","bdp_cybrbll","Sat Mar 25 2023 21:47:07 GMT-0600 (Mountain Daylight Time)","444889","3","1","","","","","","","","","","148","","","","3","2","[{""stimulus"":""img/3to2/1.png"",""time"":102},{""stimulus"":""img/3to2/2.png"",""time"":200},{""stimulus"":""img/3to2/3.png"",""time"":299},{""stimulus"":""img/3to2/4.png"",""time"":398},{""stimulus"":""img/3to2/5.png"",""time"":497},{""stimulus"":""img/3to2/6.png"",""time"":596},{""stimulus"":""img/3to2/7.png"",""time"":694},{""stimulus"":""img/3to2/8.png"",""time"":794},{""stimulus"":""img/3to2/9.png"",""time"":893},{""stimulus"":""img/3to2/10.png"",""time"":993},{""stimulus"":""img/3to2/11.png"",""time"":1093},{""stimulus"":""img/3to2/12.png"",""time"":1190}]","[]"
"image-keyboard-response","160","181754","0.0-5.0-1.78","62d06d1b651d6922f62fab9b","bdp_cybrbll","Sat Mar 25 2023 21:47:07 GMT-0600 (Mountain Daylight Time)","444889","3","1","","2246","","","","choice","","img/2to1/1.png","2","147","439","0.5","0.1","2","3","",""
"animation","161","183042","0.0-5.0-2.78","62d06d1b651d6922f62fab9b","bdp_cybrbll","Sat Mar 25 2023 21:47:07 GMT-0600 (Mountain Daylight Time)","444889","3","1","","","","","","","","","","147","","","","2","3","[{""stimulus"":""img/2to3/1.png"",""time"":100},{""stimulus"":""img/2to3/2.png"",""time"":199},{""stimulus"":""img/2to3/3.png"",""time"":298},{""stimulus"":""img/2to3/4.png"",""time"":398},{""stimulus"":""img/2to3/5.png"",""time"":497},{""stimulus"":""img/2to3/6.png"",""time"":595},{""stimulus"":""img/2to3/7.png"",""time"":694},{""stimulus"":""img/2to3/8.png"",""time"":793},{""stimulus"":""img/2to3/9.png"",""time"":892},{""stimulus"":""img/2to3/10.png"",""time"":991},{""stimulus"":""img/2to3/11.png"",""time"":1091},{""stimulus"":""img/2to3/12.png"",""time"":1189}]","[]"
"image-keyboard-response","162","183333","0.0-5.0-1.79","62d06d1b651d6922f62fab9b","bdp_cybrbll","Sat Mar 25 2023 21:47:07 GMT-0600 (Mountain Daylight Time)","444889","3","1","","null","","","","observe","","img/3to2/1.png","null","146","290","0.5","0.1","3","1","",""
"animation","163","184621","0.0-5.0-2.79","62d06d1b651d6922f62fab9b","bdp_cybrbll","Sat Mar 25 2023 21:47:07 GMT-0600 (Mountain Daylight Time)","444889","3","1","","","","","","","","","","146","","","","3","1","[{""stimulus"":""img/3to1/1.png"",""time"":100},{""stimulus"":""img/3to1/2.png"",""time"":199},{""stimulus"":""img/3to1/3.png"",""time"":298},{""stimulus"":""img/3to1/4.png"",""time"":397},{""stimulus"":""img/3to1/5.png"",""time"":497},{""stimulus"":""img/3to1/6.png"",""time"":596},{""stimulus"":""img/3to1/7.png"",""time"":693},{""stimulus"":""img/3to1/8.png"",""time"":793},{""stimulus"":""img/3to1/9.png"",""time"":892},{""stimulus"":""img/3to1/10.png"",""time"":992},{""stimulus"":""img/3to1/11.png"",""time"":1090},{""stimulus"":""img/3to1/12.png"",""time"":1190}]","[]"
"image-keyboard-response","164","185303","0.0-5.0-1.80","62d06d1b651d6922f62fab9b","bdp_cybrbll","Sat Mar 25 2023 21:47:07 GMT-0600 (Mountain Daylight Time)","444889","3","1","","null","","","","observe","","img/1to3/1.png","null","145","680","0.5","0.1","1","2","",""
"animation","165","186591","0.0-5.0-2.80","62d06d1b651d6922f62fab9b","bdp_cybrbll","Sat Mar 25 2023 21:47:07 GMT-0600 (Mountain Daylight Time)","444889","3","1","","","","","","","","","","145","","","","1","2","[{""stimulus"":""img/1to2/1.png"",""time"":100},{""stimulus"":""img/1to2/2.png"",""time"":200},{""stimulus"":""img/1to2/3.png"",""time"":298},{""stimulus"":""img/1to2/4.png"",""time"":397},{""stimulus"":""img/1to2/5.png"",""time"":497},{""stimulus"":""img/1to2/6.png"",""time"":595},{""stimulus"":""img/1to2/7.png"",""time"":694},{""stimulus"":""img/1to2/8.png"",""time"":794},{""stimulus"":""img/1to2/9.png"",""time"":893},{""stimulus"":""img/1to2/10.png"",""time"":991},{""stimulus"":""img/1to2/11.png"",""time"":1090},{""stimulus"":""img/1to2/12.png"",""time"":1189}]","[]"
"image-keyboard-response","166","187168","0.0-5.0-1.81","62d06d1b651d6922f62fab9b","bdp_cybrbll","Sat Mar 25 2023 21:47:07 GMT-0600 (Mountain Daylight Time)","444889","3","1","","576","","","","choice","","img/2to1/1.png","1","144","539","0.5","0.1","2","1","",""
"animation","167","188456","0.0-5.0-2.81","62d06d1b651d6922f62fab9b","bdp_cybrbll","Sat Mar 25 2023 21:47:07 GMT-0600 (Mountain Daylight Time)","444889","3","1","","","","","","","","","","144","","","","2","1","[{""stimulus"":""img/2to1/1.png"",""time"":100},{""stimulus"":""img/2to1/2.png"",""time"":200},{""stimulus"":""img/2to1/3.png"",""time"":298},{""stimulus"":""img/2to1/4.png"",""time"":398},{""stimulus"":""img/2to1/5.png"",""time"":497},{""stimulus"":""img/2to1/6.png"",""time"":599},{""stimulus"":""img/2to1/7.png"",""time"":694},{""stimulus"":""img/2to1/8.png"",""time"":794},{""stimulus"":""img/2to1/9.png"",""time"":893},{""stimulus"":""img/2to1/10.png"",""time"":992},{""stimulus"":""img/2to1/11.png"",""time"":1091},{""stimulus"":""img/2to1/12.png"",""time"":1189}]","[]"
"image-keyboard-response","168","189721","0.0-5.0-1.82","62d06d1b651d6922f62fab9b","bdp_cybrbll","Sat Mar 25 2023 21:47:07 GMT-0600 (Mountain Daylight Time)","444889","3","1","","null","","","","observe","","img/1to3/1.png","null","143","1262","0.5","0.1","1","3","",""
"animation","169","191010","0.0-5.0-2.82","62d06d1b651d6922f62fab9b","bdp_cybrbll","Sat Mar 25 2023 21:47:07 GMT-0600 (Mountain Daylight Time)","444889","3","1","","","","","","","","","","143","","","","1","3","[{""stimulus"":""img/1to3/1.png"",""time"":101},{""stimulus"":""img/1to3/2.png"",""time"":199},{""stimulus"":""img/1to3/3.png"",""time"":298},{""stimulus"":""img/1to3/4.png"",""time"":397},{""stimulus"":""img/1to3/5.png"",""time"":496},{""stimulus"":""img/1to3/6.png"",""time"":594},{""stimulus"":""img/1to3/7.png"",""time"":694},{""stimulus"":""img/1to3/8.png"",""time"":794},{""stimulus"":""img/1to3/9.png"",""time"":892},{""stimulus"":""img/1to3/10.png"",""time"":991},{""stimulus"":""img/1to3/11.png"",""time"":1091},{""stimulus"":""img/1to3/12.png"",""time"":1190}]","[]"
"image-keyboard-response","170","191444","0.0-5.0-1.83","62d06d1b651d6922f62fab9b","bdp_cybrbll","Sat Mar 25 2023 21:47:07 GMT-0600 (Mountain Daylight Time)","444889","3","1","","null","","","","observe","","img/3to2/1.png","null","142","433","0.5","0.1","3","2","",""
"animation","171","192733","0.0-5.0-2.83","62d06d1b651d6922f62fab9b","bdp_cybrbll","Sat Mar 25 2023 21:47:07 GMT-0600 (Mountain Daylight Time)","444889","3","1","","","","","","","","","","142","","","","3","2","[{""stimulus"":""img/3to2/1.png"",""time"":100},{""stimulus"":""img/3to2/2.png"",""time"":201},{""stimulus"":""img/3to2/3.png"",""time"":299},{""stimulus"":""img/3to2/4.png"",""time"":397},{""stimulus"":""img/3to2/5.png"",""time"":497},{""stimulus"":""img/3to2/6.png"",""time"":596},{""stimulus"":""img/3to2/7.png"",""time"":697},{""stimulus"":""img/3to2/8.png"",""time"":794},{""stimulus"":""img/3to2/9.png"",""time"":893},{""stimulus"":""img/3to2/10.png"",""time"":991},{""stimulus"":""img/3to2/11.png"",""time"":1090},{""stimulus"":""img/3to2/12.png"",""time"":1190}]","[]"
"image-keyboard-response","172","192812","0.0-5.0-1.84","62d06d1b651d6922f62fab9b","bdp_cybrbll","Sat Mar 25 2023 21:47:07 GMT-0600 (Mountain Daylight Time)","444889","3","1","","78","","","","choice","","img/2to1/1.png","1","141","372","0.5","0.1","2","1","",""
"animation","173","194100","0.0-5.0-2.84","62d06d1b651d6922f62fab9b","bdp_cybrbll","Sat Mar 25 2023 21:47:07 GMT-0600 (Mountain Daylight Time)","444889","3","1","","","","","","","","","","141","","","","2","1","[{""stimulus"":""img/2to1/1.png"",""time"":101},{""stimulus"":""img/2to1/2.png"",""time"":200},{""stimulus"":""img/2to1/3.png"",""time"":299},{""stimulus"":""img/2to1/4.png"",""time"":397},{""stimulus"":""img/2to1/5.png"",""time"":495},{""stimulus"":""img/2to1/6.png"",""time"":595},{""stimulus"":""img/2to1/7.png"",""time"":694},{""stimulus"":""img/2to1/8.png"",""time"":793},{""stimulus"":""img/2to1/9.png"",""time"":893},{""stimulus"":""img/2to1/10.png"",""time"":991},{""stimulus"":""img/2to1/11.png"",""time"":1090},{""stimulus"":""img/2to1/12.png"",""time"":1190}]","[]"
"image-keyboard-response","174","194587","0.0-5.0-1.85","62d06d1b651d6922f62fab9b","bdp_cybrbll","Sat Mar 25 2023 21:47:07 GMT-0600 (Mountain Daylight Time)","444889","3","1","","null","","","","observe","","img/1to3/1.png","null","140","484","0.5","0.1","1","2","",""
"animation","175","195875","0.0-5.0-2.85","62d06d1b651d6922f62fab9b","bdp_cybrbll","Sat Mar 25 2023 21:47:07 GMT-0600 (Mountain Daylight Time)","444889","3","1","","","","","","","","","","140","","","","1","2","[{""stimulus"":""img/1to2/1.png"",""time"":100},{""stimulus"":""img/1to2/2.png"",""time"":198},{""stimulus"":""img/1to2/3.png"",""time"":298},{""stimulus"":""img/1to2/4.png"",""time"":397},{""stimulus"":""img/1to2/5.png"",""time"":496},{""stimulus"":""img/1to2/6.png"",""time"":595},{""stimulus"":""img/1to2/7.png"",""time"":695},{""stimulus"":""img/1to2/8.png"",""time"":792},{""stimulus"":""img/1to2/9.png"",""time"":892},{""stimulus"":""img/1to2/10.png"",""time"":992},{""stimulus"":""img/1to2/11.png"",""time"":1090},{""stimulus"":""img/1to2/12.png"",""time"":1188}]","[]"
"image-keyboard-response","176","196089","0.0-5.0-1.86","62d06d1b651d6922f62fab9b","bdp_cybrbll","Sat Mar 25 2023 21:47:07 GMT-0600 (Mountain Daylight Time)","444889","3","1","","213","","","","choice","","img/2to1/1.png","2","139","494","0.5","0.1","2","3","",""
"animation","177","197378","0.0-5.0-2.86","62d06d1b651d6922f62fab9b","bdp_cybrbll","Sat Mar 25 2023 21:47:07 GMT-0600 (Mountain Daylight Time)","444889","3","1","","","","","","","","","","139","","","","2","3","[{""stimulus"":""img/2to3/1.png"",""time"":100},{""stimulus"":""img/2to3/2.png"",""time"":200},{""stimulus"":""img/2to3/3.png"",""time"":298},{""stimulus"":""img/2to3/4.png"",""time"":398},{""stimulus"":""img/2to3/5.png"",""time"":497},{""stimulus"":""img/2to3/6.png"",""time"":595},{""stimulus"":""img/2to3/7.png"",""time"":694},{""stimulus"":""img/2to3/8.png"",""time"":793},{""stimulus"":""img/2to3/9.png"",""time"":892},{""stimulus"":""img/2to3/10.png"",""time"":991},{""stimulus"":""img/2to3/11.png"",""time"":1105},{""stimulus"":""img/2to3/12.png"",""time"":1190}]","[]"
"image-keyboard-response","178","197713","0.0-5.0-1.87","62d06d1b651d6922f62fab9b","bdp_cybrbll","Sat Mar 25 2023 21:47:07 GMT-0600 (Mountain Daylight Time)","444889","3","1","","null","","","","observe","","img/3to2/1.png","null","138","332","0.5","0.1","3","2","",""
"animation","179","199001","0.0-5.0-2.87","62d06d1b651d6922f62fab9b","bdp_cybrbll","Sat Mar 25 2023 21:47:07 GMT-0600 (Mountain Daylight Time)","444889","3","1","","","","","","","","","","138","","","","3","2","[{""stimulus"":""img/3to2/1.png"",""time"":101},{""stimulus"":""img/3to2/2.png"",""time"":200},{""stimulus"":""img/3to2/3.png"",""time"":298},{""stimulus"":""img/3to2/4.png"",""time"":397},{""stimulus"":""img/3to2/5.png"",""time"":497},{""stimulus"":""img/3to2/6.png"",""time"":596},{""stimulus"":""img/3to2/7.png"",""time"":695},{""stimulus"":""img/3to2/8.png"",""time"":794},{""stimulus"":""img/3to2/9.png"",""time"":892},{""stimulus"":""img/3to2/10.png"",""time"":991},{""stimulus"":""img/3to2/11.png"",""time"":1091},{""stimulus"":""img/3to2/12.png"",""time"":1190}]","[]"
"image-keyboard-response","180","199413","0.0-5.0-1.88","62d06d1b651d6922f62fab9b","bdp_cybrbll","Sat Mar 25 2023 21:47:07 GMT-0600 (Mountain Daylight Time)","444889","3","1","","410","","","","choice","","img/2to1/1.png","1","137","909","0.5","0.1","2","1","",""
"animation","181","200701","0.0-5.0-2.88","62d06d1b651d6922f62fab9b","bdp_cybrbll","Sat Mar 25 2023 21:47:07 GMT-0600 (Mountain Daylight Time)","444889","3","1","","","","","","","","","","137","","","","2","1","[{""stimulus"":""img/2to1/1.png"",""time"":101},{""stimulus"":""img/2to1/2.png"",""time"":199},{""stimulus"":""img/2to1/3.png"",""time"":298},{""stimulus"":""img/2to1/4.png"",""time"":398},{""stimulus"":""img/2to1/5.png"",""time"":496},{""stimulus"":""img/2to1/6.png"",""time"":596},{""stimulus"":""img/2to1/7.png"",""time"":694},{""stimulus"":""img/2to1/8.png"",""time"":793},{""stimulus"":""img/2to1/9.png"",""time"":893},{""stimulus"":""img/2to1/10.png"",""time"":991},{""stimulus"":""img/2to1/11.png"",""time"":1091},{""stimulus"":""img/2to1/12.png"",""time"":1189}]","[]"
"image-keyboard-response","182","201343","0.0-5.0-1.89","62d06d1b651d6922f62fab9b","bdp_cybrbll","Sat Mar 25 2023 21:47:07 GMT-0600 (Mountain Daylight Time)","444889","3","1","","null","","","","observe","","img/1to3/1.png","null","136","641","0.5","0.1","1","3","",""
"animation","183","202632","0.0-5.0-2.89","62d06d1b651d6922f62fab9b","bdp_cybrbll","Sat Mar 25 2023 21:47:07 GMT-0600 (Mountain Daylight Time)","444889","3","1","","","","","","","","","","136","","","","1","3","[{""stimulus"":""img/1to3/1.png"",""time"":102},{""stimulus"":""img/1to3/2.png"",""time"":199},{""stimulus"":""img/1to3/3.png"",""time"":298},{""stimulus"":""img/1to3/4.png"",""time"":397},{""stimulus"":""img/1to3/5.png"",""time"":497},{""stimulus"":""img/1to3/6.png"",""time"":595},{""stimulus"":""img/1to3/7.png"",""time"":694},{""stimulus"":""img/1to3/8.png"",""time"":795},{""stimulus"":""img/1to3/9.png"",""time"":894},{""stimulus"":""img/1to3/10.png"",""time"":991},{""stimulus"":""img/1to3/11.png"",""time"":1091},{""stimulus"":""img/1to3/12.png"",""time"":1189}]","[]"
"image-keyboard-response","184","203048","0.0-5.0-1.90","62d06d1b651d6922f62fab9b","bdp_cybrbll","Sat Mar 25 2023 21:47:07 GMT-0600 (Mountain Daylight Time)","444889","3","1","","null","","","","observe","","img/3to2/1.png","null","135","413","0.5","0.1","3","2","",""
"animation","185","204335","0.0-5.0-2.90","62d06d1b651d6922f62fab9b","bdp_cybrbll","Sat Mar 25 2023 21:47:07 GMT-0600 (Mountain Daylight Time)","444889","3","1","","","","","","","","","","135","","","","3","2","[{""stimulus"":""img/3to2/1.png"",""time"":100},{""stimulus"":""img/3to2/2.png"",""time"":199},{""stimulus"":""img/3to2/3.png"",""time"":300},{""stimulus"":""img/3to2/4.png"",""time"":397},{""stimulus"":""img/3to2/5.png"",""time"":497},{""stimulus"":""img/3to2/6.png"",""time"":596},{""stimulus"":""img/3to2/7.png"",""time"":694},{""stimulus"":""img/3to2/8.png"",""time"":794},{""stimulus"":""img/3to2/9.png"",""time"":893},{""stimulus"":""img/3to2/10.png"",""time"":992},{""stimulus"":""img/3to2/11.png"",""time"":1090},{""stimulus"":""img/3to2/12.png"",""time"":1189}]","[]"
"image-keyboard-response","186","204381","0.0-5.0-1.91","62d06d1b651d6922f62fab9b","bdp_cybrbll","Sat Mar 25 2023 21:47:07 GMT-0600 (Mountain Daylight Time)","444889","3","1","","44","","","","choice","","img/2to1/1.png","2","134","539","0.5","0.1","2","3","",""
"animation","187","205670","0.0-5.0-2.91","62d06d1b651d6922f62fab9b","bdp_cybrbll","Sat Mar 25 2023 21:47:07 GMT-0600 (Mountain Daylight Time)","444889","3","1","","","","","","","","","","134","","","","2","3","[{""stimulus"":""img/2to3/1.png"",""time"":101},{""stimulus"":""img/2to3/2.png"",""time"":200},{""stimulus"":""img/2to3/3.png"",""time"":299},{""stimulus"":""img/2to3/4.png"",""time"":398},{""stimulus"":""img/2to3/5.png"",""time"":499},{""stimulus"":""img/2to3/6.png"",""time"":595},{""stimulus"":""img/2to3/7.png"",""time"":695},{""stimulus"":""img/2to3/8.png"",""time"":793},{""stimulus"":""img/2to3/9.png"",""time"":906},{""stimulus"":""img/2to3/10.png"",""time"":992},{""stimulus"":""img/2to3/11.png"",""time"":1092},{""stimulus"":""img/2to3/12.png"",""time"":1190}]","[]"
"image-keyboard-response","188","205896","0.0-5.0-1.92","62d06d1b651d6922f62fab9b","bdp_cybrbll","Sat Mar 25 2023 21:47:07 GMT-0600 (Mountain Daylight Time)","444889","3","1","","null","","","","observe","","img/3to2/1.png","null","133","224","0.5","0.1","3","1","",""
"animation","189","207184","0.0-5.0-2.92","62d06d1b651d6922f62fab9b","bdp_cybrbll","Sat Mar 25 2023 21:47:07 GMT-0600 (Mountain Daylight Time)","444889","3","1","","","","","","","","","","133","","","","3","1","[{""stimulus"":""img/3to1/1.png"",""time"":101},{""stimulus"":""img/3to1/2.png"",""time"":200},{""stimulus"":""img/3to1/3.png"",""time"":299},{""stimulus"":""img/3to1/4.png"",""time"":397},{""stimulus"":""img/3to1/5.png"",""time"":497},{""stimulus"":""img/3to1/6.png"",""time"":596},{""stimulus"":""img/3to1/7.png"",""time"":694},{""stimulus"":""img/3to1/8.png"",""time"":795},{""stimulus"":""img/3to1/9.png"",""time"":893},{""stimulus"":""img/3to1/10.png"",""time"":992},{""stimulus"":""img/3to1/11.png"",""time"":1091},{""stimulus"":""img/3to1/12.png"",""time"":1189}]","[]"
"image-keyboard-response","190","208435","0.0-5.0-1.93","62d06d1b651d6922f62fab9b","bdp_cybrbll","Sat Mar 25 2023 21:47:07 GMT-0600 (Mountain Daylight Time)","444889","3","1","","null","","","","observe","","img/1to3/1.png","null","132","1249","0.5","0.1","1","3","",""
