"trial_type","trial_index","time_elapsed","internal_node_id","subject_id","task","startTime","totalTime","fairPartner","unfairPartner","view_history","rt","event","trial","time","trialtype","success","stimulus","key_press","throwsLeft","rtDur","pFair","pUnfair","holder","receiver","animation_sequence","responses"
"pavlovia","0","8","0.0-0.0","6400d9235287137e7b62fd29","bdp_cybrbll","Sun Apr 09 2023 16:32:36 GMT-0700 (Pacific Daylight Time)","408696","1","3","","","","","","","","","","","","","","","","",""
"instructions","1","4488","0.0-1.0","6400d9235287137e7b62fd29","bdp_cybrbll","Sun Apr 09 2023 16:32:36 GMT-0700 (Pacific Daylight Time)","408696","1","3","[{""page_index"":0,""viewing_time"":4478}]","4479","","","","","","","","","","","","","","",""
"","","","","6400d9235287137e7b62fd29","bdp_cybrbll","Sun Apr 09 2023 16:32:36 GMT-0700 (Pacific Daylight Time)","408696","1","3","","","fullscreenenter","2","5579","fullscreenenter","","","","","","","","","","",""
"fullscreen","2","6535","0.0-2.0","6400d9235287137e7b62fd29","bdp_cybrbll","Sun Apr 09 2023 16:32:36 GMT-0700 (Pacific Daylight Time)","408696","1","3","","","","","","","true","","","","","","","","","",""
"instructions","3","18107","0.0-4.0","6400d9235287137e7b62fd29","bdp_cybrbll","Sun Apr 09 2023 16:32:36 GMT-0700 (Pacific Daylight Time)","408696","1","3","[{""page_index"":0,""viewing_time"":11569}]","11570","","","","","","","","","","","","","","",""
"image-keyboard-response","4","19429","0.0-5.0-1.0","6400d9235287137e7b62fd29","bdp_cybrbll","Sun Apr 09 2023 16:32:36 GMT-0700 (Pacific Daylight Time)","408696","1","3","","1319","","","","choice","","img/2to1/1.png","1","225","281","0.5","0.5","2","1","",""
"animation","5","20726","0.0-5.0-2.0","6400d9235287137e7b62fd29","bdp_cybrbll","Sun Apr 09 2023 16:32:36 GMT-0700 (Pacific Daylight Time)","408696","1","3","","","","","","","","","","225","","","","2","1","[{""stimulus"":""img/2to1/1.png"",""time"":106},{""stimulus"":""img/2to1/2.png"",""time"":200},{""stimulus"":""img/2to1/3.png"",""time"":300},{""stimulus"":""img/2to1/4.png"",""time"":402},{""stimulus"":""img/2to1/5.png"",""time"":503},{""stimulus"":""img/2to1/6.png"",""time"":603},{""stimulus"":""img/2to1/7.png"",""time"":704},{""stimulus"":""img/2to1/8.png"",""time"":794},{""stimulus"":""img/2to1/9.png"",""time"":896},{""stimulus"":""img/2to1/10.png"",""time"":996},{""stimulus"":""img/2to1/11.png"",""time"":1099},{""stimulus"":""img/2to1/12.png"",""time"":1191}]","[]"
"image-keyboard-response","6","20919","0.0-5.0-1.1","6400d9235287137e7b62fd29","bdp_cybrbll","Sun Apr 09 2023 16:32:36 GMT-0700 (Pacific Daylight Time)","408696","1","3","","null","","","","observe","","img/1to3/1.png","null","224","189","0.5","0.5","1","2","",""
"animation","7","22215","0.0-5.0-2.1","6400d9235287137e7b62fd29","bdp_cybrbll","Sun Apr 09 2023 16:32:36 GMT-0700 (Pacific Daylight Time)","408696","1","3","","","","","","","","","","224","","","","1","2","[{""stimulus"":""img/1to2/1.png"",""time"":105},{""stimulus"":""img/1to2/2.png"",""time"":208},{""stimulus"":""img/1to2/3.png"",""time"":301},{""stimulus"":""img/1to2/4.png"",""time"":401},{""stimulus"":""img/1to2/5.png"",""time"":501},{""stimulus"":""img/1to2/6.png"",""time"":602},{""stimulus"":""img/1to2/7.png"",""time"":694},{""stimulus"":""img/1to2/8.png"",""time"":795},{""stimulus"":""img/1to2/9.png"",""time"":897},{""stimulus"":""img/1to2/10.png"",""time"":992},{""stimulus"":""img/1to2/11.png"",""time"":1094},{""stimulus"":""img/1to2/12.png"",""time"":1195}]","[]"
"image-keyboard-response","8","22241","0.0-5.0-1.2","6400d9235287137e7b62fd29","bdp_cybrbll","Sun Apr 09 2023 16:32:36 GMT-0700 (Pacific Daylight Time)","408696","1","3","","24","","","","choice","","img/2to1/1.png","2","223","317","0.5","0.5","2","3","",""
"animation","9","23537","0.0-5.0-2.2","6400d9235287137e7b62fd29","bdp_cybrbll","Sun Apr 09 2023 16:32:36 GMT-0700 (Pacific Daylight Time)","408696","1","3","","","","","","","","","","223","","","","2","3","[{""stimulus"":""img/2to3/1.png"",""time"":102},{""stimulus"":""img/2to3/2.png"",""time"":203},{""stimulus"":""img/2to3/3.png"",""time"":301},{""stimulus"":""img/2to3/4.png"",""time"":399},{""stimulus"":""img/2to3/5.png"",""time"":500},{""stimulus"":""img/2to3/6.png"",""time"":599},{""stimulus"":""img/2to3/7.png"",""time"":700},{""stimulus"":""img/2to3/8.png"",""time"":800},{""stimulus"":""img/2to3/9.png"",""time"":893},{""stimulus"":""img/2to3/10.png"",""time"":999},{""stimulus"":""img/2to3/11.png"",""time"":1105},{""stimulus"":""img/2to3/12.png"",""time"":1190}]","[]"
"image-keyboard-response","10","23831","0.0-5.0-1.3","6400d9235287137e7b62fd29","bdp_cybrbll","Sun Apr 09 2023 16:32:36 GMT-0700 (Pacific Daylight Time)","408696","1","3","","null","","","","observe","","img/3to2/1.png","null","222","284","0.5","0.5","3","1","",""
"animation","11","25123","0.0-5.0-2.3","6400d9235287137e7b62fd29","bdp_cybrbll","Sun Apr 09 2023 16:32:36 GMT-0700 (Pacific Daylight Time)","408696","1","3","","","","","","","","","","222","","","","3","1","[{""stimulus"":""img/3to1/1.png"",""time"":100},{""stimulus"":""img/3to1/2.png"",""time"":199},{""stimulus"":""img/3to1/3.png"",""time"":299},{""stimulus"":""img/3to1/4.png"",""time"":404},{""stimulus"":""img/3to1/5.png"",""time"":497},{""stimulus"":""img/3to1/6.png"",""time"":599},{""stimulus"":""img/3to1/7.png"",""time"":701},{""stimulus"":""img/3to1/8.png"",""time"":794},{""stimulus"":""img/3to1/9.png"",""time"":895},{""stimulus"":""img/3to1/10.png"",""time"":998},{""stimulus"":""img/3to1/11.png"",""time"":1097},{""stimulus"":""img/3to1/12.png"",""time"":1189}]","[]"
"image-keyboard-response","12","25594","0.0-5.0-1.4","6400d9235287137e7b62fd29","bdp_cybrbll","Sun Apr 09 2023 16:32:36 GMT-0700 (Pacific Daylight Time)","408696","1","3","","null","","","","observe","","img/1to3/1.png","null","221","457","0.5","0.5","1","3","",""
"animation","13","26882","0.0-5.0-2.4","6400d9235287137e7b62fd29","bdp_cybrbll","Sun Apr 09 2023 16:32:36 GMT-0700 (Pacific Daylight Time)","408696","1","3","","","","","","","","","","221","","","","1","3","[{""stimulus"":""img/1to3/1.png"",""time"":108},{""stimulus"":""img/1to3/2.png"",""time"":201},{""stimulus"":""img/1to3/3.png"",""time"":304},{""stimulus"":""img/1to3/4.png"",""time"":397},{""stimulus"":""img/1to3/5.png"",""time"":499},{""stimulus"":""img/1to3/6.png"",""time"":602},{""stimulus"":""img/1to3/7.png"",""time"":695},{""stimulus"":""img/1to3/8.png"",""time"":797},{""stimulus"":""img/1to3/9.png"",""time"":897},{""stimulus"":""img/1to3/10.png"",""time"":999},{""stimulus"":""img/1to3/11.png"",""time"":1097},{""stimulus"":""img/1to3/12.png"",""time"":1197}]","[]"
"image-keyboard-response","14","27152","0.0-5.0-1.5","6400d9235287137e7b62fd29","bdp_cybrbll","Sun Apr 09 2023 16:32:36 GMT-0700 (Pacific Daylight Time)","408696","1","3","","null","","","","observe","","img/3to2/1.png","null","220","263","0.5","0.5","3","1","",""
"animation","15","28453","0.0-5.0-2.5","6400d9235287137e7b62fd29","bdp_cybrbll","Sun Apr 09 2023 16:32:36 GMT-0700 (Pacific Daylight Time)","408696","1","3","","","","","","","","","","220","","","","3","1","[{""stimulus"":""img/3to1/1.png"",""time"":106},{""stimulus"":""img/3to1/2.png"",""time"":201},{""stimulus"":""img/3to1/3.png"",""time"":299},{""stimulus"":""img/3to1/4.png"",""time"":403},{""stimulus"":""img/3to1/5.png"",""time"":497},{""stimulus"":""img/3to1/6.png"",""time"":598},{""stimulus"":""img/3to1/7.png"",""time"":701},{""stimulus"":""img/3to1/8.png"",""time"":795},{""stimulus"":""img/3to1/9.png"",""time"":893},{""stimulus"":""img/3to1/10.png"",""time"":993},{""stimulus"":""img/3to1/11.png"",""time"":1097},{""stimulus"":""img/3to1/12.png"",""time"":1189}]","[]"
"image-keyboard-response","16","28682","0.0-5.0-1.6","6400d9235287137e7b62fd29","bdp_cybrbll","Sun Apr 09 2023 16:32:36 GMT-0700 (Pacific Daylight Time)","408696","1","3","","null","","","","observe","","img/1to3/1.png","null","219","226","0.5","0.5","1","3","",""
"animation","17","29977","0.0-5.0-2.6","6400d9235287137e7b62fd29","bdp_cybrbll","Sun Apr 09 2023 16:32:36 GMT-0700 (Pacific Daylight Time)","408696","1","3","","","","","","","","","","219","","","","1","3","[{""stimulus"":""img/1to3/1.png"",""time"":104},{""stimulus"":""img/1to3/2.png"",""time"":207},{""stimulus"":""img/1to3/3.png"",""time"":300},{""stimulus"":""img/1to3/4.png"",""time"":400},{""stimulus"":""img/1to3/5.png"",""time"":501},{""stimulus"":""img/1to3/6.png"",""time"":602},{""stimulus"":""img/1to3/7.png"",""time"":696},{""stimulus"":""img/1to3/8.png"",""time"":800},{""stimulus"":""img/1to3/9.png"",""time"":893},{""stimulus"":""img/1to3/10.png"",""time"":996},{""stimulus"":""img/1to3/11.png"",""time"":1092},{""stimulus"":""img/1to3/12.png"",""time"":1194}]","[]"
"image-keyboard-response","18","31236","0.0-5.0-1.7","6400d9235287137e7b62fd29","bdp_cybrbll","Sun Apr 09 2023 16:32:36 GMT-0700 (Pacific Daylight Time)","408696","1","3","","null","","","","observe","","img/3to2/1.png","null","218","1257","0.5","0.5","3","2","",""
"animation","19","32526","0.0-5.0-2.7","6400d9235287137e7b62fd29","bdp_cybrbll","Sun Apr 09 2023 16:32:36 GMT-0700 (Pacific Daylight Time)","408696","1","3","","","","","","","","","","218","","","","3","2","[{""stimulus"":""img/3to2/1.png"",""time"":105},{""stimulus"":""img/3to2/2.png"",""time"":205},{""stimulus"":""img/3to2/3.png"",""time"":300},{""stimulus"":""img/3to2/4.png"",""time"":399},{""stimulus"":""img/3to2/5.png"",""time"":501},{""stimulus"":""img/3to2/6.png"",""time"":596},{""stimulus"":""img/3to2/7.png"",""time"":700},{""stimulus"":""img/3to2/8.png"",""time"":800},{""stimulus"":""img/3to2/9.png"",""time"":892},{""stimulus"":""img/3to2/10.png"",""time"":994},{""stimulus"":""img/3to2/11.png"",""time"":1095},{""stimulus"":""img/3to2/12.png"",""time"":1190}]","[]"
"image-keyboard-response","20","32553","0.0-5.0-1.8","6400d9235287137e7b62fd29","bdp_cybrbll","Sun Apr 09 2023 16:32:36 GMT-0700 (Pacific Daylight Time)","408696","1","3","","25","","","","choice","","img/2to1/1.png","1","217","395","0.5","0.5","2","1","",""
"animation","21","33846","0.0-5.0-2.8","6400d9235287137e7b62fd29","bdp_cybrbll","Sun Apr 09 2023 16:32:36 GMT-0700 (Pacific Daylight Time)","408696","1","3","","","","","","","","","","217","","","","2","1","[{""stimulus"":""img/2to1/1.png"",""time"":104},{""stimulus"":""img/2to1/2.png"",""time"":205},{""stimulus"":""img/2to1/3.png"",""time"":306},{""stimulus"":""img/2to1/4.png"",""time"":398},{""stimulus"":""img/2to1/5.png"",""time"":499},{""stimulus"":""img/2to1/6.png"",""time"":602},{""stimulus"":""img/2to1/7.png"",""time"":693},{""stimulus"":""img/2to1/8.png"",""time"":797},{""stimulus"":""img/2to1/9.png"",""time"":898},{""stimulus"":""img/2to1/10.png"",""time"":991},{""stimulus"":""img/2to1/11.png"",""time"":1092},{""stimulus"":""img/2to1/12.png"",""time"":1193}]","[]"
"image-keyboard-response","22","34128","0.0-5.0-1.9","6400d9235287137e7b62fd29","bdp_cybrbll","Sun Apr 09 2023 16:32:36 GMT-0700 (Pacific Daylight Time)","408696","1","3","","null","","","","observe","","img/1to3/1.png","null","216","272","0.5","0.5","1","3","",""
"animation","23","35428","0.0-5.0-2.9","6400d9235287137e7b62fd29","bdp_cybrbll","Sun Apr 09 2023 16:32:36 GMT-0700 (Pacific Daylight Time)","408696","1","3","","","","","","","","","","216","","","","1","3","[{""stimulus"":""img/1to3/1.png"",""time"":104},{""stimulus"":""img/1to3/2.png"",""time"":206},{""stimulus"":""img/1to3/3.png"",""time"":304},{""stimulus"":""img/1to3/4.png"",""time"":398},{""stimulus"":""img/1to3/5.png"",""time"":500},{""stimulus"":""img/1to3/6.png"",""time"":603},{""stimulus"":""img/1to3/7.png"",""time"":696},{""stimulus"":""img/1to3/8.png"",""time"":798},{""stimulus"":""img/1to3/9.png"",""time"":899},{""stimulus"":""img/1to3/10.png"",""time"":998},{""stimulus"":""img/1to3/11.png"",""time"":1092},{""stimulus"":""img/1to3/12.png"",""time"":1190}]","[]"
"image-keyboard-response","24","35615","0.0-5.0-1.10","6400d9235287137e7b62fd29","bdp_cybrbll","Sun Apr 09 2023 16:32:36 GMT-0700 (Pacific Daylight Time)","408696","1","3","","null","","","","observe","","img/3to2/1.png","null","215","178","0.5","0.5","3","2","",""
"animation","25","36908","0.0-5.0-2.10","6400d9235287137e7b62fd29","bdp_cybrbll","Sun Apr 09 2023 16:32:36 GMT-0700 (Pacific Daylight Time)","408696","1","3","","","","","","","","","","215","","","","3","2","[{""stimulus"":""img/3to2/1.png"",""time"":107},{""stimulus"":""img/3to2/2.png"",""time"":199},{""stimulus"":""img/3to2/3.png"",""time"":303},{""stimulus"":""img/3to2/4.png"",""time"":397},{""stimulus"":""img/3to2/5.png"",""time"":499},{""stimulus"":""img/3to2/6.png"",""time"":599},{""stimulus"":""img/3to2/7.png"",""time"":697},{""stimulus"":""img/3to2/8.png"",""time"":799},{""stimulus"":""img/3to2/9.png"",""time"":897},{""stimulus"":""img/3to2/10.png"",""time"":997},{""stimulus"":""img/3to2/11.png"",""time"":1091},{""stimulus"":""img/3to2/12.png"",""time"":1192}]","[]"
"image-keyboard-response","26","37489","0.0-5.0-1.11","6400d9235287137e7b62fd29","bdp_cybrbll","Sun Apr 09 2023 16:32:36 GMT-0700 (Pacific Daylight Time)","408696","1","3","","580","","","","choice","","img/2to1/1.png","1","214","331","0.5","0.5","2","1","",""
"animation","27","38785","0.0-5.0-2.11","6400d9235287137e7b62fd29","bdp_cybrbll","Sun Apr 09 2023 16:32:36 GMT-0700 (Pacific Daylight Time)","408696","1","3","","","","","","","","","","214","","","","2","1","[{""stimulus"":""img/2to1/1.png"",""time"":101},{""stimulus"":""img/2to1/2.png"",""time"":205},{""stimulus"":""img/2to1/3.png"",""time"":300},{""stimulus"":""img/2to1/4.png"",""time"":400},{""stimulus"":""img/2to1/5.png"",""time"":503},{""stimulus"":""img/2to1/6.png"",""time"":595},{""stimulus"":""img/2to1/7.png"",""time"":707},{""stimulus"":""img/2to1/8.png"",""time"":800},{""stimulus"":""img/2to1/9.png"",""time"":893},{""stimulus"":""img/2to1/10.png"",""time"":998},{""stimulus"":""img/2to1/11.png"",""time"":1094},{""stimulus"":""img/2to1/12.png"",""time"":1193}]","[]"
"image-keyboard-response","28","39219","0.0-5.0-1.12","6400d9235287137e7b62fd29","bdp_cybrbll","Sun Apr 09 2023 16:32:36 GMT-0700 (Pacific Daylight Time)","408696","1","3","","null","","","","observe","","img/1to3/1.png","null","213","425","0.5","0.5","1","3","",""
"animation","29","40509","0.0-5.0-2.12","6400d9235287137e7b62fd29","bdp_cybrbll","Sun Apr 09 2023 16:32:36 GMT-0700 (Pacific Daylight Time)","408696","1","3","","","","","","","","","","213","","","","1","3","[{""stimulus"":""img/1to3/1.png"",""time"":107},{""stimulus"":""img/1to3/2.png"",""time"":200},{""stimulus"":""img/1to3/3.png"",""time"":301},{""stimulus"":""img/1to3/4.png"",""time"":405},{""stimulus"":""img/1to3/5.png"",""time"":498},{""stimulus"":""img/1to3/6.png"",""time"":599},{""stimulus"":""img/1to3/7.png"",""time"":701},{""stimulus"":""img/1to3/8.png"",""time"":794},{""stimulus"":""img/1to3/9.png"",""time"":895},{""stimulus"":""img/1to3/10.png"",""time"":995},{""stimulus"":""img/1to3/11.png"",""time"":1096},{""stimulus"":""img/1to3/12.png"",""time"":1197}]","[]"
"image-keyboard-response","30","40683","0.0-5.0-1.13","6400d9235287137e7b62fd29","bdp_cybrbll","Sun Apr 09 2023 16:32:36 GMT-0700 (Pacific Daylight Time)","408696","1","3","","null","","","","observe","","img/3to2/1.png","null","212","165","0.5","0.5","3","2","",""
"animation","31","41972","0.0-5.0-2.13","6400d9235287137e7b62fd29","bdp_cybrbll","Sun Apr 09 2023 16:32:36 GMT-0700 (Pacific Daylight Time)","408696","1","3","","","","","","","","","","212","","","","3","2","[{""stimulus"":""img/3to2/1.png"",""time"":103},{""stimulus"":""img/3to2/2.png"",""time"":199},{""stimulus"":""img/3to2/3.png"",""time"":306},{""stimulus"":""img/3to2/4.png"",""time"":399},{""stimulus"":""img/3to2/5.png"",""time"":504},{""stimulus"":""img/3to2/6.png"",""time"":602},{""stimulus"":""img/3to2/7.png"",""time"":695},{""stimulus"":""img/3to2/8.png"",""time"":797},{""stimulus"":""img/3to2/9.png"",""time"":899},{""stimulus"":""img/3to2/10.png"",""time"":997},{""stimulus"":""img/3to2/11.png"",""time"":1097},{""stimulus"":""img/3to2/12.png"",""time"":1196}]","[]"
"image-keyboard-response","32","42153","0.0-5.0-1.14","6400d9235287137e7b62fd29","bdp_cybrbll","Sun Apr 09 2023 16:32:36 GMT-0700 (Pacific Daylight Time)","408696","1","3","","179","","","","choice","","img/2to1/1.png","1","211","1509","0.5","0.5","2","1","",""
"animation","33","43447","0.0-5.0-2.14","6400d9235287137e7b62fd29","bdp_cybrbll","Sun Apr 09 2023 16:32:36 GMT-0700 (Pacific Daylight Time)","408696","1","3","","","","","","","","","","211","","","","2","1","[{""stimulus"":""img/2to1/1.png"",""time"":110},{""stimulus"":""img/2to1/2.png"",""time"":201},{""stimulus"":""img/2to1/3.png"",""time"":302},{""stimulus"":""img/2to1/4.png"",""time"":403},{""stimulus"":""img/2to1/5.png"",""time"":498},{""stimulus"":""img/2to1/6.png"",""time"":600},{""stimulus"":""img/2to1/7.png"",""time"":695},{""stimulus"":""img/2to1/8.png"",""time"":796},{""stimulus"":""img/2to1/9.png"",""time"":908},{""stimulus"":""img/2to1/10.png"",""time"":992},{""stimulus"":""img/2to1/11.png"",""time"":1097},{""stimulus"":""img/2to1/12.png"",""time"":1193}]","[]"
"image-keyboard-response","34","44585","0.0-5.0-1.15","6400d9235287137e7b62fd29","bdp_cybrbll","Sun Apr 09 2023 16:32:36 GMT-0700 (Pacific Daylight Time)","408696","1","3","","null","","","","observe","","img/1to3/1.png","null","210","1130","0.5","0.5","1","3","",""
"animation","35","45879","0.0-5.0-2.15","6400d9235287137e7b62fd29","bdp_cybrbll","Sun Apr 09 2023 16:32:36 GMT-0700 (Pacific Daylight Time)","408696","1","3","","","","","","","","","","210","","","","1","3","[{""stimulus"":""img/1to3/1.png"",""time"":105},{""stimulus"":""img/1to3/2.png"",""time"":207},{""stimulus"":""img/1to3/3.png"",""time"":303},{""stimulus"":""img/1to3/4.png"",""time"":405},{""stimulus"":""img/1to3/5.png"",""time"":505},{""stimulus"":""img/1to3/6.png"",""time"":597},{""stimulus"":""img/1to3/7.png"",""time"":698},{""stimulus"":""img/1to3/8.png"",""time"":800},{""stimulus"":""img/1to3/9.png"",""time"":892},{""stimulus"":""img/1to3/10.png"",""time"":995},{""stimulus"":""img/1to3/11.png"",""time"":1098},{""stimulus"":""img/1to3/12.png"",""time"":1191}]","[]"
"image-keyboard-response","36","46034","0.0-5.0-1.16","6400d9235287137e7b62fd29","bdp_cybrbll","Sun Apr 09 2023 16:32:36 GMT-0700 (Pacific Daylight Time)","408696","1","3","","null","","","","observe","","img/3to2/1.png","null","209","149","0.5","0.5","3","2","",""
"animation","37","47324","0.0-5.0-2.16","6400d9235287137e7b62fd29","bdp_cybrbll","Sun Apr 09 2023 16:32:36 GMT-0700 (Pacific Daylight Time)","408696","1","3","","","","","","","","","","209","","","","3","2","[{""stimulus"":""img/3to2/1.png"",""time"":111},{""stimulus"":""img/3to2/2.png"",""time"":204},{""stimulus"":""img/3to2/3.png"",""time"":300},{""stimulus"":""img/3to2/4.png"",""time"":403},{""stimulus"":""img/3to2/5.png"",""time"":500},{""stimulus"":""img/3to2/6.png"",""time"":602},{""stimulus"":""img/3to2/7.png"",""time"":698},{""stimulus"":""img/3to2/8.png"",""time"":801},{""stimulus"":""img/3to2/9.png"",""time"":895},{""stimulus"":""img/3to2/10.png"",""time"":991},{""stimulus"":""img/3to2/11.png"",""time"":1094},{""stimulus"":""img/3to2/12.png"",""time"":1205}]","[]"
"image-keyboard-response","38","47398","0.0-5.0-1.17","6400d9235287137e7b62fd29","bdp_cybrbll","Sun Apr 09 2023 16:32:36 GMT-0700 (Pacific Daylight Time)","408696","1","3","","74","","","","choice","","img/2to1/1.png","1","208","285","0.5","0.5","2","1","",""
"animation","39","48688","0.0-5.0-2.17","6400d9235287137e7b62fd29","bdp_cybrbll","Sun Apr 09 2023 16:32:36 GMT-0700 (Pacific Daylight Time)","408696","1","3","","","","","","","","","","208","","","","2","1","[{""stimulus"":""img/2to1/1.png"",""time"":107},{""stimulus"":""img/2to1/2.png"",""time"":207},{""stimulus"":""img/2to1/3.png"",""time"":298},{""stimulus"":""img/2to1/4.png"",""time"":399},{""stimulus"":""img/2to1/5.png"",""time"":501},{""stimulus"":""img/2to1/6.png"",""time"":597},{""stimulus"":""img/2to1/7.png"",""time"":699},{""stimulus"":""img/2to1/8.png"",""time"":800},{""stimulus"":""img/2to1/9.png"",""time"":896},{""stimulus"":""img/2to1/10.png"",""time"":998},{""stimulus"":""img/2to1/11.png"",""time"":1093},{""stimulus"":""img/2to1/12.png"",""time"":1190}]","[]"
"image-keyboard-response","40","48950","0.0-5.0-1.18","6400d9235287137e7b62fd29","bdp_cybrbll","Sun Apr 09 2023 16:32:36 GMT-0700 (Pacific Daylight Time)","408696","1","3","","null","","","","observe","","img/1to3/1.png","null","207","255","0.5","0.5","1","2","",""
"animation","41","50245","0.0-5.0-2.18","6400d9235287137e7b62fd29","bdp_cybrbll","Sun Apr 09 2023 16:32:36 GMT-0700 (Pacific Daylight Time)","408696","1","3","","","","","","","","","","207","","","","1","2","[{""stimulus"":""img/1to2/1.png"",""time"":105},{""stimulus"":""img/1to2/2.png"",""time"":205},{""stimulus"":""img/1to2/3.png"",""time"":306},{""stimulus"":""img/1to2/4.png"",""time"":406},{""stimulus"":""img/1to2/5.png"",""time"":507},{""stimulus"":""img/1to2/6.png"",""time"":600},{""stimulus"":""img/1to2/7.png"",""time"":700},{""stimulus"":""img/1to2/8.png"",""time"":801},{""stimulus"":""img/1to2/9.png"",""time"":894},{""stimulus"":""img/1to2/10.png"",""time"":997},{""stimulus"":""img/1to2/11.png"",""time"":1090},{""stimulus"":""img/1to2/12.png"",""time"":1195}]","[]"
"image-keyboard-response","42","50518","0.0-5.0-1.19","6400d9235287137e7b62fd29","bdp_cybrbll","Sun Apr 09 2023 16:32:36 GMT-0700 (Pacific Daylight Time)","408696","1","3","","271","","","","choice","","img/2to1/1.png","2","206","685","0.5","0.5","2","3","",""
"animation","43","51808","0.0-5.0-2.19","6400d9235287137e7b62fd29","bdp_cybrbll","Sun Apr 09 2023 16:32:36 GMT-0700 (Pacific Daylight Time)","408696","1","3","","","","","","","","","","206","","","","2","3","[{""stimulus"":""img/2to3/1.png"",""time"":106},{""stimulus"":""img/2to3/2.png"",""time"":206},{""stimulus"":""img/2to3/3.png"",""time"":301},{""stimulus"":""img/2to3/4.png"",""time"":403},{""stimulus"":""img/2to3/5.png"",""time"":496},{""stimulus"":""img/2to3/6.png"",""time"":599},{""stimulus"":""img/2to3/7.png"",""time"":701},{""stimulus"":""img/2to3/8.png"",""time"":794},{""stimulus"":""img/2to3/9.png"",""time"":895},{""stimulus"":""img/2to3/10.png"",""time"":996},{""stimulus"":""img/2to3/11.png"",""time"":1097},{""stimulus"":""img/2to3/12.png"",""time"":1189}]","[]"
"image-keyboard-response","44","52009","0.0-5.0-1.20","6400d9235287137e7b62fd29","bdp_cybrbll","Sun Apr 09 2023 16:32:36 GMT-0700 (Pacific Daylight Time)","408696","1","3","","null","","","","observe","","img/3to2/1.png","null","205","196","0.5","0.5","3","1","",""
"animation","45","53298","0.0-5.0-2.20","6400d9235287137e7b62fd29","bdp_cybrbll","Sun Apr 09 2023 16:32:36 GMT-0700 (Pacific Daylight Time)","408696","1","3","","","","","","","","","","205","","","","3","1","[{""stimulus"":""img/3to1/1.png"",""time"":106},{""stimulus"":""img/3to1/2.png"",""time"":208},{""stimulus"":""img/3to1/3.png"",""time"":298},{""stimulus"":""img/3to1/4.png"",""time"":400},{""stimulus"":""img/3to1/5.png"",""time"":502},{""stimulus"":""img/3to1/6.png"",""time"":602},{""stimulus"":""img/3to1/7.png"",""time"":693},{""stimulus"":""img/3to1/8.png"",""time"":793},{""stimulus"":""img/3to1/9.png"",""time"":894},{""stimulus"":""img/3to1/10.png"",""time"":994},{""stimulus"":""img/3to1/11.png"",""time"":1095},{""stimulus"":""img/3to1/12.png"",""time"":1195}]","[]"
"image-keyboard-response","46","53783","0.0-5.0-1.21","6400d9235287137e7b62fd29","bdp_cybrbll","Sun Apr 09 2023 16:32:36 GMT-0700 (Pacific Daylight Time)","408696","1","3","","null","","","","observe","","img/1to3/1.png","null","204","481","0.5","0.5","1","3","",""
"animation","47","55080","0.0-5.0-2.21","6400d9235287137e7b62fd29","bdp_cybrbll","Sun Apr 09 2023 16:32:36 GMT-0700 (Pacific Daylight Time)","408696","1","3","","","","","","","","","","204","","","","1","3","[{""stimulus"":""img/1to3/1.png"",""time"":107},{""stimulus"":""img/1to3/2.png"",""time"":201},{""stimulus"":""img/1to3/3.png"",""time"":304},{""stimulus"":""img/1to3/4.png"",""time"":413},{""stimulus"":""img/1to3/5.png"",""time"":496},{""stimulus"":""img/1to3/6.png"",""time"":599},{""stimulus"":""img/1to3/7.png"",""time"":703},{""stimulus"":""img/1to3/8.png"",""time"":795},{""stimulus"":""img/1to3/9.png"",""time"":896},{""stimulus"":""img/1to3/10.png"",""time"":997},{""stimulus"":""img/1to3/11.png"",""time"":1092},{""stimulus"":""img/1to3/12.png"",""time"":1195}]","[]"
"image-keyboard-response","48","55643","0.0-5.0-1.22","6400d9235287137e7b62fd29","bdp_cybrbll","Sun Apr 09 2023 16:32:36 GMT-0700 (Pacific Daylight Time)","408696","1","3","","null","","","","observe","","img/3to2/1.png","null","203","552","0.5","0.5","3","2","",""
"animation","49","56937","0.0-5.0-2.22","6400d9235287137e7b62fd29","bdp_cybrbll","Sun Apr 09 2023 16:32:36 GMT-0700 (Pacific Daylight Time)","408696","1","3","","","","","","","","","","203","","","","3","2","[{""stimulus"":""img/3to2/1.png"",""time"":105},{""stimulus"":""img/3to2/2.png"",""time"":199},{""stimulus"":""img/3to2/3.png"",""time"":300},{""stimulus"":""img/3to2/4.png"",""time"":401},{""stimulus"":""img/3to2/5.png"",""time"":502},{""stimulus"":""img/3to2/6.png"",""time"":602},{""stimulus"":""img/3to2/7.png"",""time"":695},{""stimulus"":""img/3to2/8.png"",""time"":794},{""stimulus"":""img/3to2/9.png"",""time"":894},{""stimulus"":""img/3to2/10.png"",""time"":994},{""stimulus"":""img/3to2/11.png"",""time"":1094},{""stimulus"":""img/3to2/12.png"",""time"":1195}]","[]"
"image-keyboard-response","50","56985","0.0-5.0-1.23","6400d9235287137e7b62fd29","bdp_cybrbll","Sun Apr 09 2023 16:32:36 GMT-0700 (Pacific Daylight Time)","408696","1","3","","47","","","","choice","","img/2to1/1.png","1","202","391","0.5","0.5","2","1","",""
"animation","51","58276","0.0-5.0-2.23","6400d9235287137e7b62fd29","bdp_cybrbll","Sun Apr 09 2023 16:32:36 GMT-0700 (Pacific Daylight Time)","408696","1","3","","","","","","","","","","202","","","","2","1","[{""stimulus"":""img/2to1/1.png"",""time"":106},{""stimulus"":""img/2to1/2.png"",""time"":200},{""stimulus"":""img/2to1/3.png"",""time"":303},{""stimulus"":""img/2to1/4.png"",""time"":407},{""stimulus"":""img/2to1/5.png"",""time"":502},{""stimulus"":""img/2to1/6.png"",""time"":598},{""stimulus"":""img/2to1/7.png"",""time"":699},{""stimulus"":""img/2to1/8.png"",""time"":800},{""stimulus"":""img/2to1/9.png"",""time"":896},{""stimulus"":""img/2to1/10.png"",""time"":991},{""stimulus"":""img/2to1/11.png"",""time"":1096},{""stimulus"":""img/2to1/12.png"",""time"":1190}]","[]"
"image-keyboard-response","52","58547","0.0-5.0-1.24","6400d9235287137e7b62fd29","bdp_cybrbll","Sun Apr 09 2023 16:32:36 GMT-0700 (Pacific Daylight Time)","408696","1","3","","null","","","","observe","","img/1to3/1.png","null","201","265","0.5","0.5","1","2","",""
"animation","53","59835","0.0-5.0-2.24","6400d9235287137e7b62fd29","bdp_cybrbll","Sun Apr 09 2023 16:32:36 GMT-0700 (Pacific Daylight Time)","408696","1","3","","","","","","","","","","201","","","","1","2","[{""stimulus"":""img/1to2/1.png"",""time"":107},{""stimulus"":""img/1to2/2.png"",""time"":201},{""stimulus"":""img/1to2/3.png"",""time"":302},{""stimulus"":""img/1to2/4.png"",""time"":403},{""stimulus"":""img/1to2/5.png"",""time"":499},{""stimulus"":""img/1to2/6.png"",""time"":599},{""stimulus"":""img/1to2/7.png"",""time"":701},{""stimulus"":""img/1to2/8.png"",""time"":801},{""stimulus"":""img/1to2/9.png"",""time"":896},{""stimulus"":""img/1to2/10.png"",""time"":995},{""stimulus"":""img/1to2/11.png"",""time"":1096},{""stimulus"":""img/1to2/12.png"",""time"":1195}]","[]"
"image-keyboard-response","54","60386","0.0-5.0-1.25","6400d9235287137e7b62fd29","bdp_cybrbll","Sun Apr 09 2023 16:32:36 GMT-0700 (Pacific Daylight Time)","408696","1","3","","550","","","","choice","","img/2to1/1.png","2","200","339","0.5","0.5","2","3","",""
"animation","55","61677","0.0-5.0-2.25","6400d9235287137e7b62fd29","bdp_cybrbll","Sun Apr 09 2023 16:32:36 GMT-0700 (Pacific Daylight Time)","408696","1","3","","","","","","","","","","200","","","","2","3","[{""stimulus"":""img/2to3/1.png"",""time"":104},{""stimulus"":""img/2to3/2.png"",""time"":205},{""stimulus"":""img/2to3/3.png"",""time"":298},{""stimulus"":""img/2to3/4.png"",""time"":400},{""stimulus"":""img/2to3/5.png"",""time"":499},{""stimulus"":""img/2to3/6.png"",""time"":600},{""stimulus"":""img/2to3/7.png"",""time"":697},{""stimulus"":""img/2to3/8.png"",""time"":799},{""stimulus"":""img/2to3/9.png"",""time"":900},{""stimulus"":""img/2to3/10.png"",""time"":992},{""stimulus"":""img/2to3/11.png"",""time"":1093},{""stimulus"":""img/2to3/12.png"",""time"":1194}]","[]"
"image-keyboard-response","56","62263","0.0-5.0-1.26","6400d9235287137e7b62fd29","bdp_cybrbll","Sun Apr 09 2023 16:32:36 GMT-0700 (Pacific Daylight Time)","408696","1","3","","null","","","","observe","","img/3to2/1.png","null","199","579","0.5","0.5","3","2","",""
"animation","57","63552","0.0-5.0-2.26","6400d9235287137e7b62fd29","bdp_cybrbll","Sun Apr 09 2023 16:32:36 GMT-0700 (Pacific Daylight Time)","408696","1","3","","","","","","","","","","199","","","","3","2","[{""stimulus"":""img/3to2/1.png"",""time"":108},{""stimulus"":""img/3to2/2.png"",""time"":203},{""stimulus"":""img/3to2/3.png"",""time"":306},{""stimulus"":""img/3to2/4.png"",""time"":397},{""stimulus"":""img/3to2/5.png"",""time"":497},{""stimulus"":""img/3to2/6.png"",""time"":598},{""stimulus"":""img/3to2/7.png"",""time"":699},{""stimulus"":""img/3to2/8.png"",""time"":798},{""stimulus"":""img/3to2/9.png"",""time"":899},{""stimulus"":""img/3to2/10.png"",""time"":996},{""stimulus"":""img/3to2/11.png"",""time"":1097},{""stimulus"":""img/3to2/12.png"",""time"":1190}]","[]"
"image-keyboard-response","58","63962","0.0-5.0-1.27","6400d9235287137e7b62fd29","bdp_cybrbll","Sun Apr 09 2023 16:32:36 GMT-0700 (Pacific Daylight Time)","408696","1","3","","408","","","","choice","","img/2to1/1.png","1","198","492","0.5","0.5","2","1","",""
"animation","59","65250","0.0-5.0-2.27","6400d9235287137e7b62fd29","bdp_cybrbll","Sun Apr 09 2023 16:32:36 GMT-0700 (Pacific Daylight Time)","408696","1","3","","","","","","","","","","198","","","","2","1","[{""stimulus"":""img/2to1/1.png"",""time"":108},{""stimulus"":""img/2to1/2.png"",""time"":201},{""stimulus"":""img/2to1/3.png"",""time"":299},{""stimulus"":""img/2to1/4.png"",""time"":397},{""stimulus"":""img/2to1/5.png"",""time"":498},{""stimulus"":""img/2to1/6.png"",""time"":595},{""stimulus"":""img/2to1/7.png"",""time"":700},{""stimulus"":""img/2to1/8.png"",""time"":794},{""stimulus"":""img/2to1/9.png"",""time"":897},{""stimulus"":""img/2to1/10.png"",""time"":991},{""stimulus"":""img/2to1/11.png"",""time"":1090},{""stimulus"":""img/2to1/12.png"",""time"":1195}]","[]"
"image-keyboard-response","60","65811","0.0-5.0-1.28","6400d9235287137e7b62fd29","bdp_cybrbll","Sun Apr 09 2023 16:32:36 GMT-0700 (Pacific Daylight Time)","408696","1","3","","null","","","","observe","","img/1to3/1.png","null","197","550","0.5","0.5","1","3","",""
"animation","61","67101","0.0-5.0-2.28","6400d9235287137e7b62fd29","bdp_cybrbll","Sun Apr 09 2023 16:32:36 GMT-0700 (Pacific Daylight Time)","408696","1","3","","","","","","","","","","197","","","","1","3","[{""stimulus"":""img/1to3/1.png"",""time"":104},{""stimulus"":""img/1to3/2.png"",""time"":205},{""stimulus"":""img/1to3/3.png"",""time"":298},{""stimulus"":""img/1to3/4.png"",""time"":404},{""stimulus"":""img/1to3/5.png"",""time"":496},{""stimulus"":""img/1to3/6.png"",""time"":597},{""stimulus"":""img/1to3/7.png"",""time"":696},{""stimulus"":""img/1to3/8.png"",""time"":799},{""stimulus"":""img/1to3/9.png"",""time"":892},{""stimulus"":""img/1to3/10.png"",""time"":995},{""stimulus"":""img/1to3/11.png"",""time"":1096},{""stimulus"":""img/1to3/12.png"",""time"":1190}]","[]"
"image-keyboard-response","62","67632","0.0-5.0-1.29","6400d9235287137e7b62fd29","bdp_cybrbll","Sun Apr 09 2023 16:32:36 GMT-0700 (Pacific Daylight Time)","408696","1","3","","null","","","","observe","","img/3to2/1.png","null","196","526","0.5","0.5","3","1","",""
"animation","63","68929","0.0-5.0-2.29","6400d9235287137e7b62fd29","bdp_cybrbll","Sun Apr 09 2023 16:32:36 GMT-0700 (Pacific Daylight Time)","408696","1","3","","","","","","","","","","196","","","","3","1","[{""stimulus"":""img/3to1/1.png"",""time"":104},{""stimulus"":""img/3to1/2.png"",""time"":205},{""stimulus"":""img/3to1/3.png"",""time"":298},{""stimulus"":""img/3to1/4.png"",""time"":401},{""stimulus"":""img/3to1/5.png"",""time"":501},{""stimulus"":""img/3to1/6.png"",""time"":603},{""stimulus"":""img/3to1/7.png"",""time"":699},{""stimulus"":""img/3to1/8.png"",""time"":793},{""stimulus"":""img/3to1/9.png"",""time"":894},{""stimulus"":""img/3to1/10.png"",""time"":993},{""stimulus"":""img/3to1/11.png"",""time"":1098},{""stimulus"":""img/3to1/12.png"",""time"":1192}]","[]"
"image-keyboard-response","64","69372","0.0-5.0-1.30","6400d9235287137e7b62fd29","bdp_cybrbll","Sun Apr 09 2023 16:32:36 GMT-0700 (Pacific Daylight Time)","408696","1","3","","null","","","","observe","","img/1to3/1.png","null","195","433","0.5","0.5","1","3","",""
"animation","65","70667","0.0-5.0-2.30","6400d9235287137e7b62fd29","bdp_cybrbll","Sun Apr 09 2023 16:32:36 GMT-0700 (Pacific Daylight Time)","408696","1","3","","","","","","","","","","195","","","","1","3","[{""stimulus"":""img/1to3/1.png"",""time"":106},{""stimulus"":""img/1to3/2.png"",""time"":199},{""stimulus"":""img/1to3/3.png"",""time"":301},{""stimulus"":""img/1to3/4.png"",""time"":403},{""stimulus"":""img/1to3/5.png"",""time"":504},{""stimulus"":""img/1to3/6.png"",""time"":602},{""stimulus"":""img/1to3/7.png"",""time"":702},{""stimulus"":""img/1to3/8.png"",""time"":795},{""stimulus"":""img/1to3/9.png"",""time"":896},{""stimulus"":""img/1to3/10.png"",""time"":999},{""stimulus"":""img/1to3/11.png"",""time"":1091},{""stimulus"":""img/1to3/12.png"",""time"":1195}]","[]"
"image-keyboard-response","66","70981","0.0-5.0-1.31","6400d9235287137e7b62fd29","bdp_cybrbll","Sun Apr 09 2023 16:32:36 GMT-0700 (Pacific Daylight Time)","408696","1","3","","null","","","","observe","","img/3to2/1.png","null","194","303","0.5","0.5","3","2","",""
"animation","67","72286","0.0-5.0-2.31","6400d9235287137e7b62fd29","bdp_cybrbll","Sun Apr 09 2023 16:32:36 GMT-0700 (Pacific Daylight Time)","408696","1","3","","","","","","","","","","194","","","","3","2","[{""stimulus"":""img/3to2/1.png"",""time"":104},{""stimulus"":""img/3to2/2.png"",""time"":199},{""stimulus"":""img/3to2/3.png"",""time"":297},{""stimulus"":""img/3to2/4.png"",""time"":398},{""stimulus"":""img/3to2/5.png"",""time"":501},{""stimulus"":""img/3to2/6.png"",""time"":600},{""stimulus"":""img/3to2/7.png"",""time"":701},{""stimulus"":""img/3to2/8.png"",""time"":797},{""stimulus"":""img/3to2/9.png"",""time"":900},{""stimulus"":""img/3to2/10.png"",""time"":999},{""stimulus"":""img/3to2/11.png"",""time"":1094},{""stimulus"":""img/3to2/12.png"",""time"":1194}]","[]"
"image-keyboard-response","68","72670","0.0-5.0-1.32","6400d9235287137e7b62fd29","bdp_cybrbll","Sun Apr 09 2023 16:32:36 GMT-0700 (Pacific Daylight Time)","408696","1","3","","384","","","","choice","","img/2to1/1.png","1","193","720","0.5","0.5","2","1","",""
"animation","69","73964","0.0-5.0-2.32","6400d9235287137e7b62fd29","bdp_cybrbll","Sun Apr 09 2023 16:32:36 GMT-0700 (Pacific Daylight Time)","408696","1","3","","","","","","","","","","193","","","","2","1","[{""stimulus"":""img/2to1/1.png"",""time"":101},{""stimulus"":""img/2to1/2.png"",""time"":200},{""stimulus"":""img/2to1/3.png"",""time"":302},{""stimulus"":""img/2to1/4.png"",""time"":398},{""stimulus"":""img/2to1/5.png"",""time"":501},{""stimulus"":""img/2to1/6.png"",""time"":603},{""stimulus"":""img/2to1/7.png"",""time"":695},{""stimulus"":""img/2to1/8.png"",""time"":795},{""stimulus"":""img/2to1/9.png"",""time"":896},{""stimulus"":""img/2to1/10.png"",""time"":998},{""stimulus"":""img/2to1/11.png"",""time"":1096},{""stimulus"":""img/2to1/12.png"",""time"":1191}]","[]"
"image-keyboard-response","70","74217","0.0-5.0-1.33","6400d9235287137e7b62fd29","bdp_cybrbll","Sun Apr 09 2023 16:32:36 GMT-0700 (Pacific Daylight Time)","408696","1","3","","null","","","","observe","","img/1to3/1.png","null","192","249","0.5","0.5","1","3","",""
"animation","71","75513","0.0-5.0-2.33","6400d9235287137e7b62fd29","bdp_cybrbll","Sun Apr 09 2023 16:32:36 GMT-0700 (Pacific Daylight Time)","408696","1","3","","","","","","","","","","192","","","","1","3","[{""stimulus"":""img/1to3/1.png"",""time"":106},{""stimulus"":""img/1to3/2.png"",""time"":206},{""stimulus"":""img/1to3/3.png"",""time"":301},{""stimulus"":""img/1to3/4.png"",""time"":400},{""stimulus"":""img/1to3/5.png"",""time"":501},{""stimulus"":""img/1to3/6.png"",""time"":595},{""stimulus"":""img/1to3/7.png"",""time"":695},{""stimulus"":""img/1to3/8.png"",""time"":797},{""stimulus"":""img/1to3/9.png"",""time"":899},{""stimulus"":""img/1to3/10.png"",""time"":992},{""stimulus"":""img/1to3/11.png"",""time"":1095},{""stimulus"":""img/1to3/12.png"",""time"":1189}]","[]"
"image-keyboard-response","72","75648","0.0-5.0-1.34","6400d9235287137e7b62fd29","bdp_cybrbll","Sun Apr 09 2023 16:32:36 GMT-0700 (Pacific Daylight Time)","408696","1","3","","null","","","","observe","","img/3to2/1.png","null","191","131","0.5","0.5","3","1","",""
"animation","73","76942","0.0-5.0-2.34","6400d9235287137e7b62fd29","bdp_cybrbll","Sun Apr 09 2023 16:32:36 GMT-0700 (Pacific Daylight Time)","408696","1","3","","","","","","","","","","191","","","","3","1","[{""stimulus"":""img/3to1/1.png"",""time"":103},{""stimulus"":""img/3to1/2.png"",""time"":203},{""stimulus"":""img/3to1/3.png"",""time"":305},{""stimulus"":""img/3to1/4.png"",""time"":404},{""stimulus"":""img/3to1/5.png"",""time"":496},{""stimulus"":""img/3to1/6.png"",""time"":604},{""stimulus"":""img/3to1/7.png"",""time"":697},{""stimulus"":""img/3to1/8.png"",""time"":796},{""stimulus"":""img/3to1/9.png"",""time"":896},{""stimulus"":""img/3to1/10.png"",""time"":994},{""stimulus"":""img/3to1/11.png"",""time"":1097},{""stimulus"":""img/3to1/12.png"",""time"":1193}]","[]"
"image-keyboard-response","74","77208","0.0-5.0-1.35","6400d9235287137e7b62fd29","bdp_cybrbll","Sun Apr 09 2023 16:32:36 GMT-0700 (Pacific Daylight Time)","408696","1","3","","null","","","","observe","","img/1to3/1.png","null","190","260","0.5","0.5","1","2","",""
"animation","75","78502","0.0-5.0-2.35","6400d9235287137e7b62fd29","bdp_cybrbll","Sun Apr 09 2023 16:32:36 GMT-0700 (Pacific Daylight Time)","408696","1","3","","","","","","","","","","190","","","","1","2","[{""stimulus"":""img/1to2/1.png"",""time"":106},{""stimulus"":""img/1to2/2.png"",""time"":199},{""stimulus"":""img/1to2/3.png"",""time"":303},{""stimulus"":""img/1to2/4.png"",""time"":403},{""stimulus"":""img/1to2/5.png"",""time"":503},{""stimulus"":""img/1to2/6.png"",""time"":595},{""stimulus"":""img/1to2/7.png"",""time"":696},{""stimulus"":""img/1to2/8.png"",""time"":796},{""stimulus"":""img/1to2/9.png"",""time"":897},{""stimulus"":""img/1to2/10.png"",""time"":999},{""stimulus"":""img/1to2/11.png"",""time"":1092},{""stimulus"":""img/1to2/12.png"",""time"":1193}]","[]"
"image-keyboard-response","76","78905","0.0-5.0-1.36","6400d9235287137e7b62fd29","bdp_cybrbll","Sun Apr 09 2023 16:32:36 GMT-0700 (Pacific Daylight Time)","408696","1","3","","402","","","","choice","","img/2to1/1.png","2","189","321","0.5","0.5","2","3","",""
"animation","77","80198","0.0-5.0-2.36","6400d9235287137e7b62fd29","bdp_cybrbll","Sun Apr 09 2023 16:32:36 GMT-0700 (Pacific Daylight Time)","408696","1","3","","","","","","","","","","189","","","","2","3","[{""stimulus"":""img/2to3/1.png"",""time"":106},{""stimulus"":""img/2to3/2.png"",""time"":206},{""stimulus"":""img/2to3/3.png"",""time"":299},{""stimulus"":""img/2to3/4.png"",""time"":402},{""stimulus"":""img/2to3/5.png"",""time"":502},{""stimulus"":""img/2to3/6.png"",""time"":598},{""stimulus"":""img/2to3/7.png"",""time"":700},{""stimulus"":""img/2to3/8.png"",""time"":794},{""stimulus"":""img/2to3/9.png"",""time"":898},{""stimulus"":""img/2to3/10.png"",""time"":1008},{""stimulus"":""img/2to3/11.png"",""time"":1098},{""stimulus"":""img/2to3/12.png"",""time"":1190}]","[]"
"image-keyboard-response","78","80465","0.0-5.0-1.37","6400d9235287137e7b62fd29","bdp_cybrbll","Sun Apr 09 2023 16:32:36 GMT-0700 (Pacific Daylight Time)","408696","1","3","","null","","","","observe","","img/3to2/1.png","null","188","261","0.5","0.5","3","1","",""
"animation","79","81759","0.0-5.0-2.37","6400d9235287137e7b62fd29","bdp_cybrbll","Sun Apr 09 2023 16:32:36 GMT-0700 (Pacific Daylight Time)","408696","1","3","","","","","","","","","","188","","","","3","1","[{""stimulus"":""img/3to1/1.png"",""time"":102},{""stimulus"":""img/3to1/2.png"",""time"":204},{""stimulus"":""img/3to1/3.png"",""time"":298},{""stimulus"":""img/3to1/4.png"",""time"":400},{""stimulus"":""img/3to1/5.png"",""time"":502},{""stimulus"":""img/3to1/6.png"",""time"":596},{""stimulus"":""img/3to1/7.png"",""time"":695},{""stimulus"":""img/3to1/8.png"",""time"":797},{""stimulus"":""img/3to1/9.png"",""time"":898},{""stimulus"":""img/3to1/10.png"",""time"":991},{""stimulus"":""img/3to1/11.png"",""time"":1097},{""stimulus"":""img/3to1/12.png"",""time"":1192}]","[]"
"image-keyboard-response","80","81991","0.0-5.0-1.38","6400d9235287137e7b62fd29","bdp_cybrbll","Sun Apr 09 2023 16:32:36 GMT-0700 (Pacific Daylight Time)","408696","1","3","","null","","","","observe","","img/1to3/1.png","null","187","228","0.5","0.5","1","3","",""
"animation","81","83287","0.0-5.0-2.38","6400d9235287137e7b62fd29","bdp_cybrbll","Sun Apr 09 2023 16:32:36 GMT-0700 (Pacific Daylight Time)","408696","1","3","","","","","","","","","","187","","","","1","3","[{""stimulus"":""img/1to3/1.png"",""time"":106},{""stimulus"":""img/1to3/2.png"",""time"":201},{""stimulus"":""img/1to3/3.png"",""time"":304},{""stimulus"":""img/1to3/4.png"",""time"":403},{""stimulus"":""img/1to3/5.png"",""time"":503},{""stimulus"":""img/1to3/6.png"",""time"":597},{""stimulus"":""img/1to3/7.png"",""time"":700},{""stimulus"":""img/1to3/8.png"",""time"":796},{""stimulus"":""img/1to3/9.png"",""time"":897},{""stimulus"":""img/1to3/10.png"",""time"":999},{""stimulus"":""img/1to3/11.png"",""time"":1091},{""stimulus"":""img/1to3/12.png"",""time"":1199}]","[]"
"image-keyboard-response","82","83675","0.0-5.0-1.39","6400d9235287137e7b62fd29","bdp_cybrbll","Sun Apr 09 2023 16:32:36 GMT-0700 (Pacific Daylight Time)","408696","1","3","","null","","","","observe","","img/3to2/1.png","null","186","382","0.5","0.5","3","1","",""
"animation","83","84966","0.0-5.0-2.39","6400d9235287137e7b62fd29","bdp_cybrbll","Sun Apr 09 2023 16:32:36 GMT-0700 (Pacific Daylight Time)","408696","1","3","","","","","","","","","","186","","","","3","1","[{""stimulus"":""img/3to1/1.png"",""time"":103},{""stimulus"":""img/3to1/2.png"",""time"":205},{""stimulus"":""img/3to1/3.png"",""time"":299},{""stimulus"":""img/3to1/4.png"",""time"":403},{""stimulus"":""img/3to1/5.png"",""time"":499},{""stimulus"":""img/3to1/6.png"",""time"":601},{""stimulus"":""img/3to1/7.png"",""time"":694},{""stimulus"":""img/3to1/8.png"",""time"":796},{""stimulus"":""img/3to1/9.png"",""time"":898},{""stimulus"":""img/3to1/10.png"",""time"":992},{""stimulus"":""img/3to1/11.png"",""time"":1094},{""stimulus"":""img/3to1/12.png"",""time"":1197}]","[]"
"image-keyboard-response","84","85225","0.0-5.0-1.40","6400d9235287137e7b62fd29","bdp_cybrbll","Sun Apr 09 2023 16:32:36 GMT-0700 (Pacific Daylight Time)","408696","1","3","","null","","","","observe","","img/1to3/1.png","null","185","256","0.5","0.5","1","3","",""
"animation","85","86513","0.0-5.0-2.40","6400d9235287137e7b62fd29","bdp_cybrbll","Sun Apr 09 2023 16:32:36 GMT-0700 (Pacific Daylight Time)","408696","1","3","","","","","","","","","","185","","","","1","3","[{""stimulus"":""img/1to3/1.png"",""time"":107},{""stimulus"":""img/1to3/2.png"",""time"":200},{""stimulus"":""img/1to3/3.png"",""time"":304},{""stimulus"":""img/1to3/4.png"",""time"":404},{""stimulus"":""img/1to3/5.png"",""time"":499},{""stimulus"":""img/1to3/6.png"",""time"":595},{""stimulus"":""img/1to3/7.png"",""time"":700},{""stimulus"":""img/1to3/8.png"",""time"":800},{""stimulus"":""img/1to3/9.png"",""time"":892},{""stimulus"":""img/1to3/10.png"",""time"":995},{""stimulus"":""img/1to3/11.png"",""time"":1092},{""stimulus"":""img/1to3/12.png"",""time"":1194}]","[]"
"image-keyboard-response","86","86816","0.0-5.0-1.41","6400d9235287137e7b62fd29","bdp_cybrbll","Sun Apr 09 2023 16:32:36 GMT-0700 (Pacific Daylight Time)","408696","1","3","","null","","","","observe","","img/3to2/1.png","null","184","300","0.5","0.5","3","2","",""
"animation","87","88108","0.0-5.0-2.41","6400d9235287137e7b62fd29","bdp_cybrbll","Sun Apr 09 2023 16:32:36 GMT-0700 (Pacific Daylight Time)","408696","1","3","","","","","","","","","","184","","","","3","2","[{""stimulus"":""img/3to2/1.png"",""time"":106},{""stimulus"":""img/3to2/2.png"",""time"":199},{""stimulus"":""img/3to2/3.png"",""time"":302},{""stimulus"":""img/3to2/4.png"",""time"":405},{""stimulus"":""img/3to2/5.png"",""time"":500},{""stimulus"":""img/3to2/6.png"",""time"":597},{""stimulus"":""img/3to2/7.png"",""time"":695},{""stimulus"":""img/3to2/8.png"",""time"":806},{""stimulus"":""img/3to2/9.png"",""time"":898},{""stimulus"":""img/3to2/10.png"",""time"":999},{""stimulus"":""img/3to2/11.png"",""time"":1091},{""stimulus"":""img/3to2/12.png"",""time"":1191}]","[]"
"image-keyboard-response","88","88869","0.0-5.0-1.42","6400d9235287137e7b62fd29","bdp_cybrbll","Sun Apr 09 2023 16:32:36 GMT-0700 (Pacific Daylight Time)","408696","1","3","","760","","","","choice","","img/2to1/1.png","1","183","834","0.5","0.5","2","1","",""
"animation","89","90163","0.0-5.0-2.42","6400d9235287137e7b62fd29","bdp_cybrbll","Sun Apr 09 2023 16:32:36 GMT-0700 (Pacific Daylight Time)","408696","1","3","","","","","","","","","","183","","","","2","1","[{""stimulus"":""img/2to1/1.png"",""time"":108},{""stimulus"":""img/2to1/2.png"",""time"":203},{""stimulus"":""img/2to1/3.png"",""time"":300},{""stimulus"":""img/2to1/4.png"",""time"":401},{""stimulus"":""img/2to1/5.png"",""time"":501},{""stimulus"":""img/2to1/6.png"",""time"":603},{""stimulus"":""img/2to1/7.png"",""time"":696},{""stimulus"":""img/2to1/8.png"",""time"":800},{""stimulus"":""img/2to1/9.png"",""time"":893},{""stimulus"":""img/2to1/10.png"",""time"":992},{""stimulus"":""img/2to1/11.png"",""time"":1096},{""stimulus"":""img/2to1/12.png"",""time"":1192}]","[]"
"image-keyboard-response","90","91089","0.0-5.0-1.43","6400d9235287137e7b62fd29","bdp_cybrbll","Sun Apr 09 2023 16:32:36 GMT-0700 (Pacific Daylight Time)","408696","1","3","","null","","","","observe","","img/1to3/1.png","null","182","921","0.5","0.5","1","2","",""
"animation","91","92377","0.0-5.0-2.43","6400d9235287137e7b62fd29","bdp_cybrbll","Sun Apr 09 2023 16:32:36 GMT-0700 (Pacific Daylight Time)","408696","1","3","","","","","","","","","","182","","","","1","2","[{""stimulus"":""img/1to2/1.png"",""time"":107},{""stimulus"":""img/1to2/2.png"",""time"":201},{""stimulus"":""img/1to2/3.png"",""time"":301},{""stimulus"":""img/1to2/4.png"",""time"":402},{""stimulus"":""img/1to2/5.png"",""time"":502},{""stimulus"":""img/1to2/6.png"",""time"":603},{""stimulus"":""img/1to2/7.png"",""time"":695},{""stimulus"":""img/1to2/8.png"",""time"":796},{""stimulus"":""img/1to2/9.png"",""time"":900},{""stimulus"":""img/1to2/10.png"",""time"":993},{""stimulus"":""img/1to2/11.png"",""time"":1094},{""stimulus"":""img/1to2/12.png"",""time"":1196}]","[]"
"image-keyboard-response","92","92524","0.0-5.0-1.44","6400d9235287137e7b62fd29","bdp_cybrbll","Sun Apr 09 2023 16:32:36 GMT-0700 (Pacific Daylight Time)","408696","1","3","","146","","","","choice","","img/2to1/1.png","2","181","940","0.5","0.5","2","3","",""
"animation","93","93817","0.0-5.0-2.44","6400d9235287137e7b62fd29","bdp_cybrbll","Sun Apr 09 2023 16:32:36 GMT-0700 (Pacific Daylight Time)","408696","1","3","","","","","","","","","","181","","","","2","3","[{""stimulus"":""img/2to3/1.png"",""time"":110},{""stimulus"":""img/2to3/2.png"",""time"":204},{""stimulus"":""img/2to3/3.png"",""time"":305},{""stimulus"":""img/2to3/4.png"",""time"":398},{""stimulus"":""img/2to3/5.png"",""time"":499},{""stimulus"":""img/2to3/6.png"",""time"":600},{""stimulus"":""img/2to3/7.png"",""time"":701},{""stimulus"":""img/2to3/8.png"",""time"":793},{""stimulus"":""img/2to3/9.png"",""time"":895},{""stimulus"":""img/2to3/10.png"",""time"":997},{""stimulus"":""img/2to3/11.png"",""time"":1091},{""stimulus"":""img/2to3/12.png"",""time"":1193}]","[]"
"image-keyboard-response","94","94095","0.0-5.0-1.45","6400d9235287137e7b62fd29","bdp_cybrbll","Sun Apr 09 2023 16:32:36 GMT-0700 (Pacific Daylight Time)","408696","1","3","","null","","","","observe","","img/3to2/1.png","null","180","276","0.5","0.5","3","2","",""
"animation","95","95391","0.0-5.0-2.45","6400d9235287137e7b62fd29","bdp_cybrbll","Sun Apr 09 2023 16:32:36 GMT-0700 (Pacific Daylight Time)","408696","1","3","","","","","","","","","","180","","","","3","2","[{""stimulus"":""img/3to2/1.png"",""time"":107},{""stimulus"":""img/3to2/2.png"",""time"":204},{""stimulus"":""img/3to2/3.png"",""time"":302},{""stimulus"":""img/3to2/4.png"",""time"":401},{""stimulus"":""img/3to2/5.png"",""time"":503},{""stimulus"":""img/3to2/6.png"",""time"":602},{""stimulus"":""img/3to2/7.png"",""time"":693},{""stimulus"":""img/3to2/8.png"",""time"":798},{""stimulus"":""img/3to2/9.png"",""time"":892},{""stimulus"":""img/3to2/10.png"",""time"":992},{""stimulus"":""img/3to2/11.png"",""time"":1097},{""stimulus"":""img/3to2/12.png"",""time"":1191}]","[]"
"image-keyboard-response","96","95538","0.0-5.0-1.46","6400d9235287137e7b62fd29","bdp_cybrbll","Sun Apr 09 2023 16:32:36 GMT-0700 (Pacific Daylight Time)","408696","1","3","","146","","","","choice","","img/2to1/1.png","1","179","475","0.5","0.5","2","1","",""
"animation","97","96829","0.0-5.0-2.46","6400d9235287137e7b62fd29","bdp_cybrbll","Sun Apr 09 2023 16:32:36 GMT-0700 (Pacific Daylight Time)","408696","1","3","","","","","","","","","","179","","","","2","1","[{""stimulus"":""img/2to1/1.png"",""time"":102},{""stimulus"":""img/2to1/2.png"",""time"":204},{""stimulus"":""img/2to1/3.png"",""time"":306},{""stimulus"":""img/2to1/4.png"",""time"":410},{""stimulus"":""img/2to1/5.png"",""time"":497},{""stimulus"":""img/2to1/6.png"",""time"":599},{""stimulus"":""img/2to1/7.png"",""time"":695},{""stimulus"":""img/2to1/8.png"",""time"":797},{""stimulus"":""img/2to1/9.png"",""time"":899},{""stimulus"":""img/2to1/10.png"",""time"":995},{""stimulus"":""img/2to1/11.png"",""time"":1096},{""stimulus"":""img/2to1/12.png"",""time"":1190}]","[]"
"image-keyboard-response","98","97104","0.0-5.0-1.47","6400d9235287137e7b62fd29","bdp_cybrbll","Sun Apr 09 2023 16:32:36 GMT-0700 (Pacific Daylight Time)","408696","1","3","","null","","","","observe","","img/1to3/1.png","null","178","269","0.5","0.5","1","2","",""
"animation","99","98393","0.0-5.0-2.47","6400d9235287137e7b62fd29","bdp_cybrbll","Sun Apr 09 2023 16:32:36 GMT-0700 (Pacific Daylight Time)","408696","1","3","","","","","","","","","","178","","","","1","2","[{""stimulus"":""img/1to2/1.png"",""time"":107},{""stimulus"":""img/1to2/2.png"",""time"":203},{""stimulus"":""img/1to2/3.png"",""time"":304},{""stimulus"":""img/1to2/4.png"",""time"":398},{""stimulus"":""img/1to2/5.png"",""time"":499},{""stimulus"":""img/1to2/6.png"",""time"":601},{""stimulus"":""img/1to2/7.png"",""time"":698},{""stimulus"":""img/1to2/8.png"",""time"":800},{""stimulus"":""img/1to2/9.png"",""time"":892},{""stimulus"":""img/1to2/10.png"",""time"":994},{""stimulus"":""img/1to2/11.png"",""time"":1094},{""stimulus"":""img/1to2/12.png"",""time"":1196}]","[]"
"image-keyboard-response","100","98627","0.0-5.0-1.48","6400d9235287137e7b62fd29","bdp_cybrbll","Sun Apr 09 2023 16:32:36 GMT-0700 (Pacific Daylight Time)","408696","1","3","","233","","","","choice","","img/2to1/1.png","2","177","785","0.5","0.5","2","3","",""
"animation","101","99921","0.0-5.0-2.48","6400d9235287137e7b62fd29","bdp_cybrbll","Sun Apr 09 2023 16:32:36 GMT-0700 (Pacific Daylight Time)","408696","1","3","","","","","","","","","","177","","","","2","3","[{""stimulus"":""img/2to3/1.png"",""time"":102},{""stimulus"":""img/2to3/2.png"",""time"":203},{""stimulus"":""img/2to3/3.png"",""time"":304},{""stimulus"":""img/2to3/4.png"",""time"":406},{""stimulus"":""img/2to3/5.png"",""time"":502},{""stimulus"":""img/2to3/6.png"",""time"":604},{""stimulus"":""img/2to3/7.png"",""time"":696},{""stimulus"":""img/2to3/8.png"",""time"":798},{""stimulus"":""img/2to3/9.png"",""time"":895},{""stimulus"":""img/2to3/10.png"",""time"":996},{""stimulus"":""img/2to3/11.png"",""time"":1098},{""stimulus"":""img/2to3/12.png"",""time"":1192}]","[]"
"image-keyboard-response","102","100119","0.0-5.0-1.49","6400d9235287137e7b62fd29","bdp_cybrbll","Sun Apr 09 2023 16:32:36 GMT-0700 (Pacific Daylight Time)","408696","1","3","","null","","","","observe","","img/3to2/1.png","null","176","196","0.5","0.5","3","1","",""
"animation","103","101408","0.0-5.0-2.49","6400d9235287137e7b62fd29","bdp_cybrbll","Sun Apr 09 2023 16:32:36 GMT-0700 (Pacific Daylight Time)","408696","1","3","","","","","","","","","","176","","","","3","1","[{""stimulus"":""img/3to1/1.png"",""time"":109},{""stimulus"":""img/3to1/2.png"",""time"":200},{""stimulus"":""img/3to1/3.png"",""time"":299},{""stimulus"":""img/3to1/4.png"",""time"":399},{""stimulus"":""img/3to1/5.png"",""time"":499},{""stimulus"":""img/3to1/6.png"",""time"":597},{""stimulus"":""img/3to1/7.png"",""time"":698},{""stimulus"":""img/3to1/8.png"",""time"":797},{""stimulus"":""img/3to1/9.png"",""time"":899},{""stimulus"":""img/3to1/10.png"",""time"":994},{""stimulus"":""img/3to1/11.png"",""time"":1095},{""stimulus"":""img/3to1/12.png"",""time"":1196}]","[]"
"image-keyboard-response","104","102035","0.0-5.0-1.50","6400d9235287137e7b62fd29","bdp_cybrbll","Sun Apr 09 2023 16:32:36 GMT-0700 (Pacific Daylight Time)","408696","1","3","","null","","","","observe","","img/1to3/1.png","null","175","618","0.5","0.5","1","3","",""
"animation","105","103328","0.0-5.0-2.50","6400d9235287137e7b62fd29","bdp_cybrbll","Sun Apr 09 2023 16:32:36 GMT-0700 (Pacific Daylight Time)","408696","1","3","","","","","","","","","","175","","","","1","3","[{""stimulus"":""img/1to3/1.png"",""time"":105},{""stimulus"":""img/1to3/2.png"",""time"":201},{""stimulus"":""img/1to3/3.png"",""time"":303},{""stimulus"":""img/1to3/4.png"",""time"":404},{""stimulus"":""img/1to3/5.png"",""time"":500},{""stimulus"":""img/1to3/6.png"",""time"":602},{""stimulus"":""img/1to3/7.png"",""time"":696},{""stimulus"":""img/1to3/8.png"",""time"":798},{""stimulus"":""img/1to3/9.png"",""time"":899},{""stimulus"":""img/1to3/10.png"",""time"":991},{""stimulus"":""img/1to3/11.png"",""time"":1091},{""stimulus"":""img/1to3/12.png"",""time"":1192}]","[]"
"image-keyboard-response","106","104080","0.0-5.0-1.51","6400d9235287137e7b62fd29","bdp_cybrbll","Sun Apr 09 2023 16:32:36 GMT-0700 (Pacific Daylight Time)","408696","1","3","","null","","","","observe","","img/3to2/1.png","null","174","743","0.5","0.5","3","1","",""
"animation","107","105372","0.0-5.0-2.51","6400d9235287137e7b62fd29","bdp_cybrbll","Sun Apr 09 2023 16:32:36 GMT-0700 (Pacific Daylight Time)","408696","1","3","","","","","","","","","","174","","","","3","1","[{""stimulus"":""img/3to1/1.png"",""time"":100},{""stimulus"":""img/3to1/2.png"",""time"":201},{""stimulus"":""img/3to1/3.png"",""time"":303},{""stimulus"":""img/3to1/4.png"",""time"":398},{""stimulus"":""img/3to1/5.png"",""time"":499},{""stimulus"":""img/3to1/6.png"",""time"":609},{""stimulus"":""img/3to1/7.png"",""time"":701},{""stimulus"":""img/3to1/8.png"",""time"":794},{""stimulus"":""img/3to1/9.png"",""time"":900},{""stimulus"":""img/3to1/10.png"",""time"":994},{""stimulus"":""img/3to1/11.png"",""time"":1097},{""stimulus"":""img/3to1/12.png"",""time"":1192}]","[]"
"image-keyboard-response","108","106732","0.0-5.0-1.52","6400d9235287137e7b62fd29","bdp_cybrbll","Sun Apr 09 2023 16:32:36 GMT-0700 (Pacific Daylight Time)","408696","1","3","","null","","","","observe","","img/1to3/1.png","null","173","1353","0.5","0.5","1","3","",""
"animation","109","108021","0.0-5.0-2.52","6400d9235287137e7b62fd29","bdp_cybrbll","Sun Apr 09 2023 16:32:36 GMT-0700 (Pacific Daylight Time)","408696","1","3","","","","","","","","","","173","","","","1","3","[{""stimulus"":""img/1to3/1.png"",""time"":104},{""stimulus"":""img/1to3/2.png"",""time"":207},{""stimulus"":""img/1to3/3.png"",""time"":304},{""stimulus"":""img/1to3/4.png"",""time"":397},{""stimulus"":""img/1to3/5.png"",""time"":499},{""stimulus"":""img/1to3/6.png"",""time"":601},{""stimulus"":""img/1to3/7.png"",""time"":696},{""stimulus"":""img/1to3/8.png"",""time"":798},{""stimulus"":""img/1to3/9.png"",""time"":892},{""stimulus"":""img/1to3/10.png"",""time"":995},{""stimulus"":""img/1to3/11.png"",""time"":1097},{""stimulus"":""img/1to3/12.png"",""time"":1189}]","[]"
"image-keyboard-response","110","108255","0.0-5.0-1.53","6400d9235287137e7b62fd29","bdp_cybrbll","Sun Apr 09 2023 16:32:36 GMT-0700 (Pacific Daylight Time)","408696","1","3","","null","","","","observe","","img/3to2/1.png","null","172","229","0.5","0.5","3","2","",""
"animation","111","109550","0.0-5.0-2.53","6400d9235287137e7b62fd29","bdp_cybrbll","Sun Apr 09 2023 16:32:36 GMT-0700 (Pacific Daylight Time)","408696","1","3","","","","","","","","","","172","","","","3","2","[{""stimulus"":""img/3to2/1.png"",""time"":105},{""stimulus"":""img/3to2/2.png"",""time"":207},{""stimulus"":""img/3to2/3.png"",""time"":298},{""stimulus"":""img/3to2/4.png"",""time"":401},{""stimulus"":""img/3to2/5.png"",""time"":501},{""stimulus"":""img/3to2/6.png"",""time"":595},{""stimulus"":""img/3to2/7.png"",""time"":696},{""stimulus"":""img/3to2/8.png"",""time"":796},{""stimulus"":""img/3to2/9.png"",""time"":896},{""stimulus"":""img/3to2/10.png"",""time"":995},{""stimulus"":""img/3to2/11.png"",""time"":1098},{""stimulus"":""img/3to2/12.png"",""time"":1194}]","[]"
"image-keyboard-response","112","109595","0.0-5.0-1.54","6400d9235287137e7b62fd29","bdp_cybrbll","Sun Apr 09 2023 16:32:36 GMT-0700 (Pacific Daylight Time)","408696","1","3","","44","","","","choice","","img/2to1/1.png","2","171","925","0.5","0.5","2","3","",""
"animation","113","110886","0.0-5.0-2.54","6400d9235287137e7b62fd29","bdp_cybrbll","Sun Apr 09 2023 16:32:36 GMT-0700 (Pacific Daylight Time)","408696","1","3","","","","","","","","","","171","","","","2","3","[{""stimulus"":""img/2to3/1.png"",""time"":100},{""stimulus"":""img/2to3/2.png"",""time"":202},{""stimulus"":""img/2to3/3.png"",""time"":302},{""stimulus"":""img/2to3/4.png"",""time"":403},{""stimulus"":""img/2to3/5.png"",""time"":496},{""stimulus"":""img/2to3/6.png"",""time"":595},{""stimulus"":""img/2to3/7.png"",""time"":705},{""stimulus"":""img/2to3/8.png"",""time"":792},{""stimulus"":""img/2to3/9.png"",""time"":892},{""stimulus"":""img/2to3/10.png"",""time"":995},{""stimulus"":""img/2to3/11.png"",""time"":1094},{""stimulus"":""img/2to3/12.png"",""time"":1190}]","[]"
"image-keyboard-response","114","111337","0.0-5.0-1.55","6400d9235287137e7b62fd29","bdp_cybrbll","Sun Apr 09 2023 16:32:36 GMT-0700 (Pacific Daylight Time)","408696","1","3","","null","","","","observe","","img/3to2/1.png","null","170","434","0.5","0.5","3","2","",""
"animation","115","112632","0.0-5.0-2.55","6400d9235287137e7b62fd29","bdp_cybrbll","Sun Apr 09 2023 16:32:36 GMT-0700 (Pacific Daylight Time)","408696","1","3","","","","","","","","","","170","","","","3","2","[{""stimulus"":""img/3to2/1.png"",""time"":107},{""stimulus"":""img/3to2/2.png"",""time"":200},{""stimulus"":""img/3to2/3.png"",""time"":300},{""stimulus"":""img/3to2/4.png"",""time"":402},{""stimulus"":""img/3to2/5.png"",""time"":512},{""stimulus"":""img/3to2/6.png"",""time"":595},{""stimulus"":""img/3to2/7.png"",""time"":695},{""stimulus"":""img/3to2/8.png"",""time"":795},{""stimulus"":""img/3to2/9.png"",""time"":899},{""stimulus"":""img/3to2/10.png"",""time"":991},{""stimulus"":""img/3to2/11.png"",""time"":1095},{""stimulus"":""img/3to2/12.png"",""time"":1190}]","[]"
"image-keyboard-response","116","112701","0.0-5.0-1.56","6400d9235287137e7b62fd29","bdp_cybrbll","Sun Apr 09 2023 16:32:36 GMT-0700 (Pacific Daylight Time)","408696","1","3","","67","","","","choice","","img/2to1/1.png","2","169","261","0.5","0.5","2","3","",""
"animation","117","113992","0.0-5.0-2.56","6400d9235287137e7b62fd29","bdp_cybrbll","Sun Apr 09 2023 16:32:36 GMT-0700 (Pacific Daylight Time)","408696","1","3","","","","","","","","","","169","","","","2","3","[{""stimulus"":""img/2to3/1.png"",""time"":105},{""stimulus"":""img/2to3/2.png"",""time"":208},{""stimulus"":""img/2to3/3.png"",""time"":301},{""stimulus"":""img/2to3/4.png"",""time"":403},{""stimulus"":""img/2to3/5.png"",""time"":504},{""stimulus"":""img/2to3/6.png"",""time"":597},{""stimulus"":""img/2to3/7.png"",""time"":695},{""stimulus"":""img/2to3/8.png"",""time"":794},{""stimulus"":""img/2to3/9.png"",""time"":900},{""stimulus"":""img/2to3/10.png"",""time"":993},{""stimulus"":""img/2to3/11.png"",""time"":1094},{""stimulus"":""img/2to3/12.png"",""time"":1197}]","[]"
"image-keyboard-response","118","114788","0.0-5.0-1.57","6400d9235287137e7b62fd29","bdp_cybrbll","Sun Apr 09 2023 16:32:36 GMT-0700 (Pacific Daylight Time)","408696","1","3","","null","","","","observe","","img/3to2/1.png","null","168","791","0.5","0.5","3","2","",""
"animation","119","116078","0.0-5.0-2.57","6400d9235287137e7b62fd29","bdp_cybrbll","Sun Apr 09 2023 16:32:36 GMT-0700 (Pacific Daylight Time)","408696","1","3","","","","","","","","","","168","","","","3","2","[{""stimulus"":""img/3to2/1.png"",""time"":106},{""stimulus"":""img/3to2/2.png"",""time"":207},{""stimulus"":""img/3to2/3.png"",""time"":303},{""stimulus"":""img/3to2/4.png"",""time"":405},{""stimulus"":""img/3to2/5.png"",""time"":498},{""stimulus"":""img/3to2/6.png"",""time"":599},{""stimulus"":""img/3to2/7.png"",""time"":700},{""stimulus"":""img/3to2/8.png"",""time"":794},{""stimulus"":""img/3to2/9.png"",""time"":895},{""stimulus"":""img/3to2/10.png"",""time"":992},{""stimulus"":""img/3to2/11.png"",""time"":1093},{""stimulus"":""img/3to2/12.png"",""time"":1190}]","[]"
"image-keyboard-response","120","116221","0.0-5.0-1.58","6400d9235287137e7b62fd29","bdp_cybrbll","Sun Apr 09 2023 16:32:36 GMT-0700 (Pacific Daylight Time)","408696","1","3","","142","","","","choice","","img/2to1/1.png","2","167","293","0.5","0.5","2","3","",""
"animation","121","117509","0.0-5.0-2.58","6400d9235287137e7b62fd29","bdp_cybrbll","Sun Apr 09 2023 16:32:36 GMT-0700 (Pacific Daylight Time)","408696","1","3","","","","","","","","","","167","","","","2","3","[{""stimulus"":""img/2to3/1.png"",""time"":108},{""stimulus"":""img/2to3/2.png"",""time"":200},{""stimulus"":""img/2to3/3.png"",""time"":301},{""stimulus"":""img/2to3/4.png"",""time"":405},{""stimulus"":""img/2to3/5.png"",""time"":497},{""stimulus"":""img/2to3/6.png"",""time"":598},{""stimulus"":""img/2to3/7.png"",""time"":694},{""stimulus"":""img/2to3/8.png"",""time"":795},{""stimulus"":""img/2to3/9.png"",""time"":899},{""stimulus"":""img/2to3/10.png"",""time"":994},{""stimulus"":""img/2to3/11.png"",""time"":1096},{""stimulus"":""img/2to3/12.png"",""time"":1190}]","[]"
"image-keyboard-response","122","118060","0.0-5.0-1.59","6400d9235287137e7b62fd29","bdp_cybrbll","Sun Apr 09 2023 16:32:36 GMT-0700 (Pacific Daylight Time)","408696","1","3","","null","","","","observe","","img/3to2/1.png","null","166","544","0.5","0.5","3","1","",""
"animation","123","119352","0.0-5.0-2.59","6400d9235287137e7b62fd29","bdp_cybrbll","Sun Apr 09 2023 16:32:36 GMT-0700 (Pacific Daylight Time)","408696","1","3","","","","","","","","","","166","","","","3","1","[{""stimulus"":""img/3to1/1.png"",""time"":106},{""stimulus"":""img/3to1/2.png"",""time"":201},{""stimulus"":""img/3to1/3.png"",""time"":302},{""stimulus"":""img/3to1/4.png"",""time"":396},{""stimulus"":""img/3to1/5.png"",""time"":496},{""stimulus"":""img/3to1/6.png"",""time"":595},{""stimulus"":""img/3to1/7.png"",""time"":695},{""stimulus"":""img/3to1/8.png"",""time"":796},{""stimulus"":""img/3to1/9.png"",""time"":900},{""stimulus"":""img/3to1/10.png"",""time"":993},{""stimulus"":""img/3to1/11.png"",""time"":1097},{""stimulus"":""img/3to1/12.png"",""time"":1190}]","[]"
"image-keyboard-response","124","119963","0.0-5.0-1.60","6400d9235287137e7b62fd29","bdp_cybrbll","Sun Apr 09 2023 16:32:36 GMT-0700 (Pacific Daylight Time)","408696","1","3","","null","","","","observe","","img/1to3/1.png","null","165","599","0.5","0.5","1","2","",""
"animation","125","121253","0.0-5.0-2.60","6400d9235287137e7b62fd29","bdp_cybrbll","Sun Apr 09 2023 16:32:36 GMT-0700 (Pacific Daylight Time)","408696","1","3","","","","","","","","","","165","","","","1","2","[{""stimulus"":""img/1to2/1.png"",""time"":105},{""stimulus"":""img/1to2/2.png"",""time"":202},{""stimulus"":""img/1to2/3.png"",""time"":304},{""stimulus"":""img/1to2/4.png"",""time"":405},{""stimulus"":""img/1to2/5.png"",""time"":498},{""stimulus"":""img/1to2/6.png"",""time"":598},{""stimulus"":""img/1to2/7.png"",""time"":700},{""stimulus"":""img/1to2/8.png"",""time"":793},{""stimulus"":""img/1to2/9.png"",""time"":894},{""stimulus"":""img/1to2/10.png"",""time"":992},{""stimulus"":""img/1to2/11.png"",""time"":1094},{""stimulus"":""img/1to2/12.png"",""time"":1188}]","[]"
"image-keyboard-response","126","121462","0.0-5.0-1.61","6400d9235287137e7b62fd29","bdp_cybrbll","Sun Apr 09 2023 16:32:36 GMT-0700 (Pacific Daylight Time)","408696","1","3","","208","","","","choice","","img/2to1/1.png","1","164","1232","0.5","0.5","2","1","",""
"animation","127","122754","0.0-5.0-2.61","6400d9235287137e7b62fd29","bdp_cybrbll","Sun Apr 09 2023 16:32:36 GMT-0700 (Pacific Daylight Time)","408696","1","3","","","","","","","","","","164","","","","2","1","[{""stimulus"":""img/2to1/1.png"",""time"":101},{""stimulus"":""img/2to1/2.png"",""time"":206},{""stimulus"":""img/2to1/3.png"",""time"":303},{""stimulus"":""img/2to1/4.png"",""time"":403},{""stimulus"":""img/2to1/5.png"",""time"":497},{""stimulus"":""img/2to1/6.png"",""time"":599},{""stimulus"":""img/2to1/7.png"",""time"":699},{""stimulus"":""img/2to1/8.png"",""time"":799},{""stimulus"":""img/2to1/9.png"",""time"":898},{""stimulus"":""img/2to1/10.png"",""time"":998},{""stimulus"":""img/2to1/11.png"",""time"":1093},{""stimulus"":""img/2to1/12.png"",""time"":1190}]","[]"
"image-keyboard-response","128","122935","0.0-5.0-1.62","6400d9235287137e7b62fd29","bdp_cybrbll","Sun Apr 09 2023 16:32:36 GMT-0700 (Pacific Daylight Time)","408696","1","3","","null","","","","observe","","img/1to3/1.png","null","163","178","0.5","0.5","1","2","",""
"animation","129","124228","0.0-5.0-2.62","6400d9235287137e7b62fd29","bdp_cybrbll","Sun Apr 09 2023 16:32:36 GMT-0700 (Pacific Daylight Time)","408696","1","3","","","","","","","","","","163","","","","1","2","[{""stimulus"":""img/1to2/1.png"",""time"":105},{""stimulus"":""img/1to2/2.png"",""time"":200},{""stimulus"":""img/1to2/3.png"",""time"":300},{""stimulus"":""img/1to2/4.png"",""time"":396},{""stimulus"":""img/1to2/5.png"",""time"":500},{""stimulus"":""img/1to2/6.png"",""time"":598},{""stimulus"":""img/1to2/7.png"",""time"":700},{""stimulus"":""img/1to2/8.png"",""time"":801},{""stimulus"":""img/1to2/9.png"",""time"":896},{""stimulus"":""img/1to2/10.png"",""time"":999},{""stimulus"":""img/1to2/11.png"",""time"":1093},{""stimulus"":""img/1to2/12.png"",""time"":1193}]","[]"
"image-keyboard-response","130","124516","0.0-5.0-1.63","6400d9235287137e7b62fd29","bdp_cybrbll","Sun Apr 09 2023 16:32:36 GMT-0700 (Pacific Daylight Time)","408696","1","3","","286","","","","choice","","img/2to1/1.png","2","162","581","0.5","0.5","2","3","",""
"animation","131","125811","0.0-5.0-2.63","6400d9235287137e7b62fd29","bdp_cybrbll","Sun Apr 09 2023 16:32:36 GMT-0700 (Pacific Daylight Time)","408696","1","3","","","","","","","","","","162","","","","2","3","[{""stimulus"":""img/2to3/1.png"",""time"":102},{""stimulus"":""img/2to3/2.png"",""time"":205},{""stimulus"":""img/2to3/3.png"",""time"":304},{""stimulus"":""img/2to3/4.png"",""time"":404},{""stimulus"":""img/2to3/5.png"",""time"":499},{""stimulus"":""img/2to3/6.png"",""time"":598},{""stimulus"":""img/2to3/7.png"",""time"":698},{""stimulus"":""img/2to3/8.png"",""time"":800},{""stimulus"":""img/2to3/9.png"",""time"":892},{""stimulus"":""img/2to3/10.png"",""time"":994},{""stimulus"":""img/2to3/11.png"",""time"":1095},{""stimulus"":""img/2to3/12.png"",""time"":1195}]","[]"
"image-keyboard-response","132","126175","0.0-5.0-1.64","6400d9235287137e7b62fd29","bdp_cybrbll","Sun Apr 09 2023 16:32:36 GMT-0700 (Pacific Daylight Time)","408696","1","3","","null","","","","observe","","img/3to2/1.png","null","161","355","0.5","0.5","3","2","",""
"animation","133","127469","0.0-5.0-2.64","6400d9235287137e7b62fd29","bdp_cybrbll","Sun Apr 09 2023 16:32:36 GMT-0700 (Pacific Daylight Time)","408696","1","3","","","","","","","","","","161","","","","3","2","[{""stimulus"":""img/3to2/1.png"",""time"":100},{""stimulus"":""img/3to2/2.png"",""time"":204},{""stimulus"":""img/3to2/3.png"",""time"":311},{""stimulus"":""img/3to2/4.png"",""time"":405},{""stimulus"":""img/3to2/5.png"",""time"":497},{""stimulus"":""img/3to2/6.png"",""time"":600},{""stimulus"":""img/3to2/7.png"",""time"":702},{""stimulus"":""img/3to2/8.png"",""time"":794},{""stimulus"":""img/3to2/9.png"",""time"":894},{""stimulus"":""img/3to2/10.png"",""time"":995},{""stimulus"":""img/3to2/11.png"",""time"":1091},{""stimulus"":""img/3to2/12.png"",""time"":1193}]","[]"
"image-keyboard-response","134","127614","0.0-5.0-1.65","6400d9235287137e7b62fd29","bdp_cybrbll","Sun Apr 09 2023 16:32:36 GMT-0700 (Pacific Daylight Time)","408696","1","3","","144","","","","choice","","img/2to1/1.png","1","160","1108","0.5","0.5","2","1","",""
"animation","135","128902","0.0-5.0-2.65","6400d9235287137e7b62fd29","bdp_cybrbll","Sun Apr 09 2023 16:32:36 GMT-0700 (Pacific Daylight Time)","408696","1","3","","","","","","","","","","160","","","","2","1","[{""stimulus"":""img/2to1/1.png"",""time"":109},{""stimulus"":""img/2to1/2.png"",""time"":204},{""stimulus"":""img/2to1/3.png"",""time"":299},{""stimulus"":""img/2to1/4.png"",""time"":402},{""stimulus"":""img/2to1/5.png"",""time"":505},{""stimulus"":""img/2to1/6.png"",""time"":599},{""stimulus"":""img/2to1/7.png"",""time"":703},{""stimulus"":""img/2to1/8.png"",""time"":796},{""stimulus"":""img/2to1/9.png"",""time"":892},{""stimulus"":""img/2to1/10.png"",""time"":995},{""stimulus"":""img/2to1/11.png"",""time"":1096},{""stimulus"":""img/2to1/12.png"",""time"":1195}]","[]"
"image-keyboard-response","136","129165","0.0-5.0-1.66","6400d9235287137e7b62fd29","bdp_cybrbll","Sun Apr 09 2023 16:32:36 GMT-0700 (Pacific Daylight Time)","408696","1","3","","null","","","","observe","","img/1to3/1.png","null","159","254","0.5","0.5","1","3","",""
"animation","137","130455","0.0-5.0-2.66","6400d9235287137e7b62fd29","bdp_cybrbll","Sun Apr 09 2023 16:32:36 GMT-0700 (Pacific Daylight Time)","408696","1","3","","","","","","","","","","159","","","","1","3","[{""stimulus"":""img/1to3/1.png"",""time"":104},{""stimulus"":""img/1to3/2.png"",""time"":207},{""stimulus"":""img/1to3/3.png"",""time"":300},{""stimulus"":""img/1to3/4.png"",""time"":402},{""stimulus"":""img/1to3/5.png"",""time"":497},{""stimulus"":""img/1to3/6.png"",""time"":601},{""stimulus"":""img/1to3/7.png"",""time"":701},{""stimulus"":""img/1to3/8.png"",""time"":793},{""stimulus"":""img/1to3/9.png"",""time"":896},{""stimulus"":""img/1to3/10.png"",""time"":995},{""stimulus"":""img/1to3/11.png"",""time"":1095},{""stimulus"":""img/1to3/12.png"",""time"":1195}]","[]"
"image-keyboard-response","138","130681","0.0-5.0-1.67","6400d9235287137e7b62fd29","bdp_cybrbll","Sun Apr 09 2023 16:32:36 GMT-0700 (Pacific Daylight Time)","408696","1","3","","null","","","","observe","","img/3to2/1.png","null","158","220","0.5","0.5","3","1","",""
"animation","139","131979","0.0-5.0-2.67","6400d9235287137e7b62fd29","bdp_cybrbll","Sun Apr 09 2023 16:32:36 GMT-0700 (Pacific Daylight Time)","408696","1","3","","","","","","","","","","158","","","","3","1","[{""stimulus"":""img/3to1/1.png"",""time"":108},{""stimulus"":""img/3to1/2.png"",""time"":199},{""stimulus"":""img/3to1/3.png"",""time"":307},{""stimulus"":""img/3to1/4.png"",""time"":397},{""stimulus"":""img/3to1/5.png"",""time"":506},{""stimulus"":""img/3to1/6.png"",""time"":597},{""stimulus"":""img/3to1/7.png"",""time"":700},{""stimulus"":""img/3to1/8.png"",""time"":800},{""stimulus"":""img/3to1/9.png"",""time"":894},{""stimulus"":""img/3to1/10.png"",""time"":999},{""stimulus"":""img/3to1/11.png"",""time"":1096},{""stimulus"":""img/3to1/12.png"",""time"":1196}]","[]"
"image-keyboard-response","140","133236","0.0-5.0-1.68","6400d9235287137e7b62fd29","bdp_cybrbll","Sun Apr 09 2023 16:32:36 GMT-0700 (Pacific Daylight Time)","408696","1","3","","null","","","","observe","","img/1to3/1.png","null","157","1239","0.5","0.5","1","2","",""
"animation","141","134531","0.0-5.0-2.68","6400d9235287137e7b62fd29","bdp_cybrbll","Sun Apr 09 2023 16:32:36 GMT-0700 (Pacific Daylight Time)","408696","1","3","","","","","","","","","","157","","","","1","2","[{""stimulus"":""img/1to2/1.png"",""time"":101},{""stimulus"":""img/1to2/2.png"",""time"":201},{""stimulus"":""img/1to2/3.png"",""time"":303},{""stimulus"":""img/1to2/4.png"",""time"":414},{""stimulus"":""img/1to2/5.png"",""time"":496},{""stimulus"":""img/1to2/6.png"",""time"":597},{""stimulus"":""img/1to2/7.png"",""time"":701},{""stimulus"":""img/1to2/8.png"",""time"":797},{""stimulus"":""img/1to2/9.png"",""time"":893},{""stimulus"":""img/1to2/10.png"",""time"":993},{""stimulus"":""img/1to2/11.png"",""time"":1092},{""stimulus"":""img/1to2/12.png"",""time"":1195}]","[]"
"image-keyboard-response","142","134570","0.0-5.0-1.69","6400d9235287137e7b62fd29","bdp_cybrbll","Sun Apr 09 2023 16:32:36 GMT-0700 (Pacific Daylight Time)","408696","1","3","","37","","","","choice","","img/2to1/1.png","2","156","319","0.5","0.5","2","3","",""
"animation","143","135862","0.0-5.0-2.69","6400d9235287137e7b62fd29","bdp_cybrbll","Sun Apr 09 2023 16:32:36 GMT-0700 (Pacific Daylight Time)","408696","1","3","","","","","","","","","","156","","","","2","3","[{""stimulus"":""img/2to3/1.png"",""time"":107},{""stimulus"":""img/2to3/2.png"",""time"":206},{""stimulus"":""img/2to3/3.png"",""time"":306},{""stimulus"":""img/2to3/4.png"",""time"":397},{""stimulus"":""img/2to3/5.png"",""time"":499},{""stimulus"":""img/2to3/6.png"",""time"":599},{""stimulus"":""img/2to3/7.png"",""time"":700},{""stimulus"":""img/2to3/8.png"",""time"":800},{""stimulus"":""img/2to3/9.png"",""time"":892},{""stimulus"":""img/2to3/10.png"",""time"":992},{""stimulus"":""img/2to3/11.png"",""time"":1092},{""stimulus"":""img/2to3/12.png"",""time"":1192}]","[]"
"image-keyboard-response","144","136514","0.0-5.0-1.70","6400d9235287137e7b62fd29","bdp_cybrbll","Sun Apr 09 2023 16:32:36 GMT-0700 (Pacific Daylight Time)","408696","1","3","","null","","","","observe","","img/3to2/1.png","null","155","637","0.5","0.5","3","2","",""
"animation","145","137805","0.0-5.0-2.70","6400d9235287137e7b62fd29","bdp_cybrbll","Sun Apr 09 2023 16:32:36 GMT-0700 (Pacific Daylight Time)","408696","1","3","","","","","","","","","","155","","","","3","2","[{""stimulus"":""img/3to2/1.png"",""time"":100},{""stimulus"":""img/3to2/2.png"",""time"":204},{""stimulus"":""img/3to2/3.png"",""time"":305},{""stimulus"":""img/3to2/4.png"",""time"":398},{""stimulus"":""img/3to2/5.png"",""time"":501},{""stimulus"":""img/3to2/6.png"",""time"":595},{""stimulus"":""img/3to2/7.png"",""time"":701},{""stimulus"":""img/3to2/8.png"",""time"":795},{""stimulus"":""img/3to2/9.png"",""time"":895},{""stimulus"":""img/3to2/10.png"",""time"":997},{""stimulus"":""img/3to2/11.png"",""time"":1097},{""stimulus"":""img/3to2/12.png"",""time"":1189}]","[]"
"image-keyboard-response","146","138013","0.0-5.0-1.71","6400d9235287137e7b62fd29","bdp_cybrbll","Sun Apr 09 2023 16:32:36 GMT-0700 (Pacific Daylight Time)","408696","1","3","","207","","","","choice","","img/2to1/1.png","1","154","616","0.5","0.5","2","1","",""
"animation","147","139308","0.0-5.0-2.71","6400d9235287137e7b62fd29","bdp_cybrbll","Sun Apr 09 2023 16:32:36 GMT-0700 (Pacific Daylight Time)","408696","1","3","","","","","","","","","","154","","","","2","1","[{""stimulus"":""img/2to1/1.png"",""time"":104},{""stimulus"":""img/2to1/2.png"",""time"":200},{""stimulus"":""img/2to1/3.png"",""time"":302},{""stimulus"":""img/2to1/4.png"",""time"":403},{""stimulus"":""img/2to1/5.png"",""time"":504},{""stimulus"":""img/2to1/6.png"",""time"":599},{""stimulus"":""img/2to1/7.png"",""time"":701},{""stimulus"":""img/2to1/8.png"",""time"":793},{""stimulus"":""img/2to1/9.png"",""time"":894},{""stimulus"":""img/2to1/10.png"",""time"":995},{""stimulus"":""img/2to1/11.png"",""time"":1098},{""stimulus"":""img/2to1/12.png"",""time"":1190}]","[]"
"image-keyboard-response","148","139961","0.0-5.0-1.72","6400d9235287137e7b62fd29","bdp_cybrbll","Sun Apr 09 2023 16:32:36 GMT-0700 (Pacific Daylight Time)","408696","1","3","","null","","","","observe","","img/1to3/1.png","null","153","651","0.5","0.5","1","2","",""
"animation","149","141255","0.0-5.0-2.72","6400d9235287137e7b62fd29","bdp_cybrbll","Sun Apr 09 2023 16:32:36 GMT-0700 (Pacific Daylight Time)","408696","1","3","","","","","","","","","","153","","","","1","2","[{""stimulus"":""img/1to2/1.png"",""time"":108},{""stimulus"":""img/1to2/2.png"",""time"":201},{""stimulus"":""img/1to2/3.png"",""time"":302},{""stimulus"":""img/1to2/4.png"",""time"":405},{""stimulus"":""img/1to2/5.png"",""time"":499},{""stimulus"":""img/1to2/6.png"",""time"":600},{""stimulus"":""img/1to2/7.png"",""time"":695},{""stimulus"":""img/1to2/8.png"",""time"":796},{""stimulus"":""img/1to2/9.png"",""time"":896},{""stimulus"":""img/1to2/10.png"",""time"":996},{""stimulus"":""img/1to2/11.png"",""time"":1094},{""stimulus"":""img/1to2/12.png"",""time"":1192}]","[]"
"image-keyboard-response","150","141730","0.0-5.0-1.73","6400d9235287137e7b62fd29","bdp_cybrbll","Sun Apr 09 2023 16:32:36 GMT-0700 (Pacific Daylight Time)","408696","1","3","","473","","","","choice","","img/2to1/1.png","2","152","197","0.5","0.5","2","3","",""
"animation","151","143026","0.0-5.0-2.73","6400d9235287137e7b62fd29","bdp_cybrbll","Sun Apr 09 2023 16:32:36 GMT-0700 (Pacific Daylight Time)","408696","1","3","","","","","","","","","","152","","","","2","3","[{""stimulus"":""img/2to3/1.png"",""time"":102},{""stimulus"":""img/2to3/2.png"",""time"":201},{""stimulus"":""img/2to3/3.png"",""time"":300},{""stimulus"":""img/2to3/4.png"",""time"":402},{""stimulus"":""img/2to3/5.png"",""time"":496},{""stimulus"":""img/2to3/6.png"",""time"":595},{""stimulus"":""img/2to3/7.png"",""time"":697},{""stimulus"":""img/2to3/8.png"",""time"":800},{""stimulus"":""img/2to3/9.png"",""time"":892},{""stimulus"":""img/2to3/10.png"",""time"":994},{""stimulus"":""img/2to3/11.png"",""time"":1095},{""stimulus"":""img/2to3/12.png"",""time"":1195}]","[]"
"image-keyboard-response","152","143451","0.0-5.0-1.74","6400d9235287137e7b62fd29","bdp_cybrbll","Sun Apr 09 2023 16:32:36 GMT-0700 (Pacific Daylight Time)","408696","1","3","","null","","","","observe","","img/3to2/1.png","null","151","423","0.5","0.5","3","1","",""
"animation","153","144744","0.0-5.0-2.74","6400d9235287137e7b62fd29","bdp_cybrbll","Sun Apr 09 2023 16:32:36 GMT-0700 (Pacific Daylight Time)","408696","1","3","","","","","","","","","","151","","","","3","1","[{""stimulus"":""img/3to1/1.png"",""time"":107},{""stimulus"":""img/3to1/2.png"",""time"":199},{""stimulus"":""img/3to1/3.png"",""time"":299},{""stimulus"":""img/3to1/4.png"",""time"":401},{""stimulus"":""img/3to1/5.png"",""time"":499},{""stimulus"":""img/3to1/6.png"",""time"":600},{""stimulus"":""img/3to1/7.png"",""time"":702},{""stimulus"":""img/3to1/8.png"",""time"":801},{""stimulus"":""img/3to1/9.png"",""time"":893},{""stimulus"":""img/3to1/10.png"",""time"":996},{""stimulus"":""img/3to1/11.png"",""time"":1097},{""stimulus"":""img/3to1/12.png"",""time"":1191}]","[]"
"image-keyboard-response","154","145252","0.0-5.0-1.75","6400d9235287137e7b62fd29","bdp_cybrbll","Sun Apr 09 2023 16:32:36 GMT-0700 (Pacific Daylight Time)","408696","1","3","","null","","","","observe","","img/1to3/1.png","null","150","502","0.5","0.5","1","2","",""
"animation","155","146544","0.0-5.0-2.75","6400d9235287137e7b62fd29","bdp_cybrbll","Sun Apr 09 2023 16:32:36 GMT-0700 (Pacific Daylight Time)","408696","1","3","","","","","","","","","","150","","","","1","2","[{""stimulus"":""img/1to2/1.png"",""time"":102},{""stimulus"":""img/1to2/2.png"",""time"":200},{""stimulus"":""img/1to2/3.png"",""time"":301},{""stimulus"":""img/1to2/4.png"",""time"":404},{""stimulus"":""img/1to2/5.png"",""time"":499},{""stimulus"":""img/1to2/6.png"",""time"":601},{""stimulus"":""img/1to2/7.png"",""time"":695},{""stimulus"":""img/1to2/8.png"",""time"":798},{""stimulus"":""img/1to2/9.png"",""time"":892},{""stimulus"":""img/1to2/10.png"",""time"":998},{""stimulus"":""img/1to2/11.png"",""time"":1092},{""stimulus"":""img/1to2/12.png"",""time"":1193}]","[]"
"image-keyboard-response","156","146837","0.0-5.0-1.76","6400d9235287137e7b62fd29","bdp_cybrbll","Sun Apr 09 2023 16:32:36 GMT-0700 (Pacific Daylight Time)","408696","1","3","","291","","","","choice","","img/2to1/1.png","2","149","197","0.5","0.1","2","3","",""
"animation","157","148128","0.0-5.0-2.76","6400d9235287137e7b62fd29","bdp_cybrbll","Sun Apr 09 2023 16:32:36 GMT-0700 (Pacific Daylight Time)","408696","1","3","","","","","","","","","","149","","","","2","3","[{""stimulus"":""img/2to3/1.png"",""time"":109},{""stimulus"":""img/2to3/2.png"",""time"":204},{""stimulus"":""img/2to3/3.png"",""time"":305},{""stimulus"":""img/2to3/4.png"",""time"":406},{""stimulus"":""img/2to3/5.png"",""time"":497},{""stimulus"":""img/2to3/6.png"",""time"":601},{""stimulus"":""img/2to3/7.png"",""time"":695},{""stimulus"":""img/2to3/8.png"",""time"":796},{""stimulus"":""img/2to3/9.png"",""time"":898},{""stimulus"":""img/2to3/10.png"",""time"":991},{""stimulus"":""img/2to3/11.png"",""time"":1092},{""stimulus"":""img/2to3/12.png"",""time"":1191}]","[]"
"image-keyboard-response","158","148324","0.0-5.0-1.77","6400d9235287137e7b62fd29","bdp_cybrbll","Sun Apr 09 2023 16:32:36 GMT-0700 (Pacific Daylight Time)","408696","1","3","","null","","","","observe","","img/3to2/1.png","null","148","194","0.5","0.1","3","1","",""
"animation","159","149616","0.0-5.0-2.77","6400d9235287137e7b62fd29","bdp_cybrbll","Sun Apr 09 2023 16:32:36 GMT-0700 (Pacific Daylight Time)","408696","1","3","","","","","","","","","","148","","","","3","1","[{""stimulus"":""img/3to1/1.png"",""time"":106},{""stimulus"":""img/3to1/2.png"",""time"":200},{""stimulus"":""img/3to1/3.png"",""time"":302},{""stimulus"":""img/3to1/4.png"",""time"":404},{""stimulus"":""img/3to1/5.png"",""time"":496},{""stimulus"":""img/3to1/6.png"",""time"":600},{""stimulus"":""img/3to1/7.png"",""time"":700},{""stimulus"":""img/3to1/8.png"",""time"":793},{""stimulus"":""img/3to1/9.png"",""time"":892},{""stimulus"":""img/3to1/10.png"",""time"":991},{""stimulus"":""img/3to1/11.png"",""time"":1097},{""stimulus"":""img/3to1/12.png"",""time"":1190}]","[]"
"image-keyboard-response","160","149821","0.0-5.0-1.78","6400d9235287137e7b62fd29","bdp_cybrbll","Sun Apr 09 2023 16:32:36 GMT-0700 (Pacific Daylight Time)","408696","1","3","","null","","","","observe","","img/1to3/1.png","null","147","202","0.5","0.1","1","2","",""
"animation","161","151114","0.0-5.0-2.78","6400d9235287137e7b62fd29","bdp_cybrbll","Sun Apr 09 2023 16:32:36 GMT-0700 (Pacific Daylight Time)","408696","1","3","","","","","","","","","","147","","","","1","2","[{""stimulus"":""img/1to2/1.png"",""time"":106},{""stimulus"":""img/1to2/2.png"",""time"":203},{""stimulus"":""img/1to2/3.png"",""time"":305},{""stimulus"":""img/1to2/4.png"",""time"":400},{""stimulus"":""img/1to2/5.png"",""time"":501},{""stimulus"":""img/1to2/6.png"",""time"":603},{""stimulus"":""img/1to2/7.png"",""time"":705},{""stimulus"":""img/1to2/8.png"",""time"":800},{""stimulus"":""img/1to2/9.png"",""time"":893},{""stimulus"":""img/1to2/10.png"",""time"":994},{""stimulus"":""img/1to2/11.png"",""time"":1095},{""stimulus"":""img/1to2/12.png"",""time"":1192}]","[]"
"image-keyboard-response","162","151361","0.0-5.0-1.79","6400d9235287137e7b62fd29","bdp_cybrbll","Sun Apr 09 2023 16:32:36 GMT-0700 (Pacific Daylight Time)","408696","1","3","","246","","","","choice","","img/2to1/1.png","2","146","559","0.5","0.1","2","3","",""
"animation","163","152650","0.0-5.0-2.79","6400d9235287137e7b62fd29","bdp_cybrbll","Sun Apr 09 2023 16:32:36 GMT-0700 (Pacific Daylight Time)","408696","1","3","","","","","","","","","","146","","","","2","3","[{""stimulus"":""img/2to3/1.png"",""time"":105},{""stimulus"":""img/2to3/2.png"",""time"":206},{""stimulus"":""img/2to3/3.png"",""time"":307},{""stimulus"":""img/2to3/4.png"",""time"":399},{""stimulus"":""img/2to3/5.png"",""time"":502},{""stimulus"":""img/2to3/6.png"",""time"":596},{""stimulus"":""img/2to3/7.png"",""time"":696},{""stimulus"":""img/2to3/8.png"",""time"":801},{""stimulus"":""img/2to3/9.png"",""time"":894},{""stimulus"":""img/2to3/10.png"",""time"":995},{""stimulus"":""img/2to3/11.png"",""time"":1095},{""stimulus"":""img/2to3/12.png"",""time"":1191}]","[]"
"image-keyboard-response","164","153062","0.0-5.0-1.80","6400d9235287137e7b62fd29","bdp_cybrbll","Sun Apr 09 2023 16:32:36 GMT-0700 (Pacific Daylight Time)","408696","1","3","","null","","","","observe","","img/3to2/1.png","null","145","409","0.5","0.1","3","1","",""
"animation","165","154352","0.0-5.0-2.80","6400d9235287137e7b62fd29","bdp_cybrbll","Sun Apr 09 2023 16:32:36 GMT-0700 (Pacific Daylight Time)","408696","1","3","","","","","","","","","","145","","","","3","1","[{""stimulus"":""img/3to1/1.png"",""time"":104},{""stimulus"":""img/3to1/2.png"",""time"":207},{""stimulus"":""img/3to1/3.png"",""time"":300},{""stimulus"":""img/3to1/4.png"",""time"":402},{""stimulus"":""img/3to1/5.png"",""time"":499},{""stimulus"":""img/3to1/6.png"",""time"":600},{""stimulus"":""img/3to1/7.png"",""time"":694},{""stimulus"":""img/3to1/8.png"",""time"":795},{""stimulus"":""img/3to1/9.png"",""time"":897},{""stimulus"":""img/3to1/10.png"",""time"":993},{""stimulus"":""img/3to1/11.png"",""time"":1095},{""stimulus"":""img/3to1/12.png"",""time"":1189}]","[]"
"image-keyboard-response","166","155096","0.0-5.0-1.81","6400d9235287137e7b62fd29","bdp_cybrbll","Sun Apr 09 2023 16:32:36 GMT-0700 (Pacific Daylight Time)","408696","1","3","","null","","","","observe","","img/1to3/1.png","null","144","741","0.5","0.1","1","3","",""
"animation","167","156390","0.0-5.0-2.81","6400d9235287137e7b62fd29","bdp_cybrbll","Sun Apr 09 2023 16:32:36 GMT-0700 (Pacific Daylight Time)","408696","1","3","","","","","","","","","","144","","","","1","3","[{""stimulus"":""img/1to3/1.png"",""time"":103},{""stimulus"":""img/1to3/2.png"",""time"":199},{""stimulus"":""img/1to3/3.png"",""time"":299},{""stimulus"":""img/1to3/4.png"",""time"":400},{""stimulus"":""img/1to3/5.png"",""time"":503},{""stimulus"":""img/1to3/6.png"",""time"":596},{""stimulus"":""img/1to3/7.png"",""time"":697},{""stimulus"":""img/1to3/8.png"",""time"":792},{""stimulus"":""img/1to3/9.png"",""time"":894},{""stimulus"":""img/1to3/10.png"",""time"":996},{""stimulus"":""img/1to3/11.png"",""time"":1090},{""stimulus"":""img/1to3/12.png"",""time"":1190}]","[]"
"image-keyboard-response","168","157004","0.0-5.0-1.82","6400d9235287137e7b62fd29","bdp_cybrbll","Sun Apr 09 2023 16:32:36 GMT-0700 (Pacific Daylight Time)","408696","1","3","","null","","","","observe","","img/3to2/1.png","null","143","612","0.5","0.1","3","1","",""
"animation","169","158294","0.0-5.0-2.82","6400d9235287137e7b62fd29","bdp_cybrbll","Sun Apr 09 2023 16:32:36 GMT-0700 (Pacific Daylight Time)","408696","1","3","","","","","","","","","","143","","","","3","1","[{""stimulus"":""img/3to1/1.png"",""time"":107},{""stimulus"":""img/3to1/2.png"",""time"":200},{""stimulus"":""img/3to1/3.png"",""time"":304},{""stimulus"":""img/3to1/4.png"",""time"":404},{""stimulus"":""img/3to1/5.png"",""time"":497},{""stimulus"":""img/3to1/6.png"",""time"":598},{""stimulus"":""img/3to1/7.png"",""time"":702},{""stimulus"":""img/3to1/8.png"",""time"":797},{""stimulus"":""img/3to1/9.png"",""time"":901},{""stimulus"":""img/3to1/10.png"",""time"":995},{""stimulus"":""img/3to1/11.png"",""time"":1096},{""stimulus"":""img/3to1/12.png"",""time"":1190}]","[]"
"image-keyboard-response","170","158807","0.0-5.0-1.83","6400d9235287137e7b62fd29","bdp_cybrbll","Sun Apr 09 2023 16:32:36 GMT-0700 (Pacific Daylight Time)","408696","1","3","","null","","","","observe","","img/1to3/1.png","null","142","498","0.5","0.1","1","3","",""
"animation","171","160103","0.0-5.0-2.83","6400d9235287137e7b62fd29","bdp_cybrbll","Sun Apr 09 2023 16:32:36 GMT-0700 (Pacific Daylight Time)","408696","1","3","","","","","","","","","","142","","","","1","3","[{""stimulus"":""img/1to3/1.png"",""time"":102},{""stimulus"":""img/1to3/2.png"",""time"":206},{""stimulus"":""img/1to3/3.png"",""time"":300},{""stimulus"":""img/1to3/4.png"",""time"":402},{""stimulus"":""img/1to3/5.png"",""time"":497},{""stimulus"":""img/1to3/6.png"",""time"":599},{""stimulus"":""img/1to3/7.png"",""time"":700},{""stimulus"":""img/1to3/8.png"",""time"":800},{""stimulus"":""img/1to3/9.png"",""time"":893},{""stimulus"":""img/1to3/10.png"",""time"":995},{""stimulus"":""img/1to3/11.png"",""time"":1091},{""stimulus"":""img/1to3/12.png"",""time"":1194}]","[]"
"image-keyboard-response","172","161312","0.0-5.0-1.84","6400d9235287137e7b62fd29","bdp_cybrbll","Sun Apr 09 2023 16:32:36 GMT-0700 (Pacific Daylight Time)","408696","1","3","","null","","","","observe","","img/3to2/1.png","null","141","1199","0.5","0.1","3","1","",""
"animation","173","162604","0.0-5.0-2.84","6400d9235287137e7b62fd29","bdp_cybrbll","Sun Apr 09 2023 16:32:36 GMT-0700 (Pacific Daylight Time)","408696","1","3","","","","","","","","","","141","","","","3","1","[{""stimulus"":""img/3to1/1.png"",""time"":107},{""stimulus"":""img/3to1/2.png"",""time"":207},{""stimulus"":""img/3to1/3.png"",""time"":298},{""stimulus"":""img/3to1/4.png"",""time"":401},{""stimulus"":""img/3to1/5.png"",""time"":501},{""stimulus"":""img/3to1/6.png"",""time"":600},{""stimulus"":""img/3to1/7.png"",""time"":701},{""stimulus"":""img/3to1/8.png"",""time"":794},{""stimulus"":""img/3to1/9.png"",""time"":896},{""stimulus"":""img/3to1/10.png"",""time"":999},{""stimulus"":""img/3to1/11.png"",""time"":1093},{""stimulus"":""img/3to1/12.png"",""time"":1190}]","[]"
"image-keyboard-response","174","162847","0.0-5.0-1.85","6400d9235287137e7b62fd29","bdp_cybrbll","Sun Apr 09 2023 16:32:36 GMT-0700 (Pacific Daylight Time)","408696","1","3","","null","","","","observe","","img/1to3/1.png","null","140","235","0.5","0.1","1","3","",""
"animation","175","164138","0.0-5.0-2.85","6400d9235287137e7b62fd29","bdp_cybrbll","Sun Apr 09 2023 16:32:36 GMT-0700 (Pacific Daylight Time)","408696","1","3","","","","","","","","","","140","","","","1","3","[{""stimulus"":""img/1to3/1.png"",""time"":106},{""stimulus"":""img/1to3/2.png"",""time"":199},{""stimulus"":""img/1to3/3.png"",""time"":299},{""stimulus"":""img/1to3/4.png"",""time"":400},{""stimulus"":""img/1to3/5.png"",""time"":500},{""stimulus"":""img/1to3/6.png"",""time"":601},{""stimulus"":""img/1to3/7.png"",""time"":700},{""stimulus"":""img/1to3/8.png"",""time"":800},{""stimulus"":""img/1to3/9.png"",""time"":897},{""stimulus"":""img/1to3/10.png"",""time"":991},{""stimulus"":""img/1to3/11.png"",""time"":1096},{""stimulus"":""img/1to3/12.png"",""time"":1197}]","[]"
"image-keyboard-response","176","164658","0.0-5.0-1.86","6400d9235287137e7b62fd29","bdp_cybrbll","Sun Apr 09 2023 16:32:36 GMT-0700 (Pacific Daylight Time)","408696","1","3","","null","","","","observe","","img/3to2/1.png","null","139","510","0.5","0.1","3","1","",""
"animation","177","165947","0.0-5.0-2.86","6400d9235287137e7b62fd29","bdp_cybrbll","Sun Apr 09 2023 16:32:36 GMT-0700 (Pacific Daylight Time)","408696","1","3","","","","","","","","","","139","","","","3","1","[{""stimulus"":""img/3to1/1.png"",""time"":100},{""stimulus"":""img/3to1/2.png"",""time"":206},{""stimulus"":""img/3to1/3.png"",""time"":300},{""stimulus"":""img/3to1/4.png"",""time"":402},{""stimulus"":""img/3to1/5.png"",""time"":504},{""stimulus"":""img/3to1/6.png"",""time"":597},{""stimulus"":""img/3to1/7.png"",""time"":694},{""stimulus"":""img/3to1/8.png"",""time"":796},{""stimulus"":""img/3to1/9.png"",""time"":892},{""stimulus"":""img/3to1/10.png"",""time"":995},{""stimulus"":""img/3to1/11.png"",""time"":1089},{""stimulus"":""img/3to1/12.png"",""time"":1196}]","[]"
"image-keyboard-response","178","166289","0.0-5.0-1.87","6400d9235287137e7b62fd29","bdp_cybrbll","Sun Apr 09 2023 16:32:36 GMT-0700 (Pacific Daylight Time)","408696","1","3","","null","","","","observe","","img/1to3/1.png","null","138","335","0.5","0.1","1","3","",""
"animation","179","167584","0.0-5.0-2.87","6400d9235287137e7b62fd29","bdp_cybrbll","Sun Apr 09 2023 16:32:36 GMT-0700 (Pacific Daylight Time)","408696","1","3","","","","","","","","","","138","","","","1","3","[{""stimulus"":""img/1to3/1.png"",""time"":100},{""stimulus"":""img/1to3/2.png"",""time"":215},{""stimulus"":""img/1to3/3.png"",""time"":299},{""stimulus"":""img/1to3/4.png"",""time"":402},{""stimulus"":""img/1to3/5.png"",""time"":497},{""stimulus"":""img/1to3/6.png"",""time"":597},{""stimulus"":""img/1to3/7.png"",""time"":701},{""stimulus"":""img/1to3/8.png"",""time"":795},{""stimulus"":""img/1to3/9.png"",""time"":898},{""stimulus"":""img/1to3/10.png"",""time"":994},{""stimulus"":""img/1to3/11.png"",""time"":1097},{""stimulus"":""img/1to3/12.png"",""time"":1191}]","[]"
"image-keyboard-response","180","167869","0.0-5.0-1.88","6400d9235287137e7b62fd29","bdp_cybrbll","Sun Apr 09 2023 16:32:36 GMT-0700 (Pacific Daylight Time)","408696","1","3","","null","","","","observe","","img/3to2/1.png","null","137","283","0.5","0.1","3","1","",""
"animation","181","169164","0.0-5.0-2.88","6400d9235287137e7b62fd29","bdp_cybrbll","Sun Apr 09 2023 16:32:36 GMT-0700 (Pacific Daylight Time)","408696","1","3","","","","","","","","","","137","","","","3","1","[{""stimulus"":""img/3to1/1.png"",""time"":105},{""stimulus"":""img/3to1/2.png"",""time"":204},{""stimulus"":""img/3to1/3.png"",""time"":305},{""stimulus"":""img/3to1/4.png"",""time"":399},{""stimulus"":""img/3to1/5.png"",""time"":503},{""stimulus"":""img/3to1/6.png"",""time"":602},{""stimulus"":""img/3to1/7.png"",""time"":694},{""stimulus"":""img/3to1/8.png"",""time"":799},{""stimulus"":""img/3to1/9.png"",""time"":891},{""stimulus"":""img/3to1/10.png"",""time"":996},{""stimulus"":""img/3to1/11.png"",""time"":1091},{""stimulus"":""img/3to1/12.png"",""time"":1193}]","[]"
"image-keyboard-response","182","169602","0.0-5.0-1.89","6400d9235287137e7b62fd29","bdp_cybrbll","Sun Apr 09 2023 16:32:36 GMT-0700 (Pacific Daylight Time)","408696","1","3","","null","","","","observe","","img/1to3/1.png","null","136","429","0.5","0.1","1","3","",""
"animation","183","170896","0.0-5.0-2.89","6400d9235287137e7b62fd29","bdp_cybrbll","Sun Apr 09 2023 16:32:36 GMT-0700 (Pacific Daylight Time)","408696","1","3","","","","","","","","","","136","","","","1","3","[{""stimulus"":""img/1to3/1.png"",""time"":107},{""stimulus"":""img/1to3/2.png"",""time"":199},{""stimulus"":""img/1to3/3.png"",""time"":299},{""stimulus"":""img/1to3/4.png"",""time"":402},{""stimulus"":""img/1to3/5.png"",""time"":496},{""stimulus"":""img/1to3/6.png"",""time"":597},{""stimulus"":""img/1to3/7.png"",""time"":700},{""stimulus"":""img/1to3/8.png"",""time"":793},{""stimulus"":""img/1to3/9.png"",""time"":899},{""stimulus"":""img/1to3/10.png"",""time"":992},{""stimulus"":""img/1to3/11.png"",""time"":1098},{""stimulus"":""img/1to3/12.png"",""time"":1193}]","[]"
"image-keyboard-response","184","171119","0.0-5.0-1.90","6400d9235287137e7b62fd29","bdp_cybrbll","Sun Apr 09 2023 16:32:36 GMT-0700 (Pacific Daylight Time)","408696","1","3","","null","","","","observe","","img/3to2/1.png","null","135","218","0.5","0.1","3","1","",""
"animation","185","172411","0.0-5.0-2.90","6400d9235287137e7b62fd29","bdp_cybrbll","Sun Apr 09 2023 16:32:36 GMT-0700 (Pacific Daylight Time)","408696","1","3","","","","","","","","","","135","","","","3","1","[{""stimulus"":""img/3to1/1.png"",""time"":112},{""stimulus"":""img/3to1/2.png"",""time"":215},{""stimulus"":""img/3to1/3.png"",""time"":301},{""stimulus"":""img/3to1/4.png"",""time"":402},{""stimulus"":""img/3to1/5.png"",""time"":503},{""stimulus"":""img/3to1/6.png"",""time"":603},{""stimulus"":""img/3to1/7.png"",""time"":702},{""stimulus"":""img/3to1/8.png"",""time"":793},{""stimulus"":""img/3to1/9.png"",""time"":893},{""stimulus"":""img/3to1/10.png"",""time"":993},{""stimulus"":""img/3to1/11.png"",""time"":1093},{""stimulus"":""img/3to1/12.png"",""time"":1191}]","[]"
"image-keyboard-response","186","172850","0.0-5.0-1.91","6400d9235287137e7b62fd29","bdp_cybrbll","Sun Apr 09 2023 16:32:36 GMT-0700 (Pacific Daylight Time)","408696","1","3","","null","","","","observe","","img/1to3/1.png","null","134","433","0.5","0.1","1","2","",""
"animation","187","174145","0.0-5.0-2.91","6400d9235287137e7b62fd29","bdp_cybrbll","Sun Apr 09 2023 16:32:36 GMT-0700 (Pacific Daylight Time)","408696","1","3","","","","","","","","","","134","","","","1","2","[{""stimulus"":""img/1to2/1.png"",""time"":106},{""stimulus"":""img/1to2/2.png"",""time"":201},{""stimulus"":""img/1to2/3.png"",""time"":304},{""stimulus"":""img/1to2/4.png"",""time"":404},{""stimulus"":""img/1to2/5.png"",""time"":499},{""stimulus"":""img/1to2/6.png"",""time"":603},{""stimulus"":""img/1to2/7.png"",""time"":699},{""stimulus"":""img/1to2/8.png"",""time"":798},{""stimulus"":""img/1to2/9.png"",""time"":896},{""stimulus"":""img/1to2/10.png"",""time"":995},{""stimulus"":""img/1to2/11.png"",""time"":1095},{""stimulus"":""img/1to2/12.png"",""time"":1195}]","[]"
"image-keyboard-response","188","174595","0.0-5.0-1.92","6400d9235287137e7b62fd29","bdp_cybrbll","Sun Apr 09 2023 16:32:36 GMT-0700 (Pacific Daylight Time)","408696","1","3","","450","","","","choice","","img/2to1/1.png","2","133","726","0.5","0.1","2","3","",""
"animation","189","175890","0.0-5.0-2.92","6400d9235287137e7b62fd29","bdp_cybrbll","Sun Apr 09 2023 16:32:36 GMT-0700 (Pacific Daylight Time)","408696","1","3","","","","","","","","","","133","","","","2","3","[{""stimulus"":""img/2to3/1.png"",""time"":103},{""stimulus"":""img/2to3/2.png"",""time"":205},{""stimulus"":""img/2to3/3.png"",""time"":301},{""stimulus"":""img/2to3/4.png"",""time"":401},{""stimulus"":""img/2to3/5.png"",""time"":501},{""stimulus"":""img/2to3/6.png"",""time"":596},{""stimulus"":""img/2to3/7.png"",""time"":696},{""stimulus"":""img/2to3/8.png"",""time"":799},{""stimulus"":""img/2to3/9.png"",""time"":891},{""stimulus"":""img/2to3/10.png"",""time"":994},{""stimulus"":""img/2to3/11.png"",""time"":1097},{""stimulus"":""img/2to3/12.png"",""time"":1191}]","[]"
"image-keyboard-response","190","176332","0.0-5.0-1.93","6400d9235287137e7b62fd29","bdp_cybrbll","Sun Apr 09 2023 16:32:36 GMT-0700 (Pacific Daylight Time)","408696","1","3","","null","","","","observe","","img/3to2/1.png","null","132","440","0.5","0.1","3","1","",""
