"trial_type","trial_index","time_elapsed","internal_node_id","subject_id","task","startTime","totalTime","fairPartner","unfairPartner","view_history","rt","event","trial","time","trialtype","success","stimulus","key_press","throwsLeft","rtDur","pFair","pUnfair","holder","receiver","animation_sequence","responses"
"pavlovia","0","10","0.0-0.0","56b8de29e1d0a200051517f8","bdp_cybrbll","Sat Mar 25 2023 22:19:08 GMT-0400 (Eastern Daylight Time)","491657","3","1","","","","","","","","","","","","","","","","",""
"instructions","1","5365","0.0-1.0","56b8de29e1d0a200051517f8","bdp_cybrbll","Sat Mar 25 2023 22:19:08 GMT-0400 (Eastern Daylight Time)","491657","3","1","[{""page_index"":0,""viewing_time"":5353}]","5353","","","","","","","","","","","","","","",""
"","","","","56b8de29e1d0a200051517f8","bdp_cybrbll","Sat Mar 25 2023 22:19:08 GMT-0400 (Eastern Daylight Time)","491657","3","1","","","fullscreenenter","2","9120","fullscreenenter","","","","","","","","","","",""
"fullscreen","2","10104","0.0-2.0","56b8de29e1d0a200051517f8","bdp_cybrbll","Sat Mar 25 2023 22:19:08 GMT-0400 (Eastern Daylight Time)","491657","3","1","","","","","","","true","","","","","","","","","",""
"instructions","3","71025","0.0-4.0","56b8de29e1d0a200051517f8","bdp_cybrbll","Sat Mar 25 2023 22:19:08 GMT-0400 (Eastern Daylight Time)","491657","3","1","[{""page_index"":0,""viewing_time"":60914}]","60914","","","","","","","","","","","","","","",""
"image-keyboard-response","4","73787","0.0-5.0-1.0","56b8de29e1d0a200051517f8","bdp_cybrbll","Sat Mar 25 2023 22:19:08 GMT-0400 (Eastern Daylight Time)","491657","3","1","","2756","","","","choice","","img/2to1/1.png","1","225","1567","0.5","0.5","2","1","",""
"animation","5","75078","0.0-5.0-2.0","56b8de29e1d0a200051517f8","bdp_cybrbll","Sat Mar 25 2023 22:19:08 GMT-0400 (Eastern Daylight Time)","491657","3","1","","","","","","","","","","225","","","","2","1","[{""stimulus"":""img/2to1/1.png"",""time"":100},{""stimulus"":""img/2to1/2.png"",""time"":199},{""stimulus"":""img/2to1/3.png"",""time"":299},{""stimulus"":""img/2to1/4.png"",""time"":398},{""stimulus"":""img/2to1/5.png"",""time"":497},{""stimulus"":""img/2to1/6.png"",""time"":596},{""stimulus"":""img/2to1/7.png"",""time"":695},{""stimulus"":""img/2to1/8.png"",""time"":794},{""stimulus"":""img/2to1/9.png"",""time"":893},{""stimulus"":""img/2to1/10.png"",""time"":993},{""stimulus"":""img/2to1/11.png"",""time"":1091},{""stimulus"":""img/2to1/12.png"",""time"":1190}]","[]"
"image-keyboard-response","6","75964","0.0-5.0-1.1","56b8de29e1d0a200051517f8","bdp_cybrbll","Sat Mar 25 2023 22:19:08 GMT-0400 (Eastern Daylight Time)","491657","3","1","","null","","","","observe","","img/1to3/1.png","null","224","880","0.5","0.5","1","3","",""
"animation","7","77256","0.0-5.0-2.1","56b8de29e1d0a200051517f8","bdp_cybrbll","Sat Mar 25 2023 22:19:08 GMT-0400 (Eastern Daylight Time)","491657","3","1","","","","","","","","","","224","","","","1","3","[{""stimulus"":""img/1to3/1.png"",""time"":103},{""stimulus"":""img/1to3/2.png"",""time"":201},{""stimulus"":""img/1to3/3.png"",""time"":300},{""stimulus"":""img/1to3/4.png"",""time"":399},{""stimulus"":""img/1to3/5.png"",""time"":498},{""stimulus"":""img/1to3/6.png"",""time"":596},{""stimulus"":""img/1to3/7.png"",""time"":695},{""stimulus"":""img/1to3/8.png"",""time"":795},{""stimulus"":""img/1to3/9.png"",""time"":893},{""stimulus"":""img/1to3/10.png"",""time"":993},{""stimulus"":""img/1to3/11.png"",""time"":1091},{""stimulus"":""img/1to3/12.png"",""time"":1191}]","[]"
"image-keyboard-response","8","77629","0.0-5.0-1.2","56b8de29e1d0a200051517f8","bdp_cybrbll","Sat Mar 25 2023 22:19:08 GMT-0400 (Eastern Daylight Time)","491657","3","1","","null","","","","observe","","img/3to2/1.png","null","223","368","0.5","0.5","3","2","",""
"animation","9","78920","0.0-5.0-2.2","56b8de29e1d0a200051517f8","bdp_cybrbll","Sat Mar 25 2023 22:19:08 GMT-0400 (Eastern Daylight Time)","491657","3","1","","","","","","","","","","223","","","","3","2","[{""stimulus"":""img/3to2/1.png"",""time"":101},{""stimulus"":""img/3to2/2.png"",""time"":200},{""stimulus"":""img/3to2/3.png"",""time"":299},{""stimulus"":""img/3to2/4.png"",""time"":399},{""stimulus"":""img/3to2/5.png"",""time"":497},{""stimulus"":""img/3to2/6.png"",""time"":595},{""stimulus"":""img/3to2/7.png"",""time"":695},{""stimulus"":""img/3to2/8.png"",""time"":794},{""stimulus"":""img/3to2/9.png"",""time"":893},{""stimulus"":""img/3to2/10.png"",""time"":992},{""stimulus"":""img/3to2/11.png"",""time"":1091},{""stimulus"":""img/3to2/12.png"",""time"":1191}]","[]"
"image-keyboard-response","10","79728","0.0-5.0-1.3","56b8de29e1d0a200051517f8","bdp_cybrbll","Sat Mar 25 2023 22:19:08 GMT-0400 (Eastern Daylight Time)","491657","3","1","","804","","","","choice","","img/2to1/1.png","2","222","259","0.5","0.5","2","3","",""
"animation","11","81017","0.0-5.0-2.3","56b8de29e1d0a200051517f8","bdp_cybrbll","Sat Mar 25 2023 22:19:08 GMT-0400 (Eastern Daylight Time)","491657","3","1","","","","","","","","","","222","","","","2","3","[{""stimulus"":""img/2to3/1.png"",""time"":102},{""stimulus"":""img/2to3/2.png"",""time"":201},{""stimulus"":""img/2to3/3.png"",""time"":300},{""stimulus"":""img/2to3/4.png"",""time"":399},{""stimulus"":""img/2to3/5.png"",""time"":497},{""stimulus"":""img/2to3/6.png"",""time"":597},{""stimulus"":""img/2to3/7.png"",""time"":696},{""stimulus"":""img/2to3/8.png"",""time"":794},{""stimulus"":""img/2to3/9.png"",""time"":894},{""stimulus"":""img/2to3/10.png"",""time"":993},{""stimulus"":""img/2to3/11.png"",""time"":1091},{""stimulus"":""img/2to3/12.png"",""time"":1191}]","[]"
"image-keyboard-response","12","81817","0.0-5.0-1.4","56b8de29e1d0a200051517f8","bdp_cybrbll","Sat Mar 25 2023 22:19:08 GMT-0400 (Eastern Daylight Time)","491657","3","1","","null","","","","observe","","img/3to2/1.png","null","221","793","0.5","0.5","3","2","",""
"animation","13","83106","0.0-5.0-2.4","56b8de29e1d0a200051517f8","bdp_cybrbll","Sat Mar 25 2023 22:19:08 GMT-0400 (Eastern Daylight Time)","491657","3","1","","","","","","","","","","221","","","","3","2","[{""stimulus"":""img/3to2/1.png"",""time"":101},{""stimulus"":""img/3to2/2.png"",""time"":202},{""stimulus"":""img/3to2/3.png"",""time"":300},{""stimulus"":""img/3to2/4.png"",""time"":398},{""stimulus"":""img/3to2/5.png"",""time"":498},{""stimulus"":""img/3to2/6.png"",""time"":596},{""stimulus"":""img/3to2/7.png"",""time"":695},{""stimulus"":""img/3to2/8.png"",""time"":795},{""stimulus"":""img/3to2/9.png"",""time"":893},{""stimulus"":""img/3to2/10.png"",""time"":993},{""stimulus"":""img/3to2/11.png"",""time"":1092},{""stimulus"":""img/3to2/12.png"",""time"":1191}]","[]"
"image-keyboard-response","14","83339","0.0-5.0-1.5","56b8de29e1d0a200051517f8","bdp_cybrbll","Sat Mar 25 2023 22:19:08 GMT-0400 (Eastern Daylight Time)","491657","3","1","","228","","","","choice","","img/2to1/1.png","1","220","289","0.5","0.5","2","1","",""
"animation","15","84628","0.0-5.0-2.5","56b8de29e1d0a200051517f8","bdp_cybrbll","Sat Mar 25 2023 22:19:08 GMT-0400 (Eastern Daylight Time)","491657","3","1","","","","","","","","","","220","","","","2","1","[{""stimulus"":""img/2to1/1.png"",""time"":101},{""stimulus"":""img/2to1/2.png"",""time"":201},{""stimulus"":""img/2to1/3.png"",""time"":300},{""stimulus"":""img/2to1/4.png"",""time"":399},{""stimulus"":""img/2to1/5.png"",""time"":498},{""stimulus"":""img/2to1/6.png"",""time"":596},{""stimulus"":""img/2to1/7.png"",""time"":695},{""stimulus"":""img/2to1/8.png"",""time"":795},{""stimulus"":""img/2to1/9.png"",""time"":894},{""stimulus"":""img/2to1/10.png"",""time"":994},{""stimulus"":""img/2to1/11.png"",""time"":1091},{""stimulus"":""img/2to1/12.png"",""time"":1191}]","[]"
"image-keyboard-response","16","85720","0.0-5.0-1.6","56b8de29e1d0a200051517f8","bdp_cybrbll","Sat Mar 25 2023 22:19:08 GMT-0400 (Eastern Daylight Time)","491657","3","1","","null","","","","observe","","img/1to3/1.png","null","219","1088","0.5","0.5","1","3","",""
"animation","17","87009","0.0-5.0-2.6","56b8de29e1d0a200051517f8","bdp_cybrbll","Sat Mar 25 2023 22:19:08 GMT-0400 (Eastern Daylight Time)","491657","3","1","","","","","","","","","","219","","","","1","3","[{""stimulus"":""img/1to3/1.png"",""time"":102},{""stimulus"":""img/1to3/2.png"",""time"":200},{""stimulus"":""img/1to3/3.png"",""time"":299},{""stimulus"":""img/1to3/4.png"",""time"":398},{""stimulus"":""img/1to3/5.png"",""time"":497},{""stimulus"":""img/1to3/6.png"",""time"":596},{""stimulus"":""img/1to3/7.png"",""time"":696},{""stimulus"":""img/1to3/8.png"",""time"":793},{""stimulus"":""img/1to3/9.png"",""time"":894},{""stimulus"":""img/1to3/10.png"",""time"":992},{""stimulus"":""img/1to3/11.png"",""time"":1090},{""stimulus"":""img/1to3/12.png"",""time"":1191}]","[]"
"image-keyboard-response","18","87243","0.0-5.0-1.7","56b8de29e1d0a200051517f8","bdp_cybrbll","Sat Mar 25 2023 22:19:08 GMT-0400 (Eastern Daylight Time)","491657","3","1","","null","","","","observe","","img/3to2/1.png","null","218","229","0.5","0.5","3","1","",""
"animation","19","88533","0.0-5.0-2.7","56b8de29e1d0a200051517f8","bdp_cybrbll","Sat Mar 25 2023 22:19:08 GMT-0400 (Eastern Daylight Time)","491657","3","1","","","","","","","","","","218","","","","3","1","[{""stimulus"":""img/3to1/1.png"",""time"":103},{""stimulus"":""img/3to1/2.png"",""time"":202},{""stimulus"":""img/3to1/3.png"",""time"":300},{""stimulus"":""img/3to1/4.png"",""time"":399},{""stimulus"":""img/3to1/5.png"",""time"":498},{""stimulus"":""img/3to1/6.png"",""time"":597},{""stimulus"":""img/3to1/7.png"",""time"":694},{""stimulus"":""img/3to1/8.png"",""time"":795},{""stimulus"":""img/3to1/9.png"",""time"":895},{""stimulus"":""img/3to1/10.png"",""time"":993},{""stimulus"":""img/3to1/11.png"",""time"":1092},{""stimulus"":""img/3to1/12.png"",""time"":1190}]","[]"
"image-keyboard-response","20","88950","0.0-5.0-1.8","56b8de29e1d0a200051517f8","bdp_cybrbll","Sat Mar 25 2023 22:19:08 GMT-0400 (Eastern Daylight Time)","491657","3","1","","null","","","","observe","","img/1to3/1.png","null","217","413","0.5","0.5","1","3","",""
"animation","21","90240","0.0-5.0-2.8","56b8de29e1d0a200051517f8","bdp_cybrbll","Sat Mar 25 2023 22:19:08 GMT-0400 (Eastern Daylight Time)","491657","3","1","","","","","","","","","","217","","","","1","3","[{""stimulus"":""img/1to3/1.png"",""time"":102},{""stimulus"":""img/1to3/2.png"",""time"":201},{""stimulus"":""img/1to3/3.png"",""time"":300},{""stimulus"":""img/1to3/4.png"",""time"":399},{""stimulus"":""img/1to3/5.png"",""time"":498},{""stimulus"":""img/1to3/6.png"",""time"":597},{""stimulus"":""img/1to3/7.png"",""time"":696},{""stimulus"":""img/1to3/8.png"",""time"":795},{""stimulus"":""img/1to3/9.png"",""time"":894},{""stimulus"":""img/1to3/10.png"",""time"":993},{""stimulus"":""img/1to3/11.png"",""time"":1092},{""stimulus"":""img/1to3/12.png"",""time"":1192}]","[]"
"image-keyboard-response","22","90661","0.0-5.0-1.9","56b8de29e1d0a200051517f8","bdp_cybrbll","Sat Mar 25 2023 22:19:08 GMT-0400 (Eastern Daylight Time)","491657","3","1","","null","","","","observe","","img/3to2/1.png","null","216","415","0.5","0.5","3","1","",""
"animation","23","91950","0.0-5.0-2.9","56b8de29e1d0a200051517f8","bdp_cybrbll","Sat Mar 25 2023 22:19:08 GMT-0400 (Eastern Daylight Time)","491657","3","1","","","","","","","","","","216","","","","3","1","[{""stimulus"":""img/3to1/1.png"",""time"":102},{""stimulus"":""img/3to1/2.png"",""time"":200},{""stimulus"":""img/3to1/3.png"",""time"":299},{""stimulus"":""img/3to1/4.png"",""time"":399},{""stimulus"":""img/3to1/5.png"",""time"":498},{""stimulus"":""img/3to1/6.png"",""time"":597},{""stimulus"":""img/3to1/7.png"",""time"":696},{""stimulus"":""img/3to1/8.png"",""time"":795},{""stimulus"":""img/3to1/9.png"",""time"":894},{""stimulus"":""img/3to1/10.png"",""time"":993},{""stimulus"":""img/3to1/11.png"",""time"":1092},{""stimulus"":""img/3to1/12.png"",""time"":1191}]","[]"
"image-keyboard-response","24","92298","0.0-5.0-1.10","56b8de29e1d0a200051517f8","bdp_cybrbll","Sat Mar 25 2023 22:19:08 GMT-0400 (Eastern Daylight Time)","491657","3","1","","null","","","","observe","","img/1to3/1.png","null","215","345","0.5","0.5","1","2","",""
"animation","25","93586","0.0-5.0-2.10","56b8de29e1d0a200051517f8","bdp_cybrbll","Sat Mar 25 2023 22:19:08 GMT-0400 (Eastern Daylight Time)","491657","3","1","","","","","","","","","","215","","","","1","2","[{""stimulus"":""img/1to2/1.png"",""time"":102},{""stimulus"":""img/1to2/2.png"",""time"":199},{""stimulus"":""img/1to2/3.png"",""time"":300},{""stimulus"":""img/1to2/4.png"",""time"":398},{""stimulus"":""img/1to2/5.png"",""time"":497},{""stimulus"":""img/1to2/6.png"",""time"":596},{""stimulus"":""img/1to2/7.png"",""time"":694},{""stimulus"":""img/1to2/8.png"",""time"":795},{""stimulus"":""img/1to2/9.png"",""time"":894},{""stimulus"":""img/1to2/10.png"",""time"":990},{""stimulus"":""img/1to2/11.png"",""time"":1091},{""stimulus"":""img/1to2/12.png"",""time"":1190}]","[]"
"image-keyboard-response","26","94706","0.0-5.0-1.11","56b8de29e1d0a200051517f8","bdp_cybrbll","Sat Mar 25 2023 22:19:08 GMT-0400 (Eastern Daylight Time)","491657","3","1","","1119","","","","choice","","img/2to1/1.png","1","214","356","0.5","0.5","2","1","",""
"animation","27","95996","0.0-5.0-2.11","56b8de29e1d0a200051517f8","bdp_cybrbll","Sat Mar 25 2023 22:19:08 GMT-0400 (Eastern Daylight Time)","491657","3","1","","","","","","","","","","214","","","","2","1","[{""stimulus"":""img/2to1/1.png"",""time"":102},{""stimulus"":""img/2to1/2.png"",""time"":202},{""stimulus"":""img/2to1/3.png"",""time"":301},{""stimulus"":""img/2to1/4.png"",""time"":398},{""stimulus"":""img/2to1/5.png"",""time"":498},{""stimulus"":""img/2to1/6.png"",""time"":596},{""stimulus"":""img/2to1/7.png"",""time"":695},{""stimulus"":""img/2to1/8.png"",""time"":795},{""stimulus"":""img/2to1/9.png"",""time"":894},{""stimulus"":""img/2to1/10.png"",""time"":993},{""stimulus"":""img/2to1/11.png"",""time"":1092},{""stimulus"":""img/2to1/12.png"",""time"":1191}]","[]"
"image-keyboard-response","28","96692","0.0-5.0-1.12","56b8de29e1d0a200051517f8","bdp_cybrbll","Sat Mar 25 2023 22:19:08 GMT-0400 (Eastern Daylight Time)","491657","3","1","","null","","","","observe","","img/1to3/1.png","null","213","691","0.5","0.5","1","2","",""
"animation","29","97982","0.0-5.0-2.12","56b8de29e1d0a200051517f8","bdp_cybrbll","Sat Mar 25 2023 22:19:08 GMT-0400 (Eastern Daylight Time)","491657","3","1","","","","","","","","","","213","","","","1","2","[{""stimulus"":""img/1to2/1.png"",""time"":102},{""stimulus"":""img/1to2/2.png"",""time"":201},{""stimulus"":""img/1to2/3.png"",""time"":300},{""stimulus"":""img/1to2/4.png"",""time"":399},{""stimulus"":""img/1to2/5.png"",""time"":498},{""stimulus"":""img/1to2/6.png"",""time"":597},{""stimulus"":""img/1to2/7.png"",""time"":695},{""stimulus"":""img/1to2/8.png"",""time"":796},{""stimulus"":""img/1to2/9.png"",""time"":894},{""stimulus"":""img/1to2/10.png"",""time"":993},{""stimulus"":""img/1to2/11.png"",""time"":1092},{""stimulus"":""img/1to2/12.png"",""time"":1191}]","[]"
"image-keyboard-response","30","98503","0.0-5.0-1.13","56b8de29e1d0a200051517f8","bdp_cybrbll","Sat Mar 25 2023 22:19:08 GMT-0400 (Eastern Daylight Time)","491657","3","1","","517","","","","choice","","img/2to1/1.png","1","212","515","0.5","0.5","2","1","",""
"animation","31","99792","0.0-5.0-2.13","56b8de29e1d0a200051517f8","bdp_cybrbll","Sat Mar 25 2023 22:19:08 GMT-0400 (Eastern Daylight Time)","491657","3","1","","","","","","","","","","212","","","","2","1","[{""stimulus"":""img/2to1/1.png"",""time"":102},{""stimulus"":""img/2to1/2.png"",""time"":200},{""stimulus"":""img/2to1/3.png"",""time"":300},{""stimulus"":""img/2to1/4.png"",""time"":399},{""stimulus"":""img/2to1/5.png"",""time"":498},{""stimulus"":""img/2to1/6.png"",""time"":597},{""stimulus"":""img/2to1/7.png"",""time"":696},{""stimulus"":""img/2to1/8.png"",""time"":795},{""stimulus"":""img/2to1/9.png"",""time"":894},{""stimulus"":""img/2to1/10.png"",""time"":993},{""stimulus"":""img/2to1/11.png"",""time"":1090},{""stimulus"":""img/2to1/12.png"",""time"":1191}]","[]"
"image-keyboard-response","32","100070","0.0-5.0-1.14","56b8de29e1d0a200051517f8","bdp_cybrbll","Sat Mar 25 2023 22:19:08 GMT-0400 (Eastern Daylight Time)","491657","3","1","","null","","","","observe","","img/1to3/1.png","null","211","272","0.5","0.5","1","3","",""
"animation","33","101360","0.0-5.0-2.14","56b8de29e1d0a200051517f8","bdp_cybrbll","Sat Mar 25 2023 22:19:08 GMT-0400 (Eastern Daylight Time)","491657","3","1","","","","","","","","","","211","","","","1","3","[{""stimulus"":""img/1to3/1.png"",""time"":101},{""stimulus"":""img/1to3/2.png"",""time"":201},{""stimulus"":""img/1to3/3.png"",""time"":301},{""stimulus"":""img/1to3/4.png"",""time"":399},{""stimulus"":""img/1to3/5.png"",""time"":497},{""stimulus"":""img/1to3/6.png"",""time"":597},{""stimulus"":""img/1to3/7.png"",""time"":696},{""stimulus"":""img/1to3/8.png"",""time"":794},{""stimulus"":""img/1to3/9.png"",""time"":893},{""stimulus"":""img/1to3/10.png"",""time"":993},{""stimulus"":""img/1to3/11.png"",""time"":1092},{""stimulus"":""img/1to3/12.png"",""time"":1192}]","[]"
"image-keyboard-response","34","101757","0.0-5.0-1.15","56b8de29e1d0a200051517f8","bdp_cybrbll","Sat Mar 25 2023 22:19:08 GMT-0400 (Eastern Daylight Time)","491657","3","1","","null","","","","observe","","img/3to2/1.png","null","210","392","0.5","0.5","3","1","",""
"animation","35","103046","0.0-5.0-2.15","56b8de29e1d0a200051517f8","bdp_cybrbll","Sat Mar 25 2023 22:19:08 GMT-0400 (Eastern Daylight Time)","491657","3","1","","","","","","","","","","210","","","","3","1","[{""stimulus"":""img/3to1/1.png"",""time"":100},{""stimulus"":""img/3to1/2.png"",""time"":200},{""stimulus"":""img/3to1/3.png"",""time"":300},{""stimulus"":""img/3to1/4.png"",""time"":399},{""stimulus"":""img/3to1/5.png"",""time"":497},{""stimulus"":""img/3to1/6.png"",""time"":596},{""stimulus"":""img/3to1/7.png"",""time"":695},{""stimulus"":""img/3to1/8.png"",""time"":794},{""stimulus"":""img/3to1/9.png"",""time"":893},{""stimulus"":""img/3to1/10.png"",""time"":993},{""stimulus"":""img/3to1/11.png"",""time"":1091},{""stimulus"":""img/3to1/12.png"",""time"":1191}]","[]"
"image-keyboard-response","36","104093","0.0-5.0-1.16","56b8de29e1d0a200051517f8","bdp_cybrbll","Sat Mar 25 2023 22:19:08 GMT-0400 (Eastern Daylight Time)","491657","3","1","","null","","","","observe","","img/1to3/1.png","null","209","1042","0.5","0.5","1","3","",""
"animation","37","105383","0.0-5.0-2.16","56b8de29e1d0a200051517f8","bdp_cybrbll","Sat Mar 25 2023 22:19:08 GMT-0400 (Eastern Daylight Time)","491657","3","1","","","","","","","","","","209","","","","1","3","[{""stimulus"":""img/1to3/1.png"",""time"":103},{""stimulus"":""img/1to3/2.png"",""time"":201},{""stimulus"":""img/1to3/3.png"",""time"":300},{""stimulus"":""img/1to3/4.png"",""time"":398},{""stimulus"":""img/1to3/5.png"",""time"":497},{""stimulus"":""img/1to3/6.png"",""time"":597},{""stimulus"":""img/1to3/7.png"",""time"":696},{""stimulus"":""img/1to3/8.png"",""time"":795},{""stimulus"":""img/1to3/9.png"",""time"":894},{""stimulus"":""img/1to3/10.png"",""time"":993},{""stimulus"":""img/1to3/11.png"",""time"":1091},{""stimulus"":""img/1to3/12.png"",""time"":1191}]","[]"
"image-keyboard-response","38","105886","0.0-5.0-1.17","56b8de29e1d0a200051517f8","bdp_cybrbll","Sat Mar 25 2023 22:19:08 GMT-0400 (Eastern Daylight Time)","491657","3","1","","null","","","","observe","","img/3to2/1.png","null","208","499","0.5","0.5","3","1","",""
"animation","39","107176","0.0-5.0-2.17","56b8de29e1d0a200051517f8","bdp_cybrbll","Sat Mar 25 2023 22:19:08 GMT-0400 (Eastern Daylight Time)","491657","3","1","","","","","","","","","","208","","","","3","1","[{""stimulus"":""img/3to1/1.png"",""time"":103},{""stimulus"":""img/3to1/2.png"",""time"":201},{""stimulus"":""img/3to1/3.png"",""time"":300},{""stimulus"":""img/3to1/4.png"",""time"":399},{""stimulus"":""img/3to1/5.png"",""time"":497},{""stimulus"":""img/3to1/6.png"",""time"":597},{""stimulus"":""img/3to1/7.png"",""time"":696},{""stimulus"":""img/3to1/8.png"",""time"":795},{""stimulus"":""img/3to1/9.png"",""time"":894},{""stimulus"":""img/3to1/10.png"",""time"":993},{""stimulus"":""img/3to1/11.png"",""time"":1091},{""stimulus"":""img/3to1/12.png"",""time"":1191}]","[]"
"image-keyboard-response","40","107592","0.0-5.0-1.18","56b8de29e1d0a200051517f8","bdp_cybrbll","Sat Mar 25 2023 22:19:08 GMT-0400 (Eastern Daylight Time)","491657","3","1","","null","","","","observe","","img/1to3/1.png","null","207","411","0.5","0.5","1","2","",""
"animation","41","108881","0.0-5.0-2.18","56b8de29e1d0a200051517f8","bdp_cybrbll","Sat Mar 25 2023 22:19:08 GMT-0400 (Eastern Daylight Time)","491657","3","1","","","","","","","","","","207","","","","1","2","[{""stimulus"":""img/1to2/1.png"",""time"":101},{""stimulus"":""img/1to2/2.png"",""time"":200},{""stimulus"":""img/1to2/3.png"",""time"":298},{""stimulus"":""img/1to2/4.png"",""time"":398},{""stimulus"":""img/1to2/5.png"",""time"":497},{""stimulus"":""img/1to2/6.png"",""time"":596},{""stimulus"":""img/1to2/7.png"",""time"":696},{""stimulus"":""img/1to2/8.png"",""time"":794},{""stimulus"":""img/1to2/9.png"",""time"":893},{""stimulus"":""img/1to2/10.png"",""time"":992},{""stimulus"":""img/1to2/11.png"",""time"":1091},{""stimulus"":""img/1to2/12.png"",""time"":1191}]","[]"
"image-keyboard-response","42","109255","0.0-5.0-1.19","56b8de29e1d0a200051517f8","bdp_cybrbll","Sat Mar 25 2023 22:19:08 GMT-0400 (Eastern Daylight Time)","491657","3","1","","369","","","","choice","","img/2to1/1.png","2","206","309","0.5","0.5","2","3","",""
"animation","43","110543","0.0-5.0-2.19","56b8de29e1d0a200051517f8","bdp_cybrbll","Sat Mar 25 2023 22:19:08 GMT-0400 (Eastern Daylight Time)","491657","3","1","","","","","","","","","","206","","","","2","3","[{""stimulus"":""img/2to3/1.png"",""time"":102},{""stimulus"":""img/2to3/2.png"",""time"":200},{""stimulus"":""img/2to3/3.png"",""time"":299},{""stimulus"":""img/2to3/4.png"",""time"":399},{""stimulus"":""img/2to3/5.png"",""time"":498},{""stimulus"":""img/2to3/6.png"",""time"":596},{""stimulus"":""img/2to3/7.png"",""time"":696},{""stimulus"":""img/2to3/8.png"",""time"":795},{""stimulus"":""img/2to3/9.png"",""time"":893},{""stimulus"":""img/2to3/10.png"",""time"":993},{""stimulus"":""img/2to3/11.png"",""time"":1091},{""stimulus"":""img/2to3/12.png"",""time"":1190}]","[]"
"image-keyboard-response","44","111711","0.0-5.0-1.20","56b8de29e1d0a200051517f8","bdp_cybrbll","Sat Mar 25 2023 22:19:08 GMT-0400 (Eastern Daylight Time)","491657","3","1","","null","","","","observe","","img/3to2/1.png","null","205","1163","0.5","0.5","3","1","",""
"animation","45","113000","0.0-5.0-2.20","56b8de29e1d0a200051517f8","bdp_cybrbll","Sat Mar 25 2023 22:19:08 GMT-0400 (Eastern Daylight Time)","491657","3","1","","","","","","","","","","205","","","","3","1","[{""stimulus"":""img/3to1/1.png"",""time"":102},{""stimulus"":""img/3to1/2.png"",""time"":200},{""stimulus"":""img/3to1/3.png"",""time"":298},{""stimulus"":""img/3to1/4.png"",""time"":396},{""stimulus"":""img/3to1/5.png"",""time"":495},{""stimulus"":""img/3to1/6.png"",""time"":594},{""stimulus"":""img/3to1/7.png"",""time"":694},{""stimulus"":""img/3to1/8.png"",""time"":793},{""stimulus"":""img/3to1/9.png"",""time"":893},{""stimulus"":""img/3to1/10.png"",""time"":992},{""stimulus"":""img/3to1/11.png"",""time"":1091},{""stimulus"":""img/3to1/12.png"",""time"":1190}]","[]"
"image-keyboard-response","46","113241","0.0-5.0-1.21","56b8de29e1d0a200051517f8","bdp_cybrbll","Sat Mar 25 2023 22:19:08 GMT-0400 (Eastern Daylight Time)","491657","3","1","","null","","","","observe","","img/1to3/1.png","null","204","235","0.5","0.5","1","3","",""
"animation","47","114531","0.0-5.0-2.21","56b8de29e1d0a200051517f8","bdp_cybrbll","Sat Mar 25 2023 22:19:08 GMT-0400 (Eastern Daylight Time)","491657","3","1","","","","","","","","","","204","","","","1","3","[{""stimulus"":""img/1to3/1.png"",""time"":102},{""stimulus"":""img/1to3/2.png"",""time"":200},{""stimulus"":""img/1to3/3.png"",""time"":299},{""stimulus"":""img/1to3/4.png"",""time"":398},{""stimulus"":""img/1to3/5.png"",""time"":498},{""stimulus"":""img/1to3/6.png"",""time"":596},{""stimulus"":""img/1to3/7.png"",""time"":696},{""stimulus"":""img/1to3/8.png"",""time"":794},{""stimulus"":""img/1to3/9.png"",""time"":893},{""stimulus"":""img/1to3/10.png"",""time"":992},{""stimulus"":""img/1to3/11.png"",""time"":1091},{""stimulus"":""img/1to3/12.png"",""time"":1190}]","[]"
"image-keyboard-response","48","114853","0.0-5.0-1.22","56b8de29e1d0a200051517f8","bdp_cybrbll","Sat Mar 25 2023 22:19:08 GMT-0400 (Eastern Daylight Time)","491657","3","1","","null","","","","observe","","img/3to2/1.png","null","203","317","0.5","0.5","3","1","",""
"animation","49","116142","0.0-5.0-2.22","56b8de29e1d0a200051517f8","bdp_cybrbll","Sat Mar 25 2023 22:19:08 GMT-0400 (Eastern Daylight Time)","491657","3","1","","","","","","","","","","203","","","","3","1","[{""stimulus"":""img/3to1/1.png"",""time"":103},{""stimulus"":""img/3to1/2.png"",""time"":201},{""stimulus"":""img/3to1/3.png"",""time"":300},{""stimulus"":""img/3to1/4.png"",""time"":399},{""stimulus"":""img/3to1/5.png"",""time"":497},{""stimulus"":""img/3to1/6.png"",""time"":597},{""stimulus"":""img/3to1/7.png"",""time"":695},{""stimulus"":""img/3to1/8.png"",""time"":794},{""stimulus"":""img/3to1/9.png"",""time"":893},{""stimulus"":""img/3to1/10.png"",""time"":993},{""stimulus"":""img/3to1/11.png"",""time"":1092},{""stimulus"":""img/3to1/12.png"",""time"":1191}]","[]"
"image-keyboard-response","50","116720","0.0-5.0-1.23","56b8de29e1d0a200051517f8","bdp_cybrbll","Sat Mar 25 2023 22:19:08 GMT-0400 (Eastern Daylight Time)","491657","3","1","","null","","","","observe","","img/1to3/1.png","null","202","573","0.5","0.5","1","2","",""
"animation","51","118009","0.0-5.0-2.23","56b8de29e1d0a200051517f8","bdp_cybrbll","Sat Mar 25 2023 22:19:08 GMT-0400 (Eastern Daylight Time)","491657","3","1","","","","","","","","","","202","","","","1","2","[{""stimulus"":""img/1to2/1.png"",""time"":103},{""stimulus"":""img/1to2/2.png"",""time"":200},{""stimulus"":""img/1to2/3.png"",""time"":299},{""stimulus"":""img/1to2/4.png"",""time"":398},{""stimulus"":""img/1to2/5.png"",""time"":497},{""stimulus"":""img/1to2/6.png"",""time"":597},{""stimulus"":""img/1to2/7.png"",""time"":694},{""stimulus"":""img/1to2/8.png"",""time"":795},{""stimulus"":""img/1to2/9.png"",""time"":894},{""stimulus"":""img/1to2/10.png"",""time"":992},{""stimulus"":""img/1to2/11.png"",""time"":1092},{""stimulus"":""img/1to2/12.png"",""time"":1189}]","[]"
"image-keyboard-response","52","118981","0.0-5.0-1.24","56b8de29e1d0a200051517f8","bdp_cybrbll","Sat Mar 25 2023 22:19:08 GMT-0400 (Eastern Daylight Time)","491657","3","1","","967","","","","choice","","img/2to1/1.png","2","201","312","0.5","0.5","2","3","",""
"animation","53","120270","0.0-5.0-2.24","56b8de29e1d0a200051517f8","bdp_cybrbll","Sat Mar 25 2023 22:19:08 GMT-0400 (Eastern Daylight Time)","491657","3","1","","","","","","","","","","201","","","","2","3","[{""stimulus"":""img/2to3/1.png"",""time"":102},{""stimulus"":""img/2to3/2.png"",""time"":201},{""stimulus"":""img/2to3/3.png"",""time"":300},{""stimulus"":""img/2to3/4.png"",""time"":400},{""stimulus"":""img/2to3/5.png"",""time"":497},{""stimulus"":""img/2to3/6.png"",""time"":597},{""stimulus"":""img/2to3/7.png"",""time"":696},{""stimulus"":""img/2to3/8.png"",""time"":795},{""stimulus"":""img/2to3/9.png"",""time"":893},{""stimulus"":""img/2to3/10.png"",""time"":993},{""stimulus"":""img/2to3/11.png"",""time"":1092},{""stimulus"":""img/2to3/12.png"",""time"":1191}]","[]"
"image-keyboard-response","54","120679","0.0-5.0-1.25","56b8de29e1d0a200051517f8","bdp_cybrbll","Sat Mar 25 2023 22:19:08 GMT-0400 (Eastern Daylight Time)","491657","3","1","","null","","","","observe","","img/3to2/1.png","null","200","404","0.5","0.5","3","1","",""
"animation","55","121969","0.0-5.0-2.25","56b8de29e1d0a200051517f8","bdp_cybrbll","Sat Mar 25 2023 22:19:08 GMT-0400 (Eastern Daylight Time)","491657","3","1","","","","","","","","","","200","","","","3","1","[{""stimulus"":""img/3to1/1.png"",""time"":102},{""stimulus"":""img/3to1/2.png"",""time"":200},{""stimulus"":""img/3to1/3.png"",""time"":299},{""stimulus"":""img/3to1/4.png"",""time"":398},{""stimulus"":""img/3to1/5.png"",""time"":497},{""stimulus"":""img/3to1/6.png"",""time"":596},{""stimulus"":""img/3to1/7.png"",""time"":695},{""stimulus"":""img/3to1/8.png"",""time"":794},{""stimulus"":""img/3to1/9.png"",""time"":894},{""stimulus"":""img/3to1/10.png"",""time"":993},{""stimulus"":""img/3to1/11.png"",""time"":1091},{""stimulus"":""img/3to1/12.png"",""time"":1189}]","[]"
"image-keyboard-response","56","122222","0.0-5.0-1.26","56b8de29e1d0a200051517f8","bdp_cybrbll","Sat Mar 25 2023 22:19:08 GMT-0400 (Eastern Daylight Time)","491657","3","1","","null","","","","observe","","img/1to3/1.png","null","199","249","0.5","0.5","1","3","",""
"animation","57","123510","0.0-5.0-2.26","56b8de29e1d0a200051517f8","bdp_cybrbll","Sat Mar 25 2023 22:19:08 GMT-0400 (Eastern Daylight Time)","491657","3","1","","","","","","","","","","199","","","","1","3","[{""stimulus"":""img/1to3/1.png"",""time"":102},{""stimulus"":""img/1to3/2.png"",""time"":200},{""stimulus"":""img/1to3/3.png"",""time"":299},{""stimulus"":""img/1to3/4.png"",""time"":398},{""stimulus"":""img/1to3/5.png"",""time"":497},{""stimulus"":""img/1to3/6.png"",""time"":596},{""stimulus"":""img/1to3/7.png"",""time"":695},{""stimulus"":""img/1to3/8.png"",""time"":793},{""stimulus"":""img/1to3/9.png"",""time"":892},{""stimulus"":""img/1to3/10.png"",""time"":992},{""stimulus"":""img/1to3/11.png"",""time"":1091},{""stimulus"":""img/1to3/12.png"",""time"":1190}]","[]"
"image-keyboard-response","58","124099","0.0-5.0-1.27","56b8de29e1d0a200051517f8","bdp_cybrbll","Sat Mar 25 2023 22:19:08 GMT-0400 (Eastern Daylight Time)","491657","3","1","","null","","","","observe","","img/3to2/1.png","null","198","584","0.5","0.5","3","1","",""
"animation","59","125389","0.0-5.0-2.27","56b8de29e1d0a200051517f8","bdp_cybrbll","Sat Mar 25 2023 22:19:08 GMT-0400 (Eastern Daylight Time)","491657","3","1","","","","","","","","","","198","","","","3","1","[{""stimulus"":""img/3to1/1.png"",""time"":102},{""stimulus"":""img/3to1/2.png"",""time"":201},{""stimulus"":""img/3to1/3.png"",""time"":299},{""stimulus"":""img/3to1/4.png"",""time"":399},{""stimulus"":""img/3to1/5.png"",""time"":496},{""stimulus"":""img/3to1/6.png"",""time"":595},{""stimulus"":""img/3to1/7.png"",""time"":695},{""stimulus"":""img/3to1/8.png"",""time"":794},{""stimulus"":""img/3to1/9.png"",""time"":893},{""stimulus"":""img/3to1/10.png"",""time"":992},{""stimulus"":""img/3to1/11.png"",""time"":1091},{""stimulus"":""img/3to1/12.png"",""time"":1191}]","[]"
"image-keyboard-response","60","125854","0.0-5.0-1.28","56b8de29e1d0a200051517f8","bdp_cybrbll","Sat Mar 25 2023 22:19:08 GMT-0400 (Eastern Daylight Time)","491657","3","1","","null","","","","observe","","img/1to3/1.png","null","197","462","0.5","0.5","1","2","",""
"animation","61","127144","0.0-5.0-2.28","56b8de29e1d0a200051517f8","bdp_cybrbll","Sat Mar 25 2023 22:19:08 GMT-0400 (Eastern Daylight Time)","491657","3","1","","","","","","","","","","197","","","","1","2","[{""stimulus"":""img/1to2/1.png"",""time"":102},{""stimulus"":""img/1to2/2.png"",""time"":201},{""stimulus"":""img/1to2/3.png"",""time"":300},{""stimulus"":""img/1to2/4.png"",""time"":398},{""stimulus"":""img/1to2/5.png"",""time"":498},{""stimulus"":""img/1to2/6.png"",""time"":596},{""stimulus"":""img/1to2/7.png"",""time"":694},{""stimulus"":""img/1to2/8.png"",""time"":795},{""stimulus"":""img/1to2/9.png"",""time"":895},{""stimulus"":""img/1to2/10.png"",""time"":993},{""stimulus"":""img/1to2/11.png"",""time"":1092},{""stimulus"":""img/1to2/12.png"",""time"":1192}]","[]"
"image-keyboard-response","62","127548","0.0-5.0-1.29","56b8de29e1d0a200051517f8","bdp_cybrbll","Sat Mar 25 2023 22:19:08 GMT-0400 (Eastern Daylight Time)","491657","3","1","","399","","","","choice","","img/2to1/1.png","1","196","481","0.5","0.5","2","1","",""
"animation","63","128837","0.0-5.0-2.29","56b8de29e1d0a200051517f8","bdp_cybrbll","Sat Mar 25 2023 22:19:08 GMT-0400 (Eastern Daylight Time)","491657","3","1","","","","","","","","","","196","","","","2","1","[{""stimulus"":""img/2to1/1.png"",""time"":101},{""stimulus"":""img/2to1/2.png"",""time"":201},{""stimulus"":""img/2to1/3.png"",""time"":300},{""stimulus"":""img/2to1/4.png"",""time"":398},{""stimulus"":""img/2to1/5.png"",""time"":498},{""stimulus"":""img/2to1/6.png"",""time"":597},{""stimulus"":""img/2to1/7.png"",""time"":696},{""stimulus"":""img/2to1/8.png"",""time"":795},{""stimulus"":""img/2to1/9.png"",""time"":894},{""stimulus"":""img/2to1/10.png"",""time"":993},{""stimulus"":""img/2to1/11.png"",""time"":1092},{""stimulus"":""img/2to1/12.png"",""time"":1191}]","[]"
"image-keyboard-response","64","129737","0.0-5.0-1.30","56b8de29e1d0a200051517f8","bdp_cybrbll","Sat Mar 25 2023 22:19:08 GMT-0400 (Eastern Daylight Time)","491657","3","1","","null","","","","observe","","img/1to3/1.png","null","195","895","0.5","0.5","1","3","",""
"animation","65","131027","0.0-5.0-2.30","56b8de29e1d0a200051517f8","bdp_cybrbll","Sat Mar 25 2023 22:19:08 GMT-0400 (Eastern Daylight Time)","491657","3","1","","","","","","","","","","195","","","","1","3","[{""stimulus"":""img/1to3/1.png"",""time"":102},{""stimulus"":""img/1to3/2.png"",""time"":201},{""stimulus"":""img/1to3/3.png"",""time"":300},{""stimulus"":""img/1to3/4.png"",""time"":399},{""stimulus"":""img/1to3/5.png"",""time"":498},{""stimulus"":""img/1to3/6.png"",""time"":597},{""stimulus"":""img/1to3/7.png"",""time"":696},{""stimulus"":""img/1to3/8.png"",""time"":795},{""stimulus"":""img/1to3/9.png"",""time"":894},{""stimulus"":""img/1to3/10.png"",""time"":993},{""stimulus"":""img/1to3/11.png"",""time"":1092},{""stimulus"":""img/1to3/12.png"",""time"":1190}]","[]"
"image-keyboard-response","66","131360","0.0-5.0-1.31","56b8de29e1d0a200051517f8","bdp_cybrbll","Sat Mar 25 2023 22:19:08 GMT-0400 (Eastern Daylight Time)","491657","3","1","","null","","","","observe","","img/3to2/1.png","null","194","328","0.5","0.5","3","1","",""
"animation","67","132650","0.0-5.0-2.31","56b8de29e1d0a200051517f8","bdp_cybrbll","Sat Mar 25 2023 22:19:08 GMT-0400 (Eastern Daylight Time)","491657","3","1","","","","","","","","","","194","","","","3","1","[{""stimulus"":""img/3to1/1.png"",""time"":102},{""stimulus"":""img/3to1/2.png"",""time"":201},{""stimulus"":""img/3to1/3.png"",""time"":300},{""stimulus"":""img/3to1/4.png"",""time"":399},{""stimulus"":""img/3to1/5.png"",""time"":498},{""stimulus"":""img/3to1/6.png"",""time"":596},{""stimulus"":""img/3to1/7.png"",""time"":696},{""stimulus"":""img/3to1/8.png"",""time"":795},{""stimulus"":""img/3to1/9.png"",""time"":894},{""stimulus"":""img/3to1/10.png"",""time"":993},{""stimulus"":""img/3to1/11.png"",""time"":1092},{""stimulus"":""img/3to1/12.png"",""time"":1191}]","[]"
"image-keyboard-response","68","133275","0.0-5.0-1.32","56b8de29e1d0a200051517f8","bdp_cybrbll","Sat Mar 25 2023 22:19:08 GMT-0400 (Eastern Daylight Time)","491657","3","1","","null","","","","observe","","img/1to3/1.png","null","193","620","0.5","0.5","1","3","",""
"animation","69","134565","0.0-5.0-2.32","56b8de29e1d0a200051517f8","bdp_cybrbll","Sat Mar 25 2023 22:19:08 GMT-0400 (Eastern Daylight Time)","491657","3","1","","","","","","","","","","193","","","","1","3","[{""stimulus"":""img/1to3/1.png"",""time"":104},{""stimulus"":""img/1to3/2.png"",""time"":201},{""stimulus"":""img/1to3/3.png"",""time"":300},{""stimulus"":""img/1to3/4.png"",""time"":398},{""stimulus"":""img/1to3/5.png"",""time"":498},{""stimulus"":""img/1to3/6.png"",""time"":597},{""stimulus"":""img/1to3/7.png"",""time"":695},{""stimulus"":""img/1to3/8.png"",""time"":794},{""stimulus"":""img/1to3/9.png"",""time"":894},{""stimulus"":""img/1to3/10.png"",""time"":992},{""stimulus"":""img/1to3/11.png"",""time"":1091},{""stimulus"":""img/1to3/12.png"",""time"":1190}]","[]"
"image-keyboard-response","70","134845","0.0-5.0-1.33","56b8de29e1d0a200051517f8","bdp_cybrbll","Sat Mar 25 2023 22:19:08 GMT-0400 (Eastern Daylight Time)","491657","3","1","","null","","","","observe","","img/3to2/1.png","null","192","276","0.5","0.5","3","1","",""
"animation","71","136134","0.0-5.0-2.33","56b8de29e1d0a200051517f8","bdp_cybrbll","Sat Mar 25 2023 22:19:08 GMT-0400 (Eastern Daylight Time)","491657","3","1","","","","","","","","","","192","","","","3","1","[{""stimulus"":""img/3to1/1.png"",""time"":101},{""stimulus"":""img/3to1/2.png"",""time"":199},{""stimulus"":""img/3to1/3.png"",""time"":298},{""stimulus"":""img/3to1/4.png"",""time"":397},{""stimulus"":""img/3to1/5.png"",""time"":497},{""stimulus"":""img/3to1/6.png"",""time"":597},{""stimulus"":""img/3to1/7.png"",""time"":696},{""stimulus"":""img/3to1/8.png"",""time"":794},{""stimulus"":""img/3to1/9.png"",""time"":893},{""stimulus"":""img/3to1/10.png"",""time"":993},{""stimulus"":""img/3to1/11.png"",""time"":1090},{""stimulus"":""img/3to1/12.png"",""time"":1189}]","[]"
"image-keyboard-response","72","136441","0.0-5.0-1.34","56b8de29e1d0a200051517f8","bdp_cybrbll","Sat Mar 25 2023 22:19:08 GMT-0400 (Eastern Daylight Time)","491657","3","1","","null","","","","observe","","img/1to3/1.png","null","191","302","0.5","0.5","1","3","",""
"animation","73","137731","0.0-5.0-2.34","56b8de29e1d0a200051517f8","bdp_cybrbll","Sat Mar 25 2023 22:19:08 GMT-0400 (Eastern Daylight Time)","491657","3","1","","","","","","","","","","191","","","","1","3","[{""stimulus"":""img/1to3/1.png"",""time"":101},{""stimulus"":""img/1to3/2.png"",""time"":200},{""stimulus"":""img/1to3/3.png"",""time"":300},{""stimulus"":""img/1to3/4.png"",""time"":398},{""stimulus"":""img/1to3/5.png"",""time"":498},{""stimulus"":""img/1to3/6.png"",""time"":597},{""stimulus"":""img/1to3/7.png"",""time"":696},{""stimulus"":""img/1to3/8.png"",""time"":794},{""stimulus"":""img/1to3/9.png"",""time"":894},{""stimulus"":""img/1to3/10.png"",""time"":993},{""stimulus"":""img/1to3/11.png"",""time"":1092},{""stimulus"":""img/1to3/12.png"",""time"":1191}]","[]"
"image-keyboard-response","74","138228","0.0-5.0-1.35","56b8de29e1d0a200051517f8","bdp_cybrbll","Sat Mar 25 2023 22:19:08 GMT-0400 (Eastern Daylight Time)","491657","3","1","","null","","","","observe","","img/3to2/1.png","null","190","492","0.5","0.5","3","1","",""
"animation","75","139517","0.0-5.0-2.35","56b8de29e1d0a200051517f8","bdp_cybrbll","Sat Mar 25 2023 22:19:08 GMT-0400 (Eastern Daylight Time)","491657","3","1","","","","","","","","","","190","","","","3","1","[{""stimulus"":""img/3to1/1.png"",""time"":102},{""stimulus"":""img/3to1/2.png"",""time"":200},{""stimulus"":""img/3to1/3.png"",""time"":299},{""stimulus"":""img/3to1/4.png"",""time"":399},{""stimulus"":""img/3to1/5.png"",""time"":497},{""stimulus"":""img/3to1/6.png"",""time"":597},{""stimulus"":""img/3to1/7.png"",""time"":696},{""stimulus"":""img/3to1/8.png"",""time"":795},{""stimulus"":""img/3to1/9.png"",""time"":893},{""stimulus"":""img/3to1/10.png"",""time"":992},{""stimulus"":""img/3to1/11.png"",""time"":1091},{""stimulus"":""img/3to1/12.png"",""time"":1190}]","[]"
"image-keyboard-response","76","140402","0.0-5.0-1.36","56b8de29e1d0a200051517f8","bdp_cybrbll","Sat Mar 25 2023 22:19:08 GMT-0400 (Eastern Daylight Time)","491657","3","1","","null","","","","observe","","img/1to3/1.png","null","189","881","0.5","0.5","1","2","",""
"animation","77","141692","0.0-5.0-2.36","56b8de29e1d0a200051517f8","bdp_cybrbll","Sat Mar 25 2023 22:19:08 GMT-0400 (Eastern Daylight Time)","491657","3","1","","","","","","","","","","189","","","","1","2","[{""stimulus"":""img/1to2/1.png"",""time"":104},{""stimulus"":""img/1to2/2.png"",""time"":200},{""stimulus"":""img/1to2/3.png"",""time"":300},{""stimulus"":""img/1to2/4.png"",""time"":399},{""stimulus"":""img/1to2/5.png"",""time"":497},{""stimulus"":""img/1to2/6.png"",""time"":596},{""stimulus"":""img/1to2/7.png"",""time"":696},{""stimulus"":""img/1to2/8.png"",""time"":794},{""stimulus"":""img/1to2/9.png"",""time"":894},{""stimulus"":""img/1to2/10.png"",""time"":992},{""stimulus"":""img/1to2/11.png"",""time"":1092},{""stimulus"":""img/1to2/12.png"",""time"":1191}]","[]"
"image-keyboard-response","78","142122","0.0-5.0-1.37","56b8de29e1d0a200051517f8","bdp_cybrbll","Sat Mar 25 2023 22:19:08 GMT-0400 (Eastern Daylight Time)","491657","3","1","","426","","","","choice","","img/2to1/1.png","2","188","177","0.5","0.5","2","3","",""
"animation","79","143411","0.0-5.0-2.37","56b8de29e1d0a200051517f8","bdp_cybrbll","Sat Mar 25 2023 22:19:08 GMT-0400 (Eastern Daylight Time)","491657","3","1","","","","","","","","","","188","","","","2","3","[{""stimulus"":""img/2to3/1.png"",""time"":101},{""stimulus"":""img/2to3/2.png"",""time"":201},{""stimulus"":""img/2to3/3.png"",""time"":300},{""stimulus"":""img/2to3/4.png"",""time"":398},{""stimulus"":""img/2to3/5.png"",""time"":497},{""stimulus"":""img/2to3/6.png"",""time"":597},{""stimulus"":""img/2to3/7.png"",""time"":695},{""stimulus"":""img/2to3/8.png"",""time"":794},{""stimulus"":""img/2to3/9.png"",""time"":894},{""stimulus"":""img/2to3/10.png"",""time"":993},{""stimulus"":""img/2to3/11.png"",""time"":1092},{""stimulus"":""img/2to3/12.png"",""time"":1191}]","[]"
"image-keyboard-response","80","144122","0.0-5.0-1.38","56b8de29e1d0a200051517f8","bdp_cybrbll","Sat Mar 25 2023 22:19:08 GMT-0400 (Eastern Daylight Time)","491657","3","1","","null","","","","observe","","img/3to2/1.png","null","187","706","0.5","0.5","3","1","",""
"animation","81","145411","0.0-5.0-2.38","56b8de29e1d0a200051517f8","bdp_cybrbll","Sat Mar 25 2023 22:19:08 GMT-0400 (Eastern Daylight Time)","491657","3","1","","","","","","","","","","187","","","","3","1","[{""stimulus"":""img/3to1/1.png"",""time"":102},{""stimulus"":""img/3to1/2.png"",""time"":201},{""stimulus"":""img/3to1/3.png"",""time"":300},{""stimulus"":""img/3to1/4.png"",""time"":399},{""stimulus"":""img/3to1/5.png"",""time"":498},{""stimulus"":""img/3to1/6.png"",""time"":597},{""stimulus"":""img/3to1/7.png"",""time"":696},{""stimulus"":""img/3to1/8.png"",""time"":795},{""stimulus"":""img/3to1/9.png"",""time"":894},{""stimulus"":""img/3to1/10.png"",""time"":993},{""stimulus"":""img/3to1/11.png"",""time"":1092},{""stimulus"":""img/3to1/12.png"",""time"":1190}]","[]"
"image-keyboard-response","82","145754","0.0-5.0-1.39","56b8de29e1d0a200051517f8","bdp_cybrbll","Sat Mar 25 2023 22:19:08 GMT-0400 (Eastern Daylight Time)","491657","3","1","","null","","","","observe","","img/1to3/1.png","null","186","339","0.5","0.5","1","2","",""
"animation","83","147043","0.0-5.0-2.39","56b8de29e1d0a200051517f8","bdp_cybrbll","Sat Mar 25 2023 22:19:08 GMT-0400 (Eastern Daylight Time)","491657","3","1","","","","","","","","","","186","","","","1","2","[{""stimulus"":""img/1to2/1.png"",""time"":100},{""stimulus"":""img/1to2/2.png"",""time"":200},{""stimulus"":""img/1to2/3.png"",""time"":299},{""stimulus"":""img/1to2/4.png"",""time"":398},{""stimulus"":""img/1to2/5.png"",""time"":497},{""stimulus"":""img/1to2/6.png"",""time"":596},{""stimulus"":""img/1to2/7.png"",""time"":695},{""stimulus"":""img/1to2/8.png"",""time"":793},{""stimulus"":""img/1to2/9.png"",""time"":893},{""stimulus"":""img/1to2/10.png"",""time"":992},{""stimulus"":""img/1to2/11.png"",""time"":1091},{""stimulus"":""img/1to2/12.png"",""time"":1190}]","[]"
"image-keyboard-response","84","148156","0.0-5.0-1.40","56b8de29e1d0a200051517f8","bdp_cybrbll","Sat Mar 25 2023 22:19:08 GMT-0400 (Eastern Daylight Time)","491657","3","1","","1110","","","","choice","","img/2to1/1.png","1","185","458","0.5","0.5","2","1","",""
"animation","85","149445","0.0-5.0-2.40","56b8de29e1d0a200051517f8","bdp_cybrbll","Sat Mar 25 2023 22:19:08 GMT-0400 (Eastern Daylight Time)","491657","3","1","","","","","","","","","","185","","","","2","1","[{""stimulus"":""img/2to1/1.png"",""time"":102},{""stimulus"":""img/2to1/2.png"",""time"":202},{""stimulus"":""img/2to1/3.png"",""time"":300},{""stimulus"":""img/2to1/4.png"",""time"":399},{""stimulus"":""img/2to1/5.png"",""time"":497},{""stimulus"":""img/2to1/6.png"",""time"":597},{""stimulus"":""img/2to1/7.png"",""time"":696},{""stimulus"":""img/2to1/8.png"",""time"":795},{""stimulus"":""img/2to1/9.png"",""time"":894},{""stimulus"":""img/2to1/10.png"",""time"":994},{""stimulus"":""img/2to1/11.png"",""time"":1092},{""stimulus"":""img/2to1/12.png"",""time"":1191}]","[]"
"image-keyboard-response","86","149663","0.0-5.0-1.41","56b8de29e1d0a200051517f8","bdp_cybrbll","Sat Mar 25 2023 22:19:08 GMT-0400 (Eastern Daylight Time)","491657","3","1","","null","","","","observe","","img/1to3/1.png","null","184","213","0.5","0.5","1","3","",""
"animation","87","150953","0.0-5.0-2.41","56b8de29e1d0a200051517f8","bdp_cybrbll","Sat Mar 25 2023 22:19:08 GMT-0400 (Eastern Daylight Time)","491657","3","1","","","","","","","","","","184","","","","1","3","[{""stimulus"":""img/1to3/1.png"",""time"":103},{""stimulus"":""img/1to3/2.png"",""time"":200},{""stimulus"":""img/1to3/3.png"",""time"":300},{""stimulus"":""img/1to3/4.png"",""time"":399},{""stimulus"":""img/1to3/5.png"",""time"":498},{""stimulus"":""img/1to3/6.png"",""time"":597},{""stimulus"":""img/1to3/7.png"",""time"":696},{""stimulus"":""img/1to3/8.png"",""time"":795},{""stimulus"":""img/1to3/9.png"",""time"":893},{""stimulus"":""img/1to3/10.png"",""time"":993},{""stimulus"":""img/1to3/11.png"",""time"":1092},{""stimulus"":""img/1to3/12.png"",""time"":1190}]","[]"
"image-keyboard-response","88","151421","0.0-5.0-1.42","56b8de29e1d0a200051517f8","bdp_cybrbll","Sat Mar 25 2023 22:19:08 GMT-0400 (Eastern Daylight Time)","491657","3","1","","null","","","","observe","","img/3to2/1.png","null","183","463","0.5","0.5","3","1","",""
"animation","89","152710","0.0-5.0-2.42","56b8de29e1d0a200051517f8","bdp_cybrbll","Sat Mar 25 2023 22:19:08 GMT-0400 (Eastern Daylight Time)","491657","3","1","","","","","","","","","","183","","","","3","1","[{""stimulus"":""img/3to1/1.png"",""time"":102},{""stimulus"":""img/3to1/2.png"",""time"":201},{""stimulus"":""img/3to1/3.png"",""time"":300},{""stimulus"":""img/3to1/4.png"",""time"":398},{""stimulus"":""img/3to1/5.png"",""time"":497},{""stimulus"":""img/3to1/6.png"",""time"":596},{""stimulus"":""img/3to1/7.png"",""time"":695},{""stimulus"":""img/3to1/8.png"",""time"":794},{""stimulus"":""img/3to1/9.png"",""time"":893},{""stimulus"":""img/3to1/10.png"",""time"":993},{""stimulus"":""img/3to1/11.png"",""time"":1093},{""stimulus"":""img/3to1/12.png"",""time"":1190}]","[]"
"image-keyboard-response","90","153214","0.0-5.0-1.43","56b8de29e1d0a200051517f8","bdp_cybrbll","Sat Mar 25 2023 22:19:08 GMT-0400 (Eastern Daylight Time)","491657","3","1","","null","","","","observe","","img/1to3/1.png","null","182","499","0.5","0.5","1","2","",""
"animation","91","154504","0.0-5.0-2.43","56b8de29e1d0a200051517f8","bdp_cybrbll","Sat Mar 25 2023 22:19:08 GMT-0400 (Eastern Daylight Time)","491657","3","1","","","","","","","","","","182","","","","1","2","[{""stimulus"":""img/1to2/1.png"",""time"":102},{""stimulus"":""img/1to2/2.png"",""time"":201},{""stimulus"":""img/1to2/3.png"",""time"":300},{""stimulus"":""img/1to2/4.png"",""time"":398},{""stimulus"":""img/1to2/5.png"",""time"":498},{""stimulus"":""img/1to2/6.png"",""time"":598},{""stimulus"":""img/1to2/7.png"",""time"":696},{""stimulus"":""img/1to2/8.png"",""time"":795},{""stimulus"":""img/1to2/9.png"",""time"":893},{""stimulus"":""img/1to2/10.png"",""time"":993},{""stimulus"":""img/1to2/11.png"",""time"":1091},{""stimulus"":""img/1to2/12.png"",""time"":1191}]","[]"
"image-keyboard-response","92","155174","0.0-5.0-1.44","56b8de29e1d0a200051517f8","bdp_cybrbll","Sat Mar 25 2023 22:19:08 GMT-0400 (Eastern Daylight Time)","491657","3","1","","667","","","","choice","","img/2to1/1.png","1","181","732","0.5","0.5","2","1","",""
"animation","93","156462","0.0-5.0-2.44","56b8de29e1d0a200051517f8","bdp_cybrbll","Sat Mar 25 2023 22:19:08 GMT-0400 (Eastern Daylight Time)","491657","3","1","","","","","","","","","","181","","","","2","1","[{""stimulus"":""img/2to1/1.png"",""time"":100},{""stimulus"":""img/2to1/2.png"",""time"":200},{""stimulus"":""img/2to1/3.png"",""time"":299},{""stimulus"":""img/2to1/4.png"",""time"":399},{""stimulus"":""img/2to1/5.png"",""time"":497},{""stimulus"":""img/2to1/6.png"",""time"":596},{""stimulus"":""img/2to1/7.png"",""time"":694},{""stimulus"":""img/2to1/8.png"",""time"":794},{""stimulus"":""img/2to1/9.png"",""time"":893},{""stimulus"":""img/2to1/10.png"",""time"":992},{""stimulus"":""img/2to1/11.png"",""time"":1091},{""stimulus"":""img/2to1/12.png"",""time"":1191}]","[]"
"image-keyboard-response","94","156775","0.0-5.0-1.45","56b8de29e1d0a200051517f8","bdp_cybrbll","Sat Mar 25 2023 22:19:08 GMT-0400 (Eastern Daylight Time)","491657","3","1","","null","","","","observe","","img/1to3/1.png","null","180","307","0.5","0.5","1","3","",""
"animation","95","158064","0.0-5.0-2.45","56b8de29e1d0a200051517f8","bdp_cybrbll","Sat Mar 25 2023 22:19:08 GMT-0400 (Eastern Daylight Time)","491657","3","1","","","","","","","","","","180","","","","1","3","[{""stimulus"":""img/1to3/1.png"",""time"":102},{""stimulus"":""img/1to3/2.png"",""time"":201},{""stimulus"":""img/1to3/3.png"",""time"":300},{""stimulus"":""img/1to3/4.png"",""time"":399},{""stimulus"":""img/1to3/5.png"",""time"":498},{""stimulus"":""img/1to3/6.png"",""time"":597},{""stimulus"":""img/1to3/7.png"",""time"":695},{""stimulus"":""img/1to3/8.png"",""time"":794},{""stimulus"":""img/1to3/9.png"",""time"":893},{""stimulus"":""img/1to3/10.png"",""time"":993},{""stimulus"":""img/1to3/11.png"",""time"":1092},{""stimulus"":""img/1to3/12.png"",""time"":1191}]","[]"
"image-keyboard-response","96","158654","0.0-5.0-1.46","56b8de29e1d0a200051517f8","bdp_cybrbll","Sat Mar 25 2023 22:19:08 GMT-0400 (Eastern Daylight Time)","491657","3","1","","null","","","","observe","","img/3to2/1.png","null","179","585","0.5","0.5","3","1","",""
"animation","97","159943","0.0-5.0-2.46","56b8de29e1d0a200051517f8","bdp_cybrbll","Sat Mar 25 2023 22:19:08 GMT-0400 (Eastern Daylight Time)","491657","3","1","","","","","","","","","","179","","","","3","1","[{""stimulus"":""img/3to1/1.png"",""time"":102},{""stimulus"":""img/3to1/2.png"",""time"":200},{""stimulus"":""img/3to1/3.png"",""time"":299},{""stimulus"":""img/3to1/4.png"",""time"":399},{""stimulus"":""img/3to1/5.png"",""time"":497},{""stimulus"":""img/3to1/6.png"",""time"":596},{""stimulus"":""img/3to1/7.png"",""time"":695},{""stimulus"":""img/3to1/8.png"",""time"":794},{""stimulus"":""img/3to1/9.png"",""time"":893},{""stimulus"":""img/3to1/10.png"",""time"":992},{""stimulus"":""img/3to1/11.png"",""time"":1091},{""stimulus"":""img/3to1/12.png"",""time"":1191}]","[]"
"image-keyboard-response","98","160169","0.0-5.0-1.47","56b8de29e1d0a200051517f8","bdp_cybrbll","Sat Mar 25 2023 22:19:08 GMT-0400 (Eastern Daylight Time)","491657","3","1","","null","","","","observe","","img/1to3/1.png","null","178","222","0.5","0.5","1","3","",""
"animation","99","161458","0.0-5.0-2.47","56b8de29e1d0a200051517f8","bdp_cybrbll","Sat Mar 25 2023 22:19:08 GMT-0400 (Eastern Daylight Time)","491657","3","1","","","","","","","","","","178","","","","1","3","[{""stimulus"":""img/1to3/1.png"",""time"":103},{""stimulus"":""img/1to3/2.png"",""time"":201},{""stimulus"":""img/1to3/3.png"",""time"":300},{""stimulus"":""img/1to3/4.png"",""time"":398},{""stimulus"":""img/1to3/5.png"",""time"":497},{""stimulus"":""img/1to3/6.png"",""time"":597},{""stimulus"":""img/1to3/7.png"",""time"":695},{""stimulus"":""img/1to3/8.png"",""time"":795},{""stimulus"":""img/1to3/9.png"",""time"":894},{""stimulus"":""img/1to3/10.png"",""time"":993},{""stimulus"":""img/1to3/11.png"",""time"":1092},{""stimulus"":""img/1to3/12.png"",""time"":1191}]","[]"
"image-keyboard-response","100","161638","0.0-5.0-1.48","56b8de29e1d0a200051517f8","bdp_cybrbll","Sat Mar 25 2023 22:19:08 GMT-0400 (Eastern Daylight Time)","491657","3","1","","null","","","","observe","","img/3to2/1.png","null","177","175","0.5","0.5","3","2","",""
"animation","101","162927","0.0-5.0-2.48","56b8de29e1d0a200051517f8","bdp_cybrbll","Sat Mar 25 2023 22:19:08 GMT-0400 (Eastern Daylight Time)","491657","3","1","","","","","","","","","","177","","","","3","2","[{""stimulus"":""img/3to2/1.png"",""time"":101},{""stimulus"":""img/3to2/2.png"",""time"":200},{""stimulus"":""img/3to2/3.png"",""time"":299},{""stimulus"":""img/3to2/4.png"",""time"":399},{""stimulus"":""img/3to2/5.png"",""time"":498},{""stimulus"":""img/3to2/6.png"",""time"":595},{""stimulus"":""img/3to2/7.png"",""time"":696},{""stimulus"":""img/3to2/8.png"",""time"":794},{""stimulus"":""img/3to2/9.png"",""time"":893},{""stimulus"":""img/3to2/10.png"",""time"":991},{""stimulus"":""img/3to2/11.png"",""time"":1091},{""stimulus"":""img/3to2/12.png"",""time"":1189}]","[]"
"image-keyboard-response","102","164255","0.0-5.0-1.49","56b8de29e1d0a200051517f8","bdp_cybrbll","Sat Mar 25 2023 22:19:08 GMT-0400 (Eastern Daylight Time)","491657","3","1","","1323","","","","choice","","img/2to1/1.png","2","176","255","0.5","0.5","2","3","",""
"animation","103","165544","0.0-5.0-2.49","56b8de29e1d0a200051517f8","bdp_cybrbll","Sat Mar 25 2023 22:19:08 GMT-0400 (Eastern Daylight Time)","491657","3","1","","","","","","","","","","176","","","","2","3","[{""stimulus"":""img/2to3/1.png"",""time"":103},{""stimulus"":""img/2to3/2.png"",""time"":200},{""stimulus"":""img/2to3/3.png"",""time"":300},{""stimulus"":""img/2to3/4.png"",""time"":399},{""stimulus"":""img/2to3/5.png"",""time"":498},{""stimulus"":""img/2to3/6.png"",""time"":596},{""stimulus"":""img/2to3/7.png"",""time"":695},{""stimulus"":""img/2to3/8.png"",""time"":794},{""stimulus"":""img/2to3/9.png"",""time"":893},{""stimulus"":""img/2to3/10.png"",""time"":992},{""stimulus"":""img/2to3/11.png"",""time"":1091},{""stimulus"":""img/2to3/12.png"",""time"":1190}]","[]"
"image-keyboard-response","104","165910","0.0-5.0-1.50","56b8de29e1d0a200051517f8","bdp_cybrbll","Sat Mar 25 2023 22:19:08 GMT-0400 (Eastern Daylight Time)","491657","3","1","","null","","","","observe","","img/3to2/1.png","null","175","362","0.5","0.5","3","2","",""
"animation","105","167200","0.0-5.0-2.50","56b8de29e1d0a200051517f8","bdp_cybrbll","Sat Mar 25 2023 22:19:08 GMT-0400 (Eastern Daylight Time)","491657","3","1","","","","","","","","","","175","","","","3","2","[{""stimulus"":""img/3to2/1.png"",""time"":103},{""stimulus"":""img/3to2/2.png"",""time"":201},{""stimulus"":""img/3to2/3.png"",""time"":300},{""stimulus"":""img/3to2/4.png"",""time"":399},{""stimulus"":""img/3to2/5.png"",""time"":500},{""stimulus"":""img/3to2/6.png"",""time"":596},{""stimulus"":""img/3to2/7.png"",""time"":696},{""stimulus"":""img/3to2/8.png"",""time"":794},{""stimulus"":""img/3to2/9.png"",""time"":894},{""stimulus"":""img/3to2/10.png"",""time"":993},{""stimulus"":""img/3to2/11.png"",""time"":1092},{""stimulus"":""img/3to2/12.png"",""time"":1191}]","[]"
"image-keyboard-response","106","167821","0.0-5.0-1.51","56b8de29e1d0a200051517f8","bdp_cybrbll","Sat Mar 25 2023 22:19:08 GMT-0400 (Eastern Daylight Time)","491657","3","1","","619","","","","choice","","img/2to1/1.png","1","174","424","0.5","0.5","2","1","",""
"animation","107","169110","0.0-5.0-2.51","56b8de29e1d0a200051517f8","bdp_cybrbll","Sat Mar 25 2023 22:19:08 GMT-0400 (Eastern Daylight Time)","491657","3","1","","","","","","","","","","174","","","","2","1","[{""stimulus"":""img/2to1/1.png"",""time"":103},{""stimulus"":""img/2to1/2.png"",""time"":202},{""stimulus"":""img/2to1/3.png"",""time"":300},{""stimulus"":""img/2to1/4.png"",""time"":399},{""stimulus"":""img/2to1/5.png"",""time"":498},{""stimulus"":""img/2to1/6.png"",""time"":595},{""stimulus"":""img/2to1/7.png"",""time"":696},{""stimulus"":""img/2to1/8.png"",""time"":795},{""stimulus"":""img/2to1/9.png"",""time"":894},{""stimulus"":""img/2to1/10.png"",""time"":993},{""stimulus"":""img/2to1/11.png"",""time"":1092},{""stimulus"":""img/2to1/12.png"",""time"":1191}]","[]"
"image-keyboard-response","108","169573","0.0-5.0-1.52","56b8de29e1d0a200051517f8","bdp_cybrbll","Sat Mar 25 2023 22:19:08 GMT-0400 (Eastern Daylight Time)","491657","3","1","","null","","","","observe","","img/1to3/1.png","null","173","458","0.5","0.5","1","3","",""
"animation","109","170862","0.0-5.0-2.52","56b8de29e1d0a200051517f8","bdp_cybrbll","Sat Mar 25 2023 22:19:08 GMT-0400 (Eastern Daylight Time)","491657","3","1","","","","","","","","","","173","","","","1","3","[{""stimulus"":""img/1to3/1.png"",""time"":102},{""stimulus"":""img/1to3/2.png"",""time"":201},{""stimulus"":""img/1to3/3.png"",""time"":300},{""stimulus"":""img/1to3/4.png"",""time"":398},{""stimulus"":""img/1to3/5.png"",""time"":497},{""stimulus"":""img/1to3/6.png"",""time"":598},{""stimulus"":""img/1to3/7.png"",""time"":696},{""stimulus"":""img/1to3/8.png"",""time"":797},{""stimulus"":""img/1to3/9.png"",""time"":894},{""stimulus"":""img/1to3/10.png"",""time"":992},{""stimulus"":""img/1to3/11.png"",""time"":1091},{""stimulus"":""img/1to3/12.png"",""time"":1191}]","[]"
"image-keyboard-response","110","171394","0.0-5.0-1.53","56b8de29e1d0a200051517f8","bdp_cybrbll","Sat Mar 25 2023 22:19:08 GMT-0400 (Eastern Daylight Time)","491657","3","1","","null","","","","observe","","img/3to2/1.png","null","172","529","0.5","0.5","3","1","",""
"animation","111","172682","0.0-5.0-2.53","56b8de29e1d0a200051517f8","bdp_cybrbll","Sat Mar 25 2023 22:19:08 GMT-0400 (Eastern Daylight Time)","491657","3","1","","","","","","","","","","172","","","","3","1","[{""stimulus"":""img/3to1/1.png"",""time"":101},{""stimulus"":""img/3to1/2.png"",""time"":199},{""stimulus"":""img/3to1/3.png"",""time"":299},{""stimulus"":""img/3to1/4.png"",""time"":398},{""stimulus"":""img/3to1/5.png"",""time"":497},{""stimulus"":""img/3to1/6.png"",""time"":596},{""stimulus"":""img/3to1/7.png"",""time"":696},{""stimulus"":""img/3to1/8.png"",""time"":794},{""stimulus"":""img/3to1/9.png"",""time"":893},{""stimulus"":""img/3to1/10.png"",""time"":992},{""stimulus"":""img/3to1/11.png"",""time"":1091},{""stimulus"":""img/3to1/12.png"",""time"":1190}]","[]"
"image-keyboard-response","112","173147","0.0-5.0-1.54","56b8de29e1d0a200051517f8","bdp_cybrbll","Sat Mar 25 2023 22:19:08 GMT-0400 (Eastern Daylight Time)","491657","3","1","","null","","","","observe","","img/1to3/1.png","null","171","463","0.5","0.5","1","3","",""
"animation","113","174436","0.0-5.0-2.54","56b8de29e1d0a200051517f8","bdp_cybrbll","Sat Mar 25 2023 22:19:08 GMT-0400 (Eastern Daylight Time)","491657","3","1","","","","","","","","","","171","","","","1","3","[{""stimulus"":""img/1to3/1.png"",""time"":102},{""stimulus"":""img/1to3/2.png"",""time"":199},{""stimulus"":""img/1to3/3.png"",""time"":298},{""stimulus"":""img/1to3/4.png"",""time"":399},{""stimulus"":""img/1to3/5.png"",""time"":497},{""stimulus"":""img/1to3/6.png"",""time"":596},{""stimulus"":""img/1to3/7.png"",""time"":696},{""stimulus"":""img/1to3/8.png"",""time"":794},{""stimulus"":""img/1to3/9.png"",""time"":894},{""stimulus"":""img/1to3/10.png"",""time"":993},{""stimulus"":""img/1to3/11.png"",""time"":1092},{""stimulus"":""img/1to3/12.png"",""time"":1190}]","[]"
"image-keyboard-response","114","174936","0.0-5.0-1.55","56b8de29e1d0a200051517f8","bdp_cybrbll","Sat Mar 25 2023 22:19:08 GMT-0400 (Eastern Daylight Time)","491657","3","1","","null","","","","observe","","img/3to2/1.png","null","170","495","0.5","0.5","3","1","",""
"animation","115","176225","0.0-5.0-2.55","56b8de29e1d0a200051517f8","bdp_cybrbll","Sat Mar 25 2023 22:19:08 GMT-0400 (Eastern Daylight Time)","491657","3","1","","","","","","","","","","170","","","","3","1","[{""stimulus"":""img/3to1/1.png"",""time"":102},{""stimulus"":""img/3to1/2.png"",""time"":200},{""stimulus"":""img/3to1/3.png"",""time"":300},{""stimulus"":""img/3to1/4.png"",""time"":398},{""stimulus"":""img/3to1/5.png"",""time"":497},{""stimulus"":""img/3to1/6.png"",""time"":597},{""stimulus"":""img/3to1/7.png"",""time"":696},{""stimulus"":""img/3to1/8.png"",""time"":795},{""stimulus"":""img/3to1/9.png"",""time"":894},{""stimulus"":""img/3to1/10.png"",""time"":992},{""stimulus"":""img/3to1/11.png"",""time"":1091},{""stimulus"":""img/3to1/12.png"",""time"":1189}]","[]"
"image-keyboard-response","116","176490","0.0-5.0-1.56","56b8de29e1d0a200051517f8","bdp_cybrbll","Sat Mar 25 2023 22:19:08 GMT-0400 (Eastern Daylight Time)","491657","3","1","","null","","","","observe","","img/1to3/1.png","null","169","260","0.5","0.5","1","2","",""
"animation","117","177779","0.0-5.0-2.56","56b8de29e1d0a200051517f8","bdp_cybrbll","Sat Mar 25 2023 22:19:08 GMT-0400 (Eastern Daylight Time)","491657","3","1","","","","","","","","","","169","","","","1","2","[{""stimulus"":""img/1to2/1.png"",""time"":101},{""stimulus"":""img/1to2/2.png"",""time"":199},{""stimulus"":""img/1to2/3.png"",""time"":299},{""stimulus"":""img/1to2/4.png"",""time"":398},{""stimulus"":""img/1to2/5.png"",""time"":497},{""stimulus"":""img/1to2/6.png"",""time"":596},{""stimulus"":""img/1to2/7.png"",""time"":694},{""stimulus"":""img/1to2/8.png"",""time"":794},{""stimulus"":""img/1to2/9.png"",""time"":893},{""stimulus"":""img/1to2/10.png"",""time"":992},{""stimulus"":""img/1to2/11.png"",""time"":1091},{""stimulus"":""img/1to2/12.png"",""time"":1190}]","[]"
"image-keyboard-response","118","178439","0.0-5.0-1.57","56b8de29e1d0a200051517f8","bdp_cybrbll","Sat Mar 25 2023 22:19:08 GMT-0400 (Eastern Daylight Time)","491657","3","1","","657","","","","choice","","img/2to1/1.png","1","168","579","0.5","0.5","2","1","",""
"animation","119","179727","0.0-5.0-2.57","56b8de29e1d0a200051517f8","bdp_cybrbll","Sat Mar 25 2023 22:19:08 GMT-0400 (Eastern Daylight Time)","491657","3","1","","","","","","","","","","168","","","","2","1","[{""stimulus"":""img/2to1/1.png"",""time"":101},{""stimulus"":""img/2to1/2.png"",""time"":200},{""stimulus"":""img/2to1/3.png"",""time"":299},{""stimulus"":""img/2to1/4.png"",""time"":398},{""stimulus"":""img/2to1/5.png"",""time"":497},{""stimulus"":""img/2to1/6.png"",""time"":596},{""stimulus"":""img/2to1/7.png"",""time"":694},{""stimulus"":""img/2to1/8.png"",""time"":793},{""stimulus"":""img/2to1/9.png"",""time"":893},{""stimulus"":""img/2to1/10.png"",""time"":992},{""stimulus"":""img/2to1/11.png"",""time"":1091},{""stimulus"":""img/2to1/12.png"",""time"":1191}]","[]"
"image-keyboard-response","120","180005","0.0-5.0-1.58","56b8de29e1d0a200051517f8","bdp_cybrbll","Sat Mar 25 2023 22:19:08 GMT-0400 (Eastern Daylight Time)","491657","3","1","","null","","","","observe","","img/1to3/1.png","null","167","274","0.5","0.5","1","2","",""
"animation","121","181294","0.0-5.0-2.58","56b8de29e1d0a200051517f8","bdp_cybrbll","Sat Mar 25 2023 22:19:08 GMT-0400 (Eastern Daylight Time)","491657","3","1","","","","","","","","","","167","","","","1","2","[{""stimulus"":""img/1to2/1.png"",""time"":102},{""stimulus"":""img/1to2/2.png"",""time"":201},{""stimulus"":""img/1to2/3.png"",""time"":300},{""stimulus"":""img/1to2/4.png"",""time"":398},{""stimulus"":""img/1to2/5.png"",""time"":498},{""stimulus"":""img/1to2/6.png"",""time"":597},{""stimulus"":""img/1to2/7.png"",""time"":695},{""stimulus"":""img/1to2/8.png"",""time"":795},{""stimulus"":""img/1to2/9.png"",""time"":894},{""stimulus"":""img/1to2/10.png"",""time"":993},{""stimulus"":""img/1to2/11.png"",""time"":1092},{""stimulus"":""img/1to2/12.png"",""time"":1191}]","[]"
"image-keyboard-response","122","181944","0.0-5.0-1.59","56b8de29e1d0a200051517f8","bdp_cybrbll","Sat Mar 25 2023 22:19:08 GMT-0400 (Eastern Daylight Time)","491657","3","1","","645","","","","choice","","img/2to1/1.png","2","166","254","0.5","0.5","2","3","",""
"animation","123","183233","0.0-5.0-2.59","56b8de29e1d0a200051517f8","bdp_cybrbll","Sat Mar 25 2023 22:19:08 GMT-0400 (Eastern Daylight Time)","491657","3","1","","","","","","","","","","166","","","","2","3","[{""stimulus"":""img/2to3/1.png"",""time"":102},{""stimulus"":""img/2to3/2.png"",""time"":202},{""stimulus"":""img/2to3/3.png"",""time"":299},{""stimulus"":""img/2to3/4.png"",""time"":398},{""stimulus"":""img/2to3/5.png"",""time"":498},{""stimulus"":""img/2to3/6.png"",""time"":597},{""stimulus"":""img/2to3/7.png"",""time"":696},{""stimulus"":""img/2to3/8.png"",""time"":795},{""stimulus"":""img/2to3/9.png"",""time"":894},{""stimulus"":""img/2to3/10.png"",""time"":994},{""stimulus"":""img/2to3/11.png"",""time"":1092},{""stimulus"":""img/2to3/12.png"",""time"":1191}]","[]"
"image-keyboard-response","124","183654","0.0-5.0-1.60","56b8de29e1d0a200051517f8","bdp_cybrbll","Sat Mar 25 2023 22:19:08 GMT-0400 (Eastern Daylight Time)","491657","3","1","","null","","","","observe","","img/3to2/1.png","null","165","416","0.5","0.5","3","2","",""
"animation","125","184943","0.0-5.0-2.60","56b8de29e1d0a200051517f8","bdp_cybrbll","Sat Mar 25 2023 22:19:08 GMT-0400 (Eastern Daylight Time)","491657","3","1","","","","","","","","","","165","","","","3","2","[{""stimulus"":""img/3to2/1.png"",""time"":103},{""stimulus"":""img/3to2/2.png"",""time"":200},{""stimulus"":""img/3to2/3.png"",""time"":300},{""stimulus"":""img/3to2/4.png"",""time"":398},{""stimulus"":""img/3to2/5.png"",""time"":498},{""stimulus"":""img/3to2/6.png"",""time"":597},{""stimulus"":""img/3to2/7.png"",""time"":695},{""stimulus"":""img/3to2/8.png"",""time"":794},{""stimulus"":""img/3to2/9.png"",""time"":894},{""stimulus"":""img/3to2/10.png"",""time"":993},{""stimulus"":""img/3to2/11.png"",""time"":1091},{""stimulus"":""img/3to2/12.png"",""time"":1190}]","[]"
"image-keyboard-response","126","186024","0.0-5.0-1.61","56b8de29e1d0a200051517f8","bdp_cybrbll","Sat Mar 25 2023 22:19:08 GMT-0400 (Eastern Daylight Time)","491657","3","1","","1076","","","","choice","","img/2to1/1.png","2","164","585","0.5","0.5","2","3","",""
"animation","127","187313","0.0-5.0-2.61","56b8de29e1d0a200051517f8","bdp_cybrbll","Sat Mar 25 2023 22:19:08 GMT-0400 (Eastern Daylight Time)","491657","3","1","","","","","","","","","","164","","","","2","3","[{""stimulus"":""img/2to3/1.png"",""time"":102},{""stimulus"":""img/2to3/2.png"",""time"":201},{""stimulus"":""img/2to3/3.png"",""time"":299},{""stimulus"":""img/2to3/4.png"",""time"":398},{""stimulus"":""img/2to3/5.png"",""time"":497},{""stimulus"":""img/2to3/6.png"",""time"":597},{""stimulus"":""img/2to3/7.png"",""time"":695},{""stimulus"":""img/2to3/8.png"",""time"":795},{""stimulus"":""img/2to3/9.png"",""time"":894},{""stimulus"":""img/2to3/10.png"",""time"":993},{""stimulus"":""img/2to3/11.png"",""time"":1092},{""stimulus"":""img/2to3/12.png"",""time"":1191}]","[]"
"image-keyboard-response","128","188554","0.0-5.0-1.62","56b8de29e1d0a200051517f8","bdp_cybrbll","Sat Mar 25 2023 22:19:08 GMT-0400 (Eastern Daylight Time)","491657","3","1","","null","","","","observe","","img/3to2/1.png","null","163","1236","0.5","0.5","3","2","",""
"animation","129","189843","0.0-5.0-2.62","56b8de29e1d0a200051517f8","bdp_cybrbll","Sat Mar 25 2023 22:19:08 GMT-0400 (Eastern Daylight Time)","491657","3","1","","","","","","","","","","163","","","","3","2","[{""stimulus"":""img/3to2/1.png"",""time"":102},{""stimulus"":""img/3to2/2.png"",""time"":200},{""stimulus"":""img/3to2/3.png"",""time"":299},{""stimulus"":""img/3to2/4.png"",""time"":398},{""stimulus"":""img/3to2/5.png"",""time"":497},{""stimulus"":""img/3to2/6.png"",""time"":598},{""stimulus"":""img/3to2/7.png"",""time"":695},{""stimulus"":""img/3to2/8.png"",""time"":795},{""stimulus"":""img/3to2/9.png"",""time"":894},{""stimulus"":""img/3to2/10.png"",""time"":993},{""stimulus"":""img/3to2/11.png"",""time"":1092},{""stimulus"":""img/3to2/12.png"",""time"":1191}]","[]"
"image-keyboard-response","130","190139","0.0-5.0-1.63","56b8de29e1d0a200051517f8","bdp_cybrbll","Sat Mar 25 2023 22:19:08 GMT-0400 (Eastern Daylight Time)","491657","3","1","","292","","","","choice","","img/2to1/1.png","1","162","311","0.5","0.5","2","1","",""
"animation","131","191428","0.0-5.0-2.63","56b8de29e1d0a200051517f8","bdp_cybrbll","Sat Mar 25 2023 22:19:08 GMT-0400 (Eastern Daylight Time)","491657","3","1","","","","","","","","","","162","","","","2","1","[{""stimulus"":""img/2to1/1.png"",""time"":101},{""stimulus"":""img/2to1/2.png"",""time"":201},{""stimulus"":""img/2to1/3.png"",""time"":300},{""stimulus"":""img/2to1/4.png"",""time"":399},{""stimulus"":""img/2to1/5.png"",""time"":498},{""stimulus"":""img/2to1/6.png"",""time"":597},{""stimulus"":""img/2to1/7.png"",""time"":696},{""stimulus"":""img/2to1/8.png"",""time"":794},{""stimulus"":""img/2to1/9.png"",""time"":894},{""stimulus"":""img/2to1/10.png"",""time"":991},{""stimulus"":""img/2to1/11.png"",""time"":1092},{""stimulus"":""img/2to1/12.png"",""time"":1190}]","[]"
"image-keyboard-response","132","191713","0.0-5.0-1.64","56b8de29e1d0a200051517f8","bdp_cybrbll","Sat Mar 25 2023 22:19:08 GMT-0400 (Eastern Daylight Time)","491657","3","1","","null","","","","observe","","img/1to3/1.png","null","161","280","0.5","0.5","1","3","",""
"animation","133","193002","0.0-5.0-2.64","56b8de29e1d0a200051517f8","bdp_cybrbll","Sat Mar 25 2023 22:19:08 GMT-0400 (Eastern Daylight Time)","491657","3","1","","","","","","","","","","161","","","","1","3","[{""stimulus"":""img/1to3/1.png"",""time"":102},{""stimulus"":""img/1to3/2.png"",""time"":200},{""stimulus"":""img/1to3/3.png"",""time"":299},{""stimulus"":""img/1to3/4.png"",""time"":398},{""stimulus"":""img/1to3/5.png"",""time"":498},{""stimulus"":""img/1to3/6.png"",""time"":597},{""stimulus"":""img/1to3/7.png"",""time"":696},{""stimulus"":""img/1to3/8.png"",""time"":794},{""stimulus"":""img/1to3/9.png"",""time"":894},{""stimulus"":""img/1to3/10.png"",""time"":992},{""stimulus"":""img/1to3/11.png"",""time"":1091},{""stimulus"":""img/1to3/12.png"",""time"":1190}]","[]"
"image-keyboard-response","134","193462","0.0-5.0-1.65","56b8de29e1d0a200051517f8","bdp_cybrbll","Sat Mar 25 2023 22:19:08 GMT-0400 (Eastern Daylight Time)","491657","3","1","","null","","","","observe","","img/3to2/1.png","null","160","455","0.5","0.5","3","1","",""
"animation","135","194751","0.0-5.0-2.65","56b8de29e1d0a200051517f8","bdp_cybrbll","Sat Mar 25 2023 22:19:08 GMT-0400 (Eastern Daylight Time)","491657","3","1","","","","","","","","","","160","","","","3","1","[{""stimulus"":""img/3to1/1.png"",""time"":102},{""stimulus"":""img/3to1/2.png"",""time"":200},{""stimulus"":""img/3to1/3.png"",""time"":300},{""stimulus"":""img/3to1/4.png"",""time"":397},{""stimulus"":""img/3to1/5.png"",""time"":497},{""stimulus"":""img/3to1/6.png"",""time"":596},{""stimulus"":""img/3to1/7.png"",""time"":695},{""stimulus"":""img/3to1/8.png"",""time"":794},{""stimulus"":""img/3to1/9.png"",""time"":893},{""stimulus"":""img/3to1/10.png"",""time"":991},{""stimulus"":""img/3to1/11.png"",""time"":1091},{""stimulus"":""img/3to1/12.png"",""time"":1190}]","[]"
"image-keyboard-response","136","195239","0.0-5.0-1.66","56b8de29e1d0a200051517f8","bdp_cybrbll","Sat Mar 25 2023 22:19:08 GMT-0400 (Eastern Daylight Time)","491657","3","1","","null","","","","observe","","img/1to3/1.png","null","159","483","0.5","0.5","1","2","",""
"animation","137","196527","0.0-5.0-2.66","56b8de29e1d0a200051517f8","bdp_cybrbll","Sat Mar 25 2023 22:19:08 GMT-0400 (Eastern Daylight Time)","491657","3","1","","","","","","","","","","159","","","","1","2","[{""stimulus"":""img/1to2/1.png"",""time"":102},{""stimulus"":""img/1to2/2.png"",""time"":200},{""stimulus"":""img/1to2/3.png"",""time"":299},{""stimulus"":""img/1to2/4.png"",""time"":398},{""stimulus"":""img/1to2/5.png"",""time"":496},{""stimulus"":""img/1to2/6.png"",""time"":595},{""stimulus"":""img/1to2/7.png"",""time"":694},{""stimulus"":""img/1to2/8.png"",""time"":793},{""stimulus"":""img/1to2/9.png"",""time"":892},{""stimulus"":""img/1to2/10.png"",""time"":991},{""stimulus"":""img/1to2/11.png"",""time"":1090},{""stimulus"":""img/1to2/12.png"",""time"":1190}]","[]"
"image-keyboard-response","138","197051","0.0-5.0-1.67","56b8de29e1d0a200051517f8","bdp_cybrbll","Sat Mar 25 2023 22:19:08 GMT-0400 (Eastern Daylight Time)","491657","3","1","","522","","","","choice","","img/2to1/1.png","2","158","408","0.5","0.5","2","3","",""
"animation","139","198340","0.0-5.0-2.67","56b8de29e1d0a200051517f8","bdp_cybrbll","Sat Mar 25 2023 22:19:08 GMT-0400 (Eastern Daylight Time)","491657","3","1","","","","","","","","","","158","","","","2","3","[{""stimulus"":""img/2to3/1.png"",""time"":102},{""stimulus"":""img/2to3/2.png"",""time"":200},{""stimulus"":""img/2to3/3.png"",""time"":299},{""stimulus"":""img/2to3/4.png"",""time"":399},{""stimulus"":""img/2to3/5.png"",""time"":497},{""stimulus"":""img/2to3/6.png"",""time"":597},{""stimulus"":""img/2to3/7.png"",""time"":695},{""stimulus"":""img/2to3/8.png"",""time"":794},{""stimulus"":""img/2to3/9.png"",""time"":893},{""stimulus"":""img/2to3/10.png"",""time"":992},{""stimulus"":""img/2to3/11.png"",""time"":1092},{""stimulus"":""img/2to3/12.png"",""time"":1190}]","[]"
"image-keyboard-response","140","198834","0.0-5.0-1.68","56b8de29e1d0a200051517f8","bdp_cybrbll","Sat Mar 25 2023 22:19:08 GMT-0400 (Eastern Daylight Time)","491657","3","1","","null","","","","observe","","img/3to2/1.png","null","157","489","0.5","0.5","3","1","",""
"animation","141","200123","0.0-5.0-2.68","56b8de29e1d0a200051517f8","bdp_cybrbll","Sat Mar 25 2023 22:19:08 GMT-0400 (Eastern Daylight Time)","491657","3","1","","","","","","","","","","157","","","","3","1","[{""stimulus"":""img/3to1/1.png"",""time"":102},{""stimulus"":""img/3to1/2.png"",""time"":200},{""stimulus"":""img/3to1/3.png"",""time"":298},{""stimulus"":""img/3to1/4.png"",""time"":399},{""stimulus"":""img/3to1/5.png"",""time"":498},{""stimulus"":""img/3to1/6.png"",""time"":597},{""stimulus"":""img/3to1/7.png"",""time"":695},{""stimulus"":""img/3to1/8.png"",""time"":794},{""stimulus"":""img/3to1/9.png"",""time"":894},{""stimulus"":""img/3to1/10.png"",""time"":993},{""stimulus"":""img/3to1/11.png"",""time"":1091},{""stimulus"":""img/3to1/12.png"",""time"":1190}]","[]"
"image-keyboard-response","142","200457","0.0-5.0-1.69","56b8de29e1d0a200051517f8","bdp_cybrbll","Sat Mar 25 2023 22:19:08 GMT-0400 (Eastern Daylight Time)","491657","3","1","","null","","","","observe","","img/1to3/1.png","null","156","329","0.5","0.5","1","3","",""
"animation","143","201746","0.0-5.0-2.69","56b8de29e1d0a200051517f8","bdp_cybrbll","Sat Mar 25 2023 22:19:08 GMT-0400 (Eastern Daylight Time)","491657","3","1","","","","","","","","","","156","","","","1","3","[{""stimulus"":""img/1to3/1.png"",""time"":102},{""stimulus"":""img/1to3/2.png"",""time"":201},{""stimulus"":""img/1to3/3.png"",""time"":300},{""stimulus"":""img/1to3/4.png"",""time"":398},{""stimulus"":""img/1to3/5.png"",""time"":498},{""stimulus"":""img/1to3/6.png"",""time"":597},{""stimulus"":""img/1to3/7.png"",""time"":696},{""stimulus"":""img/1to3/8.png"",""time"":794},{""stimulus"":""img/1to3/9.png"",""time"":894},{""stimulus"":""img/1to3/10.png"",""time"":995},{""stimulus"":""img/1to3/11.png"",""time"":1092},{""stimulus"":""img/1to3/12.png"",""time"":1191}]","[]"
"image-keyboard-response","144","202019","0.0-5.0-1.70","56b8de29e1d0a200051517f8","bdp_cybrbll","Sat Mar 25 2023 22:19:08 GMT-0400 (Eastern Daylight Time)","491657","3","1","","null","","","","observe","","img/3to2/1.png","null","155","269","0.5","0.5","3","2","",""
"animation","145","203309","0.0-5.0-2.70","56b8de29e1d0a200051517f8","bdp_cybrbll","Sat Mar 25 2023 22:19:08 GMT-0400 (Eastern Daylight Time)","491657","3","1","","","","","","","","","","155","","","","3","2","[{""stimulus"":""img/3to2/1.png"",""time"":102},{""stimulus"":""img/3to2/2.png"",""time"":200},{""stimulus"":""img/3to2/3.png"",""time"":299},{""stimulus"":""img/3to2/4.png"",""time"":397},{""stimulus"":""img/3to2/5.png"",""time"":497},{""stimulus"":""img/3to2/6.png"",""time"":596},{""stimulus"":""img/3to2/7.png"",""time"":696},{""stimulus"":""img/3to2/8.png"",""time"":794},{""stimulus"":""img/3to2/9.png"",""time"":894},{""stimulus"":""img/3to2/10.png"",""time"":991},{""stimulus"":""img/3to2/11.png"",""time"":1092},{""stimulus"":""img/3to2/12.png"",""time"":1190}]","[]"
"image-keyboard-response","146","203707","0.0-5.0-1.71","56b8de29e1d0a200051517f8","bdp_cybrbll","Sat Mar 25 2023 22:19:08 GMT-0400 (Eastern Daylight Time)","491657","3","1","","394","","","","choice","","img/2to1/1.png","1","154","328","0.5","0.5","2","1","",""
"animation","147","204996","0.0-5.0-2.71","56b8de29e1d0a200051517f8","bdp_cybrbll","Sat Mar 25 2023 22:19:08 GMT-0400 (Eastern Daylight Time)","491657","3","1","","","","","","","","","","154","","","","2","1","[{""stimulus"":""img/2to1/1.png"",""time"":101},{""stimulus"":""img/2to1/2.png"",""time"":200},{""stimulus"":""img/2to1/3.png"",""time"":299},{""stimulus"":""img/2to1/4.png"",""time"":398},{""stimulus"":""img/2to1/5.png"",""time"":497},{""stimulus"":""img/2to1/6.png"",""time"":596},{""stimulus"":""img/2to1/7.png"",""time"":695},{""stimulus"":""img/2to1/8.png"",""time"":794},{""stimulus"":""img/2to1/9.png"",""time"":894},{""stimulus"":""img/2to1/10.png"",""time"":992},{""stimulus"":""img/2to1/11.png"",""time"":1092},{""stimulus"":""img/2to1/12.png"",""time"":1190}]","[]"
"image-keyboard-response","148","205266","0.0-5.0-1.72","56b8de29e1d0a200051517f8","bdp_cybrbll","Sat Mar 25 2023 22:19:08 GMT-0400 (Eastern Daylight Time)","491657","3","1","","null","","","","observe","","img/1to3/1.png","null","153","265","0.5","0.5","1","2","",""
"animation","149","206555","0.0-5.0-2.72","56b8de29e1d0a200051517f8","bdp_cybrbll","Sat Mar 25 2023 22:19:08 GMT-0400 (Eastern Daylight Time)","491657","3","1","","","","","","","","","","153","","","","1","2","[{""stimulus"":""img/1to2/1.png"",""time"":102},{""stimulus"":""img/1to2/2.png"",""time"":201},{""stimulus"":""img/1to2/3.png"",""time"":300},{""stimulus"":""img/1to2/4.png"",""time"":398},{""stimulus"":""img/1to2/5.png"",""time"":498},{""stimulus"":""img/1to2/6.png"",""time"":597},{""stimulus"":""img/1to2/7.png"",""time"":696},{""stimulus"":""img/1to2/8.png"",""time"":794},{""stimulus"":""img/1to2/9.png"",""time"":893},{""stimulus"":""img/1to2/10.png"",""time"":992},{""stimulus"":""img/1to2/11.png"",""time"":1092},{""stimulus"":""img/1to2/12.png"",""time"":1190}]","[]"
"image-keyboard-response","150","207212","0.0-5.0-1.73","56b8de29e1d0a200051517f8","bdp_cybrbll","Sat Mar 25 2023 22:19:08 GMT-0400 (Eastern Daylight Time)","491657","3","1","","653","","","","choice","","img/2to1/1.png","2","152","454","0.5","0.5","2","3","",""
"animation","151","208502","0.0-5.0-2.73","56b8de29e1d0a200051517f8","bdp_cybrbll","Sat Mar 25 2023 22:19:08 GMT-0400 (Eastern Daylight Time)","491657","3","1","","","","","","","","","","152","","","","2","3","[{""stimulus"":""img/2to3/1.png"",""time"":102},{""stimulus"":""img/2to3/2.png"",""time"":200},{""stimulus"":""img/2to3/3.png"",""time"":299},{""stimulus"":""img/2to3/4.png"",""time"":399},{""stimulus"":""img/2to3/5.png"",""time"":498},{""stimulus"":""img/2to3/6.png"",""time"":596},{""stimulus"":""img/2to3/7.png"",""time"":696},{""stimulus"":""img/2to3/8.png"",""time"":795},{""stimulus"":""img/2to3/9.png"",""time"":894},{""stimulus"":""img/2to3/10.png"",""time"":992},{""stimulus"":""img/2to3/11.png"",""time"":1091},{""stimulus"":""img/2to3/12.png"",""time"":1189}]","[]"
"image-keyboard-response","152","210338","0.0-5.0-1.74","56b8de29e1d0a200051517f8","bdp_cybrbll","Sat Mar 25 2023 22:19:08 GMT-0400 (Eastern Daylight Time)","491657","3","1","","null","","","","observe","","img/3to2/1.png","null","151","1832","0.5","0.5","3","1","",""
"animation","153","211628","0.0-5.0-2.74","56b8de29e1d0a200051517f8","bdp_cybrbll","Sat Mar 25 2023 22:19:08 GMT-0400 (Eastern Daylight Time)","491657","3","1","","","","","","","","","","151","","","","3","1","[{""stimulus"":""img/3to1/1.png"",""time"":102},{""stimulus"":""img/3to1/2.png"",""time"":201},{""stimulus"":""img/3to1/3.png"",""time"":300},{""stimulus"":""img/3to1/4.png"",""time"":399},{""stimulus"":""img/3to1/5.png"",""time"":498},{""stimulus"":""img/3to1/6.png"",""time"":596},{""stimulus"":""img/3to1/7.png"",""time"":695},{""stimulus"":""img/3to1/8.png"",""time"":794},{""stimulus"":""img/3to1/9.png"",""time"":895},{""stimulus"":""img/3to1/10.png"",""time"":993},{""stimulus"":""img/3to1/11.png"",""time"":1092},{""stimulus"":""img/3to1/12.png"",""time"":1191}]","[]"
"image-keyboard-response","154","211776","0.0-5.0-1.75","56b8de29e1d0a200051517f8","bdp_cybrbll","Sat Mar 25 2023 22:19:08 GMT-0400 (Eastern Daylight Time)","491657","3","1","","null","","","","observe","","img/1to3/1.png","null","150","144","0.5","0.5","1","2","",""
"animation","155","213065","0.0-5.0-2.75","56b8de29e1d0a200051517f8","bdp_cybrbll","Sat Mar 25 2023 22:19:08 GMT-0400 (Eastern Daylight Time)","491657","3","1","","","","","","","","","","150","","","","1","2","[{""stimulus"":""img/1to2/1.png"",""time"":102},{""stimulus"":""img/1to2/2.png"",""time"":201},{""stimulus"":""img/1to2/3.png"",""time"":300},{""stimulus"":""img/1to2/4.png"",""time"":399},{""stimulus"":""img/1to2/5.png"",""time"":498},{""stimulus"":""img/1to2/6.png"",""time"":596},{""stimulus"":""img/1to2/7.png"",""time"":695},{""stimulus"":""img/1to2/8.png"",""time"":795},{""stimulus"":""img/1to2/9.png"",""time"":894},{""stimulus"":""img/1to2/10.png"",""time"":993},{""stimulus"":""img/1to2/11.png"",""time"":1091},{""stimulus"":""img/1to2/12.png"",""time"":1191}]","[]"
"image-keyboard-response","156","213538","0.0-5.0-1.76","56b8de29e1d0a200051517f8","bdp_cybrbll","Sat Mar 25 2023 22:19:08 GMT-0400 (Eastern Daylight Time)","491657","3","1","","471","","","","choice","","img/2to1/1.png","2","149","496","0.5","0.1","2","3","",""
"animation","157","214829","0.0-5.0-2.76","56b8de29e1d0a200051517f8","bdp_cybrbll","Sat Mar 25 2023 22:19:08 GMT-0400 (Eastern Daylight Time)","491657","3","1","","","","","","","","","","149","","","","2","3","[{""stimulus"":""img/2to3/1.png"",""time"":102},{""stimulus"":""img/2to3/2.png"",""time"":201},{""stimulus"":""img/2to3/3.png"",""time"":300},{""stimulus"":""img/2to3/4.png"",""time"":399},{""stimulus"":""img/2to3/5.png"",""time"":498},{""stimulus"":""img/2to3/6.png"",""time"":597},{""stimulus"":""img/2to3/7.png"",""time"":695},{""stimulus"":""img/2to3/8.png"",""time"":795},{""stimulus"":""img/2to3/9.png"",""time"":893},{""stimulus"":""img/2to3/10.png"",""time"":993},{""stimulus"":""img/2to3/11.png"",""time"":1092},{""stimulus"":""img/2to3/12.png"",""time"":1191}]","[]"
"image-keyboard-response","158","215318","0.0-5.0-1.77","56b8de29e1d0a200051517f8","bdp_cybrbll","Sat Mar 25 2023 22:19:08 GMT-0400 (Eastern Daylight Time)","491657","3","1","","null","","","","observe","","img/3to2/1.png","null","148","484","0.5","0.1","3","1","",""
"animation","159","216607","0.0-5.0-2.77","56b8de29e1d0a200051517f8","bdp_cybrbll","Sat Mar 25 2023 22:19:08 GMT-0400 (Eastern Daylight Time)","491657","3","1","","","","","","","","","","148","","","","3","1","[{""stimulus"":""img/3to1/1.png"",""time"":102},{""stimulus"":""img/3to1/2.png"",""time"":201},{""stimulus"":""img/3to1/3.png"",""time"":300},{""stimulus"":""img/3to1/4.png"",""time"":399},{""stimulus"":""img/3to1/5.png"",""time"":498},{""stimulus"":""img/3to1/6.png"",""time"":597},{""stimulus"":""img/3to1/7.png"",""time"":695},{""stimulus"":""img/3to1/8.png"",""time"":795},{""stimulus"":""img/3to1/9.png"",""time"":894},{""stimulus"":""img/3to1/10.png"",""time"":993},{""stimulus"":""img/3to1/11.png"",""time"":1092},{""stimulus"":""img/3to1/12.png"",""time"":1190}]","[]"
"image-keyboard-response","160","216937","0.0-5.0-1.78","56b8de29e1d0a200051517f8","bdp_cybrbll","Sat Mar 25 2023 22:19:08 GMT-0400 (Eastern Daylight Time)","491657","3","1","","null","","","","observe","","img/1to3/1.png","null","147","325","0.5","0.1","1","3","",""
"animation","161","218227","0.0-5.0-2.78","56b8de29e1d0a200051517f8","bdp_cybrbll","Sat Mar 25 2023 22:19:08 GMT-0400 (Eastern Daylight Time)","491657","3","1","","","","","","","","","","147","","","","1","3","[{""stimulus"":""img/1to3/1.png"",""time"":101},{""stimulus"":""img/1to3/2.png"",""time"":201},{""stimulus"":""img/1to3/3.png"",""time"":300},{""stimulus"":""img/1to3/4.png"",""time"":399},{""stimulus"":""img/1to3/5.png"",""time"":497},{""stimulus"":""img/1to3/6.png"",""time"":597},{""stimulus"":""img/1to3/7.png"",""time"":695},{""stimulus"":""img/1to3/8.png"",""time"":794},{""stimulus"":""img/1to3/9.png"",""time"":894},{""stimulus"":""img/1to3/10.png"",""time"":992},{""stimulus"":""img/1to3/11.png"",""time"":1092},{""stimulus"":""img/1to3/12.png"",""time"":1191}]","[]"
"image-keyboard-response","162","218745","0.0-5.0-1.79","56b8de29e1d0a200051517f8","bdp_cybrbll","Sat Mar 25 2023 22:19:08 GMT-0400 (Eastern Daylight Time)","491657","3","1","","null","","","","observe","","img/3to2/1.png","null","146","514","0.5","0.1","3","2","",""
"animation","163","220035","0.0-5.0-2.79","56b8de29e1d0a200051517f8","bdp_cybrbll","Sat Mar 25 2023 22:19:08 GMT-0400 (Eastern Daylight Time)","491657","3","1","","","","","","","","","","146","","","","3","2","[{""stimulus"":""img/3to2/1.png"",""time"":102},{""stimulus"":""img/3to2/2.png"",""time"":201},{""stimulus"":""img/3to2/3.png"",""time"":300},{""stimulus"":""img/3to2/4.png"",""time"":399},{""stimulus"":""img/3to2/5.png"",""time"":498},{""stimulus"":""img/3to2/6.png"",""time"":597},{""stimulus"":""img/3to2/7.png"",""time"":696},{""stimulus"":""img/3to2/8.png"",""time"":795},{""stimulus"":""img/3to2/9.png"",""time"":894},{""stimulus"":""img/3to2/10.png"",""time"":993},{""stimulus"":""img/3to2/11.png"",""time"":1092},{""stimulus"":""img/3to2/12.png"",""time"":1191}]","[]"
"image-keyboard-response","164","220522","0.0-5.0-1.80","56b8de29e1d0a200051517f8","bdp_cybrbll","Sat Mar 25 2023 22:19:08 GMT-0400 (Eastern Daylight Time)","491657","3","1","","481","","","","choice","","img/2to1/1.png","1","145","689","0.5","0.1","2","1","",""
"animation","165","221810","0.0-5.0-2.80","56b8de29e1d0a200051517f8","bdp_cybrbll","Sat Mar 25 2023 22:19:08 GMT-0400 (Eastern Daylight Time)","491657","3","1","","","","","","","","","","145","","","","2","1","[{""stimulus"":""img/2to1/1.png"",""time"":103},{""stimulus"":""img/2to1/2.png"",""time"":201},{""stimulus"":""img/2to1/3.png"",""time"":300},{""stimulus"":""img/2to1/4.png"",""time"":399},{""stimulus"":""img/2to1/5.png"",""time"":497},{""stimulus"":""img/2to1/6.png"",""time"":595},{""stimulus"":""img/2to1/7.png"",""time"":695},{""stimulus"":""img/2to1/8.png"",""time"":795},{""stimulus"":""img/2to1/9.png"",""time"":893},{""stimulus"":""img/2to1/10.png"",""time"":993},{""stimulus"":""img/2to1/11.png"",""time"":1092},{""stimulus"":""img/2to1/12.png"",""time"":1191}]","[]"
"image-keyboard-response","166","222104","0.0-5.0-1.81","56b8de29e1d0a200051517f8","bdp_cybrbll","Sat Mar 25 2023 22:19:08 GMT-0400 (Eastern Daylight Time)","491657","3","1","","null","","","","observe","","img/1to3/1.png","null","144","289","0.5","0.1","1","3","",""
"animation","167","223394","0.0-5.0-2.81","56b8de29e1d0a200051517f8","bdp_cybrbll","Sat Mar 25 2023 22:19:08 GMT-0400 (Eastern Daylight Time)","491657","3","1","","","","","","","","","","144","","","","1","3","[{""stimulus"":""img/1to3/1.png"",""time"":102},{""stimulus"":""img/1to3/2.png"",""time"":201},{""stimulus"":""img/1to3/3.png"",""time"":300},{""stimulus"":""img/1to3/4.png"",""time"":399},{""stimulus"":""img/1to3/5.png"",""time"":499},{""stimulus"":""img/1to3/6.png"",""time"":597},{""stimulus"":""img/1to3/7.png"",""time"":696},{""stimulus"":""img/1to3/8.png"",""time"":795},{""stimulus"":""img/1to3/9.png"",""time"":895},{""stimulus"":""img/1to3/10.png"",""time"":993},{""stimulus"":""img/1to3/11.png"",""time"":1091},{""stimulus"":""img/1to3/12.png"",""time"":1190}]","[]"
"image-keyboard-response","168","223576","0.0-5.0-1.82","56b8de29e1d0a200051517f8","bdp_cybrbll","Sat Mar 25 2023 22:19:08 GMT-0400 (Eastern Daylight Time)","491657","3","1","","null","","","","observe","","img/3to2/1.png","null","143","178","0.5","0.1","3","2","",""
"animation","169","224865","0.0-5.0-2.82","56b8de29e1d0a200051517f8","bdp_cybrbll","Sat Mar 25 2023 22:19:08 GMT-0400 (Eastern Daylight Time)","491657","3","1","","","","","","","","","","143","","","","3","2","[{""stimulus"":""img/3to2/1.png"",""time"":103},{""stimulus"":""img/3to2/2.png"",""time"":201},{""stimulus"":""img/3to2/3.png"",""time"":300},{""stimulus"":""img/3to2/4.png"",""time"":399},{""stimulus"":""img/3to2/5.png"",""time"":498},{""stimulus"":""img/3to2/6.png"",""time"":597},{""stimulus"":""img/3to2/7.png"",""time"":696},{""stimulus"":""img/3to2/8.png"",""time"":795},{""stimulus"":""img/3to2/9.png"",""time"":894},{""stimulus"":""img/3to2/10.png"",""time"":993},{""stimulus"":""img/3to2/11.png"",""time"":1092},{""stimulus"":""img/3to2/12.png"",""time"":1191}]","[]"
"image-keyboard-response","170","225210","0.0-5.0-1.83","56b8de29e1d0a200051517f8","bdp_cybrbll","Sat Mar 25 2023 22:19:08 GMT-0400 (Eastern Daylight Time)","491657","3","1","","341","","","","choice","","img/2to1/1.png","1","142","584","0.5","0.1","2","1","",""
"animation","171","226499","0.0-5.0-2.83","56b8de29e1d0a200051517f8","bdp_cybrbll","Sat Mar 25 2023 22:19:08 GMT-0400 (Eastern Daylight Time)","491657","3","1","","","","","","","","","","142","","","","2","1","[{""stimulus"":""img/2to1/1.png"",""time"":101},{""stimulus"":""img/2to1/2.png"",""time"":201},{""stimulus"":""img/2to1/3.png"",""time"":300},{""stimulus"":""img/2to1/4.png"",""time"":399},{""stimulus"":""img/2to1/5.png"",""time"":497},{""stimulus"":""img/2to1/6.png"",""time"":596},{""stimulus"":""img/2to1/7.png"",""time"":695},{""stimulus"":""img/2to1/8.png"",""time"":794},{""stimulus"":""img/2to1/9.png"",""time"":893},{""stimulus"":""img/2to1/10.png"",""time"":992},{""stimulus"":""img/2to1/11.png"",""time"":1092},{""stimulus"":""img/2to1/12.png"",""time"":1191}]","[]"
"image-keyboard-response","172","227413","0.0-5.0-1.84","56b8de29e1d0a200051517f8","bdp_cybrbll","Sat Mar 25 2023 22:19:08 GMT-0400 (Eastern Daylight Time)","491657","3","1","","null","","","","observe","","img/1to3/1.png","null","141","909","0.5","0.1","1","3","",""
"animation","173","228702","0.0-5.0-2.84","56b8de29e1d0a200051517f8","bdp_cybrbll","Sat Mar 25 2023 22:19:08 GMT-0400 (Eastern Daylight Time)","491657","3","1","","","","","","","","","","141","","","","1","3","[{""stimulus"":""img/1to3/1.png"",""time"":102},{""stimulus"":""img/1to3/2.png"",""time"":201},{""stimulus"":""img/1to3/3.png"",""time"":299},{""stimulus"":""img/1to3/4.png"",""time"":399},{""stimulus"":""img/1to3/5.png"",""time"":497},{""stimulus"":""img/1to3/6.png"",""time"":596},{""stimulus"":""img/1to3/7.png"",""time"":696},{""stimulus"":""img/1to3/8.png"",""time"":795},{""stimulus"":""img/1to3/9.png"",""time"":894},{""stimulus"":""img/1to3/10.png"",""time"":992},{""stimulus"":""img/1to3/11.png"",""time"":1092},{""stimulus"":""img/1to3/12.png"",""time"":1191}]","[]"
"image-keyboard-response","174","229048","0.0-5.0-1.85","56b8de29e1d0a200051517f8","bdp_cybrbll","Sat Mar 25 2023 22:19:08 GMT-0400 (Eastern Daylight Time)","491657","3","1","","null","","","","observe","","img/3to2/1.png","null","140","341","0.5","0.1","3","1","",""
"animation","175","230337","0.0-5.0-2.85","56b8de29e1d0a200051517f8","bdp_cybrbll","Sat Mar 25 2023 22:19:08 GMT-0400 (Eastern Daylight Time)","491657","3","1","","","","","","","","","","140","","","","3","1","[{""stimulus"":""img/3to1/1.png"",""time"":102},{""stimulus"":""img/3to1/2.png"",""time"":200},{""stimulus"":""img/3to1/3.png"",""time"":299},{""stimulus"":""img/3to1/4.png"",""time"":398},{""stimulus"":""img/3to1/5.png"",""time"":497},{""stimulus"":""img/3to1/6.png"",""time"":596},{""stimulus"":""img/3to1/7.png"",""time"":695},{""stimulus"":""img/3to1/8.png"",""time"":794},{""stimulus"":""img/3to1/9.png"",""time"":893},{""stimulus"":""img/3to1/10.png"",""time"":992},{""stimulus"":""img/3to1/11.png"",""time"":1091},{""stimulus"":""img/3to1/12.png"",""time"":1190}]","[]"
"image-keyboard-response","176","230935","0.0-5.0-1.86","56b8de29e1d0a200051517f8","bdp_cybrbll","Sat Mar 25 2023 22:19:08 GMT-0400 (Eastern Daylight Time)","491657","3","1","","null","","","","observe","","img/1to3/1.png","null","139","596","0.5","0.1","1","3","",""
"animation","177","232223","0.0-5.0-2.86","56b8de29e1d0a200051517f8","bdp_cybrbll","Sat Mar 25 2023 22:19:08 GMT-0400 (Eastern Daylight Time)","491657","3","1","","","","","","","","","","139","","","","1","3","[{""stimulus"":""img/1to3/1.png"",""time"":102},{""stimulus"":""img/1to3/2.png"",""time"":201},{""stimulus"":""img/1to3/3.png"",""time"":299},{""stimulus"":""img/1to3/4.png"",""time"":398},{""stimulus"":""img/1to3/5.png"",""time"":498},{""stimulus"":""img/1to3/6.png"",""time"":597},{""stimulus"":""img/1to3/7.png"",""time"":695},{""stimulus"":""img/1to3/8.png"",""time"":795},{""stimulus"":""img/1to3/9.png"",""time"":894},{""stimulus"":""img/1to3/10.png"",""time"":992},{""stimulus"":""img/1to3/11.png"",""time"":1091},{""stimulus"":""img/1to3/12.png"",""time"":1191}]","[]"
"image-keyboard-response","178","232553","0.0-5.0-1.87","56b8de29e1d0a200051517f8","bdp_cybrbll","Sat Mar 25 2023 22:19:08 GMT-0400 (Eastern Daylight Time)","491657","3","1","","null","","","","observe","","img/3to2/1.png","null","138","326","0.5","0.1","3","2","",""
"animation","179","233841","0.0-5.0-2.87","56b8de29e1d0a200051517f8","bdp_cybrbll","Sat Mar 25 2023 22:19:08 GMT-0400 (Eastern Daylight Time)","491657","3","1","","","","","","","","","","138","","","","3","2","[{""stimulus"":""img/3to2/1.png"",""time"":100},{""stimulus"":""img/3to2/2.png"",""time"":200},{""stimulus"":""img/3to2/3.png"",""time"":299},{""stimulus"":""img/3to2/4.png"",""time"":397},{""stimulus"":""img/3to2/5.png"",""time"":497},{""stimulus"":""img/3to2/6.png"",""time"":597},{""stimulus"":""img/3to2/7.png"",""time"":696},{""stimulus"":""img/3to2/8.png"",""time"":795},{""stimulus"":""img/3to2/9.png"",""time"":894},{""stimulus"":""img/3to2/10.png"",""time"":993},{""stimulus"":""img/3to2/11.png"",""time"":1093},{""stimulus"":""img/3to2/12.png"",""time"":1191}]","[]"
"image-keyboard-response","180","234341","0.0-5.0-1.88","56b8de29e1d0a200051517f8","bdp_cybrbll","Sat Mar 25 2023 22:19:08 GMT-0400 (Eastern Daylight Time)","491657","3","1","","496","","","","choice","","img/2to1/1.png","2","137","169","0.5","0.1","2","3","",""
"animation","181","235630","0.0-5.0-2.88","56b8de29e1d0a200051517f8","bdp_cybrbll","Sat Mar 25 2023 22:19:08 GMT-0400 (Eastern Daylight Time)","491657","3","1","","","","","","","","","","137","","","","2","3","[{""stimulus"":""img/2to3/1.png"",""time"":101},{""stimulus"":""img/2to3/2.png"",""time"":202},{""stimulus"":""img/2to3/3.png"",""time"":300},{""stimulus"":""img/2to3/4.png"",""time"":399},{""stimulus"":""img/2to3/5.png"",""time"":498},{""stimulus"":""img/2to3/6.png"",""time"":597},{""stimulus"":""img/2to3/7.png"",""time"":696},{""stimulus"":""img/2to3/8.png"",""time"":794},{""stimulus"":""img/2to3/9.png"",""time"":894},{""stimulus"":""img/2to3/10.png"",""time"":993},{""stimulus"":""img/2to3/11.png"",""time"":1092},{""stimulus"":""img/2to3/12.png"",""time"":1191}]","[]"
"image-keyboard-response","182","236253","0.0-5.0-1.89","56b8de29e1d0a200051517f8","bdp_cybrbll","Sat Mar 25 2023 22:19:08 GMT-0400 (Eastern Daylight Time)","491657","3","1","","null","","","","observe","","img/3to2/1.png","null","136","618","0.5","0.1","3","2","",""
"animation","183","237543","0.0-5.0-2.89","56b8de29e1d0a200051517f8","bdp_cybrbll","Sat Mar 25 2023 22:19:08 GMT-0400 (Eastern Daylight Time)","491657","3","1","","","","","","","","","","136","","","","3","2","[{""stimulus"":""img/3to2/1.png"",""time"":102},{""stimulus"":""img/3to2/2.png"",""time"":200},{""stimulus"":""img/3to2/3.png"",""time"":299},{""stimulus"":""img/3to2/4.png"",""time"":398},{""stimulus"":""img/3to2/5.png"",""time"":497},{""stimulus"":""img/3to2/6.png"",""time"":596},{""stimulus"":""img/3to2/7.png"",""time"":695},{""stimulus"":""img/3to2/8.png"",""time"":794},{""stimulus"":""img/3to2/9.png"",""time"":893},{""stimulus"":""img/3to2/10.png"",""time"":991},{""stimulus"":""img/3to2/11.png"",""time"":1091},{""stimulus"":""img/3to2/12.png"",""time"":1190}]","[]"
"image-keyboard-response","184","238072","0.0-5.0-1.90","56b8de29e1d0a200051517f8","bdp_cybrbll","Sat Mar 25 2023 22:19:08 GMT-0400 (Eastern Daylight Time)","491657","3","1","","525","","","","choice","","img/2to1/1.png","1","135","499","0.5","0.1","2","1","",""
"animation","185","239362","0.0-5.0-2.90","56b8de29e1d0a200051517f8","bdp_cybrbll","Sat Mar 25 2023 22:19:08 GMT-0400 (Eastern Daylight Time)","491657","3","1","","","","","","","","","","135","","","","2","1","[{""stimulus"":""img/2to1/1.png"",""time"":102},{""stimulus"":""img/2to1/2.png"",""time"":201},{""stimulus"":""img/2to1/3.png"",""time"":300},{""stimulus"":""img/2to1/4.png"",""time"":399},{""stimulus"":""img/2to1/5.png"",""time"":498},{""stimulus"":""img/2to1/6.png"",""time"":596},{""stimulus"":""img/2to1/7.png"",""time"":696},{""stimulus"":""img/2to1/8.png"",""time"":793},{""stimulus"":""img/2to1/9.png"",""time"":894},{""stimulus"":""img/2to1/10.png"",""time"":992},{""stimulus"":""img/2to1/11.png"",""time"":1092},{""stimulus"":""img/2to1/12.png"",""time"":1191}]","[]"
"image-keyboard-response","186","239807","0.0-5.0-1.91","56b8de29e1d0a200051517f8","bdp_cybrbll","Sat Mar 25 2023 22:19:08 GMT-0400 (Eastern Daylight Time)","491657","3","1","","null","","","","observe","","img/1to3/1.png","null","134","440","0.5","0.1","1","3","",""
"animation","187","241096","0.0-5.0-2.91","56b8de29e1d0a200051517f8","bdp_cybrbll","Sat Mar 25 2023 22:19:08 GMT-0400 (Eastern Daylight Time)","491657","3","1","","","","","","","","","","134","","","","1","3","[{""stimulus"":""img/1to3/1.png"",""time"":102},{""stimulus"":""img/1to3/2.png"",""time"":200},{""stimulus"":""img/1to3/3.png"",""time"":300},{""stimulus"":""img/1to3/4.png"",""time"":401},{""stimulus"":""img/1to3/5.png"",""time"":498},{""stimulus"":""img/1to3/6.png"",""time"":596},{""stimulus"":""img/1to3/7.png"",""time"":695},{""stimulus"":""img/1to3/8.png"",""time"":795},{""stimulus"":""img/1to3/9.png"",""time"":894},{""stimulus"":""img/1to3/10.png"",""time"":993},{""stimulus"":""img/1to3/11.png"",""time"":1092},{""stimulus"":""img/1to3/12.png"",""time"":1190}]","[]"
"image-keyboard-response","188","241654","0.0-5.0-1.92","56b8de29e1d0a200051517f8","bdp_cybrbll","Sat Mar 25 2023 22:19:08 GMT-0400 (Eastern Daylight Time)","491657","3","1","","null","","","","observe","","img/3to2/1.png","null","133","554","0.5","0.1","3","1","",""
"animation","189","242944","0.0-5.0-2.92","56b8de29e1d0a200051517f8","bdp_cybrbll","Sat Mar 25 2023 22:19:08 GMT-0400 (Eastern Daylight Time)","491657","3","1","","","","","","","","","","133","","","","3","1","[{""stimulus"":""img/3to1/1.png"",""time"":101},{""stimulus"":""img/3to1/2.png"",""time"":199},{""stimulus"":""img/3to1/3.png"",""time"":299},{""stimulus"":""img/3to1/4.png"",""time"":398},{""stimulus"":""img/3to1/5.png"",""time"":497},{""stimulus"":""img/3to1/6.png"",""time"":596},{""stimulus"":""img/3to1/7.png"",""time"":695},{""stimulus"":""img/3to1/8.png"",""time"":794},{""stimulus"":""img/3to1/9.png"",""time"":893},{""stimulus"":""img/3to1/10.png"",""time"":992},{""stimulus"":""img/3to1/11.png"",""time"":1091},{""stimulus"":""img/3to1/12.png"",""time"":1191}]","[]"
"image-keyboard-response","190","244015","0.0-5.0-1.93","56b8de29e1d0a200051517f8","bdp_cybrbll","Sat Mar 25 2023 22:19:08 GMT-0400 (Eastern Daylight Time)","491657","3","1","","null","","","","observe","","img/1to3/1.png","null","132","1066","0.5","0.1","1","3","",""
