"event","trial","time","trialtype","subject_id","task","startTime","totalTime","fairPartner","unfairPartner","trial_type","trial_index","time_elapsed","internal_node_id","view_history","rt","success","stimulus","key_press","throwsLeft","rtDur","pFair","pUnfair","holder","receiver","animation_sequence","responses"
"focus","0","0","focusevent","63ea4301f63c1d26f0ff83e9","bdp_cybrbll","Mon Mar 27 2023 07:43:23 GMT-0400 (Eastern Daylight Time)","465910","3","1","","","","","","","","","","","","","","","","",""
"","","","","63ea4301f63c1d26f0ff83e9","bdp_cybrbll","Mon Mar 27 2023 07:43:23 GMT-0400 (Eastern Daylight Time)","465910","3","1","pavlovia","0","11","0.0-0.0","","","","","","","","","","","","",""
"","","","","63ea4301f63c1d26f0ff83e9","bdp_cybrbll","Mon Mar 27 2023 07:43:23 GMT-0400 (Eastern Daylight Time)","465910","3","1","instructions","1","3182","0.0-1.0","[{""page_index"":0,""viewing_time"":3170}]","3170","","","","","","","","","","",""
"fullscreenexit","2","11179","fullscreenexit","63ea4301f63c1d26f0ff83e9","bdp_cybrbll","Mon Mar 27 2023 07:43:23 GMT-0400 (Eastern Daylight Time)","465910","3","1","","","","","","","","","","","","","","","","",""
"","","","","63ea4301f63c1d26f0ff83e9","bdp_cybrbll","Mon Mar 27 2023 07:43:23 GMT-0400 (Eastern Daylight Time)","465910","3","1","fullscreen","2","11937","0.0-2.0","","","true","","","","","","","","","",""
"","","","fullscreenfail","63ea4301f63c1d26f0ff83e9","bdp_cybrbll","Mon Mar 27 2023 07:43:23 GMT-0400 (Eastern Daylight Time)","465910","3","1","image-keyboard-response","3","12548","0.0-3.0-0.0","","603","","","32","","","","","","","",""
"","","","","63ea4301f63c1d26f0ff83e9","bdp_cybrbll","Mon Mar 27 2023 07:43:23 GMT-0400 (Eastern Daylight Time)","465910","3","1","instructions","4","42895","0.0-4.0","[{""page_index"":0,""viewing_time"":30094}]","30095","","","","","","","","","","",""
"","","","choice","63ea4301f63c1d26f0ff83e9","bdp_cybrbll","Mon Mar 27 2023 07:43:23 GMT-0400 (Eastern Daylight Time)","465910","3","1","image-keyboard-response","5","46344","0.0-5.0-1.0","","3444","","img/2to1/1.png","2","225","284","0.5","0.5","2","3","",""
"","","","","63ea4301f63c1d26f0ff83e9","bdp_cybrbll","Mon Mar 27 2023 07:43:23 GMT-0400 (Eastern Daylight Time)","465910","3","1","animation","6","47650","0.0-5.0-2.0","","","","","","225","","","","2","3","[{""stimulus"":""img/2to3/1.png"",""time"":105},{""stimulus"":""img/2to3/2.png"",""time"":204},{""stimulus"":""img/2to3/3.png"",""time"":304},{""stimulus"":""img/2to3/4.png"",""time"":403},{""stimulus"":""img/2to3/5.png"",""time"":504},{""stimulus"":""img/2to3/6.png"",""time"":604},{""stimulus"":""img/2to3/7.png"",""time"":703},{""stimulus"":""img/2to3/8.png"",""time"":805},{""stimulus"":""img/2to3/9.png"",""time"":904},{""stimulus"":""img/2to3/10.png"",""time"":1004},{""stimulus"":""img/2to3/11.png"",""time"":1105},{""stimulus"":""img/2to3/12.png"",""time"":1203}]","[]"
"","","","observe","63ea4301f63c1d26f0ff83e9","bdp_cybrbll","Mon Mar 27 2023 07:43:23 GMT-0400 (Eastern Daylight Time)","465910","3","1","image-keyboard-response","7","47942","0.0-5.0-1.1","","null","","img/3to2/1.png","null","224","282","0.5","0.5","3","2","",""
"","","","","63ea4301f63c1d26f0ff83e9","bdp_cybrbll","Mon Mar 27 2023 07:43:23 GMT-0400 (Eastern Daylight Time)","465910","3","1","animation","8","49242","0.0-5.0-2.1","","","","","","224","","","","3","2","[{""stimulus"":""img/3to2/1.png"",""time"":100},{""stimulus"":""img/3to2/2.png"",""time"":200},{""stimulus"":""img/3to2/3.png"",""time"":301},{""stimulus"":""img/3to2/4.png"",""time"":400},{""stimulus"":""img/3to2/5.png"",""time"":500},{""stimulus"":""img/3to2/6.png"",""time"":599},{""stimulus"":""img/3to2/7.png"",""time"":700},{""stimulus"":""img/3to2/8.png"",""time"":800},{""stimulus"":""img/3to2/9.png"",""time"":900},{""stimulus"":""img/3to2/10.png"",""time"":1000},{""stimulus"":""img/3to2/11.png"",""time"":1100},{""stimulus"":""img/3to2/12.png"",""time"":1199}]","[]"
"","","","choice","63ea4301f63c1d26f0ff83e9","bdp_cybrbll","Mon Mar 27 2023 07:43:23 GMT-0400 (Eastern Daylight Time)","465910","3","1","image-keyboard-response","9","49440","0.0-5.0-1.2","","195","","img/2to1/1.png","1","223","862","0.5","0.5","2","1","",""
"","","","","63ea4301f63c1d26f0ff83e9","bdp_cybrbll","Mon Mar 27 2023 07:43:23 GMT-0400 (Eastern Daylight Time)","465910","3","1","animation","10","50743","0.0-5.0-2.2","","","","","","223","","","","2","1","[{""stimulus"":""img/2to1/1.png"",""time"":102},{""stimulus"":""img/2to1/2.png"",""time"":201},{""stimulus"":""img/2to1/3.png"",""time"":300},{""stimulus"":""img/2to1/4.png"",""time"":401},{""stimulus"":""img/2to1/5.png"",""time"":501},{""stimulus"":""img/2to1/6.png"",""time"":601},{""stimulus"":""img/2to1/7.png"",""time"":701},{""stimulus"":""img/2to1/8.png"",""time"":801},{""stimulus"":""img/2to1/9.png"",""time"":900},{""stimulus"":""img/2to1/10.png"",""time"":1001},{""stimulus"":""img/2to1/11.png"",""time"":1101},{""stimulus"":""img/2to1/12.png"",""time"":1201}]","[]"
"","","","observe","63ea4301f63c1d26f0ff83e9","bdp_cybrbll","Mon Mar 27 2023 07:43:23 GMT-0400 (Eastern Daylight Time)","465910","3","1","image-keyboard-response","11","51202","0.0-5.0-1.3","","null","","img/1to3/1.png","null","222","444","0.5","0.5","1","2","",""
"","","","","63ea4301f63c1d26f0ff83e9","bdp_cybrbll","Mon Mar 27 2023 07:43:23 GMT-0400 (Eastern Daylight Time)","465910","3","1","animation","12","52513","0.0-5.0-2.3","","","","","","222","","","","1","2","[{""stimulus"":""img/1to2/1.png"",""time"":108},{""stimulus"":""img/1to2/2.png"",""time"":207},{""stimulus"":""img/1to2/3.png"",""time"":309},{""stimulus"":""img/1to2/4.png"",""time"":408},{""stimulus"":""img/1to2/5.png"",""time"":508},{""stimulus"":""img/1to2/6.png"",""time"":609},{""stimulus"":""img/1to2/7.png"",""time"":708},{""stimulus"":""img/1to2/8.png"",""time"":809},{""stimulus"":""img/1to2/9.png"",""time"":909},{""stimulus"":""img/1to2/10.png"",""time"":1008},{""stimulus"":""img/1to2/11.png"",""time"":1109},{""stimulus"":""img/1to2/12.png"",""time"":1208}]","[]"
"","","","choice","63ea4301f63c1d26f0ff83e9","bdp_cybrbll","Mon Mar 27 2023 07:43:23 GMT-0400 (Eastern Daylight Time)","465910","3","1","image-keyboard-response","13","52990","0.0-5.0-1.4","","474","","img/2to1/1.png","1","221","293","0.5","0.5","2","1","",""
"","","","","63ea4301f63c1d26f0ff83e9","bdp_cybrbll","Mon Mar 27 2023 07:43:23 GMT-0400 (Eastern Daylight Time)","465910","3","1","animation","14","54302","0.0-5.0-2.4","","","","","","221","","","","2","1","[{""stimulus"":""img/2to1/1.png"",""time"":104},{""stimulus"":""img/2to1/2.png"",""time"":203},{""stimulus"":""img/2to1/3.png"",""time"":303},{""stimulus"":""img/2to1/4.png"",""time"":403},{""stimulus"":""img/2to1/5.png"",""time"":503},{""stimulus"":""img/2to1/6.png"",""time"":604},{""stimulus"":""img/2to1/7.png"",""time"":703},{""stimulus"":""img/2to1/8.png"",""time"":803},{""stimulus"":""img/2to1/9.png"",""time"":904},{""stimulus"":""img/2to1/10.png"",""time"":1013},{""stimulus"":""img/2to1/11.png"",""time"":1112},{""stimulus"":""img/2to1/12.png"",""time"":1213}]","[]"
"","","","observe","63ea4301f63c1d26f0ff83e9","bdp_cybrbll","Mon Mar 27 2023 07:43:23 GMT-0400 (Eastern Daylight Time)","465910","3","1","image-keyboard-response","15","54892","0.0-5.0-1.5","","null","","img/1to3/1.png","null","220","579","0.5","0.5","1","2","",""
"","","","","63ea4301f63c1d26f0ff83e9","bdp_cybrbll","Mon Mar 27 2023 07:43:23 GMT-0400 (Eastern Daylight Time)","465910","3","1","animation","16","56192","0.0-5.0-2.5","","","","","","220","","","","1","2","[{""stimulus"":""img/1to2/1.png"",""time"":100},{""stimulus"":""img/1to2/2.png"",""time"":199},{""stimulus"":""img/1to2/3.png"",""time"":300},{""stimulus"":""img/1to2/4.png"",""time"":400},{""stimulus"":""img/1to2/5.png"",""time"":500},{""stimulus"":""img/1to2/6.png"",""time"":600},{""stimulus"":""img/1to2/7.png"",""time"":700},{""stimulus"":""img/1to2/8.png"",""time"":800},{""stimulus"":""img/1to2/9.png"",""time"":899},{""stimulus"":""img/1to2/10.png"",""time"":1000},{""stimulus"":""img/1to2/11.png"",""time"":1100},{""stimulus"":""img/1to2/12.png"",""time"":1200}]","[]"
"","","","choice","63ea4301f63c1d26f0ff83e9","bdp_cybrbll","Mon Mar 27 2023 07:43:23 GMT-0400 (Eastern Daylight Time)","465910","3","1","image-keyboard-response","17","56592","0.0-5.0-1.6","","397","","img/2to1/1.png","2","219","371","0.5","0.5","2","3","",""
"","","","","63ea4301f63c1d26f0ff83e9","bdp_cybrbll","Mon Mar 27 2023 07:43:23 GMT-0400 (Eastern Daylight Time)","465910","3","1","animation","18","57893","0.0-5.0-2.6","","","","","","219","","","","2","3","[{""stimulus"":""img/2to3/1.png"",""time"":99},{""stimulus"":""img/2to3/2.png"",""time"":200},{""stimulus"":""img/2to3/3.png"",""time"":300},{""stimulus"":""img/2to3/4.png"",""time"":400},{""stimulus"":""img/2to3/5.png"",""time"":500},{""stimulus"":""img/2to3/6.png"",""time"":600},{""stimulus"":""img/2to3/7.png"",""time"":700},{""stimulus"":""img/2to3/8.png"",""time"":800},{""stimulus"":""img/2to3/9.png"",""time"":900},{""stimulus"":""img/2to3/10.png"",""time"":1000},{""stimulus"":""img/2to3/11.png"",""time"":1100},{""stimulus"":""img/2to3/12.png"",""time"":1200}]","[]"
"","","","observe","63ea4301f63c1d26f0ff83e9","bdp_cybrbll","Mon Mar 27 2023 07:43:23 GMT-0400 (Eastern Daylight Time)","465910","3","1","image-keyboard-response","19","58393","0.0-5.0-1.7","","null","","img/3to2/1.png","null","218","489","0.5","0.5","3","2","",""
"","","","","63ea4301f63c1d26f0ff83e9","bdp_cybrbll","Mon Mar 27 2023 07:43:23 GMT-0400 (Eastern Daylight Time)","465910","3","1","animation","20","59713","0.0-5.0-2.7","","","","","","218","","","","3","2","[{""stimulus"":""img/3to2/1.png"",""time"":110},{""stimulus"":""img/3to2/2.png"",""time"":215},{""stimulus"":""img/3to2/3.png"",""time"":319},{""stimulus"":""img/3to2/4.png"",""time"":421},{""stimulus"":""img/3to2/5.png"",""time"":520},{""stimulus"":""img/3to2/6.png"",""time"":620},{""stimulus"":""img/3to2/7.png"",""time"":720},{""stimulus"":""img/3to2/8.png"",""time"":820},{""stimulus"":""img/3to2/9.png"",""time"":920},{""stimulus"":""img/3to2/10.png"",""time"":1020},{""stimulus"":""img/3to2/11.png"",""time"":1120},{""stimulus"":""img/3to2/12.png"",""time"":1220}]","[]"
"","","","choice","63ea4301f63c1d26f0ff83e9","bdp_cybrbll","Mon Mar 27 2023 07:43:23 GMT-0400 (Eastern Daylight Time)","465910","3","1","image-keyboard-response","21","60361","0.0-5.0-1.8","","644","","img/2to1/1.png","2","217","496","0.5","0.5","2","3","",""
"","","","","63ea4301f63c1d26f0ff83e9","bdp_cybrbll","Mon Mar 27 2023 07:43:23 GMT-0400 (Eastern Daylight Time)","465910","3","1","animation","22","61675","0.0-5.0-2.8","","","","","","217","","","","2","3","[{""stimulus"":""img/2to3/1.png"",""time"":103},{""stimulus"":""img/2to3/2.png"",""time"":203},{""stimulus"":""img/2to3/3.png"",""time"":303},{""stimulus"":""img/2to3/4.png"",""time"":403},{""stimulus"":""img/2to3/5.png"",""time"":503},{""stimulus"":""img/2to3/6.png"",""time"":603},{""stimulus"":""img/2to3/7.png"",""time"":703},{""stimulus"":""img/2to3/8.png"",""time"":803},{""stimulus"":""img/2to3/9.png"",""time"":904},{""stimulus"":""img/2to3/10.png"",""time"":1013},{""stimulus"":""img/2to3/11.png"",""time"":1112},{""stimulus"":""img/2to3/12.png"",""time"":1213}]","[]"
"","","","observe","63ea4301f63c1d26f0ff83e9","bdp_cybrbll","Mon Mar 27 2023 07:43:23 GMT-0400 (Eastern Daylight Time)","465910","3","1","image-keyboard-response","23","61813","0.0-5.0-1.9","","null","","img/3to2/1.png","null","216","131","0.5","0.5","3","1","",""
"","","","","63ea4301f63c1d26f0ff83e9","bdp_cybrbll","Mon Mar 27 2023 07:43:23 GMT-0400 (Eastern Daylight Time)","465910","3","1","animation","24","63114","0.0-5.0-2.9","","","","","","216","","","","3","1","[{""stimulus"":""img/3to1/1.png"",""time"":100},{""stimulus"":""img/3to1/2.png"",""time"":199},{""stimulus"":""img/3to1/3.png"",""time"":299},{""stimulus"":""img/3to1/4.png"",""time"":399},{""stimulus"":""img/3to1/5.png"",""time"":500},{""stimulus"":""img/3to1/6.png"",""time"":600},{""stimulus"":""img/3to1/7.png"",""time"":700},{""stimulus"":""img/3to1/8.png"",""time"":800},{""stimulus"":""img/3to1/9.png"",""time"":900},{""stimulus"":""img/3to1/10.png"",""time"":1000},{""stimulus"":""img/3to1/11.png"",""time"":1100},{""stimulus"":""img/3to1/12.png"",""time"":1200}]","[]"
"","","","observe","63ea4301f63c1d26f0ff83e9","bdp_cybrbll","Mon Mar 27 2023 07:43:23 GMT-0400 (Eastern Daylight Time)","465910","3","1","image-keyboard-response","25","63643","0.0-5.0-1.10","","null","","img/1to3/1.png","null","215","523","0.5","0.5","1","3","",""
"","","","","63ea4301f63c1d26f0ff83e9","bdp_cybrbll","Mon Mar 27 2023 07:43:23 GMT-0400 (Eastern Daylight Time)","465910","3","1","animation","26","64944","0.0-5.0-2.10","","","","","","215","","","","1","3","[{""stimulus"":""img/1to3/1.png"",""time"":101},{""stimulus"":""img/1to3/2.png"",""time"":200},{""stimulus"":""img/1to3/3.png"",""time"":300},{""stimulus"":""img/1to3/4.png"",""time"":400},{""stimulus"":""img/1to3/5.png"",""time"":499},{""stimulus"":""img/1to3/6.png"",""time"":600},{""stimulus"":""img/1to3/7.png"",""time"":700},{""stimulus"":""img/1to3/8.png"",""time"":800},{""stimulus"":""img/1to3/9.png"",""time"":900},{""stimulus"":""img/1to3/10.png"",""time"":999},{""stimulus"":""img/1to3/11.png"",""time"":1100},{""stimulus"":""img/1to3/12.png"",""time"":1201}]","[]"
"","","","observe","63ea4301f63c1d26f0ff83e9","bdp_cybrbll","Mon Mar 27 2023 07:43:23 GMT-0400 (Eastern Daylight Time)","465910","3","1","image-keyboard-response","27","65393","0.0-5.0-1.11","","null","","img/3to2/1.png","null","214","442","0.5","0.5","3","1","",""
"","","","","63ea4301f63c1d26f0ff83e9","bdp_cybrbll","Mon Mar 27 2023 07:43:23 GMT-0400 (Eastern Daylight Time)","465910","3","1","animation","28","66694","0.0-5.0-2.11","","","","","","214","","","","3","1","[{""stimulus"":""img/3to1/1.png"",""time"":100},{""stimulus"":""img/3to1/2.png"",""time"":200},{""stimulus"":""img/3to1/3.png"",""time"":299},{""stimulus"":""img/3to1/4.png"",""time"":400},{""stimulus"":""img/3to1/5.png"",""time"":500},{""stimulus"":""img/3to1/6.png"",""time"":600},{""stimulus"":""img/3to1/7.png"",""time"":700},{""stimulus"":""img/3to1/8.png"",""time"":799},{""stimulus"":""img/3to1/9.png"",""time"":900},{""stimulus"":""img/3to1/10.png"",""time"":1000},{""stimulus"":""img/3to1/11.png"",""time"":1100},{""stimulus"":""img/3to1/12.png"",""time"":1200}]","[]"
"","","","observe","63ea4301f63c1d26f0ff83e9","bdp_cybrbll","Mon Mar 27 2023 07:43:23 GMT-0400 (Eastern Daylight Time)","465910","3","1","image-keyboard-response","29","66943","0.0-5.0-1.12","","null","","img/1to3/1.png","null","213","247","0.5","0.5","1","3","",""
"","","","","63ea4301f63c1d26f0ff83e9","bdp_cybrbll","Mon Mar 27 2023 07:43:23 GMT-0400 (Eastern Daylight Time)","465910","3","1","animation","30","68254","0.0-5.0-2.12","","","","","","213","","","","1","3","[{""stimulus"":""img/1to3/1.png"",""time"":101},{""stimulus"":""img/1to3/2.png"",""time"":201},{""stimulus"":""img/1to3/3.png"",""time"":301},{""stimulus"":""img/1to3/4.png"",""time"":400},{""stimulus"":""img/1to3/5.png"",""time"":501},{""stimulus"":""img/1to3/6.png"",""time"":601},{""stimulus"":""img/1to3/7.png"",""time"":702},{""stimulus"":""img/1to3/8.png"",""time"":811},{""stimulus"":""img/1to3/9.png"",""time"":911},{""stimulus"":""img/1to3/10.png"",""time"":1010},{""stimulus"":""img/1to3/11.png"",""time"":1111},{""stimulus"":""img/1to3/12.png"",""time"":1211}]","[]"
"","","","observe","63ea4301f63c1d26f0ff83e9","bdp_cybrbll","Mon Mar 27 2023 07:43:23 GMT-0400 (Eastern Daylight Time)","465910","3","1","image-keyboard-response","31","68883","0.0-5.0-1.13","","null","","img/3to2/1.png","null","212","620","0.5","0.5","3","1","",""
"","","","","63ea4301f63c1d26f0ff83e9","bdp_cybrbll","Mon Mar 27 2023 07:43:23 GMT-0400 (Eastern Daylight Time)","465910","3","1","animation","32","70185","0.0-5.0-2.13","","","","","","212","","","","3","1","[{""stimulus"":""img/3to1/1.png"",""time"":101},{""stimulus"":""img/3to1/2.png"",""time"":200},{""stimulus"":""img/3to1/3.png"",""time"":300},{""stimulus"":""img/3to1/4.png"",""time"":400},{""stimulus"":""img/3to1/5.png"",""time"":500},{""stimulus"":""img/3to1/6.png"",""time"":600},{""stimulus"":""img/3to1/7.png"",""time"":700},{""stimulus"":""img/3to1/8.png"",""time"":799},{""stimulus"":""img/3to1/9.png"",""time"":899},{""stimulus"":""img/3to1/10.png"",""time"":1001},{""stimulus"":""img/3to1/11.png"",""time"":1101},{""stimulus"":""img/3to1/12.png"",""time"":1201}]","[]"
"","","","observe","63ea4301f63c1d26f0ff83e9","bdp_cybrbll","Mon Mar 27 2023 07:43:23 GMT-0400 (Eastern Daylight Time)","465910","3","1","image-keyboard-response","33","70674","0.0-5.0-1.14","","null","","img/1to3/1.png","null","211","480","0.5","0.5","1","3","",""
"","","","","63ea4301f63c1d26f0ff83e9","bdp_cybrbll","Mon Mar 27 2023 07:43:23 GMT-0400 (Eastern Daylight Time)","465910","3","1","animation","34","71974","0.0-5.0-2.14","","","","","","211","","","","1","3","[{""stimulus"":""img/1to3/1.png"",""time"":100},{""stimulus"":""img/1to3/2.png"",""time"":200},{""stimulus"":""img/1to3/3.png"",""time"":300},{""stimulus"":""img/1to3/4.png"",""time"":400},{""stimulus"":""img/1to3/5.png"",""time"":500},{""stimulus"":""img/1to3/6.png"",""time"":600},{""stimulus"":""img/1to3/7.png"",""time"":700},{""stimulus"":""img/1to3/8.png"",""time"":799},{""stimulus"":""img/1to3/9.png"",""time"":900},{""stimulus"":""img/1to3/10.png"",""time"":1000},{""stimulus"":""img/1to3/11.png"",""time"":1100},{""stimulus"":""img/1to3/12.png"",""time"":1199}]","[]"
"","","","observe","63ea4301f63c1d26f0ff83e9","bdp_cybrbll","Mon Mar 27 2023 07:43:23 GMT-0400 (Eastern Daylight Time)","465910","3","1","image-keyboard-response","35","72265","0.0-5.0-1.15","","null","","img/3to2/1.png","null","210","279","0.5","0.5","3","1","",""
"","","","","63ea4301f63c1d26f0ff83e9","bdp_cybrbll","Mon Mar 27 2023 07:43:23 GMT-0400 (Eastern Daylight Time)","465910","3","1","animation","36","73574","0.0-5.0-2.15","","","","","","210","","","","3","1","[{""stimulus"":""img/3to1/1.png"",""time"":108},{""stimulus"":""img/3to1/2.png"",""time"":209},{""stimulus"":""img/3to1/3.png"",""time"":309},{""stimulus"":""img/3to1/4.png"",""time"":409},{""stimulus"":""img/3to1/5.png"",""time"":509},{""stimulus"":""img/3to1/6.png"",""time"":609},{""stimulus"":""img/3to1/7.png"",""time"":709},{""stimulus"":""img/3to1/8.png"",""time"":809},{""stimulus"":""img/3to1/9.png"",""time"":909},{""stimulus"":""img/3to1/10.png"",""time"":1009},{""stimulus"":""img/3to1/11.png"",""time"":1109},{""stimulus"":""img/3to1/12.png"",""time"":1208}]","[]"
"","","","observe","63ea4301f63c1d26f0ff83e9","bdp_cybrbll","Mon Mar 27 2023 07:43:23 GMT-0400 (Eastern Daylight Time)","465910","3","1","image-keyboard-response","37","74494","0.0-5.0-1.16","","null","","img/1to3/1.png","null","209","909","0.5","0.5","1","3","",""
"","","","","63ea4301f63c1d26f0ff83e9","bdp_cybrbll","Mon Mar 27 2023 07:43:23 GMT-0400 (Eastern Daylight Time)","465910","3","1","animation","38","75796","0.0-5.0-2.16","","","","","","209","","","","1","3","[{""stimulus"":""img/1to3/1.png"",""time"":100},{""stimulus"":""img/1to3/2.png"",""time"":200},{""stimulus"":""img/1to3/3.png"",""time"":300},{""stimulus"":""img/1to3/4.png"",""time"":400},{""stimulus"":""img/1to3/5.png"",""time"":501},{""stimulus"":""img/1to3/6.png"",""time"":601},{""stimulus"":""img/1to3/7.png"",""time"":701},{""stimulus"":""img/1to3/8.png"",""time"":801},{""stimulus"":""img/1to3/9.png"",""time"":900},{""stimulus"":""img/1to3/10.png"",""time"":1001},{""stimulus"":""img/1to3/11.png"",""time"":1101},{""stimulus"":""img/1to3/12.png"",""time"":1200}]","[]"
"","","","observe","63ea4301f63c1d26f0ff83e9","bdp_cybrbll","Mon Mar 27 2023 07:43:23 GMT-0400 (Eastern Daylight Time)","465910","3","1","image-keyboard-response","39","76606","0.0-5.0-1.17","","null","","img/3to2/1.png","null","208","803","0.5","0.5","3","2","",""
"","","","","63ea4301f63c1d26f0ff83e9","bdp_cybrbll","Mon Mar 27 2023 07:43:23 GMT-0400 (Eastern Daylight Time)","465910","3","1","animation","40","77906","0.0-5.0-2.17","","","","","","208","","","","3","2","[{""stimulus"":""img/3to2/1.png"",""time"":100},{""stimulus"":""img/3to2/2.png"",""time"":199},{""stimulus"":""img/3to2/3.png"",""time"":300},{""stimulus"":""img/3to2/4.png"",""time"":400},{""stimulus"":""img/3to2/5.png"",""time"":500},{""stimulus"":""img/3to2/6.png"",""time"":600},{""stimulus"":""img/3to2/7.png"",""time"":699},{""stimulus"":""img/3to2/8.png"",""time"":800},{""stimulus"":""img/3to2/9.png"",""time"":900},{""stimulus"":""img/3to2/10.png"",""time"":999},{""stimulus"":""img/3to2/11.png"",""time"":1100},{""stimulus"":""img/3to2/12.png"",""time"":1200}]","[]"
"","","","choice","63ea4301f63c1d26f0ff83e9","bdp_cybrbll","Mon Mar 27 2023 07:43:23 GMT-0400 (Eastern Daylight Time)","465910","3","1","image-keyboard-response","41","78417","0.0-5.0-1.18","","511","","img/2to1/1.png","1","207","509","0.5","0.5","2","1","",""
"","","","","63ea4301f63c1d26f0ff83e9","bdp_cybrbll","Mon Mar 27 2023 07:43:23 GMT-0400 (Eastern Daylight Time)","465910","3","1","animation","42","79726","0.0-5.0-2.18","","","","","","207","","","","2","1","[{""stimulus"":""img/2to1/1.png"",""time"":108},{""stimulus"":""img/2to1/2.png"",""time"":208},{""stimulus"":""img/2to1/3.png"",""time"":307},{""stimulus"":""img/2to1/4.png"",""time"":409},{""stimulus"":""img/2to1/5.png"",""time"":509},{""stimulus"":""img/2to1/6.png"",""time"":609},{""stimulus"":""img/2to1/7.png"",""time"":709},{""stimulus"":""img/2to1/8.png"",""time"":809},{""stimulus"":""img/2to1/9.png"",""time"":908},{""stimulus"":""img/2to1/10.png"",""time"":1009},{""stimulus"":""img/2to1/11.png"",""time"":1109},{""stimulus"":""img/2to1/12.png"",""time"":1209}]","[]"
"","","","observe","63ea4301f63c1d26f0ff83e9","bdp_cybrbll","Mon Mar 27 2023 07:43:23 GMT-0400 (Eastern Daylight Time)","465910","3","1","image-keyboard-response","43","79986","0.0-5.0-1.19","","null","","img/1to3/1.png","null","206","253","0.5","0.5","1","3","",""
"","","","","63ea4301f63c1d26f0ff83e9","bdp_cybrbll","Mon Mar 27 2023 07:43:23 GMT-0400 (Eastern Daylight Time)","465910","3","1","animation","44","81286","0.0-5.0-2.19","","","","","","206","","","","1","3","[{""stimulus"":""img/1to3/1.png"",""time"":100},{""stimulus"":""img/1to3/2.png"",""time"":200},{""stimulus"":""img/1to3/3.png"",""time"":300},{""stimulus"":""img/1to3/4.png"",""time"":400},{""stimulus"":""img/1to3/5.png"",""time"":500},{""stimulus"":""img/1to3/6.png"",""time"":599},{""stimulus"":""img/1to3/7.png"",""time"":699},{""stimulus"":""img/1to3/8.png"",""time"":800},{""stimulus"":""img/1to3/9.png"",""time"":899},{""stimulus"":""img/1to3/10.png"",""time"":999},{""stimulus"":""img/1to3/11.png"",""time"":1100},{""stimulus"":""img/1to3/12.png"",""time"":1199}]","[]"
"","","","observe","63ea4301f63c1d26f0ff83e9","bdp_cybrbll","Mon Mar 27 2023 07:43:23 GMT-0400 (Eastern Daylight Time)","465910","3","1","image-keyboard-response","45","81846","0.0-5.0-1.20","","null","","img/3to2/1.png","null","205","549","0.5","0.5","3","2","",""
"","","","","63ea4301f63c1d26f0ff83e9","bdp_cybrbll","Mon Mar 27 2023 07:43:23 GMT-0400 (Eastern Daylight Time)","465910","3","1","animation","46","83146","0.0-5.0-2.20","","","","","","205","","","","3","2","[{""stimulus"":""img/3to2/1.png"",""time"":101},{""stimulus"":""img/3to2/2.png"",""time"":201},{""stimulus"":""img/3to2/3.png"",""time"":300},{""stimulus"":""img/3to2/4.png"",""time"":401},{""stimulus"":""img/3to2/5.png"",""time"":500},{""stimulus"":""img/3to2/6.png"",""time"":601},{""stimulus"":""img/3to2/7.png"",""time"":701},{""stimulus"":""img/3to2/8.png"",""time"":800},{""stimulus"":""img/3to2/9.png"",""time"":901},{""stimulus"":""img/3to2/10.png"",""time"":1000},{""stimulus"":""img/3to2/11.png"",""time"":1101},{""stimulus"":""img/3to2/12.png"",""time"":1201}]","[]"
"","","","choice","63ea4301f63c1d26f0ff83e9","bdp_cybrbll","Mon Mar 27 2023 07:43:23 GMT-0400 (Eastern Daylight Time)","465910","3","1","image-keyboard-response","47","83548","0.0-5.0-1.21","","400","","img/2to1/1.png","2","204","835","0.5","0.5","2","3","",""
"","","","","63ea4301f63c1d26f0ff83e9","bdp_cybrbll","Mon Mar 27 2023 07:43:23 GMT-0400 (Eastern Daylight Time)","465910","3","1","animation","48","84857","0.0-5.0-2.21","","","","","","204","","","","2","3","[{""stimulus"":""img/2to3/1.png"",""time"":109},{""stimulus"":""img/2to3/2.png"",""time"":209},{""stimulus"":""img/2to3/3.png"",""time"":309},{""stimulus"":""img/2to3/4.png"",""time"":409},{""stimulus"":""img/2to3/5.png"",""time"":509},{""stimulus"":""img/2to3/6.png"",""time"":608},{""stimulus"":""img/2to3/7.png"",""time"":709},{""stimulus"":""img/2to3/8.png"",""time"":809},{""stimulus"":""img/2to3/9.png"",""time"":908},{""stimulus"":""img/2to3/10.png"",""time"":1009},{""stimulus"":""img/2to3/11.png"",""time"":1109},{""stimulus"":""img/2to3/12.png"",""time"":1208}]","[]"
"","","","observe","63ea4301f63c1d26f0ff83e9","bdp_cybrbll","Mon Mar 27 2023 07:43:23 GMT-0400 (Eastern Daylight Time)","465910","3","1","image-keyboard-response","49","86127","0.0-5.0-1.22","","null","","img/3to2/1.png","null","203","1265","0.5","0.5","3","2","",""
"","","","","63ea4301f63c1d26f0ff83e9","bdp_cybrbll","Mon Mar 27 2023 07:43:23 GMT-0400 (Eastern Daylight Time)","465910","3","1","animation","50","87426","0.0-5.0-2.22","","","","","","203","","","","3","2","[{""stimulus"":""img/3to2/1.png"",""time"":100},{""stimulus"":""img/3to2/2.png"",""time"":200},{""stimulus"":""img/3to2/3.png"",""time"":299},{""stimulus"":""img/3to2/4.png"",""time"":399},{""stimulus"":""img/3to2/5.png"",""time"":500},{""stimulus"":""img/3to2/6.png"",""time"":600},{""stimulus"":""img/3to2/7.png"",""time"":699},{""stimulus"":""img/3to2/8.png"",""time"":800},{""stimulus"":""img/3to2/9.png"",""time"":900},{""stimulus"":""img/3to2/10.png"",""time"":999},{""stimulus"":""img/3to2/11.png"",""time"":1100},{""stimulus"":""img/3to2/12.png"",""time"":1200}]","[]"
"","","","choice","63ea4301f63c1d26f0ff83e9","bdp_cybrbll","Mon Mar 27 2023 07:43:23 GMT-0400 (Eastern Daylight Time)","465910","3","1","image-keyboard-response","51","87769","0.0-5.0-1.23","","341","","img/2to1/1.png","2","202","414","0.5","0.5","2","3","",""
"","","","","63ea4301f63c1d26f0ff83e9","bdp_cybrbll","Mon Mar 27 2023 07:43:23 GMT-0400 (Eastern Daylight Time)","465910","3","1","animation","52","89077","0.0-5.0-2.23","","","","","","202","","","","2","3","[{""stimulus"":""img/2to3/1.png"",""time"":108},{""stimulus"":""img/2to3/2.png"",""time"":208},{""stimulus"":""img/2to3/3.png"",""time"":308},{""stimulus"":""img/2to3/4.png"",""time"":408},{""stimulus"":""img/2to3/5.png"",""time"":508},{""stimulus"":""img/2to3/6.png"",""time"":607},{""stimulus"":""img/2to3/7.png"",""time"":708},{""stimulus"":""img/2to3/8.png"",""time"":808},{""stimulus"":""img/2to3/9.png"",""time"":908},{""stimulus"":""img/2to3/10.png"",""time"":1008},{""stimulus"":""img/2to3/11.png"",""time"":1107},{""stimulus"":""img/2to3/12.png"",""time"":1208}]","[]"
"","","","observe","63ea4301f63c1d26f0ff83e9","bdp_cybrbll","Mon Mar 27 2023 07:43:23 GMT-0400 (Eastern Daylight Time)","465910","3","1","image-keyboard-response","53","89617","0.0-5.0-1.24","","null","","img/3to2/1.png","null","201","538","0.5","0.5","3","2","",""
"","","","","63ea4301f63c1d26f0ff83e9","bdp_cybrbll","Mon Mar 27 2023 07:43:23 GMT-0400 (Eastern Daylight Time)","465910","3","1","animation","54","90917","0.0-5.0-2.24","","","","","","201","","","","3","2","[{""stimulus"":""img/3to2/1.png"",""time"":99},{""stimulus"":""img/3to2/2.png"",""time"":199},{""stimulus"":""img/3to2/3.png"",""time"":300},{""stimulus"":""img/3to2/4.png"",""time"":399},{""stimulus"":""img/3to2/5.png"",""time"":500},{""stimulus"":""img/3to2/6.png"",""time"":600},{""stimulus"":""img/3to2/7.png"",""time"":700},{""stimulus"":""img/3to2/8.png"",""time"":800},{""stimulus"":""img/3to2/9.png"",""time"":899},{""stimulus"":""img/3to2/10.png"",""time"":1000},{""stimulus"":""img/3to2/11.png"",""time"":1100},{""stimulus"":""img/3to2/12.png"",""time"":1200}]","[]"
"","","","choice","63ea4301f63c1d26f0ff83e9","bdp_cybrbll","Mon Mar 27 2023 07:43:23 GMT-0400 (Eastern Daylight Time)","465910","3","1","image-keyboard-response","55","91240","0.0-5.0-1.25","","322","","img/2to1/1.png","1","200","388","0.5","0.5","2","1","",""
"","","","","63ea4301f63c1d26f0ff83e9","bdp_cybrbll","Mon Mar 27 2023 07:43:23 GMT-0400 (Eastern Daylight Time)","465910","3","1","animation","56","92548","0.0-5.0-2.25","","","","","","200","","","","2","1","[{""stimulus"":""img/2to1/1.png"",""time"":108},{""stimulus"":""img/2to1/2.png"",""time"":207},{""stimulus"":""img/2to1/3.png"",""time"":308},{""stimulus"":""img/2to1/4.png"",""time"":407},{""stimulus"":""img/2to1/5.png"",""time"":507},{""stimulus"":""img/2to1/6.png"",""time"":607},{""stimulus"":""img/2to1/7.png"",""time"":707},{""stimulus"":""img/2to1/8.png"",""time"":808},{""stimulus"":""img/2to1/9.png"",""time"":907},{""stimulus"":""img/2to1/10.png"",""time"":1008},{""stimulus"":""img/2to1/11.png"",""time"":1108},{""stimulus"":""img/2to1/12.png"",""time"":1207}]","[]"
"","","","observe","63ea4301f63c1d26f0ff83e9","bdp_cybrbll","Mon Mar 27 2023 07:43:23 GMT-0400 (Eastern Daylight Time)","465910","3","1","image-keyboard-response","57","93027","0.0-5.0-1.26","","null","","img/1to3/1.png","null","199","472","0.5","0.5","1","3","",""
"","","","","63ea4301f63c1d26f0ff83e9","bdp_cybrbll","Mon Mar 27 2023 07:43:23 GMT-0400 (Eastern Daylight Time)","465910","3","1","animation","58","94327","0.0-5.0-2.26","","","","","","199","","","","1","3","[{""stimulus"":""img/1to3/1.png"",""time"":101},{""stimulus"":""img/1to3/2.png"",""time"":201},{""stimulus"":""img/1to3/3.png"",""time"":301},{""stimulus"":""img/1to3/4.png"",""time"":400},{""stimulus"":""img/1to3/5.png"",""time"":500},{""stimulus"":""img/1to3/6.png"",""time"":601},{""stimulus"":""img/1to3/7.png"",""time"":700},{""stimulus"":""img/1to3/8.png"",""time"":800},{""stimulus"":""img/1to3/9.png"",""time"":900},{""stimulus"":""img/1to3/10.png"",""time"":1000},{""stimulus"":""img/1to3/11.png"",""time"":1101},{""stimulus"":""img/1to3/12.png"",""time"":1201}]","[]"
"","","","observe","63ea4301f63c1d26f0ff83e9","bdp_cybrbll","Mon Mar 27 2023 07:43:23 GMT-0400 (Eastern Daylight Time)","465910","3","1","image-keyboard-response","59","94567","0.0-5.0-1.27","","null","","img/3to2/1.png","null","198","235","0.5","0.5","3","1","",""
"","","","","63ea4301f63c1d26f0ff83e9","bdp_cybrbll","Mon Mar 27 2023 07:43:23 GMT-0400 (Eastern Daylight Time)","465910","3","1","animation","60","95867","0.0-5.0-2.27","","","","","","198","","","","3","1","[{""stimulus"":""img/3to1/1.png"",""time"":99},{""stimulus"":""img/3to1/2.png"",""time"":199},{""stimulus"":""img/3to1/3.png"",""time"":300},{""stimulus"":""img/3to1/4.png"",""time"":400},{""stimulus"":""img/3to1/5.png"",""time"":499},{""stimulus"":""img/3to1/6.png"",""time"":599},{""stimulus"":""img/3to1/7.png"",""time"":700},{""stimulus"":""img/3to1/8.png"",""time"":800},{""stimulus"":""img/3to1/9.png"",""time"":900},{""stimulus"":""img/3to1/10.png"",""time"":1000},{""stimulus"":""img/3to1/11.png"",""time"":1100},{""stimulus"":""img/3to1/12.png"",""time"":1200}]","[]"
"","","","observe","63ea4301f63c1d26f0ff83e9","bdp_cybrbll","Mon Mar 27 2023 07:43:23 GMT-0400 (Eastern Daylight Time)","465910","3","1","image-keyboard-response","61","96497","0.0-5.0-1.28","","null","","img/1to3/1.png","null","197","619","0.5","0.5","1","2","",""
"","","","","63ea4301f63c1d26f0ff83e9","bdp_cybrbll","Mon Mar 27 2023 07:43:23 GMT-0400 (Eastern Daylight Time)","465910","3","1","animation","62","97798","0.0-5.0-2.28","","","","","","197","","","","1","2","[{""stimulus"":""img/1to2/1.png"",""time"":101},{""stimulus"":""img/1to2/2.png"",""time"":201},{""stimulus"":""img/1to2/3.png"",""time"":300},{""stimulus"":""img/1to2/4.png"",""time"":401},{""stimulus"":""img/1to2/5.png"",""time"":502},{""stimulus"":""img/1to2/6.png"",""time"":602},{""stimulus"":""img/1to2/7.png"",""time"":701},{""stimulus"":""img/1to2/8.png"",""time"":801},{""stimulus"":""img/1to2/9.png"",""time"":902},{""stimulus"":""img/1to2/10.png"",""time"":1001},{""stimulus"":""img/1to2/11.png"",""time"":1102},{""stimulus"":""img/1to2/12.png"",""time"":1202}]","[]"
"","","","choice","63ea4301f63c1d26f0ff83e9","bdp_cybrbll","Mon Mar 27 2023 07:43:23 GMT-0400 (Eastern Daylight Time)","465910","3","1","image-keyboard-response","63","98178","0.0-5.0-1.29","","377","","img/2to1/1.png","2","196","312","0.5","0.5","2","3","",""
"","","","","63ea4301f63c1d26f0ff83e9","bdp_cybrbll","Mon Mar 27 2023 07:43:23 GMT-0400 (Eastern Daylight Time)","465910","3","1","animation","64","99478","0.0-5.0-2.29","","","","","","196","","","","2","3","[{""stimulus"":""img/2to3/1.png"",""time"":100},{""stimulus"":""img/2to3/2.png"",""time"":200},{""stimulus"":""img/2to3/3.png"",""time"":300},{""stimulus"":""img/2to3/4.png"",""time"":400},{""stimulus"":""img/2to3/5.png"",""time"":500},{""stimulus"":""img/2to3/6.png"",""time"":600},{""stimulus"":""img/2to3/7.png"",""time"":699},{""stimulus"":""img/2to3/8.png"",""time"":800},{""stimulus"":""img/2to3/9.png"",""time"":900},{""stimulus"":""img/2to3/10.png"",""time"":999},{""stimulus"":""img/2to3/11.png"",""time"":1099},{""stimulus"":""img/2to3/12.png"",""time"":1200}]","[]"
"","","","observe","63ea4301f63c1d26f0ff83e9","bdp_cybrbll","Mon Mar 27 2023 07:43:23 GMT-0400 (Eastern Daylight Time)","465910","3","1","image-keyboard-response","65","99858","0.0-5.0-1.30","","null","","img/3to2/1.png","null","195","375","0.5","0.5","3","2","",""
"","","","","63ea4301f63c1d26f0ff83e9","bdp_cybrbll","Mon Mar 27 2023 07:43:23 GMT-0400 (Eastern Daylight Time)","465910","3","1","animation","66","101158","0.0-5.0-2.30","","","","","","195","","","","3","2","[{""stimulus"":""img/3to2/1.png"",""time"":101},{""stimulus"":""img/3to2/2.png"",""time"":201},{""stimulus"":""img/3to2/3.png"",""time"":301},{""stimulus"":""img/3to2/4.png"",""time"":401},{""stimulus"":""img/3to2/5.png"",""time"":500},{""stimulus"":""img/3to2/6.png"",""time"":601},{""stimulus"":""img/3to2/7.png"",""time"":700},{""stimulus"":""img/3to2/8.png"",""time"":801},{""stimulus"":""img/3to2/9.png"",""time"":900},{""stimulus"":""img/3to2/10.png"",""time"":1001},{""stimulus"":""img/3to2/11.png"",""time"":1101},{""stimulus"":""img/3to2/12.png"",""time"":1201}]","[]"
"","","","choice","63ea4301f63c1d26f0ff83e9","bdp_cybrbll","Mon Mar 27 2023 07:43:23 GMT-0400 (Eastern Daylight Time)","465910","3","1","image-keyboard-response","67","101619","0.0-5.0-1.31","","460","","img/2to1/1.png","2","194","1088","0.5","0.5","2","3","",""
"","","","","63ea4301f63c1d26f0ff83e9","bdp_cybrbll","Mon Mar 27 2023 07:43:23 GMT-0400 (Eastern Daylight Time)","465910","3","1","animation","68","102928","0.0-5.0-2.31","","","","","","194","","","","2","3","[{""stimulus"":""img/2to3/1.png"",""time"":109},{""stimulus"":""img/2to3/2.png"",""time"":209},{""stimulus"":""img/2to3/3.png"",""time"":308},{""stimulus"":""img/2to3/4.png"",""time"":409},{""stimulus"":""img/2to3/5.png"",""time"":508},{""stimulus"":""img/2to3/6.png"",""time"":609},{""stimulus"":""img/2to3/7.png"",""time"":708},{""stimulus"":""img/2to3/8.png"",""time"":808},{""stimulus"":""img/2to3/9.png"",""time"":909},{""stimulus"":""img/2to3/10.png"",""time"":1009},{""stimulus"":""img/2to3/11.png"",""time"":1109},{""stimulus"":""img/2to3/12.png"",""time"":1208}]","[]"
"","","","observe","63ea4301f63c1d26f0ff83e9","bdp_cybrbll","Mon Mar 27 2023 07:43:23 GMT-0400 (Eastern Daylight Time)","465910","3","1","image-keyboard-response","69","103438","0.0-5.0-1.32","","null","","img/3to2/1.png","null","193","503","0.5","0.5","3","2","",""
"","","","","63ea4301f63c1d26f0ff83e9","bdp_cybrbll","Mon Mar 27 2023 07:43:23 GMT-0400 (Eastern Daylight Time)","465910","3","1","animation","70","104738","0.0-5.0-2.32","","","","","","193","","","","3","2","[{""stimulus"":""img/3to2/1.png"",""time"":99},{""stimulus"":""img/3to2/2.png"",""time"":199},{""stimulus"":""img/3to2/3.png"",""time"":299},{""stimulus"":""img/3to2/4.png"",""time"":399},{""stimulus"":""img/3to2/5.png"",""time"":499},{""stimulus"":""img/3to2/6.png"",""time"":600},{""stimulus"":""img/3to2/7.png"",""time"":700},{""stimulus"":""img/3to2/8.png"",""time"":799},{""stimulus"":""img/3to2/9.png"",""time"":899},{""stimulus"":""img/3to2/10.png"",""time"":999},{""stimulus"":""img/3to2/11.png"",""time"":1099},{""stimulus"":""img/3to2/12.png"",""time"":1199}]","[]"
"","","","choice","63ea4301f63c1d26f0ff83e9","bdp_cybrbll","Mon Mar 27 2023 07:43:23 GMT-0400 (Eastern Daylight Time)","465910","3","1","image-keyboard-response","71","105166","0.0-5.0-1.33","","427","","img/2to1/1.png","2","192","392","0.5","0.5","2","3","",""
"","","","","63ea4301f63c1d26f0ff83e9","bdp_cybrbll","Mon Mar 27 2023 07:43:23 GMT-0400 (Eastern Daylight Time)","465910","3","1","animation","72","106479","0.0-5.0-2.33","","","","","","192","","","","2","3","[{""stimulus"":""img/2to3/1.png"",""time"":104},{""stimulus"":""img/2to3/2.png"",""time"":212},{""stimulus"":""img/2to3/3.png"",""time"":313},{""stimulus"":""img/2to3/4.png"",""time"":412},{""stimulus"":""img/2to3/5.png"",""time"":513},{""stimulus"":""img/2to3/6.png"",""time"":612},{""stimulus"":""img/2to3/7.png"",""time"":713},{""stimulus"":""img/2to3/8.png"",""time"":814},{""stimulus"":""img/2to3/9.png"",""time"":913},{""stimulus"":""img/2to3/10.png"",""time"":1014},{""stimulus"":""img/2to3/11.png"",""time"":1114},{""stimulus"":""img/2to3/12.png"",""time"":1214}]","[]"
"","","","observe","63ea4301f63c1d26f0ff83e9","bdp_cybrbll","Mon Mar 27 2023 07:43:23 GMT-0400 (Eastern Daylight Time)","465910","3","1","image-keyboard-response","73","106739","0.0-5.0-1.34","","null","","img/3to2/1.png","null","191","255","0.5","0.5","3","2","",""
"","","","","63ea4301f63c1d26f0ff83e9","bdp_cybrbll","Mon Mar 27 2023 07:43:23 GMT-0400 (Eastern Daylight Time)","465910","3","1","animation","74","108039","0.0-5.0-2.34","","","","","","191","","","","3","2","[{""stimulus"":""img/3to2/1.png"",""time"":101},{""stimulus"":""img/3to2/2.png"",""time"":200},{""stimulus"":""img/3to2/3.png"",""time"":300},{""stimulus"":""img/3to2/4.png"",""time"":400},{""stimulus"":""img/3to2/5.png"",""time"":501},{""stimulus"":""img/3to2/6.png"",""time"":600},{""stimulus"":""img/3to2/7.png"",""time"":701},{""stimulus"":""img/3to2/8.png"",""time"":801},{""stimulus"":""img/3to2/9.png"",""time"":901},{""stimulus"":""img/3to2/10.png"",""time"":1000},{""stimulus"":""img/3to2/11.png"",""time"":1100},{""stimulus"":""img/3to2/12.png"",""time"":1201}]","[]"
"","","","choice","63ea4301f63c1d26f0ff83e9","bdp_cybrbll","Mon Mar 27 2023 07:43:23 GMT-0400 (Eastern Daylight Time)","465910","3","1","image-keyboard-response","75","108191","0.0-5.0-1.35","","151","","img/2to1/1.png","1","190","735","0.5","0.5","2","1","",""
"","","","","63ea4301f63c1d26f0ff83e9","bdp_cybrbll","Mon Mar 27 2023 07:43:23 GMT-0400 (Eastern Daylight Time)","465910","3","1","animation","76","109499","0.0-5.0-2.35","","","","","","190","","","","2","1","[{""stimulus"":""img/2to1/1.png"",""time"":110},{""stimulus"":""img/2to1/2.png"",""time"":208},{""stimulus"":""img/2to1/3.png"",""time"":308},{""stimulus"":""img/2to1/4.png"",""time"":409},{""stimulus"":""img/2to1/5.png"",""time"":508},{""stimulus"":""img/2to1/6.png"",""time"":609},{""stimulus"":""img/2to1/7.png"",""time"":709},{""stimulus"":""img/2to1/8.png"",""time"":808},{""stimulus"":""img/2to1/9.png"",""time"":909},{""stimulus"":""img/2to1/10.png"",""time"":1009},{""stimulus"":""img/2to1/11.png"",""time"":1108},{""stimulus"":""img/2to1/12.png"",""time"":1209}]","[]"
"","","","observe","63ea4301f63c1d26f0ff83e9","bdp_cybrbll","Mon Mar 27 2023 07:43:23 GMT-0400 (Eastern Daylight Time)","465910","3","1","image-keyboard-response","77","110409","0.0-5.0-1.36","","null","","img/1to3/1.png","null","189","902","0.5","0.5","1","2","",""
"","","","","63ea4301f63c1d26f0ff83e9","bdp_cybrbll","Mon Mar 27 2023 07:43:23 GMT-0400 (Eastern Daylight Time)","465910","3","1","animation","78","111709","0.0-5.0-2.36","","","","","","189","","","","1","2","[{""stimulus"":""img/1to2/1.png"",""time"":101},{""stimulus"":""img/1to2/2.png"",""time"":200},{""stimulus"":""img/1to2/3.png"",""time"":301},{""stimulus"":""img/1to2/4.png"",""time"":401},{""stimulus"":""img/1to2/5.png"",""time"":500},{""stimulus"":""img/1to2/6.png"",""time"":600},{""stimulus"":""img/1to2/7.png"",""time"":700},{""stimulus"":""img/1to2/8.png"",""time"":800},{""stimulus"":""img/1to2/9.png"",""time"":900},{""stimulus"":""img/1to2/10.png"",""time"":1000},{""stimulus"":""img/1to2/11.png"",""time"":1100},{""stimulus"":""img/1to2/12.png"",""time"":1200}]","[]"
"","","","choice","63ea4301f63c1d26f0ff83e9","bdp_cybrbll","Mon Mar 27 2023 07:43:23 GMT-0400 (Eastern Daylight Time)","465910","3","1","image-keyboard-response","79","111928","0.0-5.0-1.37","","217","","img/2to1/1.png","1","188","377","0.5","0.5","2","1","",""
"","","","","63ea4301f63c1d26f0ff83e9","bdp_cybrbll","Mon Mar 27 2023 07:43:23 GMT-0400 (Eastern Daylight Time)","465910","3","1","animation","80","113230","0.0-5.0-2.37","","","","","","188","","","","2","1","[{""stimulus"":""img/2to1/1.png"",""time"":101},{""stimulus"":""img/2to1/2.png"",""time"":202},{""stimulus"":""img/2to1/3.png"",""time"":301},{""stimulus"":""img/2to1/4.png"",""time"":401},{""stimulus"":""img/2to1/5.png"",""time"":502},{""stimulus"":""img/2to1/6.png"",""time"":601},{""stimulus"":""img/2to1/7.png"",""time"":701},{""stimulus"":""img/2to1/8.png"",""time"":801},{""stimulus"":""img/2to1/9.png"",""time"":902},{""stimulus"":""img/2to1/10.png"",""time"":1002},{""stimulus"":""img/2to1/11.png"",""time"":1102},{""stimulus"":""img/2to1/12.png"",""time"":1203}]","[]"
"","","","observe","63ea4301f63c1d26f0ff83e9","bdp_cybrbll","Mon Mar 27 2023 07:43:23 GMT-0400 (Eastern Daylight Time)","465910","3","1","image-keyboard-response","81","113570","0.0-5.0-1.38","","null","","img/1to3/1.png","null","187","332","0.5","0.5","1","2","",""
"","","","","63ea4301f63c1d26f0ff83e9","bdp_cybrbll","Mon Mar 27 2023 07:43:23 GMT-0400 (Eastern Daylight Time)","465910","3","1","animation","82","114879","0.0-5.0-2.38","","","","","","187","","","","1","2","[{""stimulus"":""img/1to2/1.png"",""time"":99},{""stimulus"":""img/1to2/2.png"",""time"":200},{""stimulus"":""img/1to2/3.png"",""time"":300},{""stimulus"":""img/1to2/4.png"",""time"":399},{""stimulus"":""img/1to2/5.png"",""time"":499},{""stimulus"":""img/1to2/6.png"",""time"":600},{""stimulus"":""img/1to2/7.png"",""time"":701},{""stimulus"":""img/1to2/8.png"",""time"":809},{""stimulus"":""img/1to2/9.png"",""time"":909},{""stimulus"":""img/1to2/10.png"",""time"":1009},{""stimulus"":""img/1to2/11.png"",""time"":1109},{""stimulus"":""img/1to2/12.png"",""time"":1209}]","[]"
"","","","choice","63ea4301f63c1d26f0ff83e9","bdp_cybrbll","Mon Mar 27 2023 07:43:23 GMT-0400 (Eastern Daylight Time)","465910","3","1","image-keyboard-response","83","115026","0.0-5.0-1.39","","145","","img/2to1/1.png","2","186","346","0.5","0.5","2","3","",""
"","","","","63ea4301f63c1d26f0ff83e9","bdp_cybrbll","Mon Mar 27 2023 07:43:23 GMT-0400 (Eastern Daylight Time)","465910","3","1","animation","84","116330","0.0-5.0-2.39","","","","","","186","","","","2","3","[{""stimulus"":""img/2to3/1.png"",""time"":104},{""stimulus"":""img/2to3/2.png"",""time"":204},{""stimulus"":""img/2to3/3.png"",""time"":303},{""stimulus"":""img/2to3/4.png"",""time"":404},{""stimulus"":""img/2to3/5.png"",""time"":504},{""stimulus"":""img/2to3/6.png"",""time"":603},{""stimulus"":""img/2to3/7.png"",""time"":703},{""stimulus"":""img/2to3/8.png"",""time"":804},{""stimulus"":""img/2to3/9.png"",""time"":904},{""stimulus"":""img/2to3/10.png"",""time"":1003},{""stimulus"":""img/2to3/11.png"",""time"":1103},{""stimulus"":""img/2to3/12.png"",""time"":1203}]","[]"
"","","","observe","63ea4301f63c1d26f0ff83e9","bdp_cybrbll","Mon Mar 27 2023 07:43:23 GMT-0400 (Eastern Daylight Time)","465910","3","1","image-keyboard-response","85","117130","0.0-5.0-1.40","","null","","img/3to2/1.png","null","185","794","0.5","0.5","3","2","",""
"","","","","63ea4301f63c1d26f0ff83e9","bdp_cybrbll","Mon Mar 27 2023 07:43:23 GMT-0400 (Eastern Daylight Time)","465910","3","1","animation","86","118450","0.0-5.0-2.40","","","","","","185","","","","3","2","[{""stimulus"":""img/3to2/1.png"",""time"":100},{""stimulus"":""img/3to2/2.png"",""time"":201},{""stimulus"":""img/3to2/3.png"",""time"":311},{""stimulus"":""img/3to2/4.png"",""time"":410},{""stimulus"":""img/3to2/5.png"",""time"":510},{""stimulus"":""img/3to2/6.png"",""time"":612},{""stimulus"":""img/3to2/7.png"",""time"":710},{""stimulus"":""img/3to2/8.png"",""time"":811},{""stimulus"":""img/3to2/9.png"",""time"":910},{""stimulus"":""img/3to2/10.png"",""time"":1010},{""stimulus"":""img/3to2/11.png"",""time"":1111},{""stimulus"":""img/3to2/12.png"",""time"":1212}]","[]"
"","","","choice","63ea4301f63c1d26f0ff83e9","bdp_cybrbll","Mon Mar 27 2023 07:43:23 GMT-0400 (Eastern Daylight Time)","465910","3","1","image-keyboard-response","87","118613","0.0-5.0-1.41","","161","","img/2to1/1.png","1","184","357","0.5","0.5","2","1","",""
"","","","","63ea4301f63c1d26f0ff83e9","bdp_cybrbll","Mon Mar 27 2023 07:43:23 GMT-0400 (Eastern Daylight Time)","465910","3","1","animation","88","119921","0.0-5.0-2.41","","","","","","184","","","","2","1","[{""stimulus"":""img/2to1/1.png"",""time"":106},{""stimulus"":""img/2to1/2.png"",""time"":206},{""stimulus"":""img/2to1/3.png"",""time"":307},{""stimulus"":""img/2to1/4.png"",""time"":408},{""stimulus"":""img/2to1/5.png"",""time"":507},{""stimulus"":""img/2to1/6.png"",""time"":607},{""stimulus"":""img/2to1/7.png"",""time"":707},{""stimulus"":""img/2to1/8.png"",""time"":807},{""stimulus"":""img/2to1/9.png"",""time"":908},{""stimulus"":""img/2to1/10.png"",""time"":1007},{""stimulus"":""img/2to1/11.png"",""time"":1108},{""stimulus"":""img/2to1/12.png"",""time"":1207}]","[]"
"","","","observe","63ea4301f63c1d26f0ff83e9","bdp_cybrbll","Mon Mar 27 2023 07:43:23 GMT-0400 (Eastern Daylight Time)","465910","3","1","image-keyboard-response","89","120441","0.0-5.0-1.42","","null","","img/1to3/1.png","null","183","511","0.5","0.5","1","2","",""
"","","","","63ea4301f63c1d26f0ff83e9","bdp_cybrbll","Mon Mar 27 2023 07:43:23 GMT-0400 (Eastern Daylight Time)","465910","3","1","animation","90","121741","0.0-5.0-2.42","","","","","","183","","","","1","2","[{""stimulus"":""img/1to2/1.png"",""time"":100},{""stimulus"":""img/1to2/2.png"",""time"":201},{""stimulus"":""img/1to2/3.png"",""time"":301},{""stimulus"":""img/1to2/4.png"",""time"":401},{""stimulus"":""img/1to2/5.png"",""time"":501},{""stimulus"":""img/1to2/6.png"",""time"":600},{""stimulus"":""img/1to2/7.png"",""time"":701},{""stimulus"":""img/1to2/8.png"",""time"":801},{""stimulus"":""img/1to2/9.png"",""time"":900},{""stimulus"":""img/1to2/10.png"",""time"":1001},{""stimulus"":""img/1to2/11.png"",""time"":1100},{""stimulus"":""img/1to2/12.png"",""time"":1200}]","[]"
"","","","choice","63ea4301f63c1d26f0ff83e9","bdp_cybrbll","Mon Mar 27 2023 07:43:23 GMT-0400 (Eastern Daylight Time)","465910","3","1","image-keyboard-response","91","121958","0.0-5.0-1.43","","215","","img/2to1/1.png","1","182","195","0.5","0.5","2","1","",""
"","","","","63ea4301f63c1d26f0ff83e9","bdp_cybrbll","Mon Mar 27 2023 07:43:23 GMT-0400 (Eastern Daylight Time)","465910","3","1","animation","92","123261","0.0-5.0-2.43","","","","","","182","","","","2","1","[{""stimulus"":""img/2to1/1.png"",""time"":104},{""stimulus"":""img/2to1/2.png"",""time"":204},{""stimulus"":""img/2to1/3.png"",""time"":303},{""stimulus"":""img/2to1/4.png"",""time"":404},{""stimulus"":""img/2to1/5.png"",""time"":503},{""stimulus"":""img/2to1/6.png"",""time"":604},{""stimulus"":""img/2to1/7.png"",""time"":704},{""stimulus"":""img/2to1/8.png"",""time"":803},{""stimulus"":""img/2to1/9.png"",""time"":903},{""stimulus"":""img/2to1/10.png"",""time"":1004},{""stimulus"":""img/2to1/11.png"",""time"":1103},{""stimulus"":""img/2to1/12.png"",""time"":1203}]","[]"
"","","","observe","63ea4301f63c1d26f0ff83e9","bdp_cybrbll","Mon Mar 27 2023 07:43:23 GMT-0400 (Eastern Daylight Time)","465910","3","1","image-keyboard-response","93","123561","0.0-5.0-1.44","","null","","img/1to3/1.png","null","181","298","0.5","0.5","1","3","",""
"","","","","63ea4301f63c1d26f0ff83e9","bdp_cybrbll","Mon Mar 27 2023 07:43:23 GMT-0400 (Eastern Daylight Time)","465910","3","1","animation","94","124861","0.0-5.0-2.44","","","","","","181","","","","1","3","[{""stimulus"":""img/1to3/1.png"",""time"":101},{""stimulus"":""img/1to3/2.png"",""time"":201},{""stimulus"":""img/1to3/3.png"",""time"":300},{""stimulus"":""img/1to3/4.png"",""time"":401},{""stimulus"":""img/1to3/5.png"",""time"":502},{""stimulus"":""img/1to3/6.png"",""time"":602},{""stimulus"":""img/1to3/7.png"",""time"":701},{""stimulus"":""img/1to3/8.png"",""time"":801},{""stimulus"":""img/1to3/9.png"",""time"":902},{""stimulus"":""img/1to3/10.png"",""time"":1001},{""stimulus"":""img/1to3/11.png"",""time"":1102},{""stimulus"":""img/1to3/12.png"",""time"":1201}]","[]"
"","","","observe","63ea4301f63c1d26f0ff83e9","bdp_cybrbll","Mon Mar 27 2023 07:43:23 GMT-0400 (Eastern Daylight Time)","465910","3","1","image-keyboard-response","95","125311","0.0-5.0-1.45","","null","","img/3to2/1.png","null","180","443","0.5","0.5","3","1","",""
"","","","","63ea4301f63c1d26f0ff83e9","bdp_cybrbll","Mon Mar 27 2023 07:43:23 GMT-0400 (Eastern Daylight Time)","465910","3","1","animation","96","126612","0.0-5.0-2.45","","","","","","180","","","","3","1","[{""stimulus"":""img/3to1/1.png"",""time"":101},{""stimulus"":""img/3to1/2.png"",""time"":200},{""stimulus"":""img/3to1/3.png"",""time"":300},{""stimulus"":""img/3to1/4.png"",""time"":400},{""stimulus"":""img/3to1/5.png"",""time"":500},{""stimulus"":""img/3to1/6.png"",""time"":601},{""stimulus"":""img/3to1/7.png"",""time"":700},{""stimulus"":""img/3to1/8.png"",""time"":800},{""stimulus"":""img/3to1/9.png"",""time"":900},{""stimulus"":""img/3to1/10.png"",""time"":1000},{""stimulus"":""img/3to1/11.png"",""time"":1100},{""stimulus"":""img/3to1/12.png"",""time"":1200}]","[]"
"","","","observe","63ea4301f63c1d26f0ff83e9","bdp_cybrbll","Mon Mar 27 2023 07:43:23 GMT-0400 (Eastern Daylight Time)","465910","3","1","image-keyboard-response","97","126781","0.0-5.0-1.46","","null","","img/1to3/1.png","null","179","167","0.5","0.5","1","2","",""
"","","","","63ea4301f63c1d26f0ff83e9","bdp_cybrbll","Mon Mar 27 2023 07:43:23 GMT-0400 (Eastern Daylight Time)","465910","3","1","animation","98","128082","0.0-5.0-2.46","","","","","","179","","","","1","2","[{""stimulus"":""img/1to2/1.png"",""time"":101},{""stimulus"":""img/1to2/2.png"",""time"":200},{""stimulus"":""img/1to2/3.png"",""time"":300},{""stimulus"":""img/1to2/4.png"",""time"":400},{""stimulus"":""img/1to2/5.png"",""time"":500},{""stimulus"":""img/1to2/6.png"",""time"":600},{""stimulus"":""img/1to2/7.png"",""time"":700},{""stimulus"":""img/1to2/8.png"",""time"":800},{""stimulus"":""img/1to2/9.png"",""time"":901},{""stimulus"":""img/1to2/10.png"",""time"":1001},{""stimulus"":""img/1to2/11.png"",""time"":1100},{""stimulus"":""img/1to2/12.png"",""time"":1201}]","[]"
"","","","choice","63ea4301f63c1d26f0ff83e9","bdp_cybrbll","Mon Mar 27 2023 07:43:23 GMT-0400 (Eastern Daylight Time)","465910","3","1","image-keyboard-response","99","128531","0.0-5.0-1.47","","447","","img/2to1/1.png","2","178","308","0.5","0.5","2","3","",""
"","","","","63ea4301f63c1d26f0ff83e9","bdp_cybrbll","Mon Mar 27 2023 07:43:23 GMT-0400 (Eastern Daylight Time)","465910","3","1","animation","100","129833","0.0-5.0-2.47","","","","","","178","","","","2","3","[{""stimulus"":""img/2to3/1.png"",""time"":101},{""stimulus"":""img/2to3/2.png"",""time"":200},{""stimulus"":""img/2to3/3.png"",""time"":300},{""stimulus"":""img/2to3/4.png"",""time"":402},{""stimulus"":""img/2to3/5.png"",""time"":502},{""stimulus"":""img/2to3/6.png"",""time"":602},{""stimulus"":""img/2to3/7.png"",""time"":702},{""stimulus"":""img/2to3/8.png"",""time"":801},{""stimulus"":""img/2to3/9.png"",""time"":901},{""stimulus"":""img/2to3/10.png"",""time"":1001},{""stimulus"":""img/2to3/11.png"",""time"":1102},{""stimulus"":""img/2to3/12.png"",""time"":1202}]","[]"
"","","","observe","63ea4301f63c1d26f0ff83e9","bdp_cybrbll","Mon Mar 27 2023 07:43:23 GMT-0400 (Eastern Daylight Time)","465910","3","1","image-keyboard-response","101","130852","0.0-5.0-1.48","","null","","img/3to2/1.png","null","177","1016","0.5","0.5","3","2","",""
"","","","","63ea4301f63c1d26f0ff83e9","bdp_cybrbll","Mon Mar 27 2023 07:43:23 GMT-0400 (Eastern Daylight Time)","465910","3","1","animation","102","132153","0.0-5.0-2.48","","","","","","177","","","","3","2","[{""stimulus"":""img/3to2/1.png"",""time"":101},{""stimulus"":""img/3to2/2.png"",""time"":200},{""stimulus"":""img/3to2/3.png"",""time"":301},{""stimulus"":""img/3to2/4.png"",""time"":400},{""stimulus"":""img/3to2/5.png"",""time"":501},{""stimulus"":""img/3to2/6.png"",""time"":601},{""stimulus"":""img/3to2/7.png"",""time"":700},{""stimulus"":""img/3to2/8.png"",""time"":800},{""stimulus"":""img/3to2/9.png"",""time"":900},{""stimulus"":""img/3to2/10.png"",""time"":1000},{""stimulus"":""img/3to2/11.png"",""time"":1101},{""stimulus"":""img/3to2/12.png"",""time"":1200}]","[]"
"","","","choice","63ea4301f63c1d26f0ff83e9","bdp_cybrbll","Mon Mar 27 2023 07:43:23 GMT-0400 (Eastern Daylight Time)","465910","3","1","image-keyboard-response","103","133407","0.0-5.0-1.49","","1253","","img/2to1/1.png","1","176","239","0.5","0.5","2","1","",""
"","","","","63ea4301f63c1d26f0ff83e9","bdp_cybrbll","Mon Mar 27 2023 07:43:23 GMT-0400 (Eastern Daylight Time)","465910","3","1","animation","104","134713","0.0-5.0-2.49","","","","","","176","","","","2","1","[{""stimulus"":""img/2to1/1.png"",""time"":107},{""stimulus"":""img/2to1/2.png"",""time"":206},{""stimulus"":""img/2to1/3.png"",""time"":306},{""stimulus"":""img/2to1/4.png"",""time"":407},{""stimulus"":""img/2to1/5.png"",""time"":506},{""stimulus"":""img/2to1/6.png"",""time"":606},{""stimulus"":""img/2to1/7.png"",""time"":706},{""stimulus"":""img/2to1/8.png"",""time"":806},{""stimulus"":""img/2to1/9.png"",""time"":907},{""stimulus"":""img/2to1/10.png"",""time"":1006},{""stimulus"":""img/2to1/11.png"",""time"":1107},{""stimulus"":""img/2to1/12.png"",""time"":1207}]","[]"
"","","","observe","63ea4301f63c1d26f0ff83e9","bdp_cybrbll","Mon Mar 27 2023 07:43:23 GMT-0400 (Eastern Daylight Time)","465910","3","1","image-keyboard-response","105","135033","0.0-5.0-1.50","","null","","img/1to3/1.png","null","175","314","0.5","0.5","1","2","",""
"","","","","63ea4301f63c1d26f0ff83e9","bdp_cybrbll","Mon Mar 27 2023 07:43:23 GMT-0400 (Eastern Daylight Time)","465910","3","1","animation","106","136342","0.0-5.0-2.50","","","","","","175","","","","1","2","[{""stimulus"":""img/1to2/1.png"",""time"":101},{""stimulus"":""img/1to2/2.png"",""time"":200},{""stimulus"":""img/1to2/3.png"",""time"":305},{""stimulus"":""img/1to2/4.png"",""time"":410},{""stimulus"":""img/1to2/5.png"",""time"":510},{""stimulus"":""img/1to2/6.png"",""time"":610},{""stimulus"":""img/1to2/7.png"",""time"":711},{""stimulus"":""img/1to2/8.png"",""time"":810},{""stimulus"":""img/1to2/9.png"",""time"":910},{""stimulus"":""img/1to2/10.png"",""time"":1010},{""stimulus"":""img/1to2/11.png"",""time"":1111},{""stimulus"":""img/1to2/12.png"",""time"":1210}]","[]"
"","","","choice","63ea4301f63c1d26f0ff83e9","bdp_cybrbll","Mon Mar 27 2023 07:43:23 GMT-0400 (Eastern Daylight Time)","465910","3","1","image-keyboard-response","107","136711","0.0-5.0-1.51","","368","","img/2to1/1.png","1","174","641","0.5","0.5","2","1","",""
"","","","","63ea4301f63c1d26f0ff83e9","bdp_cybrbll","Mon Mar 27 2023 07:43:23 GMT-0400 (Eastern Daylight Time)","465910","3","1","animation","108","138024","0.0-5.0-2.51","","","","","","174","","","","2","1","[{""stimulus"":""img/2to1/1.png"",""time"":103},{""stimulus"":""img/2to1/2.png"",""time"":203},{""stimulus"":""img/2to1/3.png"",""time"":304},{""stimulus"":""img/2to1/4.png"",""time"":403},{""stimulus"":""img/2to1/5.png"",""time"":503},{""stimulus"":""img/2to1/6.png"",""time"":603},{""stimulus"":""img/2to1/7.png"",""time"":703},{""stimulus"":""img/2to1/8.png"",""time"":803},{""stimulus"":""img/2to1/9.png"",""time"":905},{""stimulus"":""img/2to1/10.png"",""time"":1013},{""stimulus"":""img/2to1/11.png"",""time"":1113},{""stimulus"":""img/2to1/12.png"",""time"":1213}]","[]"
"","","","observe","63ea4301f63c1d26f0ff83e9","bdp_cybrbll","Mon Mar 27 2023 07:43:23 GMT-0400 (Eastern Daylight Time)","465910","3","1","image-keyboard-response","109","138914","0.0-5.0-1.52","","null","","img/1to3/1.png","null","173","881","0.5","0.5","1","3","",""
"","","","","63ea4301f63c1d26f0ff83e9","bdp_cybrbll","Mon Mar 27 2023 07:43:23 GMT-0400 (Eastern Daylight Time)","465910","3","1","animation","110","140214","0.0-5.0-2.52","","","","","","173","","","","1","3","[{""stimulus"":""img/1to3/1.png"",""time"":99},{""stimulus"":""img/1to3/2.png"",""time"":199},{""stimulus"":""img/1to3/3.png"",""time"":300},{""stimulus"":""img/1to3/4.png"",""time"":400},{""stimulus"":""img/1to3/5.png"",""time"":500},{""stimulus"":""img/1to3/6.png"",""time"":599},{""stimulus"":""img/1to3/7.png"",""time"":699},{""stimulus"":""img/1to3/8.png"",""time"":800},{""stimulus"":""img/1to3/9.png"",""time"":899},{""stimulus"":""img/1to3/10.png"",""time"":999},{""stimulus"":""img/1to3/11.png"",""time"":1099},{""stimulus"":""img/1to3/12.png"",""time"":1199}]","[]"
"","","","observe","63ea4301f63c1d26f0ff83e9","bdp_cybrbll","Mon Mar 27 2023 07:43:23 GMT-0400 (Eastern Daylight Time)","465910","3","1","image-keyboard-response","111","141854","0.0-5.0-1.53","","null","","img/3to2/1.png","null","172","1632","0.5","0.5","3","2","",""
"","","","","63ea4301f63c1d26f0ff83e9","bdp_cybrbll","Mon Mar 27 2023 07:43:23 GMT-0400 (Eastern Daylight Time)","465910","3","1","animation","112","143155","0.0-5.0-2.53","","","","","","172","","","","3","2","[{""stimulus"":""img/3to2/1.png"",""time"":100},{""stimulus"":""img/3to2/2.png"",""time"":200},{""stimulus"":""img/3to2/3.png"",""time"":300},{""stimulus"":""img/3to2/4.png"",""time"":401},{""stimulus"":""img/3to2/5.png"",""time"":500},{""stimulus"":""img/3to2/6.png"",""time"":601},{""stimulus"":""img/3to2/7.png"",""time"":700},{""stimulus"":""img/3to2/8.png"",""time"":801},{""stimulus"":""img/3to2/9.png"",""time"":900},{""stimulus"":""img/3to2/10.png"",""time"":1000},{""stimulus"":""img/3to2/11.png"",""time"":1101},{""stimulus"":""img/3to2/12.png"",""time"":1201}]","[]"
"","","","choice","63ea4301f63c1d26f0ff83e9","bdp_cybrbll","Mon Mar 27 2023 07:43:23 GMT-0400 (Eastern Daylight Time)","465910","3","1","image-keyboard-response","113","143704","0.0-5.0-1.54","","547","","img/2to1/1.png","1","171","850","0.5","0.5","2","1","",""
"","","","","63ea4301f63c1d26f0ff83e9","bdp_cybrbll","Mon Mar 27 2023 07:43:23 GMT-0400 (Eastern Daylight Time)","465910","3","1","animation","114","145004","0.0-5.0-2.54","","","","","","171","","","","2","1","[{""stimulus"":""img/2to1/1.png"",""time"":101},{""stimulus"":""img/2to1/2.png"",""time"":201},{""stimulus"":""img/2to1/3.png"",""time"":300},{""stimulus"":""img/2to1/4.png"",""time"":400},{""stimulus"":""img/2to1/5.png"",""time"":500},{""stimulus"":""img/2to1/6.png"",""time"":600},{""stimulus"":""img/2to1/7.png"",""time"":700},{""stimulus"":""img/2to1/8.png"",""time"":801},{""stimulus"":""img/2to1/9.png"",""time"":900},{""stimulus"":""img/2to1/10.png"",""time"":1000},{""stimulus"":""img/2to1/11.png"",""time"":1100},{""stimulus"":""img/2to1/12.png"",""time"":1201}]","[]"
"","","","observe","63ea4301f63c1d26f0ff83e9","bdp_cybrbll","Mon Mar 27 2023 07:43:23 GMT-0400 (Eastern Daylight Time)","465910","3","1","image-keyboard-response","115","145404","0.0-5.0-1.55","","null","","img/1to3/1.png","null","170","392","0.5","0.5","1","2","",""
"","","","","63ea4301f63c1d26f0ff83e9","bdp_cybrbll","Mon Mar 27 2023 07:43:23 GMT-0400 (Eastern Daylight Time)","465910","3","1","animation","116","146704","0.0-5.0-2.55","","","","","","170","","","","1","2","[{""stimulus"":""img/1to2/1.png"",""time"":101},{""stimulus"":""img/1to2/2.png"",""time"":200},{""stimulus"":""img/1to2/3.png"",""time"":301},{""stimulus"":""img/1to2/4.png"",""time"":400},{""stimulus"":""img/1to2/5.png"",""time"":500},{""stimulus"":""img/1to2/6.png"",""time"":600},{""stimulus"":""img/1to2/7.png"",""time"":700},{""stimulus"":""img/1to2/8.png"",""time"":800},{""stimulus"":""img/1to2/9.png"",""time"":900},{""stimulus"":""img/1to2/10.png"",""time"":1001},{""stimulus"":""img/1to2/11.png"",""time"":1100},{""stimulus"":""img/1to2/12.png"",""time"":1201}]","[]"
"","","","choice","63ea4301f63c1d26f0ff83e9","bdp_cybrbll","Mon Mar 27 2023 07:43:23 GMT-0400 (Eastern Daylight Time)","465910","3","1","image-keyboard-response","117","146996","0.0-5.0-1.56","","290","","img/2to1/1.png","2","169","306","0.5","0.5","2","3","",""
"","","","","63ea4301f63c1d26f0ff83e9","bdp_cybrbll","Mon Mar 27 2023 07:43:23 GMT-0400 (Eastern Daylight Time)","465910","3","1","animation","118","148305","0.0-5.0-2.56","","","","","","169","","","","2","3","[{""stimulus"":""img/2to3/1.png"",""time"":108},{""stimulus"":""img/2to3/2.png"",""time"":208},{""stimulus"":""img/2to3/3.png"",""time"":308},{""stimulus"":""img/2to3/4.png"",""time"":408},{""stimulus"":""img/2to3/5.png"",""time"":508},{""stimulus"":""img/2to3/6.png"",""time"":608},{""stimulus"":""img/2to3/7.png"",""time"":708},{""stimulus"":""img/2to3/8.png"",""time"":808},{""stimulus"":""img/2to3/9.png"",""time"":908},{""stimulus"":""img/2to3/10.png"",""time"":1008},{""stimulus"":""img/2to3/11.png"",""time"":1108},{""stimulus"":""img/2to3/12.png"",""time"":1208}]","[]"
"","","","observe","63ea4301f63c1d26f0ff83e9","bdp_cybrbll","Mon Mar 27 2023 07:43:23 GMT-0400 (Eastern Daylight Time)","465910","3","1","image-keyboard-response","119","148845","0.0-5.0-1.57","","null","","img/3to2/1.png","null","168","529","0.5","0.5","3","1","",""
"","","","","63ea4301f63c1d26f0ff83e9","bdp_cybrbll","Mon Mar 27 2023 07:43:23 GMT-0400 (Eastern Daylight Time)","465910","3","1","animation","120","150145","0.0-5.0-2.57","","","","","","168","","","","3","1","[{""stimulus"":""img/3to1/1.png"",""time"":101},{""stimulus"":""img/3to1/2.png"",""time"":200},{""stimulus"":""img/3to1/3.png"",""time"":300},{""stimulus"":""img/3to1/4.png"",""time"":401},{""stimulus"":""img/3to1/5.png"",""time"":500},{""stimulus"":""img/3to1/6.png"",""time"":600},{""stimulus"":""img/3to1/7.png"",""time"":701},{""stimulus"":""img/3to1/8.png"",""time"":800},{""stimulus"":""img/3to1/9.png"",""time"":900},{""stimulus"":""img/3to1/10.png"",""time"":1000},{""stimulus"":""img/3to1/11.png"",""time"":1100},{""stimulus"":""img/3to1/12.png"",""time"":1201}]","[]"
"","","","observe","63ea4301f63c1d26f0ff83e9","bdp_cybrbll","Mon Mar 27 2023 07:43:23 GMT-0400 (Eastern Daylight Time)","465910","3","1","image-keyboard-response","121","150714","0.0-5.0-1.58","","null","","img/1to3/1.png","null","167","568","0.5","0.5","1","3","",""
"","","","","63ea4301f63c1d26f0ff83e9","bdp_cybrbll","Mon Mar 27 2023 07:43:23 GMT-0400 (Eastern Daylight Time)","465910","3","1","animation","122","152015","0.0-5.0-2.58","","","","","","167","","","","1","3","[{""stimulus"":""img/1to3/1.png"",""time"":100},{""stimulus"":""img/1to3/2.png"",""time"":200},{""stimulus"":""img/1to3/3.png"",""time"":301},{""stimulus"":""img/1to3/4.png"",""time"":401},{""stimulus"":""img/1to3/5.png"",""time"":502},{""stimulus"":""img/1to3/6.png"",""time"":601},{""stimulus"":""img/1to3/7.png"",""time"":701},{""stimulus"":""img/1to3/8.png"",""time"":801},{""stimulus"":""img/1to3/9.png"",""time"":902},{""stimulus"":""img/1to3/10.png"",""time"":1001},{""stimulus"":""img/1to3/11.png"",""time"":1101},{""stimulus"":""img/1to3/12.png"",""time"":1201}]","[]"
"","","","observe","63ea4301f63c1d26f0ff83e9","bdp_cybrbll","Mon Mar 27 2023 07:43:23 GMT-0400 (Eastern Daylight Time)","465910","3","1","image-keyboard-response","123","152566","0.0-5.0-1.59","","null","","img/3to2/1.png","null","166","543","0.5","0.5","3","1","",""
"","","","","63ea4301f63c1d26f0ff83e9","bdp_cybrbll","Mon Mar 27 2023 07:43:23 GMT-0400 (Eastern Daylight Time)","465910","3","1","animation","124","153866","0.0-5.0-2.59","","","","","","166","","","","3","1","[{""stimulus"":""img/3to1/1.png"",""time"":100},{""stimulus"":""img/3to1/2.png"",""time"":200},{""stimulus"":""img/3to1/3.png"",""time"":301},{""stimulus"":""img/3to1/4.png"",""time"":400},{""stimulus"":""img/3to1/5.png"",""time"":501},{""stimulus"":""img/3to1/6.png"",""time"":600},{""stimulus"":""img/3to1/7.png"",""time"":700},{""stimulus"":""img/3to1/8.png"",""time"":800},{""stimulus"":""img/3to1/9.png"",""time"":900},{""stimulus"":""img/3to1/10.png"",""time"":1000},{""stimulus"":""img/3to1/11.png"",""time"":1100},{""stimulus"":""img/3to1/12.png"",""time"":1200}]","[]"
"","","","observe","63ea4301f63c1d26f0ff83e9","bdp_cybrbll","Mon Mar 27 2023 07:43:23 GMT-0400 (Eastern Daylight Time)","465910","3","1","image-keyboard-response","125","154166","0.0-5.0-1.60","","null","","img/1to3/1.png","null","165","293","0.5","0.5","1","3","",""
"","","","","63ea4301f63c1d26f0ff83e9","bdp_cybrbll","Mon Mar 27 2023 07:43:23 GMT-0400 (Eastern Daylight Time)","465910","3","1","animation","126","155466","0.0-5.0-2.60","","","","","","165","","","","1","3","[{""stimulus"":""img/1to3/1.png"",""time"":100},{""stimulus"":""img/1to3/2.png"",""time"":200},{""stimulus"":""img/1to3/3.png"",""time"":300},{""stimulus"":""img/1to3/4.png"",""time"":400},{""stimulus"":""img/1to3/5.png"",""time"":500},{""stimulus"":""img/1to3/6.png"",""time"":600},{""stimulus"":""img/1to3/7.png"",""time"":700},{""stimulus"":""img/1to3/8.png"",""time"":800},{""stimulus"":""img/1to3/9.png"",""time"":900},{""stimulus"":""img/1to3/10.png"",""time"":1000},{""stimulus"":""img/1to3/11.png"",""time"":1100},{""stimulus"":""img/1to3/12.png"",""time"":1200}]","[]"
"","","","observe","63ea4301f63c1d26f0ff83e9","bdp_cybrbll","Mon Mar 27 2023 07:43:23 GMT-0400 (Eastern Daylight Time)","465910","3","1","image-keyboard-response","127","155696","0.0-5.0-1.61","","null","","img/3to2/1.png","null","164","225","0.5","0.5","3","2","",""
"","","","","63ea4301f63c1d26f0ff83e9","bdp_cybrbll","Mon Mar 27 2023 07:43:23 GMT-0400 (Eastern Daylight Time)","465910","3","1","animation","128","156997","0.0-5.0-2.61","","","","","","164","","","","3","2","[{""stimulus"":""img/3to2/1.png"",""time"":101},{""stimulus"":""img/3to2/2.png"",""time"":200},{""stimulus"":""img/3to2/3.png"",""time"":300},{""stimulus"":""img/3to2/4.png"",""time"":400},{""stimulus"":""img/3to2/5.png"",""time"":500},{""stimulus"":""img/3to2/6.png"",""time"":600},{""stimulus"":""img/3to2/7.png"",""time"":700},{""stimulus"":""img/3to2/8.png"",""time"":800},{""stimulus"":""img/3to2/9.png"",""time"":901},{""stimulus"":""img/3to2/10.png"",""time"":1000},{""stimulus"":""img/3to2/11.png"",""time"":1100},{""stimulus"":""img/3to2/12.png"",""time"":1201}]","[]"
"","","","choice","63ea4301f63c1d26f0ff83e9","bdp_cybrbll","Mon Mar 27 2023 07:43:23 GMT-0400 (Eastern Daylight Time)","465910","3","1","image-keyboard-response","129","157535","0.0-5.0-1.62","","537","","img/2to1/1.png","2","163","666","0.5","0.5","2","3","",""
"","","","","63ea4301f63c1d26f0ff83e9","bdp_cybrbll","Mon Mar 27 2023 07:43:23 GMT-0400 (Eastern Daylight Time)","465910","3","1","animation","130","158836","0.0-5.0-2.62","","","","","","163","","","","2","3","[{""stimulus"":""img/2to3/1.png"",""time"":101},{""stimulus"":""img/2to3/2.png"",""time"":201},{""stimulus"":""img/2to3/3.png"",""time"":301},{""stimulus"":""img/2to3/4.png"",""time"":401},{""stimulus"":""img/2to3/5.png"",""time"":501},{""stimulus"":""img/2to3/6.png"",""time"":601},{""stimulus"":""img/2to3/7.png"",""time"":701},{""stimulus"":""img/2to3/8.png"",""time"":802},{""stimulus"":""img/2to3/9.png"",""time"":901},{""stimulus"":""img/2to3/10.png"",""time"":1001},{""stimulus"":""img/2to3/11.png"",""time"":1101},{""stimulus"":""img/2to3/12.png"",""time"":1201}]","[]"
"","","","observe","63ea4301f63c1d26f0ff83e9","bdp_cybrbll","Mon Mar 27 2023 07:43:23 GMT-0400 (Eastern Daylight Time)","465910","3","1","image-keyboard-response","131","159626","0.0-5.0-1.63","","null","","img/3to2/1.png","null","162","779","0.5","0.5","3","1","",""
"","","","","63ea4301f63c1d26f0ff83e9","bdp_cybrbll","Mon Mar 27 2023 07:43:23 GMT-0400 (Eastern Daylight Time)","465910","3","1","animation","132","160926","0.0-5.0-2.63","","","","","","162","","","","3","1","[{""stimulus"":""img/3to1/1.png"",""time"":100},{""stimulus"":""img/3to1/2.png"",""time"":200},{""stimulus"":""img/3to1/3.png"",""time"":300},{""stimulus"":""img/3to1/4.png"",""time"":400},{""stimulus"":""img/3to1/5.png"",""time"":500},{""stimulus"":""img/3to1/6.png"",""time"":600},{""stimulus"":""img/3to1/7.png"",""time"":700},{""stimulus"":""img/3to1/8.png"",""time"":800},{""stimulus"":""img/3to1/9.png"",""time"":900},{""stimulus"":""img/3to1/10.png"",""time"":1000},{""stimulus"":""img/3to1/11.png"",""time"":1101},{""stimulus"":""img/3to1/12.png"",""time"":1200}]","[]"
"","","","observe","63ea4301f63c1d26f0ff83e9","bdp_cybrbll","Mon Mar 27 2023 07:43:23 GMT-0400 (Eastern Daylight Time)","465910","3","1","image-keyboard-response","133","161567","0.0-5.0-1.64","","null","","img/1to3/1.png","null","161","637","0.5","0.5","1","3","",""
"","","","","63ea4301f63c1d26f0ff83e9","bdp_cybrbll","Mon Mar 27 2023 07:43:23 GMT-0400 (Eastern Daylight Time)","465910","3","1","animation","134","162867","0.0-5.0-2.64","","","","","","161","","","","1","3","[{""stimulus"":""img/1to3/1.png"",""time"":100},{""stimulus"":""img/1to3/2.png"",""time"":200},{""stimulus"":""img/1to3/3.png"",""time"":300},{""stimulus"":""img/1to3/4.png"",""time"":400},{""stimulus"":""img/1to3/5.png"",""time"":499},{""stimulus"":""img/1to3/6.png"",""time"":600},{""stimulus"":""img/1to3/7.png"",""time"":700},{""stimulus"":""img/1to3/8.png"",""time"":800},{""stimulus"":""img/1to3/9.png"",""time"":901},{""stimulus"":""img/1to3/10.png"",""time"":1001},{""stimulus"":""img/1to3/11.png"",""time"":1100},{""stimulus"":""img/1to3/12.png"",""time"":1200}]","[]"
"","","","observe","63ea4301f63c1d26f0ff83e9","bdp_cybrbll","Mon Mar 27 2023 07:43:23 GMT-0400 (Eastern Daylight Time)","465910","3","1","image-keyboard-response","135","163126","0.0-5.0-1.65","","null","","img/3to2/1.png","null","160","258","0.5","0.5","3","1","",""
"","","","","63ea4301f63c1d26f0ff83e9","bdp_cybrbll","Mon Mar 27 2023 07:43:23 GMT-0400 (Eastern Daylight Time)","465910","3","1","animation","136","164427","0.0-5.0-2.65","","","","","","160","","","","3","1","[{""stimulus"":""img/3to1/1.png"",""time"":100},{""stimulus"":""img/3to1/2.png"",""time"":200},{""stimulus"":""img/3to1/3.png"",""time"":300},{""stimulus"":""img/3to1/4.png"",""time"":399},{""stimulus"":""img/3to1/5.png"",""time"":500},{""stimulus"":""img/3to1/6.png"",""time"":600},{""stimulus"":""img/3to1/7.png"",""time"":700},{""stimulus"":""img/3to1/8.png"",""time"":799},{""stimulus"":""img/3to1/9.png"",""time"":900},{""stimulus"":""img/3to1/10.png"",""time"":999},{""stimulus"":""img/3to1/11.png"",""time"":1100},{""stimulus"":""img/3to1/12.png"",""time"":1200}]","[]"
"","","","observe","63ea4301f63c1d26f0ff83e9","bdp_cybrbll","Mon Mar 27 2023 07:43:23 GMT-0400 (Eastern Daylight Time)","465910","3","1","image-keyboard-response","137","164757","0.0-5.0-1.66","","null","","img/1to3/1.png","null","159","322","0.5","0.5","1","3","",""
"","","","","63ea4301f63c1d26f0ff83e9","bdp_cybrbll","Mon Mar 27 2023 07:43:23 GMT-0400 (Eastern Daylight Time)","465910","3","1","animation","138","166057","0.0-5.0-2.66","","","","","","159","","","","1","3","[{""stimulus"":""img/1to3/1.png"",""time"":100},{""stimulus"":""img/1to3/2.png"",""time"":201},{""stimulus"":""img/1to3/3.png"",""time"":301},{""stimulus"":""img/1to3/4.png"",""time"":401},{""stimulus"":""img/1to3/5.png"",""time"":501},{""stimulus"":""img/1to3/6.png"",""time"":601},{""stimulus"":""img/1to3/7.png"",""time"":701},{""stimulus"":""img/1to3/8.png"",""time"":801},{""stimulus"":""img/1to3/9.png"",""time"":901},{""stimulus"":""img/1to3/10.png"",""time"":1000},{""stimulus"":""img/1to3/11.png"",""time"":1101},{""stimulus"":""img/1to3/12.png"",""time"":1201}]","[]"
"","","","observe","63ea4301f63c1d26f0ff83e9","bdp_cybrbll","Mon Mar 27 2023 07:43:23 GMT-0400 (Eastern Daylight Time)","465910","3","1","image-keyboard-response","139","167897","0.0-5.0-1.67","","null","","img/3to2/1.png","null","158","1832","0.5","0.5","3","2","",""
"","","","","63ea4301f63c1d26f0ff83e9","bdp_cybrbll","Mon Mar 27 2023 07:43:23 GMT-0400 (Eastern Daylight Time)","465910","3","1","animation","140","169197","0.0-5.0-2.67","","","","","","158","","","","3","2","[{""stimulus"":""img/3to2/1.png"",""time"":101},{""stimulus"":""img/3to2/2.png"",""time"":200},{""stimulus"":""img/3to2/3.png"",""time"":301},{""stimulus"":""img/3to2/4.png"",""time"":401},{""stimulus"":""img/3to2/5.png"",""time"":501},{""stimulus"":""img/3to2/6.png"",""time"":601},{""stimulus"":""img/3to2/7.png"",""time"":701},{""stimulus"":""img/3to2/8.png"",""time"":801},{""stimulus"":""img/3to2/9.png"",""time"":901},{""stimulus"":""img/3to2/10.png"",""time"":1001},{""stimulus"":""img/3to2/11.png"",""time"":1101},{""stimulus"":""img/3to2/12.png"",""time"":1201}]","[]"
"","","","choice","63ea4301f63c1d26f0ff83e9","bdp_cybrbll","Mon Mar 27 2023 07:43:23 GMT-0400 (Eastern Daylight Time)","465910","3","1","image-keyboard-response","141","169753","0.0-5.0-1.68","","554","","img/2to1/1.png","1","157","585","0.5","0.5","2","1","",""
"","","","","63ea4301f63c1d26f0ff83e9","bdp_cybrbll","Mon Mar 27 2023 07:43:23 GMT-0400 (Eastern Daylight Time)","465910","3","1","animation","142","171058","0.0-5.0-2.68","","","","","","157","","","","2","1","[{""stimulus"":""img/2to1/1.png"",""time"":104},{""stimulus"":""img/2to1/2.png"",""time"":204},{""stimulus"":""img/2to1/3.png"",""time"":305},{""stimulus"":""img/2to1/4.png"",""time"":404},{""stimulus"":""img/2to1/5.png"",""time"":504},{""stimulus"":""img/2to1/6.png"",""time"":604},{""stimulus"":""img/2to1/7.png"",""time"":704},{""stimulus"":""img/2to1/8.png"",""time"":804},{""stimulus"":""img/2to1/9.png"",""time"":904},{""stimulus"":""img/2to1/10.png"",""time"":1004},{""stimulus"":""img/2to1/11.png"",""time"":1104},{""stimulus"":""img/2to1/12.png"",""time"":1204}]","[]"
"","","","observe","63ea4301f63c1d26f0ff83e9","bdp_cybrbll","Mon Mar 27 2023 07:43:23 GMT-0400 (Eastern Daylight Time)","465910","3","1","image-keyboard-response","143","171858","0.0-5.0-1.69","","null","","img/1to3/1.png","null","156","789","0.5","0.5","1","2","",""
"","","","","63ea4301f63c1d26f0ff83e9","bdp_cybrbll","Mon Mar 27 2023 07:43:23 GMT-0400 (Eastern Daylight Time)","465910","3","1","animation","144","173158","0.0-5.0-2.69","","","","","","156","","","","1","2","[{""stimulus"":""img/1to2/1.png"",""time"":100},{""stimulus"":""img/1to2/2.png"",""time"":201},{""stimulus"":""img/1to2/3.png"",""time"":302},{""stimulus"":""img/1to2/4.png"",""time"":401},{""stimulus"":""img/1to2/5.png"",""time"":501},{""stimulus"":""img/1to2/6.png"",""time"":601},{""stimulus"":""img/1to2/7.png"",""time"":701},{""stimulus"":""img/1to2/8.png"",""time"":801},{""stimulus"":""img/1to2/9.png"",""time"":900},{""stimulus"":""img/1to2/10.png"",""time"":1001},{""stimulus"":""img/1to2/11.png"",""time"":1101},{""stimulus"":""img/1to2/12.png"",""time"":1202}]","[]"
"","","","choice","63ea4301f63c1d26f0ff83e9","bdp_cybrbll","Mon Mar 27 2023 07:43:23 GMT-0400 (Eastern Daylight Time)","465910","3","1","image-keyboard-response","145","173791","0.0-5.0-1.70","","631","","img/2to1/1.png","1","155","312","0.5","0.5","2","1","",""
"","","","","63ea4301f63c1d26f0ff83e9","bdp_cybrbll","Mon Mar 27 2023 07:43:23 GMT-0400 (Eastern Daylight Time)","465910","3","1","animation","146","175098","0.0-5.0-2.70","","","","","","155","","","","2","1","[{""stimulus"":""img/2to1/1.png"",""time"":108},{""stimulus"":""img/2to1/2.png"",""time"":207},{""stimulus"":""img/2to1/3.png"",""time"":307},{""stimulus"":""img/2to1/4.png"",""time"":407},{""stimulus"":""img/2to1/5.png"",""time"":507},{""stimulus"":""img/2to1/6.png"",""time"":607},{""stimulus"":""img/2to1/7.png"",""time"":708},{""stimulus"":""img/2to1/8.png"",""time"":807},{""stimulus"":""img/2to1/9.png"",""time"":907},{""stimulus"":""img/2to1/10.png"",""time"":1007},{""stimulus"":""img/2to1/11.png"",""time"":1107},{""stimulus"":""img/2to1/12.png"",""time"":1207}]","[]"
"","","","observe","63ea4301f63c1d26f0ff83e9","bdp_cybrbll","Mon Mar 27 2023 07:43:23 GMT-0400 (Eastern Daylight Time)","465910","3","1","image-keyboard-response","147","175349","0.0-5.0-1.71","","null","","img/1to3/1.png","null","154","249","0.5","0.5","1","2","",""
"","","","","63ea4301f63c1d26f0ff83e9","bdp_cybrbll","Mon Mar 27 2023 07:43:23 GMT-0400 (Eastern Daylight Time)","465910","3","1","animation","148","176648","0.0-5.0-2.71","","","","","","154","","","","1","2","[{""stimulus"":""img/1to2/1.png"",""time"":100},{""stimulus"":""img/1to2/2.png"",""time"":200},{""stimulus"":""img/1to2/3.png"",""time"":300},{""stimulus"":""img/1to2/4.png"",""time"":400},{""stimulus"":""img/1to2/5.png"",""time"":499},{""stimulus"":""img/1to2/6.png"",""time"":600},{""stimulus"":""img/1to2/7.png"",""time"":700},{""stimulus"":""img/1to2/8.png"",""time"":800},{""stimulus"":""img/1to2/9.png"",""time"":900},{""stimulus"":""img/1to2/10.png"",""time"":1000},{""stimulus"":""img/1to2/11.png"",""time"":1100},{""stimulus"":""img/1to2/12.png"",""time"":1200}]","[]"
"","","","choice","63ea4301f63c1d26f0ff83e9","bdp_cybrbll","Mon Mar 27 2023 07:43:23 GMT-0400 (Eastern Daylight Time)","465910","3","1","image-keyboard-response","149","177052","0.0-5.0-1.72","","403","","img/2to1/1.png","2","153","331","0.5","0.5","2","3","",""
"","","","","63ea4301f63c1d26f0ff83e9","bdp_cybrbll","Mon Mar 27 2023 07:43:23 GMT-0400 (Eastern Daylight Time)","465910","3","1","animation","150","178360","0.0-5.0-2.72","","","","","","153","","","","2","3","[{""stimulus"":""img/2to3/1.png"",""time"":107},{""stimulus"":""img/2to3/2.png"",""time"":206},{""stimulus"":""img/2to3/3.png"",""time"":306},{""stimulus"":""img/2to3/4.png"",""time"":406},{""stimulus"":""img/2to3/5.png"",""time"":505},{""stimulus"":""img/2to3/6.png"",""time"":606},{""stimulus"":""img/2to3/7.png"",""time"":706},{""stimulus"":""img/2to3/8.png"",""time"":806},{""stimulus"":""img/2to3/9.png"",""time"":906},{""stimulus"":""img/2to3/10.png"",""time"":1007},{""stimulus"":""img/2to3/11.png"",""time"":1107},{""stimulus"":""img/2to3/12.png"",""time"":1207}]","[]"
"","","","observe","63ea4301f63c1d26f0ff83e9","bdp_cybrbll","Mon Mar 27 2023 07:43:23 GMT-0400 (Eastern Daylight Time)","465910","3","1","image-keyboard-response","151","178709","0.0-5.0-1.73","","null","","img/3to2/1.png","null","152","339","0.5","0.5","3","1","",""
"","","","","63ea4301f63c1d26f0ff83e9","bdp_cybrbll","Mon Mar 27 2023 07:43:23 GMT-0400 (Eastern Daylight Time)","465910","3","1","animation","152","180010","0.0-5.0-2.73","","","","","","152","","","","3","1","[{""stimulus"":""img/3to1/1.png"",""time"":100},{""stimulus"":""img/3to1/2.png"",""time"":200},{""stimulus"":""img/3to1/3.png"",""time"":300},{""stimulus"":""img/3to1/4.png"",""time"":400},{""stimulus"":""img/3to1/5.png"",""time"":500},{""stimulus"":""img/3to1/6.png"",""time"":600},{""stimulus"":""img/3to1/7.png"",""time"":700},{""stimulus"":""img/3to1/8.png"",""time"":799},{""stimulus"":""img/3to1/9.png"",""time"":900},{""stimulus"":""img/3to1/10.png"",""time"":999},{""stimulus"":""img/3to1/11.png"",""time"":1100},{""stimulus"":""img/3to1/12.png"",""time"":1199}]","[]"
"","","","observe","63ea4301f63c1d26f0ff83e9","bdp_cybrbll","Mon Mar 27 2023 07:43:23 GMT-0400 (Eastern Daylight Time)","465910","3","1","image-keyboard-response","153","180289","0.0-5.0-1.74","","null","","img/1to3/1.png","null","151","276","0.5","0.5","1","2","",""
"","","","","63ea4301f63c1d26f0ff83e9","bdp_cybrbll","Mon Mar 27 2023 07:43:23 GMT-0400 (Eastern Daylight Time)","465910","3","1","animation","154","181589","0.0-5.0-2.74","","","","","","151","","","","1","2","[{""stimulus"":""img/1to2/1.png"",""time"":101},{""stimulus"":""img/1to2/2.png"",""time"":200},{""stimulus"":""img/1to2/3.png"",""time"":301},{""stimulus"":""img/1to2/4.png"",""time"":401},{""stimulus"":""img/1to2/5.png"",""time"":501},{""stimulus"":""img/1to2/6.png"",""time"":601},{""stimulus"":""img/1to2/7.png"",""time"":701},{""stimulus"":""img/1to2/8.png"",""time"":801},{""stimulus"":""img/1to2/9.png"",""time"":901},{""stimulus"":""img/1to2/10.png"",""time"":1001},{""stimulus"":""img/1to2/11.png"",""time"":1101},{""stimulus"":""img/1to2/12.png"",""time"":1201}]","[]"
"","","","choice","63ea4301f63c1d26f0ff83e9","bdp_cybrbll","Mon Mar 27 2023 07:43:23 GMT-0400 (Eastern Daylight Time)","465910","3","1","image-keyboard-response","155","182460","0.0-5.0-1.75","","869","","img/2to1/1.png","1","150","514","0.5","0.5","2","1","",""
"","","","","63ea4301f63c1d26f0ff83e9","bdp_cybrbll","Mon Mar 27 2023 07:43:23 GMT-0400 (Eastern Daylight Time)","465910","3","1","animation","156","183769","0.0-5.0-2.75","","","","","","150","","","","2","1","[{""stimulus"":""img/2to1/1.png"",""time"":109},{""stimulus"":""img/2to1/2.png"",""time"":209},{""stimulus"":""img/2to1/3.png"",""time"":309},{""stimulus"":""img/2to1/4.png"",""time"":409},{""stimulus"":""img/2to1/5.png"",""time"":508},{""stimulus"":""img/2to1/6.png"",""time"":609},{""stimulus"":""img/2to1/7.png"",""time"":709},{""stimulus"":""img/2to1/8.png"",""time"":808},{""stimulus"":""img/2to1/9.png"",""time"":909},{""stimulus"":""img/2to1/10.png"",""time"":1009},{""stimulus"":""img/2to1/11.png"",""time"":1109},{""stimulus"":""img/2to1/12.png"",""time"":1209}]","[]"
"","","","observe","63ea4301f63c1d26f0ff83e9","bdp_cybrbll","Mon Mar 27 2023 07:43:23 GMT-0400 (Eastern Daylight Time)","465910","3","1","image-keyboard-response","157","184489","0.0-5.0-1.76","","null","","img/1to3/1.png","null","149","718","0.5","0.1","1","3","",""
"","","","","63ea4301f63c1d26f0ff83e9","bdp_cybrbll","Mon Mar 27 2023 07:43:23 GMT-0400 (Eastern Daylight Time)","465910","3","1","animation","158","185789","0.0-5.0-2.76","","","","","","149","","","","1","3","[{""stimulus"":""img/1to3/1.png"",""time"":100},{""stimulus"":""img/1to3/2.png"",""time"":200},{""stimulus"":""img/1to3/3.png"",""time"":300},{""stimulus"":""img/1to3/4.png"",""time"":400},{""stimulus"":""img/1to3/5.png"",""time"":500},{""stimulus"":""img/1to3/6.png"",""time"":599},{""stimulus"":""img/1to3/7.png"",""time"":700},{""stimulus"":""img/1to3/8.png"",""time"":800},{""stimulus"":""img/1to3/9.png"",""time"":900},{""stimulus"":""img/1to3/10.png"",""time"":1000},{""stimulus"":""img/1to3/11.png"",""time"":1100},{""stimulus"":""img/1to3/12.png"",""time"":1200}]","[]"
"","","","observe","63ea4301f63c1d26f0ff83e9","bdp_cybrbll","Mon Mar 27 2023 07:43:23 GMT-0400 (Eastern Daylight Time)","465910","3","1","image-keyboard-response","159","186240","0.0-5.0-1.77","","null","","img/3to2/1.png","null","148","449","0.5","0.1","3","2","",""
"","","","","63ea4301f63c1d26f0ff83e9","bdp_cybrbll","Mon Mar 27 2023 07:43:23 GMT-0400 (Eastern Daylight Time)","465910","3","1","animation","160","187541","0.0-5.0-2.77","","","","","","148","","","","3","2","[{""stimulus"":""img/3to2/1.png"",""time"":100},{""stimulus"":""img/3to2/2.png"",""time"":199},{""stimulus"":""img/3to2/3.png"",""time"":300},{""stimulus"":""img/3to2/4.png"",""time"":399},{""stimulus"":""img/3to2/5.png"",""time"":500},{""stimulus"":""img/3to2/6.png"",""time"":600},{""stimulus"":""img/3to2/7.png"",""time"":699},{""stimulus"":""img/3to2/8.png"",""time"":800},{""stimulus"":""img/3to2/9.png"",""time"":901},{""stimulus"":""img/3to2/10.png"",""time"":999},{""stimulus"":""img/3to2/11.png"",""time"":1100},{""stimulus"":""img/3to2/12.png"",""time"":1200}]","[]"
"","","","choice","63ea4301f63c1d26f0ff83e9","bdp_cybrbll","Mon Mar 27 2023 07:43:23 GMT-0400 (Eastern Daylight Time)","465910","3","1","image-keyboard-response","161","187922","0.0-5.0-1.78","","379","","img/2to1/1.png","2","147","795","0.5","0.1","2","3","",""
"","","","","63ea4301f63c1d26f0ff83e9","bdp_cybrbll","Mon Mar 27 2023 07:43:23 GMT-0400 (Eastern Daylight Time)","465910","3","1","animation","162","189231","0.0-5.0-2.78","","","","","","147","","","","2","3","[{""stimulus"":""img/2to3/1.png"",""time"":108},{""stimulus"":""img/2to3/2.png"",""time"":208},{""stimulus"":""img/2to3/3.png"",""time"":308},{""stimulus"":""img/2to3/4.png"",""time"":408},{""stimulus"":""img/2to3/5.png"",""time"":508},{""stimulus"":""img/2to3/6.png"",""time"":607},{""stimulus"":""img/2to3/7.png"",""time"":707},{""stimulus"":""img/2to3/8.png"",""time"":808},{""stimulus"":""img/2to3/9.png"",""time"":907},{""stimulus"":""img/2to3/10.png"",""time"":1008},{""stimulus"":""img/2to3/11.png"",""time"":1108},{""stimulus"":""img/2to3/12.png"",""time"":1207}]","[]"
"","","","observe","63ea4301f63c1d26f0ff83e9","bdp_cybrbll","Mon Mar 27 2023 07:43:23 GMT-0400 (Eastern Daylight Time)","465910","3","1","image-keyboard-response","163","190080","0.0-5.0-1.79","","null","","img/3to2/1.png","null","146","843","0.5","0.1","3","1","",""
"","","","","63ea4301f63c1d26f0ff83e9","bdp_cybrbll","Mon Mar 27 2023 07:43:23 GMT-0400 (Eastern Daylight Time)","465910","3","1","animation","164","191381","0.0-5.0-2.79","","","","","","146","","","","3","1","[{""stimulus"":""img/3to1/1.png"",""time"":101},{""stimulus"":""img/3to1/2.png"",""time"":201},{""stimulus"":""img/3to1/3.png"",""time"":301},{""stimulus"":""img/3to1/4.png"",""time"":400},{""stimulus"":""img/3to1/5.png"",""time"":501},{""stimulus"":""img/3to1/6.png"",""time"":601},{""stimulus"":""img/3to1/7.png"",""time"":701},{""stimulus"":""img/3to1/8.png"",""time"":801},{""stimulus"":""img/3to1/9.png"",""time"":900},{""stimulus"":""img/3to1/10.png"",""time"":1001},{""stimulus"":""img/3to1/11.png"",""time"":1101},{""stimulus"":""img/3to1/12.png"",""time"":1201}]","[]"
"","","","observe","63ea4301f63c1d26f0ff83e9","bdp_cybrbll","Mon Mar 27 2023 07:43:23 GMT-0400 (Eastern Daylight Time)","465910","3","1","image-keyboard-response","165","191960","0.0-5.0-1.80","","null","","img/1to3/1.png","null","145","577","0.5","0.1","1","2","",""
"","","","","63ea4301f63c1d26f0ff83e9","bdp_cybrbll","Mon Mar 27 2023 07:43:23 GMT-0400 (Eastern Daylight Time)","465910","3","1","animation","166","193281","0.0-5.0-2.80","","","","","","145","","","","1","2","[{""stimulus"":""img/1to2/1.png"",""time"":102},{""stimulus"":""img/1to2/2.png"",""time"":202},{""stimulus"":""img/1to2/3.png"",""time"":316},{""stimulus"":""img/1to2/4.png"",""time"":422},{""stimulus"":""img/1to2/5.png"",""time"":522},{""stimulus"":""img/1to2/6.png"",""time"":622},{""stimulus"":""img/1to2/7.png"",""time"":722},{""stimulus"":""img/1to2/8.png"",""time"":822},{""stimulus"":""img/1to2/9.png"",""time"":921},{""stimulus"":""img/1to2/10.png"",""time"":1022},{""stimulus"":""img/1to2/11.png"",""time"":1121},{""stimulus"":""img/1to2/12.png"",""time"":1222}]","[]"
"","","","choice","63ea4301f63c1d26f0ff83e9","bdp_cybrbll","Mon Mar 27 2023 07:43:23 GMT-0400 (Eastern Daylight Time)","465910","3","1","image-keyboard-response","167","194083","0.0-5.0-1.81","","799","","img/2to1/1.png","1","144","604","0.5","0.1","2","1","",""
"","","","","63ea4301f63c1d26f0ff83e9","bdp_cybrbll","Mon Mar 27 2023 07:43:23 GMT-0400 (Eastern Daylight Time)","465910","3","1","animation","168","195391","0.0-5.0-2.81","","","","","","144","","","","2","1","[{""stimulus"":""img/2to1/1.png"",""time"":110},{""stimulus"":""img/2to1/2.png"",""time"":209},{""stimulus"":""img/2to1/3.png"",""time"":309},{""stimulus"":""img/2to1/4.png"",""time"":409},{""stimulus"":""img/2to1/5.png"",""time"":509},{""stimulus"":""img/2to1/6.png"",""time"":608},{""stimulus"":""img/2to1/7.png"",""time"":709},{""stimulus"":""img/2to1/8.png"",""time"":809},{""stimulus"":""img/2to1/9.png"",""time"":908},{""stimulus"":""img/2to1/10.png"",""time"":1009},{""stimulus"":""img/2to1/11.png"",""time"":1109},{""stimulus"":""img/2to1/12.png"",""time"":1208}]","[]"
"","","","observe","63ea4301f63c1d26f0ff83e9","bdp_cybrbll","Mon Mar 27 2023 07:43:23 GMT-0400 (Eastern Daylight Time)","465910","3","1","image-keyboard-response","169","195682","0.0-5.0-1.82","","null","","img/1to3/1.png","null","143","286","0.5","0.1","1","3","",""
"","","","","63ea4301f63c1d26f0ff83e9","bdp_cybrbll","Mon Mar 27 2023 07:43:23 GMT-0400 (Eastern Daylight Time)","465910","3","1","animation","170","196981","0.0-5.0-2.82","","","","","","143","","","","1","3","[{""stimulus"":""img/1to3/1.png"",""time"":100},{""stimulus"":""img/1to3/2.png"",""time"":200},{""stimulus"":""img/1to3/3.png"",""time"":299},{""stimulus"":""img/1to3/4.png"",""time"":400},{""stimulus"":""img/1to3/5.png"",""time"":499},{""stimulus"":""img/1to3/6.png"",""time"":600},{""stimulus"":""img/1to3/7.png"",""time"":699},{""stimulus"":""img/1to3/8.png"",""time"":800},{""stimulus"":""img/1to3/9.png"",""time"":899},{""stimulus"":""img/1to3/10.png"",""time"":1000},{""stimulus"":""img/1to3/11.png"",""time"":1100},{""stimulus"":""img/1to3/12.png"",""time"":1199}]","[]"
"","","","observe","63ea4301f63c1d26f0ff83e9","bdp_cybrbll","Mon Mar 27 2023 07:43:23 GMT-0400 (Eastern Daylight Time)","465910","3","1","image-keyboard-response","171","197252","0.0-5.0-1.83","","null","","img/3to2/1.png","null","142","268","0.5","0.1","3","2","",""
"","","","","63ea4301f63c1d26f0ff83e9","bdp_cybrbll","Mon Mar 27 2023 07:43:23 GMT-0400 (Eastern Daylight Time)","465910","3","1","animation","172","198552","0.0-5.0-2.83","","","","","","142","","","","3","2","[{""stimulus"":""img/3to2/1.png"",""time"":101},{""stimulus"":""img/3to2/2.png"",""time"":201},{""stimulus"":""img/3to2/3.png"",""time"":300},{""stimulus"":""img/3to2/4.png"",""time"":401},{""stimulus"":""img/3to2/5.png"",""time"":501},{""stimulus"":""img/3to2/6.png"",""time"":600},{""stimulus"":""img/3to2/7.png"",""time"":701},{""stimulus"":""img/3to2/8.png"",""time"":801},{""stimulus"":""img/3to2/9.png"",""time"":901},{""stimulus"":""img/3to2/10.png"",""time"":1000},{""stimulus"":""img/3to2/11.png"",""time"":1100},{""stimulus"":""img/3to2/12.png"",""time"":1201}]","[]"
"","","","choice","63ea4301f63c1d26f0ff83e9","bdp_cybrbll","Mon Mar 27 2023 07:43:23 GMT-0400 (Eastern Daylight Time)","465910","3","1","image-keyboard-response","173","198750","0.0-5.0-1.84","","197","","img/2to1/1.png","2","141","306","0.5","0.1","2","3","",""
"","","","","63ea4301f63c1d26f0ff83e9","bdp_cybrbll","Mon Mar 27 2023 07:43:23 GMT-0400 (Eastern Daylight Time)","465910","3","1","animation","174","200052","0.0-5.0-2.84","","","","","","141","","","","2","3","[{""stimulus"":""img/2to3/1.png"",""time"":103},{""stimulus"":""img/2to3/2.png"",""time"":203},{""stimulus"":""img/2to3/3.png"",""time"":303},{""stimulus"":""img/2to3/4.png"",""time"":403},{""stimulus"":""img/2to3/5.png"",""time"":503},{""stimulus"":""img/2to3/6.png"",""time"":603},{""stimulus"":""img/2to3/7.png"",""time"":703},{""stimulus"":""img/2to3/8.png"",""time"":802},{""stimulus"":""img/2to3/9.png"",""time"":902},{""stimulus"":""img/2to3/10.png"",""time"":1002},{""stimulus"":""img/2to3/11.png"",""time"":1103},{""stimulus"":""img/2to3/12.png"",""time"":1203}]","[]"
"","","","observe","63ea4301f63c1d26f0ff83e9","bdp_cybrbll","Mon Mar 27 2023 07:43:23 GMT-0400 (Eastern Daylight Time)","465910","3","1","image-keyboard-response","175","200382","0.0-5.0-1.85","","null","","img/3to2/1.png","null","140","325","0.5","0.1","3","2","",""
"","","","","63ea4301f63c1d26f0ff83e9","bdp_cybrbll","Mon Mar 27 2023 07:43:23 GMT-0400 (Eastern Daylight Time)","465910","3","1","animation","176","201682","0.0-5.0-2.85","","","","","","140","","","","3","2","[{""stimulus"":""img/3to2/1.png"",""time"":100},{""stimulus"":""img/3to2/2.png"",""time"":200},{""stimulus"":""img/3to2/3.png"",""time"":300},{""stimulus"":""img/3to2/4.png"",""time"":400},{""stimulus"":""img/3to2/5.png"",""time"":499},{""stimulus"":""img/3to2/6.png"",""time"":599},{""stimulus"":""img/3to2/7.png"",""time"":700},{""stimulus"":""img/3to2/8.png"",""time"":800},{""stimulus"":""img/3to2/9.png"",""time"":900},{""stimulus"":""img/3to2/10.png"",""time"":1000},{""stimulus"":""img/3to2/11.png"",""time"":1099},{""stimulus"":""img/3to2/12.png"",""time"":1199}]","[]"
"","","","choice","63ea4301f63c1d26f0ff83e9","bdp_cybrbll","Mon Mar 27 2023 07:43:23 GMT-0400 (Eastern Daylight Time)","465910","3","1","image-keyboard-response","177","204836","0.0-5.0-1.86","","3152","","img/2to1/1.png","1","139","211","0.5","0.1","2","1","",""
"","","","","63ea4301f63c1d26f0ff83e9","bdp_cybrbll","Mon Mar 27 2023 07:43:23 GMT-0400 (Eastern Daylight Time)","465910","3","1","animation","178","206144","0.0-5.0-2.86","","","","","","139","","","","2","1","[{""stimulus"":""img/2to1/1.png"",""time"":108},{""stimulus"":""img/2to1/2.png"",""time"":208},{""stimulus"":""img/2to1/3.png"",""time"":308},{""stimulus"":""img/2to1/4.png"",""time"":408},{""stimulus"":""img/2to1/5.png"",""time"":508},{""stimulus"":""img/2to1/6.png"",""time"":608},{""stimulus"":""img/2to1/7.png"",""time"":707},{""stimulus"":""img/2to1/8.png"",""time"":808},{""stimulus"":""img/2to1/9.png"",""time"":908},{""stimulus"":""img/2to1/10.png"",""time"":1008},{""stimulus"":""img/2to1/11.png"",""time"":1108},{""stimulus"":""img/2to1/12.png"",""time"":1207}]","[]"
"","","","observe","63ea4301f63c1d26f0ff83e9","bdp_cybrbll","Mon Mar 27 2023 07:43:23 GMT-0400 (Eastern Daylight Time)","465910","3","1","image-keyboard-response","179","206613","0.0-5.0-1.87","","null","","img/1to3/1.png","null","138","463","0.5","0.1","1","2","",""
"","","","","63ea4301f63c1d26f0ff83e9","bdp_cybrbll","Mon Mar 27 2023 07:43:23 GMT-0400 (Eastern Daylight Time)","465910","3","1","animation","180","207913","0.0-5.0-2.87","","","","","","138","","","","1","2","[{""stimulus"":""img/1to2/1.png"",""time"":101},{""stimulus"":""img/1to2/2.png"",""time"":201},{""stimulus"":""img/1to2/3.png"",""time"":301},{""stimulus"":""img/1to2/4.png"",""time"":401},{""stimulus"":""img/1to2/5.png"",""time"":501},{""stimulus"":""img/1to2/6.png"",""time"":600},{""stimulus"":""img/1to2/7.png"",""time"":700},{""stimulus"":""img/1to2/8.png"",""time"":801},{""stimulus"":""img/1to2/9.png"",""time"":901},{""stimulus"":""img/1to2/10.png"",""time"":1000},{""stimulus"":""img/1to2/11.png"",""time"":1100},{""stimulus"":""img/1to2/12.png"",""time"":1200}]","[]"
"","","","choice","63ea4301f63c1d26f0ff83e9","bdp_cybrbll","Mon Mar 27 2023 07:43:23 GMT-0400 (Eastern Daylight Time)","465910","3","1","image-keyboard-response","181","209394","0.0-5.0-1.88","","1480","","img/2to1/1.png","2","137","277","0.5","0.1","2","3","",""
"","","","","63ea4301f63c1d26f0ff83e9","bdp_cybrbll","Mon Mar 27 2023 07:43:23 GMT-0400 (Eastern Daylight Time)","465910","3","1","animation","182","210694","0.0-5.0-2.88","","","","","","137","","","","2","3","[{""stimulus"":""img/2to3/1.png"",""time"":101},{""stimulus"":""img/2to3/2.png"",""time"":201},{""stimulus"":""img/2to3/3.png"",""time"":301},{""stimulus"":""img/2to3/4.png"",""time"":400},{""stimulus"":""img/2to3/5.png"",""time"":500},{""stimulus"":""img/2to3/6.png"",""time"":601},{""stimulus"":""img/2to3/7.png"",""time"":701},{""stimulus"":""img/2to3/8.png"",""time"":801},{""stimulus"":""img/2to3/9.png"",""time"":901},{""stimulus"":""img/2to3/10.png"",""time"":1000},{""stimulus"":""img/2to3/11.png"",""time"":1101},{""stimulus"":""img/2to3/12.png"",""time"":1201}]","[]"
"","","","observe","63ea4301f63c1d26f0ff83e9","bdp_cybrbll","Mon Mar 27 2023 07:43:23 GMT-0400 (Eastern Daylight Time)","465910","3","1","image-keyboard-response","183","211244","0.0-5.0-1.89","","null","","img/3to2/1.png","null","136","544","0.5","0.1","3","2","",""
"","","","","63ea4301f63c1d26f0ff83e9","bdp_cybrbll","Mon Mar 27 2023 07:43:23 GMT-0400 (Eastern Daylight Time)","465910","3","1","animation","184","212544","0.0-5.0-2.89","","","","","","136","","","","3","2","[{""stimulus"":""img/3to2/1.png"",""time"":100},{""stimulus"":""img/3to2/2.png"",""time"":199},{""stimulus"":""img/3to2/3.png"",""time"":300},{""stimulus"":""img/3to2/4.png"",""time"":399},{""stimulus"":""img/3to2/5.png"",""time"":500},{""stimulus"":""img/3to2/6.png"",""time"":599},{""stimulus"":""img/3to2/7.png"",""time"":700},{""stimulus"":""img/3to2/8.png"",""time"":800},{""stimulus"":""img/3to2/9.png"",""time"":900},{""stimulus"":""img/3to2/10.png"",""time"":1000},{""stimulus"":""img/3to2/11.png"",""time"":1100},{""stimulus"":""img/3to2/12.png"",""time"":1200}]","[]"
"","","","choice","63ea4301f63c1d26f0ff83e9","bdp_cybrbll","Mon Mar 27 2023 07:43:23 GMT-0400 (Eastern Daylight Time)","465910","3","1","image-keyboard-response","185","213004","0.0-5.0-1.90","","459","","img/2to1/1.png","2","135","581","0.5","0.1","2","3","",""
"","","","","63ea4301f63c1d26f0ff83e9","bdp_cybrbll","Mon Mar 27 2023 07:43:23 GMT-0400 (Eastern Daylight Time)","465910","3","1","animation","186","214314","0.0-5.0-2.90","","","","","","135","","","","2","3","[{""stimulus"":""img/2to3/1.png"",""time"":110},{""stimulus"":""img/2to3/2.png"",""time"":209},{""stimulus"":""img/2to3/3.png"",""time"":309},{""stimulus"":""img/2to3/4.png"",""time"":410},{""stimulus"":""img/2to3/5.png"",""time"":509},{""stimulus"":""img/2to3/6.png"",""time"":610},{""stimulus"":""img/2to3/7.png"",""time"":709},{""stimulus"":""img/2to3/8.png"",""time"":809},{""stimulus"":""img/2to3/9.png"",""time"":910},{""stimulus"":""img/2to3/10.png"",""time"":1010},{""stimulus"":""img/2to3/11.png"",""time"":1110},{""stimulus"":""img/2to3/12.png"",""time"":1210}]","[]"
"","","","observe","63ea4301f63c1d26f0ff83e9","bdp_cybrbll","Mon Mar 27 2023 07:43:23 GMT-0400 (Eastern Daylight Time)","465910","3","1","image-keyboard-response","187","215095","0.0-5.0-1.91","","null","","img/3to2/1.png","null","134","776","0.5","0.1","3","2","",""
"","","","","63ea4301f63c1d26f0ff83e9","bdp_cybrbll","Mon Mar 27 2023 07:43:23 GMT-0400 (Eastern Daylight Time)","465910","3","1","animation","188","216394","0.0-5.0-2.91","","","","","","134","","","","3","2","[{""stimulus"":""img/3to2/1.png"",""time"":100},{""stimulus"":""img/3to2/2.png"",""time"":199},{""stimulus"":""img/3to2/3.png"",""time"":299},{""stimulus"":""img/3to2/4.png"",""time"":400},{""stimulus"":""img/3to2/5.png"",""time"":499},{""stimulus"":""img/3to2/6.png"",""time"":600},{""stimulus"":""img/3to2/7.png"",""time"":700},{""stimulus"":""img/3to2/8.png"",""time"":800},{""stimulus"":""img/3to2/9.png"",""time"":899},{""stimulus"":""img/3to2/10.png"",""time"":1000},{""stimulus"":""img/3to2/11.png"",""time"":1100},{""stimulus"":""img/3to2/12.png"",""time"":1200}]","[]"
"","","","choice","63ea4301f63c1d26f0ff83e9","bdp_cybrbll","Mon Mar 27 2023 07:43:23 GMT-0400 (Eastern Daylight Time)","465910","3","1","image-keyboard-response","189","219295","0.0-5.0-1.92","","2899","","img/2to1/1.png","1","133","305","0.5","0.1","2","1","",""
"","","","","63ea4301f63c1d26f0ff83e9","bdp_cybrbll","Mon Mar 27 2023 07:43:23 GMT-0400 (Eastern Daylight Time)","465910","3","1","animation","190","220595","0.0-5.0-2.92","","","","","","133","","","","2","1","[{""stimulus"":""img/2to1/1.png"",""time"":101},{""stimulus"":""img/2to1/2.png"",""time"":201},{""stimulus"":""img/2to1/3.png"",""time"":301},{""stimulus"":""img/2to1/4.png"",""time"":401},{""stimulus"":""img/2to1/5.png"",""time"":502},{""stimulus"":""img/2to1/6.png"",""time"":600},{""stimulus"":""img/2to1/7.png"",""time"":700},{""stimulus"":""img/2to1/8.png"",""time"":801},{""stimulus"":""img/2to1/9.png"",""time"":901},{""stimulus"":""img/2to1/10.png"",""time"":1000},{""stimulus"":""img/2to1/11.png"",""time"":1100},{""stimulus"":""img/2to1/12.png"",""time"":1200}]","[]"
