"trial_type","trial_index","time_elapsed","internal_node_id","subject_id","task","startTime","totalTime","fairPartner","unfairPartner","view_history","rt","event","trial","time","trialtype","success","stimulus","key_press","throwsLeft","rtDur","pFair","pUnfair","holder","receiver","animation_sequence","responses"
"pavlovia","0","15","0.0-0.0","62fd76d3f0824c29d4b1e6bd","bdp_cybrbll","Mon Mar 27 2023 16:10:36 GMT-0400 (Eastern Daylight Time)","443715","3","1","","","","","","","","","","","","","","","","",""
"instructions","1","2378","0.0-1.0","62fd76d3f0824c29d4b1e6bd","bdp_cybrbll","Mon Mar 27 2023 16:10:36 GMT-0400 (Eastern Daylight Time)","443715","3","1","[{""page_index"":0,""viewing_time"":2361}]","2362","","","","","","","","","","","","","","",""
"","","","","62fd76d3f0824c29d4b1e6bd","bdp_cybrbll","Mon Mar 27 2023 16:10:36 GMT-0400 (Eastern Daylight Time)","443715","3","1","","","fullscreenenter","2","6908","fullscreenenter","","","","","","","","","","",""
"fullscreen","2","7866","0.0-2.0","62fd76d3f0824c29d4b1e6bd","bdp_cybrbll","Mon Mar 27 2023 16:10:36 GMT-0400 (Eastern Daylight Time)","443715","3","1","","","","","","","true","","","","","","","","","",""
"instructions","3","47199","0.0-4.0","62fd76d3f0824c29d4b1e6bd","bdp_cybrbll","Mon Mar 27 2023 16:10:36 GMT-0400 (Eastern Daylight Time)","443715","3","1","[{""page_index"":0,""viewing_time"":39330}]","39331","","","","","","","","","","","","","","",""
"image-keyboard-response","4","48421","0.0-5.0-1.0","62fd76d3f0824c29d4b1e6bd","bdp_cybrbll","Mon Mar 27 2023 16:10:36 GMT-0400 (Eastern Daylight Time)","443715","3","1","","1218","","","","choice","","img/2to1/1.png","2","225","499","0.5","0.5","2","3","",""
"animation","5","49715","0.0-5.0-2.0","62fd76d3f0824c29d4b1e6bd","bdp_cybrbll","Mon Mar 27 2023 16:10:36 GMT-0400 (Eastern Daylight Time)","443715","3","1","","","","","","","","","","225","","","","2","3","[{""stimulus"":""img/2to3/1.png"",""time"":107},{""stimulus"":""img/2to3/2.png"",""time"":203},{""stimulus"":""img/2to3/3.png"",""time"":299},{""stimulus"":""img/2to3/4.png"",""time"":399},{""stimulus"":""img/2to3/5.png"",""time"":500},{""stimulus"":""img/2to3/6.png"",""time"":599},{""stimulus"":""img/2to3/7.png"",""time"":700},{""stimulus"":""img/2to3/8.png"",""time"":800},{""stimulus"":""img/2to3/9.png"",""time"":898},{""stimulus"":""img/2to3/10.png"",""time"":996},{""stimulus"":""img/2to3/11.png"",""time"":1094},{""stimulus"":""img/2to3/12.png"",""time"":1196}]","[]"
"image-keyboard-response","6","50336","0.0-5.0-1.1","62fd76d3f0824c29d4b1e6bd","bdp_cybrbll","Mon Mar 27 2023 16:10:36 GMT-0400 (Eastern Daylight Time)","443715","3","1","","null","","","","observe","","img/3to2/1.png","null","224","614","0.5","0.5","3","2","",""
"animation","7","51624","0.0-5.0-2.1","62fd76d3f0824c29d4b1e6bd","bdp_cybrbll","Mon Mar 27 2023 16:10:36 GMT-0400 (Eastern Daylight Time)","443715","3","1","","","","","","","","","","224","","","","3","2","[{""stimulus"":""img/3to2/1.png"",""time"":106},{""stimulus"":""img/3to2/2.png"",""time"":205},{""stimulus"":""img/3to2/3.png"",""time"":304},{""stimulus"":""img/3to2/4.png"",""time"":401},{""stimulus"":""img/3to2/5.png"",""time"":498},{""stimulus"":""img/3to2/6.png"",""time"":598},{""stimulus"":""img/3to2/7.png"",""time"":697},{""stimulus"":""img/3to2/8.png"",""time"":794},{""stimulus"":""img/3to2/9.png"",""time"":901},{""stimulus"":""img/3to2/10.png"",""time"":992},{""stimulus"":""img/3to2/11.png"",""time"":1092},{""stimulus"":""img/3to2/12.png"",""time"":1190}]","[]"
"image-keyboard-response","8","51709","0.0-5.0-1.2","62fd76d3f0824c29d4b1e6bd","bdp_cybrbll","Mon Mar 27 2023 16:10:36 GMT-0400 (Eastern Daylight Time)","443715","3","1","","84","","","","choice","","img/2to1/1.png","1","223","425","0.5","0.5","2","1","",""
"animation","9","53003","0.0-5.0-2.2","62fd76d3f0824c29d4b1e6bd","bdp_cybrbll","Mon Mar 27 2023 16:10:36 GMT-0400 (Eastern Daylight Time)","443715","3","1","","","","","","","","","","223","","","","2","1","[{""stimulus"":""img/2to1/1.png"",""time"":100},{""stimulus"":""img/2to1/2.png"",""time"":199},{""stimulus"":""img/2to1/3.png"",""time"":299},{""stimulus"":""img/2to1/4.png"",""time"":404},{""stimulus"":""img/2to1/5.png"",""time"":503},{""stimulus"":""img/2to1/6.png"",""time"":602},{""stimulus"":""img/2to1/7.png"",""time"":695},{""stimulus"":""img/2to1/8.png"",""time"":797},{""stimulus"":""img/2to1/9.png"",""time"":895},{""stimulus"":""img/2to1/10.png"",""time"":995},{""stimulus"":""img/2to1/11.png"",""time"":1096},{""stimulus"":""img/2to1/12.png"",""time"":1194}]","[]"
"image-keyboard-response","10","53609","0.0-5.0-1.3","62fd76d3f0824c29d4b1e6bd","bdp_cybrbll","Mon Mar 27 2023 16:10:36 GMT-0400 (Eastern Daylight Time)","443715","3","1","","null","","","","observe","","img/1to3/1.png","null","222","598","0.5","0.5","1","3","",""
"animation","11","54899","0.0-5.0-2.3","62fd76d3f0824c29d4b1e6bd","bdp_cybrbll","Mon Mar 27 2023 16:10:36 GMT-0400 (Eastern Daylight Time)","443715","3","1","","","","","","","","","","222","","","","1","3","[{""stimulus"":""img/1to3/1.png"",""time"":101},{""stimulus"":""img/1to3/2.png"",""time"":203},{""stimulus"":""img/1to3/3.png"",""time"":312},{""stimulus"":""img/1to3/4.png"",""time"":404},{""stimulus"":""img/1to3/5.png"",""time"":503},{""stimulus"":""img/1to3/6.png"",""time"":602},{""stimulus"":""img/1to3/7.png"",""time"":702},{""stimulus"":""img/1to3/8.png"",""time"":794},{""stimulus"":""img/1to3/9.png"",""time"":894},{""stimulus"":""img/1to3/10.png"",""time"":994},{""stimulus"":""img/1to3/11.png"",""time"":1095},{""stimulus"":""img/1to3/12.png"",""time"":1193}]","[]"
"image-keyboard-response","12","55943","0.0-5.0-1.4","62fd76d3f0824c29d4b1e6bd","bdp_cybrbll","Mon Mar 27 2023 16:10:36 GMT-0400 (Eastern Daylight Time)","443715","3","1","","null","","","","observe","","img/3to2/1.png","null","221","1042","0.5","0.5","3","1","",""
"animation","13","57246","0.0-5.0-2.4","62fd76d3f0824c29d4b1e6bd","bdp_cybrbll","Mon Mar 27 2023 16:10:36 GMT-0400 (Eastern Daylight Time)","443715","3","1","","","","","","","","","","221","","","","3","1","[{""stimulus"":""img/3to1/1.png"",""time"":105},{""stimulus"":""img/3to1/2.png"",""time"":200},{""stimulus"":""img/3to1/3.png"",""time"":299},{""stimulus"":""img/3to1/4.png"",""time"":398},{""stimulus"":""img/3to1/5.png"",""time"":503},{""stimulus"":""img/3to1/6.png"",""time"":595},{""stimulus"":""img/3to1/7.png"",""time"":702},{""stimulus"":""img/3to1/8.png"",""time"":800},{""stimulus"":""img/3to1/9.png"",""time"":893},{""stimulus"":""img/3to1/10.png"",""time"":998},{""stimulus"":""img/3to1/11.png"",""time"":1097},{""stimulus"":""img/3to1/12.png"",""time"":1194}]","[]"
"image-keyboard-response","14","57515","0.0-5.0-1.5","62fd76d3f0824c29d4b1e6bd","bdp_cybrbll","Mon Mar 27 2023 16:10:36 GMT-0400 (Eastern Daylight Time)","443715","3","1","","null","","","","observe","","img/1to3/1.png","null","220","261","0.5","0.5","1","3","",""
"animation","15","58805","0.0-5.0-2.5","62fd76d3f0824c29d4b1e6bd","bdp_cybrbll","Mon Mar 27 2023 16:10:36 GMT-0400 (Eastern Daylight Time)","443715","3","1","","","","","","","","","","220","","","","1","3","[{""stimulus"":""img/1to3/1.png"",""time"":103},{""stimulus"":""img/1to3/2.png"",""time"":203},{""stimulus"":""img/1to3/3.png"",""time"":306},{""stimulus"":""img/1to3/4.png"",""time"":405},{""stimulus"":""img/1to3/5.png"",""time"":496},{""stimulus"":""img/1to3/6.png"",""time"":604},{""stimulus"":""img/1to3/7.png"",""time"":695},{""stimulus"":""img/1to3/8.png"",""time"":794},{""stimulus"":""img/1to3/9.png"",""time"":893},{""stimulus"":""img/1to3/10.png"",""time"":993},{""stimulus"":""img/1to3/11.png"",""time"":1096},{""stimulus"":""img/1to3/12.png"",""time"":1189}]","[]"
"image-keyboard-response","16","59312","0.0-5.0-1.6","62fd76d3f0824c29d4b1e6bd","bdp_cybrbll","Mon Mar 27 2023 16:10:36 GMT-0400 (Eastern Daylight Time)","443715","3","1","","null","","","","observe","","img/3to2/1.png","null","219","496","0.5","0.5","3","1","",""
"animation","17","60606","0.0-5.0-2.6","62fd76d3f0824c29d4b1e6bd","bdp_cybrbll","Mon Mar 27 2023 16:10:36 GMT-0400 (Eastern Daylight Time)","443715","3","1","","","","","","","","","","219","","","","3","1","[{""stimulus"":""img/3to1/1.png"",""time"":102},{""stimulus"":""img/3to1/2.png"",""time"":201},{""stimulus"":""img/3to1/3.png"",""time"":301},{""stimulus"":""img/3to1/4.png"",""time"":405},{""stimulus"":""img/3to1/5.png"",""time"":505},{""stimulus"":""img/3to1/6.png"",""time"":599},{""stimulus"":""img/3to1/7.png"",""time"":698},{""stimulus"":""img/3to1/8.png"",""time"":800},{""stimulus"":""img/3to1/9.png"",""time"":899},{""stimulus"":""img/3to1/10.png"",""time"":998},{""stimulus"":""img/3to1/11.png"",""time"":1091},{""stimulus"":""img/3to1/12.png"",""time"":1191}]","[]"
"image-keyboard-response","18","60838","0.0-5.0-1.7","62fd76d3f0824c29d4b1e6bd","bdp_cybrbll","Mon Mar 27 2023 16:10:36 GMT-0400 (Eastern Daylight Time)","443715","3","1","","null","","","","observe","","img/1to3/1.png","null","218","226","0.5","0.5","1","2","",""
"animation","19","62128","0.0-5.0-2.7","62fd76d3f0824c29d4b1e6bd","bdp_cybrbll","Mon Mar 27 2023 16:10:36 GMT-0400 (Eastern Daylight Time)","443715","3","1","","","","","","","","","","218","","","","1","2","[{""stimulus"":""img/1to2/1.png"",""time"":106},{""stimulus"":""img/1to2/2.png"",""time"":203},{""stimulus"":""img/1to2/3.png"",""time"":301},{""stimulus"":""img/1to2/4.png"",""time"":399},{""stimulus"":""img/1to2/5.png"",""time"":500},{""stimulus"":""img/1to2/6.png"",""time"":598},{""stimulus"":""img/1to2/7.png"",""time"":697},{""stimulus"":""img/1to2/8.png"",""time"":804},{""stimulus"":""img/1to2/9.png"",""time"":895},{""stimulus"":""img/1to2/10.png"",""time"":992},{""stimulus"":""img/1to2/11.png"",""time"":1090},{""stimulus"":""img/1to2/12.png"",""time"":1189}]","[]"
"image-keyboard-response","20","62485","0.0-5.0-1.8","62fd76d3f0824c29d4b1e6bd","bdp_cybrbll","Mon Mar 27 2023 16:10:36 GMT-0400 (Eastern Daylight Time)","443715","3","1","","355","","","","choice","","img/2to1/1.png","1","217","556","0.5","0.5","2","1","",""
"animation","21","63776","0.0-5.0-2.8","62fd76d3f0824c29d4b1e6bd","bdp_cybrbll","Mon Mar 27 2023 16:10:36 GMT-0400 (Eastern Daylight Time)","443715","3","1","","","","","","","","","","217","","","","2","1","[{""stimulus"":""img/2to1/1.png"",""time"":103},{""stimulus"":""img/2to1/2.png"",""time"":202},{""stimulus"":""img/2to1/3.png"",""time"":300},{""stimulus"":""img/2to1/4.png"",""time"":406},{""stimulus"":""img/2to1/5.png"",""time"":504},{""stimulus"":""img/2to1/6.png"",""time"":605},{""stimulus"":""img/2to1/7.png"",""time"":695},{""stimulus"":""img/2to1/8.png"",""time"":802},{""stimulus"":""img/2to1/9.png"",""time"":893},{""stimulus"":""img/2to1/10.png"",""time"":993},{""stimulus"":""img/2to1/11.png"",""time"":1094},{""stimulus"":""img/2to1/12.png"",""time"":1193}]","[]"
"image-keyboard-response","22","64138","0.0-5.0-1.9","62fd76d3f0824c29d4b1e6bd","bdp_cybrbll","Mon Mar 27 2023 16:10:36 GMT-0400 (Eastern Daylight Time)","443715","3","1","","null","","","","observe","","img/1to3/1.png","null","216","356","0.5","0.5","1","2","",""
"animation","23","65427","0.0-5.0-2.9","62fd76d3f0824c29d4b1e6bd","bdp_cybrbll","Mon Mar 27 2023 16:10:36 GMT-0400 (Eastern Daylight Time)","443715","3","1","","","","","","","","","","216","","","","1","2","[{""stimulus"":""img/1to2/1.png"",""time"":101},{""stimulus"":""img/1to2/2.png"",""time"":202},{""stimulus"":""img/1to2/3.png"",""time"":304},{""stimulus"":""img/1to2/4.png"",""time"":402},{""stimulus"":""img/1to2/5.png"",""time"":501},{""stimulus"":""img/1to2/6.png"",""time"":600},{""stimulus"":""img/1to2/7.png"",""time"":702},{""stimulus"":""img/1to2/8.png"",""time"":795},{""stimulus"":""img/1to2/9.png"",""time"":894},{""stimulus"":""img/1to2/10.png"",""time"":998},{""stimulus"":""img/1to2/11.png"",""time"":1095},{""stimulus"":""img/1to2/12.png"",""time"":1196}]","[]"
"image-keyboard-response","24","65451","0.0-5.0-1.10","62fd76d3f0824c29d4b1e6bd","bdp_cybrbll","Mon Mar 27 2023 16:10:36 GMT-0400 (Eastern Daylight Time)","443715","3","1","","23","","","","choice","","img/2to1/1.png","2","215","354","0.5","0.5","2","3","",""
"animation","25","66746","0.0-5.0-2.10","62fd76d3f0824c29d4b1e6bd","bdp_cybrbll","Mon Mar 27 2023 16:10:36 GMT-0400 (Eastern Daylight Time)","443715","3","1","","","","","","","","","","215","","","","2","3","[{""stimulus"":""img/2to3/1.png"",""time"":105},{""stimulus"":""img/2to3/2.png"",""time"":205},{""stimulus"":""img/2to3/3.png"",""time"":303},{""stimulus"":""img/2to3/4.png"",""time"":401},{""stimulus"":""img/2to3/5.png"",""time"":500},{""stimulus"":""img/2to3/6.png"",""time"":598},{""stimulus"":""img/2to3/7.png"",""time"":697},{""stimulus"":""img/2to3/8.png"",""time"":793},{""stimulus"":""img/2to3/9.png"",""time"":899},{""stimulus"":""img/2to3/10.png"",""time"":997},{""stimulus"":""img/2to3/11.png"",""time"":1104},{""stimulus"":""img/2to3/12.png"",""time"":1194}]","[]"
"image-keyboard-response","26","67311","0.0-5.0-1.11","62fd76d3f0824c29d4b1e6bd","bdp_cybrbll","Mon Mar 27 2023 16:10:36 GMT-0400 (Eastern Daylight Time)","443715","3","1","","null","","","","observe","","img/3to2/1.png","null","214","559","0.5","0.5","3","1","",""
"animation","27","68603","0.0-5.0-2.11","62fd76d3f0824c29d4b1e6bd","bdp_cybrbll","Mon Mar 27 2023 16:10:36 GMT-0400 (Eastern Daylight Time)","443715","3","1","","","","","","","","","","214","","","","3","1","[{""stimulus"":""img/3to1/1.png"",""time"":104},{""stimulus"":""img/3to1/2.png"",""time"":202},{""stimulus"":""img/3to1/3.png"",""time"":301},{""stimulus"":""img/3to1/4.png"",""time"":399},{""stimulus"":""img/3to1/5.png"",""time"":507},{""stimulus"":""img/3to1/6.png"",""time"":598},{""stimulus"":""img/3to1/7.png"",""time"":697},{""stimulus"":""img/3to1/8.png"",""time"":796},{""stimulus"":""img/3to1/9.png"",""time"":895},{""stimulus"":""img/3to1/10.png"",""time"":994},{""stimulus"":""img/3to1/11.png"",""time"":1094},{""stimulus"":""img/3to1/12.png"",""time"":1193}]","[]"
"image-keyboard-response","28","69088","0.0-5.0-1.12","62fd76d3f0824c29d4b1e6bd","bdp_cybrbll","Mon Mar 27 2023 16:10:36 GMT-0400 (Eastern Daylight Time)","443715","3","1","","null","","","","observe","","img/1to3/1.png","null","213","483","0.5","0.5","1","2","",""
"animation","29","70379","0.0-5.0-2.12","62fd76d3f0824c29d4b1e6bd","bdp_cybrbll","Mon Mar 27 2023 16:10:36 GMT-0400 (Eastern Daylight Time)","443715","3","1","","","","","","","","","","213","","","","1","2","[{""stimulus"":""img/1to2/1.png"",""time"":107},{""stimulus"":""img/1to2/2.png"",""time"":200},{""stimulus"":""img/1to2/3.png"",""time"":300},{""stimulus"":""img/1to2/4.png"",""time"":401},{""stimulus"":""img/1to2/5.png"",""time"":503},{""stimulus"":""img/1to2/6.png"",""time"":604},{""stimulus"":""img/1to2/7.png"",""time"":702},{""stimulus"":""img/1to2/8.png"",""time"":799},{""stimulus"":""img/1to2/9.png"",""time"":898},{""stimulus"":""img/1to2/10.png"",""time"":993},{""stimulus"":""img/1to2/11.png"",""time"":1099},{""stimulus"":""img/1to2/12.png"",""time"":1192}]","[]"
"image-keyboard-response","30","71011","0.0-5.0-1.13","62fd76d3f0824c29d4b1e6bd","bdp_cybrbll","Mon Mar 27 2023 16:10:36 GMT-0400 (Eastern Daylight Time)","443715","3","1","","630","","","","choice","","img/2to1/1.png","2","212","618","0.5","0.5","2","3","",""
"animation","31","72306","0.0-5.0-2.13","62fd76d3f0824c29d4b1e6bd","bdp_cybrbll","Mon Mar 27 2023 16:10:36 GMT-0400 (Eastern Daylight Time)","443715","3","1","","","","","","","","","","212","","","","2","3","[{""stimulus"":""img/2to3/1.png"",""time"":102},{""stimulus"":""img/2to3/2.png"",""time"":200},{""stimulus"":""img/2to3/3.png"",""time"":301},{""stimulus"":""img/2to3/4.png"",""time"":404},{""stimulus"":""img/2to3/5.png"",""time"":502},{""stimulus"":""img/2to3/6.png"",""time"":601},{""stimulus"":""img/2to3/7.png"",""time"":695},{""stimulus"":""img/2to3/8.png"",""time"":794},{""stimulus"":""img/2to3/9.png"",""time"":893},{""stimulus"":""img/2to3/10.png"",""time"":993},{""stimulus"":""img/2to3/11.png"",""time"":1093},{""stimulus"":""img/2to3/12.png"",""time"":1191}]","[]"
"image-keyboard-response","32","72576","0.0-5.0-1.14","62fd76d3f0824c29d4b1e6bd","bdp_cybrbll","Mon Mar 27 2023 16:10:36 GMT-0400 (Eastern Daylight Time)","443715","3","1","","null","","","","observe","","img/3to2/1.png","null","211","261","0.5","0.5","3","2","",""
"animation","33","73870","0.0-5.0-2.14","62fd76d3f0824c29d4b1e6bd","bdp_cybrbll","Mon Mar 27 2023 16:10:36 GMT-0400 (Eastern Daylight Time)","443715","3","1","","","","","","","","","","211","","","","3","2","[{""stimulus"":""img/3to2/1.png"",""time"":107},{""stimulus"":""img/3to2/2.png"",""time"":205},{""stimulus"":""img/3to2/3.png"",""time"":304},{""stimulus"":""img/3to2/4.png"",""time"":402},{""stimulus"":""img/3to2/5.png"",""time"":499},{""stimulus"":""img/3to2/6.png"",""time"":600},{""stimulus"":""img/3to2/7.png"",""time"":697},{""stimulus"":""img/3to2/8.png"",""time"":795},{""stimulus"":""img/3to2/9.png"",""time"":900},{""stimulus"":""img/3to2/10.png"",""time"":999},{""stimulus"":""img/3to2/11.png"",""time"":1099},{""stimulus"":""img/3to2/12.png"",""time"":1190}]","[]"
"image-keyboard-response","34","73922","0.0-5.0-1.15","62fd76d3f0824c29d4b1e6bd","bdp_cybrbll","Mon Mar 27 2023 16:10:36 GMT-0400 (Eastern Daylight Time)","443715","3","1","","46","","","","choice","","img/2to1/1.png","1","210","359","0.5","0.5","2","1","",""
"animation","35","75218","0.0-5.0-2.15","62fd76d3f0824c29d4b1e6bd","bdp_cybrbll","Mon Mar 27 2023 16:10:36 GMT-0400 (Eastern Daylight Time)","443715","3","1","","","","","","","","","","210","","","","2","1","[{""stimulus"":""img/2to1/1.png"",""time"":102},{""stimulus"":""img/2to1/2.png"",""time"":201},{""stimulus"":""img/2to1/3.png"",""time"":302},{""stimulus"":""img/2to1/4.png"",""time"":400},{""stimulus"":""img/2to1/5.png"",""time"":500},{""stimulus"":""img/2to1/6.png"",""time"":601},{""stimulus"":""img/2to1/7.png"",""time"":699},{""stimulus"":""img/2to1/8.png"",""time"":799},{""stimulus"":""img/2to1/9.png"",""time"":900},{""stimulus"":""img/2to1/10.png"",""time"":999},{""stimulus"":""img/2to1/11.png"",""time"":1097},{""stimulus"":""img/2to1/12.png"",""time"":1195}]","[]"
"image-keyboard-response","36","75882","0.0-5.0-1.16","62fd76d3f0824c29d4b1e6bd","bdp_cybrbll","Mon Mar 27 2023 16:10:36 GMT-0400 (Eastern Daylight Time)","443715","3","1","","null","","","","observe","","img/1to3/1.png","null","209","651","0.5","0.5","1","3","",""
"animation","37","77171","0.0-5.0-2.16","62fd76d3f0824c29d4b1e6bd","bdp_cybrbll","Mon Mar 27 2023 16:10:36 GMT-0400 (Eastern Daylight Time)","443715","3","1","","","","","","","","","","209","","","","1","3","[{""stimulus"":""img/1to3/1.png"",""time"":103},{""stimulus"":""img/1to3/2.png"",""time"":203},{""stimulus"":""img/1to3/3.png"",""time"":305},{""stimulus"":""img/1to3/4.png"",""time"":403},{""stimulus"":""img/1to3/5.png"",""time"":502},{""stimulus"":""img/1to3/6.png"",""time"":599},{""stimulus"":""img/1to3/7.png"",""time"":697},{""stimulus"":""img/1to3/8.png"",""time"":796},{""stimulus"":""img/1to3/9.png"",""time"":894},{""stimulus"":""img/1to3/10.png"",""time"":995},{""stimulus"":""img/1to3/11.png"",""time"":1093},{""stimulus"":""img/1to3/12.png"",""time"":1192}]","[]"
"image-keyboard-response","38","77339","0.0-5.0-1.17","62fd76d3f0824c29d4b1e6bd","bdp_cybrbll","Mon Mar 27 2023 16:10:36 GMT-0400 (Eastern Daylight Time)","443715","3","1","","null","","","","observe","","img/3to2/1.png","null","208","160","0.5","0.5","3","1","",""
"animation","39","78628","0.0-5.0-2.17","62fd76d3f0824c29d4b1e6bd","bdp_cybrbll","Mon Mar 27 2023 16:10:36 GMT-0400 (Eastern Daylight Time)","443715","3","1","","","","","","","","","","208","","","","3","1","[{""stimulus"":""img/3to1/1.png"",""time"":102},{""stimulus"":""img/3to1/2.png"",""time"":199},{""stimulus"":""img/3to1/3.png"",""time"":300},{""stimulus"":""img/3to1/4.png"",""time"":400},{""stimulus"":""img/3to1/5.png"",""time"":500},{""stimulus"":""img/3to1/6.png"",""time"":599},{""stimulus"":""img/3to1/7.png"",""time"":699},{""stimulus"":""img/3to1/8.png"",""time"":806},{""stimulus"":""img/3to1/9.png"",""time"":895},{""stimulus"":""img/3to1/10.png"",""time"":993},{""stimulus"":""img/3to1/11.png"",""time"":1090},{""stimulus"":""img/3to1/12.png"",""time"":1196}]","[]"
"image-keyboard-response","40","79221","0.0-5.0-1.18","62fd76d3f0824c29d4b1e6bd","bdp_cybrbll","Mon Mar 27 2023 16:10:36 GMT-0400 (Eastern Daylight Time)","443715","3","1","","null","","","","observe","","img/1to3/1.png","null","207","585","0.5","0.5","1","2","",""
"animation","41","80510","0.0-5.0-2.18","62fd76d3f0824c29d4b1e6bd","bdp_cybrbll","Mon Mar 27 2023 16:10:36 GMT-0400 (Eastern Daylight Time)","443715","3","1","","","","","","","","","","207","","","","1","2","[{""stimulus"":""img/1to2/1.png"",""time"":116},{""stimulus"":""img/1to2/2.png"",""time"":206},{""stimulus"":""img/1to2/3.png"",""time"":305},{""stimulus"":""img/1to2/4.png"",""time"":412},{""stimulus"":""img/1to2/5.png"",""time"":501},{""stimulus"":""img/1to2/6.png"",""time"":602},{""stimulus"":""img/1to2/7.png"",""time"":699},{""stimulus"":""img/1to2/8.png"",""time"":797},{""stimulus"":""img/1to2/9.png"",""time"":895},{""stimulus"":""img/1to2/10.png"",""time"":994},{""stimulus"":""img/1to2/11.png"",""time"":1100},{""stimulus"":""img/1to2/12.png"",""time"":1192}]","[]"
"image-keyboard-response","42","80655","0.0-5.0-1.19","62fd76d3f0824c29d4b1e6bd","bdp_cybrbll","Mon Mar 27 2023 16:10:36 GMT-0400 (Eastern Daylight Time)","443715","3","1","","144","","","","choice","","img/2to1/1.png","1","206","1268","0.5","0.5","2","1","",""
"animation","43","81950","0.0-5.0-2.19","62fd76d3f0824c29d4b1e6bd","bdp_cybrbll","Mon Mar 27 2023 16:10:36 GMT-0400 (Eastern Daylight Time)","443715","3","1","","","","","","","","","","206","","","","2","1","[{""stimulus"":""img/2to1/1.png"",""time"":103},{""stimulus"":""img/2to1/2.png"",""time"":200},{""stimulus"":""img/2to1/3.png"",""time"":301},{""stimulus"":""img/2to1/4.png"",""time"":400},{""stimulus"":""img/2to1/5.png"",""time"":497},{""stimulus"":""img/2to1/6.png"",""time"":598},{""stimulus"":""img/2to1/7.png"",""time"":700},{""stimulus"":""img/2to1/8.png"",""time"":803},{""stimulus"":""img/2to1/9.png"",""time"":897},{""stimulus"":""img/2to1/10.png"",""time"":999},{""stimulus"":""img/2to1/11.png"",""time"":1092},{""stimulus"":""img/2to1/12.png"",""time"":1196}]","[]"
"image-keyboard-response","44","82699","0.0-5.0-1.20","62fd76d3f0824c29d4b1e6bd","bdp_cybrbll","Mon Mar 27 2023 16:10:36 GMT-0400 (Eastern Daylight Time)","443715","3","1","","null","","","","observe","","img/1to3/1.png","null","205","731","0.5","0.5","1","2","",""
"animation","45","83987","0.0-5.0-2.20","62fd76d3f0824c29d4b1e6bd","bdp_cybrbll","Mon Mar 27 2023 16:10:36 GMT-0400 (Eastern Daylight Time)","443715","3","1","","","","","","","","","","205","","","","1","2","[{""stimulus"":""img/1to2/1.png"",""time"":105},{""stimulus"":""img/1to2/2.png"",""time"":207},{""stimulus"":""img/1to2/3.png"",""time"":298},{""stimulus"":""img/1to2/4.png"",""time"":406},{""stimulus"":""img/1to2/5.png"",""time"":500},{""stimulus"":""img/1to2/6.png"",""time"":602},{""stimulus"":""img/1to2/7.png"",""time"":698},{""stimulus"":""img/1to2/8.png"",""time"":798},{""stimulus"":""img/1to2/9.png"",""time"":896},{""stimulus"":""img/1to2/10.png"",""time"":995},{""stimulus"":""img/1to2/11.png"",""time"":1093},{""stimulus"":""img/1to2/12.png"",""time"":1191}]","[]"
"image-keyboard-response","46","84706","0.0-5.0-1.21","62fd76d3f0824c29d4b1e6bd","bdp_cybrbll","Mon Mar 27 2023 16:10:36 GMT-0400 (Eastern Daylight Time)","443715","3","1","","717","","","","choice","","img/2to1/1.png","2","204","1016","0.5","0.5","2","3","",""
"animation","47","85995","0.0-5.0-2.21","62fd76d3f0824c29d4b1e6bd","bdp_cybrbll","Mon Mar 27 2023 16:10:36 GMT-0400 (Eastern Daylight Time)","443715","3","1","","","","","","","","","","204","","","","2","3","[{""stimulus"":""img/2to3/1.png"",""time"":115},{""stimulus"":""img/2to3/2.png"",""time"":202},{""stimulus"":""img/2to3/3.png"",""time"":303},{""stimulus"":""img/2to3/4.png"",""time"":403},{""stimulus"":""img/2to3/5.png"",""time"":501},{""stimulus"":""img/2to3/6.png"",""time"":599},{""stimulus"":""img/2to3/7.png"",""time"":698},{""stimulus"":""img/2to3/8.png"",""time"":796},{""stimulus"":""img/2to3/9.png"",""time"":892},{""stimulus"":""img/2to3/10.png"",""time"":1000},{""stimulus"":""img/2to3/11.png"",""time"":1090},{""stimulus"":""img/2to3/12.png"",""time"":1190}]","[]"
"image-keyboard-response","48","86409","0.0-5.0-1.22","62fd76d3f0824c29d4b1e6bd","bdp_cybrbll","Mon Mar 27 2023 16:10:36 GMT-0400 (Eastern Daylight Time)","443715","3","1","","null","","","","observe","","img/3to2/1.png","null","203","408","0.5","0.5","3","1","",""
"animation","49","87698","0.0-5.0-2.22","62fd76d3f0824c29d4b1e6bd","bdp_cybrbll","Mon Mar 27 2023 16:10:36 GMT-0400 (Eastern Daylight Time)","443715","3","1","","","","","","","","","","203","","","","3","1","[{""stimulus"":""img/3to1/1.png"",""time"":103},{""stimulus"":""img/3to1/2.png"",""time"":200},{""stimulus"":""img/3to1/3.png"",""time"":298},{""stimulus"":""img/3to1/4.png"",""time"":405},{""stimulus"":""img/3to1/5.png"",""time"":496},{""stimulus"":""img/3to1/6.png"",""time"":596},{""stimulus"":""img/3to1/7.png"",""time"":695},{""stimulus"":""img/3to1/8.png"",""time"":797},{""stimulus"":""img/3to1/9.png"",""time"":896},{""stimulus"":""img/3to1/10.png"",""time"":994},{""stimulus"":""img/3to1/11.png"",""time"":1094},{""stimulus"":""img/3to1/12.png"",""time"":1191}]","[]"
"image-keyboard-response","50","88125","0.0-5.0-1.23","62fd76d3f0824c29d4b1e6bd","bdp_cybrbll","Mon Mar 27 2023 16:10:36 GMT-0400 (Eastern Daylight Time)","443715","3","1","","null","","","","observe","","img/1to3/1.png","null","202","421","0.5","0.5","1","3","",""
"animation","51","89418","0.0-5.0-2.23","62fd76d3f0824c29d4b1e6bd","bdp_cybrbll","Mon Mar 27 2023 16:10:36 GMT-0400 (Eastern Daylight Time)","443715","3","1","","","","","","","","","","202","","","","1","3","[{""stimulus"":""img/1to3/1.png"",""time"":101},{""stimulus"":""img/1to3/2.png"",""time"":203},{""stimulus"":""img/1to3/3.png"",""time"":302},{""stimulus"":""img/1to3/4.png"",""time"":401},{""stimulus"":""img/1to3/5.png"",""time"":499},{""stimulus"":""img/1to3/6.png"",""time"":595},{""stimulus"":""img/1to3/7.png"",""time"":708},{""stimulus"":""img/1to3/8.png"",""time"":800},{""stimulus"":""img/1to3/9.png"",""time"":898},{""stimulus"":""img/1to3/10.png"",""time"":998},{""stimulus"":""img/1to3/11.png"",""time"":1097},{""stimulus"":""img/1to3/12.png"",""time"":1195}]","[]"
"image-keyboard-response","52","89979","0.0-5.0-1.24","62fd76d3f0824c29d4b1e6bd","bdp_cybrbll","Mon Mar 27 2023 16:10:36 GMT-0400 (Eastern Daylight Time)","443715","3","1","","null","","","","observe","","img/3to2/1.png","null","201","555","0.5","0.5","3","1","",""
"animation","53","91274","0.0-5.0-2.24","62fd76d3f0824c29d4b1e6bd","bdp_cybrbll","Mon Mar 27 2023 16:10:36 GMT-0400 (Eastern Daylight Time)","443715","3","1","","","","","","","","","","201","","","","3","1","[{""stimulus"":""img/3to1/1.png"",""time"":105},{""stimulus"":""img/3to1/2.png"",""time"":204},{""stimulus"":""img/3to1/3.png"",""time"":305},{""stimulus"":""img/3to1/4.png"",""time"":405},{""stimulus"":""img/3to1/5.png"",""time"":506},{""stimulus"":""img/3to1/6.png"",""time"":598},{""stimulus"":""img/3to1/7.png"",""time"":697},{""stimulus"":""img/3to1/8.png"",""time"":805},{""stimulus"":""img/3to1/9.png"",""time"":907},{""stimulus"":""img/3to1/10.png"",""time"":995},{""stimulus"":""img/3to1/11.png"",""time"":1091},{""stimulus"":""img/3to1/12.png"",""time"":1196}]","[]"
"image-keyboard-response","54","91991","0.0-5.0-1.25","62fd76d3f0824c29d4b1e6bd","bdp_cybrbll","Mon Mar 27 2023 16:10:36 GMT-0400 (Eastern Daylight Time)","443715","3","1","","null","","","","observe","","img/1to3/1.png","null","200","714","0.5","0.5","1","3","",""
"animation","55","93286","0.0-5.0-2.25","62fd76d3f0824c29d4b1e6bd","bdp_cybrbll","Mon Mar 27 2023 16:10:36 GMT-0400 (Eastern Daylight Time)","443715","3","1","","","","","","","","","","200","","","","1","3","[{""stimulus"":""img/1to3/1.png"",""time"":103},{""stimulus"":""img/1to3/2.png"",""time"":200},{""stimulus"":""img/1to3/3.png"",""time"":307},{""stimulus"":""img/1to3/4.png"",""time"":398},{""stimulus"":""img/1to3/5.png"",""time"":498},{""stimulus"":""img/1to3/6.png"",""time"":598},{""stimulus"":""img/1to3/7.png"",""time"":700},{""stimulus"":""img/1to3/8.png"",""time"":799},{""stimulus"":""img/1to3/9.png"",""time"":898},{""stimulus"":""img/1to3/10.png"",""time"":998},{""stimulus"":""img/1to3/11.png"",""time"":1099},{""stimulus"":""img/1to3/12.png"",""time"":1206}]","[]"
"image-keyboard-response","56","93795","0.0-5.0-1.26","62fd76d3f0824c29d4b1e6bd","bdp_cybrbll","Mon Mar 27 2023 16:10:36 GMT-0400 (Eastern Daylight Time)","443715","3","1","","null","","","","observe","","img/3to2/1.png","null","199","502","0.5","0.5","3","1","",""
"animation","57","95092","0.0-5.0-2.26","62fd76d3f0824c29d4b1e6bd","bdp_cybrbll","Mon Mar 27 2023 16:10:36 GMT-0400 (Eastern Daylight Time)","443715","3","1","","","","","","","","","","199","","","","3","1","[{""stimulus"":""img/3to1/1.png"",""time"":100},{""stimulus"":""img/3to1/2.png"",""time"":200},{""stimulus"":""img/3to1/3.png"",""time"":300},{""stimulus"":""img/3to1/4.png"",""time"":400},{""stimulus"":""img/3to1/5.png"",""time"":502},{""stimulus"":""img/3to1/6.png"",""time"":601},{""stimulus"":""img/3to1/7.png"",""time"":700},{""stimulus"":""img/3to1/8.png"",""time"":793},{""stimulus"":""img/3to1/9.png"",""time"":893},{""stimulus"":""img/3to1/10.png"",""time"":995},{""stimulus"":""img/3to1/11.png"",""time"":1101},{""stimulus"":""img/3to1/12.png"",""time"":1192}]","[]"
"image-keyboard-response","58","95734","0.0-5.0-1.27","62fd76d3f0824c29d4b1e6bd","bdp_cybrbll","Mon Mar 27 2023 16:10:36 GMT-0400 (Eastern Daylight Time)","443715","3","1","","null","","","","observe","","img/1to3/1.png","null","198","629","0.5","0.5","1","2","",""
"animation","59","97026","0.0-5.0-2.27","62fd76d3f0824c29d4b1e6bd","bdp_cybrbll","Mon Mar 27 2023 16:10:36 GMT-0400 (Eastern Daylight Time)","443715","3","1","","","","","","","","","","198","","","","1","2","[{""stimulus"":""img/1to2/1.png"",""time"":101},{""stimulus"":""img/1to2/2.png"",""time"":208},{""stimulus"":""img/1to2/3.png"",""time"":306},{""stimulus"":""img/1to2/4.png"",""time"":405},{""stimulus"":""img/1to2/5.png"",""time"":512},{""stimulus"":""img/1to2/6.png"",""time"":597},{""stimulus"":""img/1to2/7.png"",""time"":698},{""stimulus"":""img/1to2/8.png"",""time"":795},{""stimulus"":""img/1to2/9.png"",""time"":894},{""stimulus"":""img/1to2/10.png"",""time"":997},{""stimulus"":""img/1to2/11.png"",""time"":1094},{""stimulus"":""img/1to2/12.png"",""time"":1194}]","[]"
"image-keyboard-response","60","97307","0.0-5.0-1.28","62fd76d3f0824c29d4b1e6bd","bdp_cybrbll","Mon Mar 27 2023 16:10:36 GMT-0400 (Eastern Daylight Time)","443715","3","1","","280","","","","choice","","img/2to1/1.png","1","197","354","0.5","0.5","2","1","",""
"animation","61","98602","0.0-5.0-2.28","62fd76d3f0824c29d4b1e6bd","bdp_cybrbll","Mon Mar 27 2023 16:10:36 GMT-0400 (Eastern Daylight Time)","443715","3","1","","","","","","","","","","197","","","","2","1","[{""stimulus"":""img/2to1/1.png"",""time"":105},{""stimulus"":""img/2to1/2.png"",""time"":204},{""stimulus"":""img/2to1/3.png"",""time"":306},{""stimulus"":""img/2to1/4.png"",""time"":398},{""stimulus"":""img/2to1/5.png"",""time"":506},{""stimulus"":""img/2to1/6.png"",""time"":596},{""stimulus"":""img/2to1/7.png"",""time"":693},{""stimulus"":""img/2to1/8.png"",""time"":800},{""stimulus"":""img/2to1/9.png"",""time"":899},{""stimulus"":""img/2to1/10.png"",""time"":998},{""stimulus"":""img/2to1/11.png"",""time"":1097},{""stimulus"":""img/2to1/12.png"",""time"":1195}]","[]"
"image-keyboard-response","62","99678","0.0-5.0-1.29","62fd76d3f0824c29d4b1e6bd","bdp_cybrbll","Mon Mar 27 2023 16:10:36 GMT-0400 (Eastern Daylight Time)","443715","3","1","","null","","","","observe","","img/1to3/1.png","null","196","1057","0.5","0.5","1","3","",""
"animation","63","100972","0.0-5.0-2.29","62fd76d3f0824c29d4b1e6bd","bdp_cybrbll","Mon Mar 27 2023 16:10:36 GMT-0400 (Eastern Daylight Time)","443715","3","1","","","","","","","","","","196","","","","1","3","[{""stimulus"":""img/1to3/1.png"",""time"":108},{""stimulus"":""img/1to3/2.png"",""time"":199},{""stimulus"":""img/1to3/3.png"",""time"":306},{""stimulus"":""img/1to3/4.png"",""time"":398},{""stimulus"":""img/1to3/5.png"",""time"":503},{""stimulus"":""img/1to3/6.png"",""time"":610},{""stimulus"":""img/1to3/7.png"",""time"":703},{""stimulus"":""img/1to3/8.png"",""time"":799},{""stimulus"":""img/1to3/9.png"",""time"":892},{""stimulus"":""img/1to3/10.png"",""time"":999},{""stimulus"":""img/1to3/11.png"",""time"":1096},{""stimulus"":""img/1to3/12.png"",""time"":1195}]","[]"
"image-keyboard-response","64","101607","0.0-5.0-1.30","62fd76d3f0824c29d4b1e6bd","bdp_cybrbll","Mon Mar 27 2023 16:10:36 GMT-0400 (Eastern Daylight Time)","443715","3","1","","null","","","","observe","","img/3to2/1.png","null","195","630","0.5","0.5","3","1","",""
"animation","65","102899","0.0-5.0-2.30","62fd76d3f0824c29d4b1e6bd","bdp_cybrbll","Mon Mar 27 2023 16:10:36 GMT-0400 (Eastern Daylight Time)","443715","3","1","","","","","","","","","","195","","","","3","1","[{""stimulus"":""img/3to1/1.png"",""time"":101},{""stimulus"":""img/3to1/2.png"",""time"":205},{""stimulus"":""img/3to1/3.png"",""time"":307},{""stimulus"":""img/3to1/4.png"",""time"":399},{""stimulus"":""img/3to1/5.png"",""time"":497},{""stimulus"":""img/3to1/6.png"",""time"":602},{""stimulus"":""img/3to1/7.png"",""time"":703},{""stimulus"":""img/3to1/8.png"",""time"":801},{""stimulus"":""img/3to1/9.png"",""time"":893},{""stimulus"":""img/3to1/10.png"",""time"":994},{""stimulus"":""img/3to1/11.png"",""time"":1092},{""stimulus"":""img/3to1/12.png"",""time"":1194}]","[]"
"image-keyboard-response","66","103443","0.0-5.0-1.31","62fd76d3f0824c29d4b1e6bd","bdp_cybrbll","Mon Mar 27 2023 16:10:36 GMT-0400 (Eastern Daylight Time)","443715","3","1","","null","","","","observe","","img/1to3/1.png","null","194","541","0.5","0.5","1","2","",""
"animation","67","104732","0.0-5.0-2.31","62fd76d3f0824c29d4b1e6bd","bdp_cybrbll","Mon Mar 27 2023 16:10:36 GMT-0400 (Eastern Daylight Time)","443715","3","1","","","","","","","","","","194","","","","1","2","[{""stimulus"":""img/1to2/1.png"",""time"":105},{""stimulus"":""img/1to2/2.png"",""time"":206},{""stimulus"":""img/1to2/3.png"",""time"":304},{""stimulus"":""img/1to2/4.png"",""time"":403},{""stimulus"":""img/1to2/5.png"",""time"":503},{""stimulus"":""img/1to2/6.png"",""time"":596},{""stimulus"":""img/1to2/7.png"",""time"":696},{""stimulus"":""img/1to2/8.png"",""time"":802},{""stimulus"":""img/1to2/9.png"",""time"":894},{""stimulus"":""img/1to2/10.png"",""time"":993},{""stimulus"":""img/1to2/11.png"",""time"":1096},{""stimulus"":""img/1to2/12.png"",""time"":1192}]","[]"
"image-keyboard-response","68","105358","0.0-5.0-1.32","62fd76d3f0824c29d4b1e6bd","bdp_cybrbll","Mon Mar 27 2023 16:10:36 GMT-0400 (Eastern Daylight Time)","443715","3","1","","625","","","","choice","","img/2to1/1.png","2","193","501","0.5","0.5","2","3","",""
"animation","69","106648","0.0-5.0-2.32","62fd76d3f0824c29d4b1e6bd","bdp_cybrbll","Mon Mar 27 2023 16:10:36 GMT-0400 (Eastern Daylight Time)","443715","3","1","","","","","","","","","","193","","","","2","3","[{""stimulus"":""img/2to3/1.png"",""time"":101},{""stimulus"":""img/2to3/2.png"",""time"":206},{""stimulus"":""img/2to3/3.png"",""time"":302},{""stimulus"":""img/2to3/4.png"",""time"":397},{""stimulus"":""img/2to3/5.png"",""time"":496},{""stimulus"":""img/2to3/6.png"",""time"":596},{""stimulus"":""img/2to3/7.png"",""time"":696},{""stimulus"":""img/2to3/8.png"",""time"":796},{""stimulus"":""img/2to3/9.png"",""time"":906},{""stimulus"":""img/2to3/10.png"",""time"":994},{""stimulus"":""img/2to3/11.png"",""time"":1091},{""stimulus"":""img/2to3/12.png"",""time"":1200}]","[]"
"image-keyboard-response","70","107447","0.0-5.0-1.33","62fd76d3f0824c29d4b1e6bd","bdp_cybrbll","Mon Mar 27 2023 16:10:36 GMT-0400 (Eastern Daylight Time)","443715","3","1","","null","","","","observe","","img/3to2/1.png","null","192","795","0.5","0.5","3","1","",""
"animation","71","108743","0.0-5.0-2.33","62fd76d3f0824c29d4b1e6bd","bdp_cybrbll","Mon Mar 27 2023 16:10:36 GMT-0400 (Eastern Daylight Time)","443715","3","1","","","","","","","","","","192","","","","3","1","[{""stimulus"":""img/3to1/1.png"",""time"":108},{""stimulus"":""img/3to1/2.png"",""time"":206},{""stimulus"":""img/3to1/3.png"",""time"":304},{""stimulus"":""img/3to1/4.png"",""time"":401},{""stimulus"":""img/3to1/5.png"",""time"":500},{""stimulus"":""img/3to1/6.png"",""time"":600},{""stimulus"":""img/3to1/7.png"",""time"":697},{""stimulus"":""img/3to1/8.png"",""time"":794},{""stimulus"":""img/3to1/9.png"",""time"":899},{""stimulus"":""img/3to1/10.png"",""time"":998},{""stimulus"":""img/3to1/11.png"",""time"":1107},{""stimulus"":""img/3to1/12.png"",""time"":1190}]","[]"
"image-keyboard-response","72","108914","0.0-5.0-1.34","62fd76d3f0824c29d4b1e6bd","bdp_cybrbll","Mon Mar 27 2023 16:10:36 GMT-0400 (Eastern Daylight Time)","443715","3","1","","null","","","","observe","","img/1to3/1.png","null","191","162","0.5","0.5","1","2","",""
"animation","73","110206","0.0-5.0-2.34","62fd76d3f0824c29d4b1e6bd","bdp_cybrbll","Mon Mar 27 2023 16:10:36 GMT-0400 (Eastern Daylight Time)","443715","3","1","","","","","","","","","","191","","","","1","2","[{""stimulus"":""img/1to2/1.png"",""time"":101},{""stimulus"":""img/1to2/2.png"",""time"":208},{""stimulus"":""img/1to2/3.png"",""time"":299},{""stimulus"":""img/1to2/4.png"",""time"":398},{""stimulus"":""img/1to2/5.png"",""time"":499},{""stimulus"":""img/1to2/6.png"",""time"":596},{""stimulus"":""img/1to2/7.png"",""time"":699},{""stimulus"":""img/1to2/8.png"",""time"":796},{""stimulus"":""img/1to2/9.png"",""time"":896},{""stimulus"":""img/1to2/10.png"",""time"":994},{""stimulus"":""img/1to2/11.png"",""time"":1093},{""stimulus"":""img/1to2/12.png"",""time"":1191}]","[]"
"image-keyboard-response","74","110328","0.0-5.0-1.35","62fd76d3f0824c29d4b1e6bd","bdp_cybrbll","Mon Mar 27 2023 16:10:36 GMT-0400 (Eastern Daylight Time)","443715","3","1","","120","","","","choice","","img/2to1/1.png","1","190","552","0.5","0.5","2","1","",""
"animation","75","111618","0.0-5.0-2.35","62fd76d3f0824c29d4b1e6bd","bdp_cybrbll","Mon Mar 27 2023 16:10:36 GMT-0400 (Eastern Daylight Time)","443715","3","1","","","","","","","","","","190","","","","2","1","[{""stimulus"":""img/2to1/1.png"",""time"":102},{""stimulus"":""img/2to1/2.png"",""time"":200},{""stimulus"":""img/2to1/3.png"",""time"":306},{""stimulus"":""img/2to1/4.png"",""time"":404},{""stimulus"":""img/2to1/5.png"",""time"":496},{""stimulus"":""img/2to1/6.png"",""time"":603},{""stimulus"":""img/2to1/7.png"",""time"":701},{""stimulus"":""img/2to1/8.png"",""time"":798},{""stimulus"":""img/2to1/9.png"",""time"":898},{""stimulus"":""img/2to1/10.png"",""time"":998},{""stimulus"":""img/2to1/11.png"",""time"":1094},{""stimulus"":""img/2to1/12.png"",""time"":1191}]","[]"
"image-keyboard-response","76","112566","0.0-5.0-1.36","62fd76d3f0824c29d4b1e6bd","bdp_cybrbll","Mon Mar 27 2023 16:10:36 GMT-0400 (Eastern Daylight Time)","443715","3","1","","null","","","","observe","","img/1to3/1.png","null","189","943","0.5","0.5","1","2","",""
"animation","77","113857","0.0-5.0-2.36","62fd76d3f0824c29d4b1e6bd","bdp_cybrbll","Mon Mar 27 2023 16:10:36 GMT-0400 (Eastern Daylight Time)","443715","3","1","","","","","","","","","","189","","","","1","2","[{""stimulus"":""img/1to2/1.png"",""time"":110},{""stimulus"":""img/1to2/2.png"",""time"":215},{""stimulus"":""img/1to2/3.png"",""time"":298},{""stimulus"":""img/1to2/4.png"",""time"":406},{""stimulus"":""img/1to2/5.png"",""time"":505},{""stimulus"":""img/1to2/6.png"",""time"":595},{""stimulus"":""img/1to2/7.png"",""time"":697},{""stimulus"":""img/1to2/8.png"",""time"":798},{""stimulus"":""img/1to2/9.png"",""time"":892},{""stimulus"":""img/1to2/10.png"",""time"":1004},{""stimulus"":""img/1to2/11.png"",""time"":1098},{""stimulus"":""img/1to2/12.png"",""time"":1191}]","[]"
"image-keyboard-response","78","113859","0.0-5.0-1.37","62fd76d3f0824c29d4b1e6bd","bdp_cybrbll","Mon Mar 27 2023 16:10:36 GMT-0400 (Eastern Daylight Time)","443715","3","1","","0","","","","choice","","img/2to1/1.png","2","188","435","0.5","0.5","2","3","",""
"animation","79","115150","0.0-5.0-2.37","62fd76d3f0824c29d4b1e6bd","bdp_cybrbll","Mon Mar 27 2023 16:10:36 GMT-0400 (Eastern Daylight Time)","443715","3","1","","","","","","","","","","188","","","","2","3","[{""stimulus"":""img/2to3/1.png"",""time"":104},{""stimulus"":""img/2to3/2.png"",""time"":208},{""stimulus"":""img/2to3/3.png"",""time"":312},{""stimulus"":""img/2to3/4.png"",""time"":412},{""stimulus"":""img/2to3/5.png"",""time"":502},{""stimulus"":""img/2to3/6.png"",""time"":603},{""stimulus"":""img/2to3/7.png"",""time"":703},{""stimulus"":""img/2to3/8.png"",""time"":794},{""stimulus"":""img/2to3/9.png"",""time"":892},{""stimulus"":""img/2to3/10.png"",""time"":993},{""stimulus"":""img/2to3/11.png"",""time"":1093},{""stimulus"":""img/2to3/12.png"",""time"":1192}]","[]"
"image-keyboard-response","80","115358","0.0-5.0-1.38","62fd76d3f0824c29d4b1e6bd","bdp_cybrbll","Mon Mar 27 2023 16:10:36 GMT-0400 (Eastern Daylight Time)","443715","3","1","","null","","","","observe","","img/3to2/1.png","null","187","206","0.5","0.5","3","2","",""
"animation","81","116653","0.0-5.0-2.38","62fd76d3f0824c29d4b1e6bd","bdp_cybrbll","Mon Mar 27 2023 16:10:36 GMT-0400 (Eastern Daylight Time)","443715","3","1","","","","","","","","","","187","","","","3","2","[{""stimulus"":""img/3to2/1.png"",""time"":109},{""stimulus"":""img/3to2/2.png"",""time"":205},{""stimulus"":""img/3to2/3.png"",""time"":307},{""stimulus"":""img/3to2/4.png"",""time"":404},{""stimulus"":""img/3to2/5.png"",""time"":502},{""stimulus"":""img/3to2/6.png"",""time"":608},{""stimulus"":""img/3to2/7.png"",""time"":696},{""stimulus"":""img/3to2/8.png"",""time"":796},{""stimulus"":""img/3to2/9.png"",""time"":896},{""stimulus"":""img/3to2/10.png"",""time"":991},{""stimulus"":""img/3to2/11.png"",""time"":1098},{""stimulus"":""img/3to2/12.png"",""time"":1197}]","[]"
"image-keyboard-response","82","116672","0.0-5.0-1.39","62fd76d3f0824c29d4b1e6bd","bdp_cybrbll","Mon Mar 27 2023 16:10:36 GMT-0400 (Eastern Daylight Time)","443715","3","1","","18","","","","choice","","img/2to1/1.png","1","186","902","0.5","0.5","2","1","",""
"animation","83","117966","0.0-5.0-2.39","62fd76d3f0824c29d4b1e6bd","bdp_cybrbll","Mon Mar 27 2023 16:10:36 GMT-0400 (Eastern Daylight Time)","443715","3","1","","","","","","","","","","186","","","","2","1","[{""stimulus"":""img/2to1/1.png"",""time"":107},{""stimulus"":""img/2to1/2.png"",""time"":199},{""stimulus"":""img/2to1/3.png"",""time"":307},{""stimulus"":""img/2to1/4.png"",""time"":398},{""stimulus"":""img/2to1/5.png"",""time"":499},{""stimulus"":""img/2to1/6.png"",""time"":596},{""stimulus"":""img/2to1/7.png"",""time"":703},{""stimulus"":""img/2to1/8.png"",""time"":802},{""stimulus"":""img/2to1/9.png"",""time"":893},{""stimulus"":""img/2to1/10.png"",""time"":1000},{""stimulus"":""img/2to1/11.png"",""time"":1105},{""stimulus"":""img/2to1/12.png"",""time"":1201}]","[]"
"image-keyboard-response","84","118372","0.0-5.0-1.40","62fd76d3f0824c29d4b1e6bd","bdp_cybrbll","Mon Mar 27 2023 16:10:36 GMT-0400 (Eastern Daylight Time)","443715","3","1","","null","","","","observe","","img/1to3/1.png","null","185","402","0.5","0.5","1","3","",""
"animation","85","119663","0.0-5.0-2.40","62fd76d3f0824c29d4b1e6bd","bdp_cybrbll","Mon Mar 27 2023 16:10:36 GMT-0400 (Eastern Daylight Time)","443715","3","1","","","","","","","","","","185","","","","1","3","[{""stimulus"":""img/1to3/1.png"",""time"":102},{""stimulus"":""img/1to3/2.png"",""time"":213},{""stimulus"":""img/1to3/3.png"",""time"":303},{""stimulus"":""img/1to3/4.png"",""time"":401},{""stimulus"":""img/1to3/5.png"",""time"":500},{""stimulus"":""img/1to3/6.png"",""time"":599},{""stimulus"":""img/1to3/7.png"",""time"":700},{""stimulus"":""img/1to3/8.png"",""time"":795},{""stimulus"":""img/1to3/9.png"",""time"":902},{""stimulus"":""img/1to3/10.png"",""time"":997},{""stimulus"":""img/1to3/11.png"",""time"":1098},{""stimulus"":""img/1to3/12.png"",""time"":1190}]","[]"
"image-keyboard-response","86","120221","0.0-5.0-1.41","62fd76d3f0824c29d4b1e6bd","bdp_cybrbll","Mon Mar 27 2023 16:10:36 GMT-0400 (Eastern Daylight Time)","443715","3","1","","null","","","","observe","","img/3to2/1.png","null","184","550","0.5","0.5","3","1","",""
"animation","87","121514","0.0-5.0-2.41","62fd76d3f0824c29d4b1e6bd","bdp_cybrbll","Mon Mar 27 2023 16:10:36 GMT-0400 (Eastern Daylight Time)","443715","3","1","","","","","","","","","","184","","","","3","1","[{""stimulus"":""img/3to1/1.png"",""time"":109},{""stimulus"":""img/3to1/2.png"",""time"":203},{""stimulus"":""img/3to1/3.png"",""time"":301},{""stimulus"":""img/3to1/4.png"",""time"":398},{""stimulus"":""img/3to1/5.png"",""time"":496},{""stimulus"":""img/3to1/6.png"",""time"":604},{""stimulus"":""img/3to1/7.png"",""time"":694},{""stimulus"":""img/3to1/8.png"",""time"":793},{""stimulus"":""img/3to1/9.png"",""time"":896},{""stimulus"":""img/3to1/10.png"",""time"":996},{""stimulus"":""img/3to1/11.png"",""time"":1096},{""stimulus"":""img/3to1/12.png"",""time"":1195}]","[]"
"image-keyboard-response","88","121815","0.0-5.0-1.42","62fd76d3f0824c29d4b1e6bd","bdp_cybrbll","Mon Mar 27 2023 16:10:36 GMT-0400 (Eastern Daylight Time)","443715","3","1","","null","","","","observe","","img/1to3/1.png","null","183","289","0.5","0.5","1","3","",""
"animation","89","123104","0.0-5.0-2.42","62fd76d3f0824c29d4b1e6bd","bdp_cybrbll","Mon Mar 27 2023 16:10:36 GMT-0400 (Eastern Daylight Time)","443715","3","1","","","","","","","","","","183","","","","1","3","[{""stimulus"":""img/1to3/1.png"",""time"":102},{""stimulus"":""img/1to3/2.png"",""time"":199},{""stimulus"":""img/1to3/3.png"",""time"":306},{""stimulus"":""img/1to3/4.png"",""time"":401},{""stimulus"":""img/1to3/5.png"",""time"":499},{""stimulus"":""img/1to3/6.png"",""time"":601},{""stimulus"":""img/1to3/7.png"",""time"":700},{""stimulus"":""img/1to3/8.png"",""time"":808},{""stimulus"":""img/1to3/9.png"",""time"":898},{""stimulus"":""img/1to3/10.png"",""time"":1000},{""stimulus"":""img/1to3/11.png"",""time"":1092},{""stimulus"":""img/1to3/12.png"",""time"":1190}]","[]"
"image-keyboard-response","90","123699","0.0-5.0-1.43","62fd76d3f0824c29d4b1e6bd","bdp_cybrbll","Mon Mar 27 2023 16:10:36 GMT-0400 (Eastern Daylight Time)","443715","3","1","","null","","","","observe","","img/3to2/1.png","null","182","578","0.5","0.5","3","1","",""
"animation","91","124994","0.0-5.0-2.43","62fd76d3f0824c29d4b1e6bd","bdp_cybrbll","Mon Mar 27 2023 16:10:36 GMT-0400 (Eastern Daylight Time)","443715","3","1","","","","","","","","","","182","","","","3","1","[{""stimulus"":""img/3to1/1.png"",""time"":103},{""stimulus"":""img/3to1/2.png"",""time"":205},{""stimulus"":""img/3to1/3.png"",""time"":304},{""stimulus"":""img/3to1/4.png"",""time"":411},{""stimulus"":""img/3to1/5.png"",""time"":502},{""stimulus"":""img/3to1/6.png"",""time"":601},{""stimulus"":""img/3to1/7.png"",""time"":700},{""stimulus"":""img/3to1/8.png"",""time"":795},{""stimulus"":""img/3to1/9.png"",""time"":895},{""stimulus"":""img/3to1/10.png"",""time"":993},{""stimulus"":""img/3to1/11.png"",""time"":1093},{""stimulus"":""img/3to1/12.png"",""time"":1196}]","[]"
"image-keyboard-response","92","125249","0.0-5.0-1.44","62fd76d3f0824c29d4b1e6bd","bdp_cybrbll","Mon Mar 27 2023 16:10:36 GMT-0400 (Eastern Daylight Time)","443715","3","1","","null","","","","observe","","img/1to3/1.png","null","181","249","0.5","0.5","1","2","",""
"animation","93","126544","0.0-5.0-2.44","62fd76d3f0824c29d4b1e6bd","bdp_cybrbll","Mon Mar 27 2023 16:10:36 GMT-0400 (Eastern Daylight Time)","443715","3","1","","","","","","","","","","181","","","","1","2","[{""stimulus"":""img/1to2/1.png"",""time"":100},{""stimulus"":""img/1to2/2.png"",""time"":206},{""stimulus"":""img/1to2/3.png"",""time"":298},{""stimulus"":""img/1to2/4.png"",""time"":397},{""stimulus"":""img/1to2/5.png"",""time"":502},{""stimulus"":""img/1to2/6.png"",""time"":611},{""stimulus"":""img/1to2/7.png"",""time"":706},{""stimulus"":""img/1to2/8.png"",""time"":796},{""stimulus"":""img/1to2/9.png"",""time"":893},{""stimulus"":""img/1to2/10.png"",""time"":1007},{""stimulus"":""img/1to2/11.png"",""time"":1098},{""stimulus"":""img/1to2/12.png"",""time"":1196}]","[]"
"image-keyboard-response","94","126587","0.0-5.0-1.45","62fd76d3f0824c29d4b1e6bd","bdp_cybrbll","Mon Mar 27 2023 16:10:36 GMT-0400 (Eastern Daylight Time)","443715","3","1","","42","","","","choice","","img/2to1/1.png","2","180","254","0.5","0.5","2","3","",""
"animation","95","127875","0.0-5.0-2.45","62fd76d3f0824c29d4b1e6bd","bdp_cybrbll","Mon Mar 27 2023 16:10:36 GMT-0400 (Eastern Daylight Time)","443715","3","1","","","","","","","","","","180","","","","2","3","[{""stimulus"":""img/2to3/1.png"",""time"":105},{""stimulus"":""img/2to3/2.png"",""time"":211},{""stimulus"":""img/2to3/3.png"",""time"":299},{""stimulus"":""img/2to3/4.png"",""time"":398},{""stimulus"":""img/2to3/5.png"",""time"":504},{""stimulus"":""img/2to3/6.png"",""time"":602},{""stimulus"":""img/2to3/7.png"",""time"":702},{""stimulus"":""img/2to3/8.png"",""time"":797},{""stimulus"":""img/2to3/9.png"",""time"":903},{""stimulus"":""img/2to3/10.png"",""time"":994},{""stimulus"":""img/2to3/11.png"",""time"":1092},{""stimulus"":""img/2to3/12.png"",""time"":1198}]","[]"
"image-keyboard-response","96","128246","0.0-5.0-1.46","62fd76d3f0824c29d4b1e6bd","bdp_cybrbll","Mon Mar 27 2023 16:10:36 GMT-0400 (Eastern Daylight Time)","443715","3","1","","null","","","","observe","","img/3to2/1.png","null","179","367","0.5","0.5","3","2","",""
"animation","97","129541","0.0-5.0-2.46","62fd76d3f0824c29d4b1e6bd","bdp_cybrbll","Mon Mar 27 2023 16:10:36 GMT-0400 (Eastern Daylight Time)","443715","3","1","","","","","","","","","","179","","","","3","2","[{""stimulus"":""img/3to2/1.png"",""time"":103},{""stimulus"":""img/3to2/2.png"",""time"":209},{""stimulus"":""img/3to2/3.png"",""time"":307},{""stimulus"":""img/3to2/4.png"",""time"":404},{""stimulus"":""img/3to2/5.png"",""time"":502},{""stimulus"":""img/3to2/6.png"",""time"":609},{""stimulus"":""img/3to2/7.png"",""time"":698},{""stimulus"":""img/3to2/8.png"",""time"":797},{""stimulus"":""img/3to2/9.png"",""time"":894},{""stimulus"":""img/3to2/10.png"",""time"":993},{""stimulus"":""img/3to2/11.png"",""time"":1090},{""stimulus"":""img/3to2/12.png"",""time"":1191}]","[]"
"image-keyboard-response","98","130230","0.0-5.0-1.47","62fd76d3f0824c29d4b1e6bd","bdp_cybrbll","Mon Mar 27 2023 16:10:36 GMT-0400 (Eastern Daylight Time)","443715","3","1","","688","","","","choice","","img/2to1/1.png","1","178","551","0.5","0.5","2","1","",""
"animation","99","131525","0.0-5.0-2.47","62fd76d3f0824c29d4b1e6bd","bdp_cybrbll","Mon Mar 27 2023 16:10:36 GMT-0400 (Eastern Daylight Time)","443715","3","1","","","","","","","","","","178","","","","2","1","[{""stimulus"":""img/2to1/1.png"",""time"":101},{""stimulus"":""img/2to1/2.png"",""time"":200},{""stimulus"":""img/2to1/3.png"",""time"":306},{""stimulus"":""img/2to1/4.png"",""time"":406},{""stimulus"":""img/2to1/5.png"",""time"":502},{""stimulus"":""img/2to1/6.png"",""time"":602},{""stimulus"":""img/2to1/7.png"",""time"":701},{""stimulus"":""img/2to1/8.png"",""time"":795},{""stimulus"":""img/2to1/9.png"",""time"":892},{""stimulus"":""img/2to1/10.png"",""time"":991},{""stimulus"":""img/2to1/11.png"",""time"":1098},{""stimulus"":""img/2to1/12.png"",""time"":1196}]","[]"
"image-keyboard-response","100","132097","0.0-5.0-1.48","62fd76d3f0824c29d4b1e6bd","bdp_cybrbll","Mon Mar 27 2023 16:10:36 GMT-0400 (Eastern Daylight Time)","443715","3","1","","null","","","","observe","","img/1to3/1.png","null","177","569","0.5","0.5","1","2","",""
"animation","101","133389","0.0-5.0-2.48","62fd76d3f0824c29d4b1e6bd","bdp_cybrbll","Mon Mar 27 2023 16:10:36 GMT-0400 (Eastern Daylight Time)","443715","3","1","","","","","","","","","","177","","","","1","2","[{""stimulus"":""img/1to2/1.png"",""time"":106},{""stimulus"":""img/1to2/2.png"",""time"":204},{""stimulus"":""img/1to2/3.png"",""time"":305},{""stimulus"":""img/1to2/4.png"",""time"":397},{""stimulus"":""img/1to2/5.png"",""time"":501},{""stimulus"":""img/1to2/6.png"",""time"":598},{""stimulus"":""img/1to2/7.png"",""time"":700},{""stimulus"":""img/1to2/8.png"",""time"":800},{""stimulus"":""img/1to2/9.png"",""time"":893},{""stimulus"":""img/1to2/10.png"",""time"":992},{""stimulus"":""img/1to2/11.png"",""time"":1094},{""stimulus"":""img/1to2/12.png"",""time"":1193}]","[]"
"image-keyboard-response","102","133441","0.0-5.0-1.49","62fd76d3f0824c29d4b1e6bd","bdp_cybrbll","Mon Mar 27 2023 16:10:36 GMT-0400 (Eastern Daylight Time)","443715","3","1","","51","","","","choice","","img/2to1/1.png","2","176","715","0.5","0.5","2","3","",""
"animation","103","134730","0.0-5.0-2.49","62fd76d3f0824c29d4b1e6bd","bdp_cybrbll","Mon Mar 27 2023 16:10:36 GMT-0400 (Eastern Daylight Time)","443715","3","1","","","","","","","","","","176","","","","2","3","[{""stimulus"":""img/2to3/1.png"",""time"":106},{""stimulus"":""img/2to3/2.png"",""time"":209},{""stimulus"":""img/2to3/3.png"",""time"":301},{""stimulus"":""img/2to3/4.png"",""time"":402},{""stimulus"":""img/2to3/5.png"",""time"":498},{""stimulus"":""img/2to3/6.png"",""time"":596},{""stimulus"":""img/2to3/7.png"",""time"":696},{""stimulus"":""img/2to3/8.png"",""time"":797},{""stimulus"":""img/2to3/9.png"",""time"":895},{""stimulus"":""img/2to3/10.png"",""time"":993},{""stimulus"":""img/2to3/11.png"",""time"":1101},{""stimulus"":""img/2to3/12.png"",""time"":1192}]","[]"
"image-keyboard-response","104","135565","0.0-5.0-1.50","62fd76d3f0824c29d4b1e6bd","bdp_cybrbll","Mon Mar 27 2023 16:10:36 GMT-0400 (Eastern Daylight Time)","443715","3","1","","null","","","","observe","","img/3to2/1.png","null","175","819","0.5","0.5","3","2","",""
"animation","105","136858","0.0-5.0-2.50","62fd76d3f0824c29d4b1e6bd","bdp_cybrbll","Mon Mar 27 2023 16:10:36 GMT-0400 (Eastern Daylight Time)","443715","3","1","","","","","","","","","","175","","","","3","2","[{""stimulus"":""img/3to2/1.png"",""time"":110},{""stimulus"":""img/3to2/2.png"",""time"":201},{""stimulus"":""img/3to2/3.png"",""time"":309},{""stimulus"":""img/3to2/4.png"",""time"":400},{""stimulus"":""img/3to2/5.png"",""time"":498},{""stimulus"":""img/3to2/6.png"",""time"":597},{""stimulus"":""img/3to2/7.png"",""time"":694},{""stimulus"":""img/3to2/8.png"",""time"":800},{""stimulus"":""img/3to2/9.png"",""time"":894},{""stimulus"":""img/3to2/10.png"",""time"":991},{""stimulus"":""img/3to2/11.png"",""time"":1089},{""stimulus"":""img/3to2/12.png"",""time"":1203}]","[]"
"image-keyboard-response","106","137471","0.0-5.0-1.51","62fd76d3f0824c29d4b1e6bd","bdp_cybrbll","Mon Mar 27 2023 16:10:36 GMT-0400 (Eastern Daylight Time)","443715","3","1","","612","","","","choice","","img/2to1/1.png","1","174","429","0.5","0.5","2","1","",""
"animation","107","138760","0.0-5.0-2.51","62fd76d3f0824c29d4b1e6bd","bdp_cybrbll","Mon Mar 27 2023 16:10:36 GMT-0400 (Eastern Daylight Time)","443715","3","1","","","","","","","","","","174","","","","2","1","[{""stimulus"":""img/2to1/1.png"",""time"":109},{""stimulus"":""img/2to1/2.png"",""time"":205},{""stimulus"":""img/2to1/3.png"",""time"":303},{""stimulus"":""img/2to1/4.png"",""time"":401},{""stimulus"":""img/2to1/5.png"",""time"":499},{""stimulus"":""img/2to1/6.png"",""time"":597},{""stimulus"":""img/2to1/7.png"",""time"":695},{""stimulus"":""img/2to1/8.png"",""time"":802},{""stimulus"":""img/2to1/9.png"",""time"":896},{""stimulus"":""img/2to1/10.png"",""time"":1003},{""stimulus"":""img/2to1/11.png"",""time"":1092},{""stimulus"":""img/2to1/12.png"",""time"":1192}]","[]"
"image-keyboard-response","108","138968","0.0-5.0-1.52","62fd76d3f0824c29d4b1e6bd","bdp_cybrbll","Mon Mar 27 2023 16:10:36 GMT-0400 (Eastern Daylight Time)","443715","3","1","","null","","","","observe","","img/1to3/1.png","null","173","198","0.5","0.5","1","3","",""
"animation","109","140259","0.0-5.0-2.52","62fd76d3f0824c29d4b1e6bd","bdp_cybrbll","Mon Mar 27 2023 16:10:36 GMT-0400 (Eastern Daylight Time)","443715","3","1","","","","","","","","","","173","","","","1","3","[{""stimulus"":""img/1to3/1.png"",""time"":106},{""stimulus"":""img/1to3/2.png"",""time"":203},{""stimulus"":""img/1to3/3.png"",""time"":301},{""stimulus"":""img/1to3/4.png"",""time"":399},{""stimulus"":""img/1to3/5.png"",""time"":498},{""stimulus"":""img/1to3/6.png"",""time"":594},{""stimulus"":""img/1to3/7.png"",""time"":702},{""stimulus"":""img/1to3/8.png"",""time"":799},{""stimulus"":""img/1to3/9.png"",""time"":898},{""stimulus"":""img/1to3/10.png"",""time"":997},{""stimulus"":""img/1to3/11.png"",""time"":1095},{""stimulus"":""img/1to3/12.png"",""time"":1194}]","[]"
"image-keyboard-response","110","140658","0.0-5.0-1.53","62fd76d3f0824c29d4b1e6bd","bdp_cybrbll","Mon Mar 27 2023 16:10:36 GMT-0400 (Eastern Daylight Time)","443715","3","1","","null","","","","observe","","img/3to2/1.png","null","172","392","0.5","0.5","3","1","",""
"animation","111","141946","0.0-5.0-2.53","62fd76d3f0824c29d4b1e6bd","bdp_cybrbll","Mon Mar 27 2023 16:10:36 GMT-0400 (Eastern Daylight Time)","443715","3","1","","","","","","","","","","172","","","","3","1","[{""stimulus"":""img/3to1/1.png"",""time"":113},{""stimulus"":""img/3to1/2.png"",""time"":207},{""stimulus"":""img/3to1/3.png"",""time"":303},{""stimulus"":""img/3to1/4.png"",""time"":402},{""stimulus"":""img/3to1/5.png"",""time"":509},{""stimulus"":""img/3to1/6.png"",""time"":599},{""stimulus"":""img/3to1/7.png"",""time"":696},{""stimulus"":""img/3to1/8.png"",""time"":806},{""stimulus"":""img/3to1/9.png"",""time"":897},{""stimulus"":""img/3to1/10.png"",""time"":1003},{""stimulus"":""img/3to1/11.png"",""time"":1092},{""stimulus"":""img/3to1/12.png"",""time"":1216}]","[]"
"image-keyboard-response","112","142299","0.0-5.0-1.54","62fd76d3f0824c29d4b1e6bd","bdp_cybrbll","Mon Mar 27 2023 16:10:36 GMT-0400 (Eastern Daylight Time)","443715","3","1","","null","","","","observe","","img/1to3/1.png","null","171","345","0.5","0.5","1","2","",""
"animation","113","143591","0.0-5.0-2.54","62fd76d3f0824c29d4b1e6bd","bdp_cybrbll","Mon Mar 27 2023 16:10:36 GMT-0400 (Eastern Daylight Time)","443715","3","1","","","","","","","","","","171","","","","1","2","[{""stimulus"":""img/1to2/1.png"",""time"":101},{""stimulus"":""img/1to2/2.png"",""time"":200},{""stimulus"":""img/1to2/3.png"",""time"":299},{""stimulus"":""img/1to2/4.png"",""time"":400},{""stimulus"":""img/1to2/5.png"",""time"":499},{""stimulus"":""img/1to2/6.png"",""time"":595},{""stimulus"":""img/1to2/7.png"",""time"":695},{""stimulus"":""img/1to2/8.png"",""time"":794},{""stimulus"":""img/1to2/9.png"",""time"":896},{""stimulus"":""img/1to2/10.png"",""time"":994},{""stimulus"":""img/1to2/11.png"",""time"":1092},{""stimulus"":""img/1to2/12.png"",""time"":1191}]","[]"
"image-keyboard-response","114","143830","0.0-5.0-1.55","62fd76d3f0824c29d4b1e6bd","bdp_cybrbll","Mon Mar 27 2023 16:10:36 GMT-0400 (Eastern Daylight Time)","443715","3","1","","237","","","","choice","","img/2to1/1.png","2","170","849","0.5","0.5","2","3","",""
"animation","115","145133","0.0-5.0-2.55","62fd76d3f0824c29d4b1e6bd","bdp_cybrbll","Mon Mar 27 2023 16:10:36 GMT-0400 (Eastern Daylight Time)","443715","3","1","","","","","","","","","","170","","","","2","3","[{""stimulus"":""img/2to3/1.png"",""time"":107},{""stimulus"":""img/2to3/2.png"",""time"":203},{""stimulus"":""img/2to3/3.png"",""time"":301},{""stimulus"":""img/2to3/4.png"",""time"":402},{""stimulus"":""img/2to3/5.png"",""time"":499},{""stimulus"":""img/2to3/6.png"",""time"":596},{""stimulus"":""img/2to3/7.png"",""time"":694},{""stimulus"":""img/2to3/8.png"",""time"":800},{""stimulus"":""img/2to3/9.png"",""time"":892},{""stimulus"":""img/2to3/10.png"",""time"":1005},{""stimulus"":""img/2to3/11.png"",""time"":1096},{""stimulus"":""img/2to3/12.png"",""time"":1193}]","[]"
"image-keyboard-response","116","145343","0.0-5.0-1.56","62fd76d3f0824c29d4b1e6bd","bdp_cybrbll","Mon Mar 27 2023 16:10:36 GMT-0400 (Eastern Daylight Time)","443715","3","1","","null","","","","observe","","img/3to2/1.png","null","169","202","0.5","0.5","3","2","",""
"animation","117","146634","0.0-5.0-2.56","62fd76d3f0824c29d4b1e6bd","bdp_cybrbll","Mon Mar 27 2023 16:10:36 GMT-0400 (Eastern Daylight Time)","443715","3","1","","","","","","","","","","169","","","","3","2","[{""stimulus"":""img/3to2/1.png"",""time"":108},{""stimulus"":""img/3to2/2.png"",""time"":201},{""stimulus"":""img/3to2/3.png"",""time"":298},{""stimulus"":""img/3to2/4.png"",""time"":402},{""stimulus"":""img/3to2/5.png"",""time"":501},{""stimulus"":""img/3to2/6.png"",""time"":598},{""stimulus"":""img/3to2/7.png"",""time"":699},{""stimulus"":""img/3to2/8.png"",""time"":799},{""stimulus"":""img/3to2/9.png"",""time"":894},{""stimulus"":""img/3to2/10.png"",""time"":992},{""stimulus"":""img/3to2/11.png"",""time"":1092},{""stimulus"":""img/3to2/12.png"",""time"":1192}]","[]"
"image-keyboard-response","118","146890","0.0-5.0-1.57","62fd76d3f0824c29d4b1e6bd","bdp_cybrbll","Mon Mar 27 2023 16:10:36 GMT-0400 (Eastern Daylight Time)","443715","3","1","","254","","","","choice","","img/2to1/1.png","1","168","344","0.5","0.5","2","1","",""
"animation","119","148179","0.0-5.0-2.57","62fd76d3f0824c29d4b1e6bd","bdp_cybrbll","Mon Mar 27 2023 16:10:36 GMT-0400 (Eastern Daylight Time)","443715","3","1","","","","","","","","","","168","","","","2","1","[{""stimulus"":""img/2to1/1.png"",""time"":104},{""stimulus"":""img/2to1/2.png"",""time"":203},{""stimulus"":""img/2to1/3.png"",""time"":304},{""stimulus"":""img/2to1/4.png"",""time"":411},{""stimulus"":""img/2to1/5.png"",""time"":501},{""stimulus"":""img/2to1/6.png"",""time"":601},{""stimulus"":""img/2to1/7.png"",""time"":701},{""stimulus"":""img/2to1/8.png"",""time"":798},{""stimulus"":""img/2to1/9.png"",""time"":895},{""stimulus"":""img/2to1/10.png"",""time"":993},{""stimulus"":""img/2to1/11.png"",""time"":1094},{""stimulus"":""img/2to1/12.png"",""time"":1198}]","[]"
"image-keyboard-response","120","149510","0.0-5.0-1.58","62fd76d3f0824c29d4b1e6bd","bdp_cybrbll","Mon Mar 27 2023 16:10:36 GMT-0400 (Eastern Daylight Time)","443715","3","1","","null","","","","observe","","img/1to3/1.png","null","167","1324","0.5","0.5","1","3","",""
"animation","121","150802","0.0-5.0-2.58","62fd76d3f0824c29d4b1e6bd","bdp_cybrbll","Mon Mar 27 2023 16:10:36 GMT-0400 (Eastern Daylight Time)","443715","3","1","","","","","","","","","","167","","","","1","3","[{""stimulus"":""img/1to3/1.png"",""time"":103},{""stimulus"":""img/1to3/2.png"",""time"":209},{""stimulus"":""img/1to3/3.png"",""time"":300},{""stimulus"":""img/1to3/4.png"",""time"":399},{""stimulus"":""img/1to3/5.png"",""time"":503},{""stimulus"":""img/1to3/6.png"",""time"":600},{""stimulus"":""img/1to3/7.png"",""time"":708},{""stimulus"":""img/1to3/8.png"",""time"":805},{""stimulus"":""img/1to3/9.png"",""time"":897},{""stimulus"":""img/1to3/10.png"",""time"":995},{""stimulus"":""img/1to3/11.png"",""time"":1093},{""stimulus"":""img/1to3/12.png"",""time"":1195}]","[]"
"image-keyboard-response","122","151048","0.0-5.0-1.59","62fd76d3f0824c29d4b1e6bd","bdp_cybrbll","Mon Mar 27 2023 16:10:36 GMT-0400 (Eastern Daylight Time)","443715","3","1","","null","","","","observe","","img/3to2/1.png","null","166","239","0.5","0.5","3","2","",""
"animation","123","152338","0.0-5.0-2.59","62fd76d3f0824c29d4b1e6bd","bdp_cybrbll","Mon Mar 27 2023 16:10:36 GMT-0400 (Eastern Daylight Time)","443715","3","1","","","","","","","","","","166","","","","3","2","[{""stimulus"":""img/3to2/1.png"",""time"":101},{""stimulus"":""img/3to2/2.png"",""time"":201},{""stimulus"":""img/3to2/3.png"",""time"":302},{""stimulus"":""img/3to2/4.png"",""time"":408},{""stimulus"":""img/3to2/5.png"",""time"":501},{""stimulus"":""img/3to2/6.png"",""time"":601},{""stimulus"":""img/3to2/7.png"",""time"":694},{""stimulus"":""img/3to2/8.png"",""time"":800},{""stimulus"":""img/3to2/9.png"",""time"":899},{""stimulus"":""img/3to2/10.png"",""time"":992},{""stimulus"":""img/3to2/11.png"",""time"":1091},{""stimulus"":""img/3to2/12.png"",""time"":1191}]","[]"
"image-keyboard-response","124","152647","0.0-5.0-1.60","62fd76d3f0824c29d4b1e6bd","bdp_cybrbll","Mon Mar 27 2023 16:10:36 GMT-0400 (Eastern Daylight Time)","443715","3","1","","308","","","","choice","","img/2to1/1.png","1","165","616","0.5","0.5","2","1","",""
"animation","125","153940","0.0-5.0-2.60","62fd76d3f0824c29d4b1e6bd","bdp_cybrbll","Mon Mar 27 2023 16:10:36 GMT-0400 (Eastern Daylight Time)","443715","3","1","","","","","","","","","","165","","","","2","1","[{""stimulus"":""img/2to1/1.png"",""time"":108},{""stimulus"":""img/2to1/2.png"",""time"":215},{""stimulus"":""img/2to1/3.png"",""time"":305},{""stimulus"":""img/2to1/4.png"",""time"":428},{""stimulus"":""img/2to1/5.png"",""time"":504},{""stimulus"":""img/2to1/6.png"",""time"":604},{""stimulus"":""img/2to1/7.png"",""time"":701},{""stimulus"":""img/2to1/8.png"",""time"":794},{""stimulus"":""img/2to1/9.png"",""time"":893},{""stimulus"":""img/2to1/10.png"",""time"":993},{""stimulus"":""img/2to1/11.png"",""time"":1094},{""stimulus"":""img/2to1/12.png"",""time"":1195}]","[]"
"image-keyboard-response","126","154143","0.0-5.0-1.61","62fd76d3f0824c29d4b1e6bd","bdp_cybrbll","Mon Mar 27 2023 16:10:36 GMT-0400 (Eastern Daylight Time)","443715","3","1","","null","","","","observe","","img/1to3/1.png","null","164","197","0.5","0.5","1","3","",""
"animation","127","155432","0.0-5.0-2.61","62fd76d3f0824c29d4b1e6bd","bdp_cybrbll","Mon Mar 27 2023 16:10:36 GMT-0400 (Eastern Daylight Time)","443715","3","1","","","","","","","","","","164","","","","1","3","[{""stimulus"":""img/1to3/1.png"",""time"":104},{""stimulus"":""img/1to3/2.png"",""time"":202},{""stimulus"":""img/1to3/3.png"",""time"":302},{""stimulus"":""img/1to3/4.png"",""time"":399},{""stimulus"":""img/1to3/5.png"",""time"":500},{""stimulus"":""img/1to3/6.png"",""time"":606},{""stimulus"":""img/1to3/7.png"",""time"":697},{""stimulus"":""img/1to3/8.png"",""time"":794},{""stimulus"":""img/1to3/9.png"",""time"":895},{""stimulus"":""img/1to3/10.png"",""time"":995},{""stimulus"":""img/1to3/11.png"",""time"":1097},{""stimulus"":""img/1to3/12.png"",""time"":1196}]","[]"
"image-keyboard-response","128","156227","0.0-5.0-1.62","62fd76d3f0824c29d4b1e6bd","bdp_cybrbll","Mon Mar 27 2023 16:10:36 GMT-0400 (Eastern Daylight Time)","443715","3","1","","null","","","","observe","","img/3to2/1.png","null","163","785","0.5","0.5","3","2","",""
"animation","129","157522","0.0-5.0-2.62","62fd76d3f0824c29d4b1e6bd","bdp_cybrbll","Mon Mar 27 2023 16:10:36 GMT-0400 (Eastern Daylight Time)","443715","3","1","","","","","","","","","","163","","","","3","2","[{""stimulus"":""img/3to2/1.png"",""time"":101},{""stimulus"":""img/3to2/2.png"",""time"":203},{""stimulus"":""img/3to2/3.png"",""time"":300},{""stimulus"":""img/3to2/4.png"",""time"":400},{""stimulus"":""img/3to2/5.png"",""time"":498},{""stimulus"":""img/3to2/6.png"",""time"":598},{""stimulus"":""img/3to2/7.png"",""time"":698},{""stimulus"":""img/3to2/8.png"",""time"":796},{""stimulus"":""img/3to2/9.png"",""time"":906},{""stimulus"":""img/3to2/10.png"",""time"":996},{""stimulus"":""img/3to2/11.png"",""time"":1095},{""stimulus"":""img/3to2/12.png"",""time"":1197}]","[]"
"image-keyboard-response","130","157542","0.0-5.0-1.63","62fd76d3f0824c29d4b1e6bd","bdp_cybrbll","Mon Mar 27 2023 16:10:36 GMT-0400 (Eastern Daylight Time)","443715","3","1","","19","","","","choice","","img/2to1/1.png","2","162","366","0.5","0.5","2","3","",""
"animation","131","158837","0.0-5.0-2.63","62fd76d3f0824c29d4b1e6bd","bdp_cybrbll","Mon Mar 27 2023 16:10:36 GMT-0400 (Eastern Daylight Time)","443715","3","1","","","","","","","","","","162","","","","2","3","[{""stimulus"":""img/2to3/1.png"",""time"":103},{""stimulus"":""img/2to3/2.png"",""time"":215},{""stimulus"":""img/2to3/3.png"",""time"":312},{""stimulus"":""img/2to3/4.png"",""time"":402},{""stimulus"":""img/2to3/5.png"",""time"":499},{""stimulus"":""img/2to3/6.png"",""time"":605},{""stimulus"":""img/2to3/7.png"",""time"":697},{""stimulus"":""img/2to3/8.png"",""time"":795},{""stimulus"":""img/2to3/9.png"",""time"":893},{""stimulus"":""img/2to3/10.png"",""time"":992},{""stimulus"":""img/2to3/11.png"",""time"":1090},{""stimulus"":""img/2to3/12.png"",""time"":1198}]","[]"
"image-keyboard-response","132","159720","0.0-5.0-1.64","62fd76d3f0824c29d4b1e6bd","bdp_cybrbll","Mon Mar 27 2023 16:10:36 GMT-0400 (Eastern Daylight Time)","443715","3","1","","null","","","","observe","","img/3to2/1.png","null","161","881","0.5","0.5","3","2","",""
"animation","133","161009","0.0-5.0-2.64","62fd76d3f0824c29d4b1e6bd","bdp_cybrbll","Mon Mar 27 2023 16:10:36 GMT-0400 (Eastern Daylight Time)","443715","3","1","","","","","","","","","","161","","","","3","2","[{""stimulus"":""img/3to2/1.png"",""time"":103},{""stimulus"":""img/3to2/2.png"",""time"":204},{""stimulus"":""img/3to2/3.png"",""time"":300},{""stimulus"":""img/3to2/4.png"",""time"":399},{""stimulus"":""img/3to2/5.png"",""time"":499},{""stimulus"":""img/3to2/6.png"",""time"":609},{""stimulus"":""img/3to2/7.png"",""time"":702},{""stimulus"":""img/3to2/8.png"",""time"":801},{""stimulus"":""img/3to2/9.png"",""time"":900},{""stimulus"":""img/3to2/10.png"",""time"":998},{""stimulus"":""img/3to2/11.png"",""time"":1098},{""stimulus"":""img/3to2/12.png"",""time"":1197}]","[]"
"image-keyboard-response","134","161186","0.0-5.0-1.65","62fd76d3f0824c29d4b1e6bd","bdp_cybrbll","Mon Mar 27 2023 16:10:36 GMT-0400 (Eastern Daylight Time)","443715","3","1","","176","","","","choice","","img/2to1/1.png","1","160","471","0.5","0.5","2","1","",""
"animation","135","162485","0.0-5.0-2.65","62fd76d3f0824c29d4b1e6bd","bdp_cybrbll","Mon Mar 27 2023 16:10:36 GMT-0400 (Eastern Daylight Time)","443715","3","1","","","","","","","","","","160","","","","2","1","[{""stimulus"":""img/2to1/1.png"",""time"":106},{""stimulus"":""img/2to1/2.png"",""time"":205},{""stimulus"":""img/2to1/3.png"",""time"":298},{""stimulus"":""img/2to1/4.png"",""time"":403},{""stimulus"":""img/2to1/5.png"",""time"":500},{""stimulus"":""img/2to1/6.png"",""time"":600},{""stimulus"":""img/2to1/7.png"",""time"":707},{""stimulus"":""img/2to1/8.png"",""time"":797},{""stimulus"":""img/2to1/9.png"",""time"":898},{""stimulus"":""img/2to1/10.png"",""time"":995},{""stimulus"":""img/2to1/11.png"",""time"":1096},{""stimulus"":""img/2to1/12.png"",""time"":1190}]","[]"
"image-keyboard-response","136","163325","0.0-5.0-1.66","62fd76d3f0824c29d4b1e6bd","bdp_cybrbll","Mon Mar 27 2023 16:10:36 GMT-0400 (Eastern Daylight Time)","443715","3","1","","null","","","","observe","","img/1to3/1.png","null","159","837","0.5","0.5","1","3","",""
"animation","137","164617","0.0-5.0-2.66","62fd76d3f0824c29d4b1e6bd","bdp_cybrbll","Mon Mar 27 2023 16:10:36 GMT-0400 (Eastern Daylight Time)","443715","3","1","","","","","","","","","","159","","","","1","3","[{""stimulus"":""img/1to3/1.png"",""time"":102},{""stimulus"":""img/1to3/2.png"",""time"":210},{""stimulus"":""img/1to3/3.png"",""time"":305},{""stimulus"":""img/1to3/4.png"",""time"":412},{""stimulus"":""img/1to3/5.png"",""time"":497},{""stimulus"":""img/1to3/6.png"",""time"":602},{""stimulus"":""img/1to3/7.png"",""time"":702},{""stimulus"":""img/1to3/8.png"",""time"":801},{""stimulus"":""img/1to3/9.png"",""time"":892},{""stimulus"":""img/1to3/10.png"",""time"":992},{""stimulus"":""img/1to3/11.png"",""time"":1091},{""stimulus"":""img/1to3/12.png"",""time"":1201}]","[]"
"image-keyboard-response","138","165363","0.0-5.0-1.67","62fd76d3f0824c29d4b1e6bd","bdp_cybrbll","Mon Mar 27 2023 16:10:36 GMT-0400 (Eastern Daylight Time)","443715","3","1","","null","","","","observe","","img/3to2/1.png","null","158","736","0.5","0.5","3","2","",""
"animation","139","166655","0.0-5.0-2.67","62fd76d3f0824c29d4b1e6bd","bdp_cybrbll","Mon Mar 27 2023 16:10:36 GMT-0400 (Eastern Daylight Time)","443715","3","1","","","","","","","","","","158","","","","3","2","[{""stimulus"":""img/3to2/1.png"",""time"":102},{""stimulus"":""img/3to2/2.png"",""time"":203},{""stimulus"":""img/3to2/3.png"",""time"":301},{""stimulus"":""img/3to2/4.png"",""time"":401},{""stimulus"":""img/3to2/5.png"",""time"":500},{""stimulus"":""img/3to2/6.png"",""time"":598},{""stimulus"":""img/3to2/7.png"",""time"":694},{""stimulus"":""img/3to2/8.png"",""time"":793},{""stimulus"":""img/3to2/9.png"",""time"":894},{""stimulus"":""img/3to2/10.png"",""time"":992},{""stimulus"":""img/3to2/11.png"",""time"":1103},{""stimulus"":""img/3to2/12.png"",""time"":1194}]","[]"
"image-keyboard-response","140","166706","0.0-5.0-1.68","62fd76d3f0824c29d4b1e6bd","bdp_cybrbll","Mon Mar 27 2023 16:10:36 GMT-0400 (Eastern Daylight Time)","443715","3","1","","49","","","","choice","","img/2to1/1.png","2","157","835","0.5","0.5","2","3","",""
"animation","141","167999","0.0-5.0-2.68","62fd76d3f0824c29d4b1e6bd","bdp_cybrbll","Mon Mar 27 2023 16:10:36 GMT-0400 (Eastern Daylight Time)","443715","3","1","","","","","","","","","","157","","","","2","3","[{""stimulus"":""img/2to3/1.png"",""time"":101},{""stimulus"":""img/2to3/2.png"",""time"":199},{""stimulus"":""img/2to3/3.png"",""time"":298},{""stimulus"":""img/2to3/4.png"",""time"":404},{""stimulus"":""img/2to3/5.png"",""time"":504},{""stimulus"":""img/2to3/6.png"",""time"":601},{""stimulus"":""img/2to3/7.png"",""time"":694},{""stimulus"":""img/2to3/8.png"",""time"":800},{""stimulus"":""img/2to3/9.png"",""time"":898},{""stimulus"":""img/2to3/10.png"",""time"":996},{""stimulus"":""img/2to3/11.png"",""time"":1094},{""stimulus"":""img/2to3/12.png"",""time"":1195}]","[]"
"image-keyboard-response","142","168378","0.0-5.0-1.69","62fd76d3f0824c29d4b1e6bd","bdp_cybrbll","Mon Mar 27 2023 16:10:36 GMT-0400 (Eastern Daylight Time)","443715","3","1","","null","","","","observe","","img/3to2/1.png","null","156","375","0.5","0.5","3","2","",""
"animation","143","169670","0.0-5.0-2.69","62fd76d3f0824c29d4b1e6bd","bdp_cybrbll","Mon Mar 27 2023 16:10:36 GMT-0400 (Eastern Daylight Time)","443715","3","1","","","","","","","","","","156","","","","3","2","[{""stimulus"":""img/3to2/1.png"",""time"":106},{""stimulus"":""img/3to2/2.png"",""time"":199},{""stimulus"":""img/3to2/3.png"",""time"":309},{""stimulus"":""img/3to2/4.png"",""time"":402},{""stimulus"":""img/3to2/5.png"",""time"":501},{""stimulus"":""img/3to2/6.png"",""time"":604},{""stimulus"":""img/3to2/7.png"",""time"":698},{""stimulus"":""img/3to2/8.png"",""time"":796},{""stimulus"":""img/3to2/9.png"",""time"":905},{""stimulus"":""img/3to2/10.png"",""time"":994},{""stimulus"":""img/3to2/11.png"",""time"":1093},{""stimulus"":""img/3to2/12.png"",""time"":1194}]","[]"
"image-keyboard-response","144","170045","0.0-5.0-1.70","62fd76d3f0824c29d4b1e6bd","bdp_cybrbll","Mon Mar 27 2023 16:10:36 GMT-0400 (Eastern Daylight Time)","443715","3","1","","373","","","","choice","","img/2to1/1.png","1","155","765","0.5","0.5","2","1","",""
"animation","145","171337","0.0-5.0-2.70","62fd76d3f0824c29d4b1e6bd","bdp_cybrbll","Mon Mar 27 2023 16:10:36 GMT-0400 (Eastern Daylight Time)","443715","3","1","","","","","","","","","","155","","","","2","1","[{""stimulus"":""img/2to1/1.png"",""time"":103},{""stimulus"":""img/2to1/2.png"",""time"":205},{""stimulus"":""img/2to1/3.png"",""time"":304},{""stimulus"":""img/2to1/4.png"",""time"":404},{""stimulus"":""img/2to1/5.png"",""time"":503},{""stimulus"":""img/2to1/6.png"",""time"":603},{""stimulus"":""img/2to1/7.png"",""time"":702},{""stimulus"":""img/2to1/8.png"",""time"":793},{""stimulus"":""img/2to1/9.png"",""time"":900},{""stimulus"":""img/2to1/10.png"",""time"":991},{""stimulus"":""img/2to1/11.png"",""time"":1096},{""stimulus"":""img/2to1/12.png"",""time"":1195}]","[]"
"image-keyboard-response","146","171668","0.0-5.0-1.71","62fd76d3f0824c29d4b1e6bd","bdp_cybrbll","Mon Mar 27 2023 16:10:36 GMT-0400 (Eastern Daylight Time)","443715","3","1","","null","","","","observe","","img/1to3/1.png","null","154","322","0.5","0.5","1","3","",""
"animation","147","172961","0.0-5.0-2.71","62fd76d3f0824c29d4b1e6bd","bdp_cybrbll","Mon Mar 27 2023 16:10:36 GMT-0400 (Eastern Daylight Time)","443715","3","1","","","","","","","","","","154","","","","1","3","[{""stimulus"":""img/1to3/1.png"",""time"":104},{""stimulus"":""img/1to3/2.png"",""time"":207},{""stimulus"":""img/1to3/3.png"",""time"":301},{""stimulus"":""img/1to3/4.png"",""time"":403},{""stimulus"":""img/1to3/5.png"",""time"":501},{""stimulus"":""img/1to3/6.png"",""time"":600},{""stimulus"":""img/1to3/7.png"",""time"":707},{""stimulus"":""img/1to3/8.png"",""time"":798},{""stimulus"":""img/1to3/9.png"",""time"":898},{""stimulus"":""img/1to3/10.png"",""time"":1007},{""stimulus"":""img/1to3/11.png"",""time"":1097},{""stimulus"":""img/1to3/12.png"",""time"":1195}]","[]"
"image-keyboard-response","148","174773","0.0-5.0-1.72","62fd76d3f0824c29d4b1e6bd","bdp_cybrbll","Mon Mar 27 2023 16:10:36 GMT-0400 (Eastern Daylight Time)","443715","3","1","","null","","","","observe","","img/3to2/1.png","null","153","1805","0.5","0.5","3","2","",""
"animation","149","176067","0.0-5.0-2.72","62fd76d3f0824c29d4b1e6bd","bdp_cybrbll","Mon Mar 27 2023 16:10:36 GMT-0400 (Eastern Daylight Time)","443715","3","1","","","","","","","","","","153","","","","3","2","[{""stimulus"":""img/3to2/1.png"",""time"":115},{""stimulus"":""img/3to2/2.png"",""time"":205},{""stimulus"":""img/3to2/3.png"",""time"":300},{""stimulus"":""img/3to2/4.png"",""time"":402},{""stimulus"":""img/3to2/5.png"",""time"":511},{""stimulus"":""img/3to2/6.png"",""time"":602},{""stimulus"":""img/3to2/7.png"",""time"":700},{""stimulus"":""img/3to2/8.png"",""time"":797},{""stimulus"":""img/3to2/9.png"",""time"":894},{""stimulus"":""img/3to2/10.png"",""time"":998},{""stimulus"":""img/3to2/11.png"",""time"":1097},{""stimulus"":""img/3to2/12.png"",""time"":1196}]","[]"
"image-keyboard-response","150","176254","0.0-5.0-1.73","62fd76d3f0824c29d4b1e6bd","bdp_cybrbll","Mon Mar 27 2023 16:10:36 GMT-0400 (Eastern Daylight Time)","443715","3","1","","184","","","","choice","","img/2to1/1.png","2","152","254","0.5","0.5","2","3","",""
"animation","151","177543","0.0-5.0-2.73","62fd76d3f0824c29d4b1e6bd","bdp_cybrbll","Mon Mar 27 2023 16:10:36 GMT-0400 (Eastern Daylight Time)","443715","3","1","","","","","","","","","","152","","","","2","3","[{""stimulus"":""img/2to3/1.png"",""time"":106},{""stimulus"":""img/2to3/2.png"",""time"":206},{""stimulus"":""img/2to3/3.png"",""time"":302},{""stimulus"":""img/2to3/4.png"",""time"":403},{""stimulus"":""img/2to3/5.png"",""time"":499},{""stimulus"":""img/2to3/6.png"",""time"":600},{""stimulus"":""img/2to3/7.png"",""time"":698},{""stimulus"":""img/2to3/8.png"",""time"":811},{""stimulus"":""img/2to3/9.png"",""time"":897},{""stimulus"":""img/2to3/10.png"",""time"":999},{""stimulus"":""img/2to3/11.png"",""time"":1090},{""stimulus"":""img/2to3/12.png"",""time"":1190}]","[]"
"image-keyboard-response","152","179180","0.0-5.0-1.74","62fd76d3f0824c29d4b1e6bd","bdp_cybrbll","Mon Mar 27 2023 16:10:36 GMT-0400 (Eastern Daylight Time)","443715","3","1","","null","","","","observe","","img/3to2/1.png","null","151","1632","0.5","0.5","3","1","",""
"animation","153","180481","0.0-5.0-2.74","62fd76d3f0824c29d4b1e6bd","bdp_cybrbll","Mon Mar 27 2023 16:10:36 GMT-0400 (Eastern Daylight Time)","443715","3","1","","","","","","","","","","151","","","","3","1","[{""stimulus"":""img/3to1/1.png"",""time"":105},{""stimulus"":""img/3to1/2.png"",""time"":202},{""stimulus"":""img/3to1/3.png"",""time"":299},{""stimulus"":""img/3to1/4.png"",""time"":398},{""stimulus"":""img/3to1/5.png"",""time"":503},{""stimulus"":""img/3to1/6.png"",""time"":603},{""stimulus"":""img/3to1/7.png"",""time"":700},{""stimulus"":""img/3to1/8.png"",""time"":797},{""stimulus"":""img/3to1/9.png"",""time"":895},{""stimulus"":""img/3to1/10.png"",""time"":996},{""stimulus"":""img/3to1/11.png"",""time"":1103},{""stimulus"":""img/3to1/12.png"",""time"":1194}]","[]"
"image-keyboard-response","154","180834","0.0-5.0-1.75","62fd76d3f0824c29d4b1e6bd","bdp_cybrbll","Mon Mar 27 2023 16:10:36 GMT-0400 (Eastern Daylight Time)","443715","3","1","","null","","","","observe","","img/1to3/1.png","null","150","350","0.5","0.5","1","2","",""
"animation","155","182125","0.0-5.0-2.75","62fd76d3f0824c29d4b1e6bd","bdp_cybrbll","Mon Mar 27 2023 16:10:36 GMT-0400 (Eastern Daylight Time)","443715","3","1","","","","","","","","","","150","","","","1","2","[{""stimulus"":""img/1to2/1.png"",""time"":106},{""stimulus"":""img/1to2/2.png"",""time"":201},{""stimulus"":""img/1to2/3.png"",""time"":305},{""stimulus"":""img/1to2/4.png"",""time"":397},{""stimulus"":""img/1to2/5.png"",""time"":497},{""stimulus"":""img/1to2/6.png"",""time"":596},{""stimulus"":""img/1to2/7.png"",""time"":695},{""stimulus"":""img/1to2/8.png"",""time"":801},{""stimulus"":""img/1to2/9.png"",""time"":893},{""stimulus"":""img/1to2/10.png"",""time"":992},{""stimulus"":""img/1to2/11.png"",""time"":1092},{""stimulus"":""img/1to2/12.png"",""time"":1191}]","[]"
"image-keyboard-response","156","182325","0.0-5.0-1.76","62fd76d3f0824c29d4b1e6bd","bdp_cybrbll","Mon Mar 27 2023 16:10:36 GMT-0400 (Eastern Daylight Time)","443715","3","1","","198","","","","choice","","img/2to1/1.png","2","149","358","0.5","0.1","2","3","",""
"animation","157","183616","0.0-5.0-2.76","62fd76d3f0824c29d4b1e6bd","bdp_cybrbll","Mon Mar 27 2023 16:10:36 GMT-0400 (Eastern Daylight Time)","443715","3","1","","","","","","","","","","149","","","","2","3","[{""stimulus"":""img/2to3/1.png"",""time"":102},{""stimulus"":""img/2to3/2.png"",""time"":213},{""stimulus"":""img/2to3/3.png"",""time"":303},{""stimulus"":""img/2to3/4.png"",""time"":402},{""stimulus"":""img/2to3/5.png"",""time"":501},{""stimulus"":""img/2to3/6.png"",""time"":595},{""stimulus"":""img/2to3/7.png"",""time"":694},{""stimulus"":""img/2to3/8.png"",""time"":797},{""stimulus"":""img/2to3/9.png"",""time"":899},{""stimulus"":""img/2to3/10.png"",""time"":992},{""stimulus"":""img/2to3/11.png"",""time"":1096},{""stimulus"":""img/2to3/12.png"",""time"":1198}]","[]"
"image-keyboard-response","158","184140","0.0-5.0-1.77","62fd76d3f0824c29d4b1e6bd","bdp_cybrbll","Mon Mar 27 2023 16:10:36 GMT-0400 (Eastern Daylight Time)","443715","3","1","","null","","","","observe","","img/3to2/1.png","null","148","513","0.5","0.1","3","1","",""
"animation","159","185436","0.0-5.0-2.77","62fd76d3f0824c29d4b1e6bd","bdp_cybrbll","Mon Mar 27 2023 16:10:36 GMT-0400 (Eastern Daylight Time)","443715","3","1","","","","","","","","","","148","","","","3","1","[{""stimulus"":""img/3to1/1.png"",""time"":100},{""stimulus"":""img/3to1/2.png"",""time"":200},{""stimulus"":""img/3to1/3.png"",""time"":298},{""stimulus"":""img/3to1/4.png"",""time"":400},{""stimulus"":""img/3to1/5.png"",""time"":500},{""stimulus"":""img/3to1/6.png"",""time"":599},{""stimulus"":""img/3to1/7.png"",""time"":700},{""stimulus"":""img/3to1/8.png"",""time"":801},{""stimulus"":""img/3to1/9.png"",""time"":892},{""stimulus"":""img/3to1/10.png"",""time"":996},{""stimulus"":""img/3to1/11.png"",""time"":1099},{""stimulus"":""img/3to1/12.png"",""time"":1196}]","[]"
"image-keyboard-response","160","185927","0.0-5.0-1.78","62fd76d3f0824c29d4b1e6bd","bdp_cybrbll","Mon Mar 27 2023 16:10:36 GMT-0400 (Eastern Daylight Time)","443715","3","1","","null","","","","observe","","img/1to3/1.png","null","147","488","0.5","0.1","1","3","",""
"animation","161","187219","0.0-5.0-2.78","62fd76d3f0824c29d4b1e6bd","bdp_cybrbll","Mon Mar 27 2023 16:10:36 GMT-0400 (Eastern Daylight Time)","443715","3","1","","","","","","","","","","147","","","","1","3","[{""stimulus"":""img/1to3/1.png"",""time"":108},{""stimulus"":""img/1to3/2.png"",""time"":204},{""stimulus"":""img/1to3/3.png"",""time"":299},{""stimulus"":""img/1to3/4.png"",""time"":397},{""stimulus"":""img/1to3/5.png"",""time"":505},{""stimulus"":""img/1to3/6.png"",""time"":603},{""stimulus"":""img/1to3/7.png"",""time"":694},{""stimulus"":""img/1to3/8.png"",""time"":800},{""stimulus"":""img/1to3/9.png"",""time"":899},{""stimulus"":""img/1to3/10.png"",""time"":998},{""stimulus"":""img/1to3/11.png"",""time"":1104},{""stimulus"":""img/1to3/12.png"",""time"":1196}]","[]"
"image-keyboard-response","162","187836","0.0-5.0-1.79","62fd76d3f0824c29d4b1e6bd","bdp_cybrbll","Mon Mar 27 2023 16:10:36 GMT-0400 (Eastern Daylight Time)","443715","3","1","","null","","","","observe","","img/3to2/1.png","null","146","607","0.5","0.1","3","2","",""
"animation","163","189129","0.0-5.0-2.79","62fd76d3f0824c29d4b1e6bd","bdp_cybrbll","Mon Mar 27 2023 16:10:36 GMT-0400 (Eastern Daylight Time)","443715","3","1","","","","","","","","","","146","","","","3","2","[{""stimulus"":""img/3to2/1.png"",""time"":102},{""stimulus"":""img/3to2/2.png"",""time"":208},{""stimulus"":""img/3to2/3.png"",""time"":297},{""stimulus"":""img/3to2/4.png"",""time"":396},{""stimulus"":""img/3to2/5.png"",""time"":496},{""stimulus"":""img/3to2/6.png"",""time"":597},{""stimulus"":""img/3to2/7.png"",""time"":694},{""stimulus"":""img/3to2/8.png"",""time"":800},{""stimulus"":""img/3to2/9.png"",""time"":897},{""stimulus"":""img/3to2/10.png"",""time"":996},{""stimulus"":""img/3to2/11.png"",""time"":1095},{""stimulus"":""img/3to2/12.png"",""time"":1195}]","[]"
"image-keyboard-response","164","189499","0.0-5.0-1.80","62fd76d3f0824c29d4b1e6bd","bdp_cybrbll","Mon Mar 27 2023 16:10:36 GMT-0400 (Eastern Daylight Time)","443715","3","1","","368","","","","choice","","img/2to1/1.png","1","145","500","0.5","0.1","2","1","",""
"animation","165","190793","0.0-5.0-2.80","62fd76d3f0824c29d4b1e6bd","bdp_cybrbll","Mon Mar 27 2023 16:10:36 GMT-0400 (Eastern Daylight Time)","443715","3","1","","","","","","","","","","145","","","","2","1","[{""stimulus"":""img/2to1/1.png"",""time"":104},{""stimulus"":""img/2to1/2.png"",""time"":210},{""stimulus"":""img/2to1/3.png"",""time"":302},{""stimulus"":""img/2to1/4.png"",""time"":400},{""stimulus"":""img/2to1/5.png"",""time"":503},{""stimulus"":""img/2to1/6.png"",""time"":602},{""stimulus"":""img/2to1/7.png"",""time"":701},{""stimulus"":""img/2to1/8.png"",""time"":799},{""stimulus"":""img/2to1/9.png"",""time"":899},{""stimulus"":""img/2to1/10.png"",""time"":996},{""stimulus"":""img/2to1/11.png"",""time"":1090},{""stimulus"":""img/2to1/12.png"",""time"":1197}]","[]"
"image-keyboard-response","166","190996","0.0-5.0-1.81","62fd76d3f0824c29d4b1e6bd","bdp_cybrbll","Mon Mar 27 2023 16:10:36 GMT-0400 (Eastern Daylight Time)","443715","3","1","","null","","","","observe","","img/1to3/1.png","null","144","197","0.5","0.1","1","3","",""
"animation","167","192285","0.0-5.0-2.81","62fd76d3f0824c29d4b1e6bd","bdp_cybrbll","Mon Mar 27 2023 16:10:36 GMT-0400 (Eastern Daylight Time)","443715","3","1","","","","","","","","","","144","","","","1","3","[{""stimulus"":""img/1to3/1.png"",""time"":108},{""stimulus"":""img/1to3/2.png"",""time"":217},{""stimulus"":""img/1to3/3.png"",""time"":300},{""stimulus"":""img/1to3/4.png"",""time"":408},{""stimulus"":""img/1to3/5.png"",""time"":498},{""stimulus"":""img/1to3/6.png"",""time"":601},{""stimulus"":""img/1to3/7.png"",""time"":697},{""stimulus"":""img/1to3/8.png"",""time"":809},{""stimulus"":""img/1to3/9.png"",""time"":899},{""stimulus"":""img/1to3/10.png"",""time"":993},{""stimulus"":""img/1to3/11.png"",""time"":1092},{""stimulus"":""img/1to3/12.png"",""time"":1198}]","[]"
"image-keyboard-response","168","192574","0.0-5.0-1.82","62fd76d3f0824c29d4b1e6bd","bdp_cybrbll","Mon Mar 27 2023 16:10:36 GMT-0400 (Eastern Daylight Time)","443715","3","1","","null","","","","observe","","img/3to2/1.png","null","143","284","0.5","0.1","3","2","",""
"animation","169","193862","0.0-5.0-2.82","62fd76d3f0824c29d4b1e6bd","bdp_cybrbll","Mon Mar 27 2023 16:10:36 GMT-0400 (Eastern Daylight Time)","443715","3","1","","","","","","","","","","143","","","","3","2","[{""stimulus"":""img/3to2/1.png"",""time"":109},{""stimulus"":""img/3to2/2.png"",""time"":204},{""stimulus"":""img/3to2/3.png"",""time"":305},{""stimulus"":""img/3to2/4.png"",""time"":404},{""stimulus"":""img/3to2/5.png"",""time"":506},{""stimulus"":""img/3to2/6.png"",""time"":595},{""stimulus"":""img/3to2/7.png"",""time"":703},{""stimulus"":""img/3to2/8.png"",""time"":794},{""stimulus"":""img/3to2/9.png"",""time"":895},{""stimulus"":""img/3to2/10.png"",""time"":995},{""stimulus"":""img/3to2/11.png"",""time"":1092},{""stimulus"":""img/3to2/12.png"",""time"":1191}]","[]"
"image-keyboard-response","170","194074","0.0-5.0-1.83","62fd76d3f0824c29d4b1e6bd","bdp_cybrbll","Mon Mar 27 2023 16:10:36 GMT-0400 (Eastern Daylight Time)","443715","3","1","","211","","","","choice","","img/2to1/1.png","1","142","544","0.5","0.1","2","1","",""
"animation","171","195367","0.0-5.0-2.83","62fd76d3f0824c29d4b1e6bd","bdp_cybrbll","Mon Mar 27 2023 16:10:36 GMT-0400 (Eastern Daylight Time)","443715","3","1","","","","","","","","","","142","","","","2","1","[{""stimulus"":""img/2to1/1.png"",""time"":104},{""stimulus"":""img/2to1/2.png"",""time"":202},{""stimulus"":""img/2to1/3.png"",""time"":299},{""stimulus"":""img/2to1/4.png"",""time"":400},{""stimulus"":""img/2to1/5.png"",""time"":500},{""stimulus"":""img/2to1/6.png"",""time"":600},{""stimulus"":""img/2to1/7.png"",""time"":702},{""stimulus"":""img/2to1/8.png"",""time"":800},{""stimulus"":""img/2to1/9.png"",""time"":893},{""stimulus"":""img/2to1/10.png"",""time"":999},{""stimulus"":""img/2to1/11.png"",""time"":1096},{""stimulus"":""img/2to1/12.png"",""time"":1192}]","[]"
"image-keyboard-response","172","196191","0.0-5.0-1.84","62fd76d3f0824c29d4b1e6bd","bdp_cybrbll","Mon Mar 27 2023 16:10:36 GMT-0400 (Eastern Daylight Time)","443715","3","1","","null","","","","observe","","img/1to3/1.png","null","141","819","0.5","0.1","1","3","",""
"animation","173","197485","0.0-5.0-2.84","62fd76d3f0824c29d4b1e6bd","bdp_cybrbll","Mon Mar 27 2023 16:10:36 GMT-0400 (Eastern Daylight Time)","443715","3","1","","","","","","","","","","141","","","","1","3","[{""stimulus"":""img/1to3/1.png"",""time"":109},{""stimulus"":""img/1to3/2.png"",""time"":203},{""stimulus"":""img/1to3/3.png"",""time"":303},{""stimulus"":""img/1to3/4.png"",""time"":402},{""stimulus"":""img/1to3/5.png"",""time"":500},{""stimulus"":""img/1to3/6.png"",""time"":599},{""stimulus"":""img/1to3/7.png"",""time"":698},{""stimulus"":""img/1to3/8.png"",""time"":797},{""stimulus"":""img/1to3/9.png"",""time"":893},{""stimulus"":""img/1to3/10.png"",""time"":991},{""stimulus"":""img/1to3/11.png"",""time"":1097},{""stimulus"":""img/1to3/12.png"",""time"":1195}]","[]"
"image-keyboard-response","174","198040","0.0-5.0-1.85","62fd76d3f0824c29d4b1e6bd","bdp_cybrbll","Mon Mar 27 2023 16:10:36 GMT-0400 (Eastern Daylight Time)","443715","3","1","","null","","","","observe","","img/3to2/1.png","null","140","539","0.5","0.1","3","2","",""
"animation","175","199333","0.0-5.0-2.85","62fd76d3f0824c29d4b1e6bd","bdp_cybrbll","Mon Mar 27 2023 16:10:36 GMT-0400 (Eastern Daylight Time)","443715","3","1","","","","","","","","","","140","","","","3","2","[{""stimulus"":""img/3to2/1.png"",""time"":102},{""stimulus"":""img/3to2/2.png"",""time"":205},{""stimulus"":""img/3to2/3.png"",""time"":314},{""stimulus"":""img/3to2/4.png"",""time"":403},{""stimulus"":""img/3to2/5.png"",""time"":503},{""stimulus"":""img/3to2/6.png"",""time"":603},{""stimulus"":""img/3to2/7.png"",""time"":699},{""stimulus"":""img/3to2/8.png"",""time"":800},{""stimulus"":""img/3to2/9.png"",""time"":892},{""stimulus"":""img/3to2/10.png"",""time"":993},{""stimulus"":""img/3to2/11.png"",""time"":1094},{""stimulus"":""img/3to2/12.png"",""time"":1194}]","[]"
"image-keyboard-response","176","199431","0.0-5.0-1.86","62fd76d3f0824c29d4b1e6bd","bdp_cybrbll","Mon Mar 27 2023 16:10:36 GMT-0400 (Eastern Daylight Time)","443715","3","1","","98","","","","choice","","img/2to1/1.png","2","139","307","0.5","0.1","2","3","",""
"animation","177","200724","0.0-5.0-2.86","62fd76d3f0824c29d4b1e6bd","bdp_cybrbll","Mon Mar 27 2023 16:10:36 GMT-0400 (Eastern Daylight Time)","443715","3","1","","","","","","","","","","139","","","","2","3","[{""stimulus"":""img/2to3/1.png"",""time"":105},{""stimulus"":""img/2to3/2.png"",""time"":205},{""stimulus"":""img/2to3/3.png"",""time"":302},{""stimulus"":""img/2to3/4.png"",""time"":400},{""stimulus"":""img/2to3/5.png"",""time"":499},{""stimulus"":""img/2to3/6.png"",""time"":596},{""stimulus"":""img/2to3/7.png"",""time"":703},{""stimulus"":""img/2to3/8.png"",""time"":793},{""stimulus"":""img/2to3/9.png"",""time"":895},{""stimulus"":""img/2to3/10.png"",""time"":993},{""stimulus"":""img/2to3/11.png"",""time"":1093},{""stimulus"":""img/2to3/12.png"",""time"":1193}]","[]"
"image-keyboard-response","178","201106","0.0-5.0-1.87","62fd76d3f0824c29d4b1e6bd","bdp_cybrbll","Mon Mar 27 2023 16:10:36 GMT-0400 (Eastern Daylight Time)","443715","3","1","","null","","","","observe","","img/3to2/1.png","null","138","372","0.5","0.1","3","2","",""
"animation","179","202409","0.0-5.0-2.87","62fd76d3f0824c29d4b1e6bd","bdp_cybrbll","Mon Mar 27 2023 16:10:36 GMT-0400 (Eastern Daylight Time)","443715","3","1","","","","","","","","","","138","","","","3","2","[{""stimulus"":""img/3to2/1.png"",""time"":101},{""stimulus"":""img/3to2/2.png"",""time"":201},{""stimulus"":""img/3to2/3.png"",""time"":305},{""stimulus"":""img/3to2/4.png"",""time"":403},{""stimulus"":""img/3to2/5.png"",""time"":504},{""stimulus"":""img/3to2/6.png"",""time"":603},{""stimulus"":""img/3to2/7.png"",""time"":701},{""stimulus"":""img/3to2/8.png"",""time"":793},{""stimulus"":""img/3to2/9.png"",""time"":893},{""stimulus"":""img/3to2/10.png"",""time"":992},{""stimulus"":""img/3to2/11.png"",""time"":1090},{""stimulus"":""img/3to2/12.png"",""time"":1196}]","[]"
"image-keyboard-response","180","202440","0.0-5.0-1.88","62fd76d3f0824c29d4b1e6bd","bdp_cybrbll","Mon Mar 27 2023 16:10:36 GMT-0400 (Eastern Daylight Time)","443715","3","1","","29","","","","choice","","img/2to1/1.png","1","137","388","0.5","0.1","2","1","",""
"animation","181","203735","0.0-5.0-2.88","62fd76d3f0824c29d4b1e6bd","bdp_cybrbll","Mon Mar 27 2023 16:10:36 GMT-0400 (Eastern Daylight Time)","443715","3","1","","","","","","","","","","137","","","","2","1","[{""stimulus"":""img/2to1/1.png"",""time"":101},{""stimulus"":""img/2to1/2.png"",""time"":199},{""stimulus"":""img/2to1/3.png"",""time"":301},{""stimulus"":""img/2to1/4.png"",""time"":402},{""stimulus"":""img/2to1/5.png"",""time"":503},{""stimulus"":""img/2to1/6.png"",""time"":596},{""stimulus"":""img/2to1/7.png"",""time"":698},{""stimulus"":""img/2to1/8.png"",""time"":801},{""stimulus"":""img/2to1/9.png"",""time"":895},{""stimulus"":""img/2to1/10.png"",""time"":1004},{""stimulus"":""img/2to1/11.png"",""time"":1103},{""stimulus"":""img/2to1/12.png"",""time"":1196}]","[]"
"image-keyboard-response","182","204019","0.0-5.0-1.89","62fd76d3f0824c29d4b1e6bd","bdp_cybrbll","Mon Mar 27 2023 16:10:36 GMT-0400 (Eastern Daylight Time)","443715","3","1","","null","","","","observe","","img/1to3/1.png","null","136","281","0.5","0.1","1","3","",""
"animation","183","205309","0.0-5.0-2.89","62fd76d3f0824c29d4b1e6bd","bdp_cybrbll","Mon Mar 27 2023 16:10:36 GMT-0400 (Eastern Daylight Time)","443715","3","1","","","","","","","","","","136","","","","1","3","[{""stimulus"":""img/1to3/1.png"",""time"":105},{""stimulus"":""img/1to3/2.png"",""time"":199},{""stimulus"":""img/1to3/3.png"",""time"":305},{""stimulus"":""img/1to3/4.png"",""time"":404},{""stimulus"":""img/1to3/5.png"",""time"":506},{""stimulus"":""img/1to3/6.png"",""time"":598},{""stimulus"":""img/1to3/7.png"",""time"":699},{""stimulus"":""img/1to3/8.png"",""time"":805},{""stimulus"":""img/1to3/9.png"",""time"":896},{""stimulus"":""img/1to3/10.png"",""time"":993},{""stimulus"":""img/1to3/11.png"",""time"":1093},{""stimulus"":""img/1to3/12.png"",""time"":1191}]","[]"
"image-keyboard-response","184","206090","0.0-5.0-1.90","62fd76d3f0824c29d4b1e6bd","bdp_cybrbll","Mon Mar 27 2023 16:10:36 GMT-0400 (Eastern Daylight Time)","443715","3","1","","null","","","","observe","","img/3to2/1.png","null","135","776","0.5","0.1","3","2","",""
"animation","185","207380","0.0-5.0-2.90","62fd76d3f0824c29d4b1e6bd","bdp_cybrbll","Mon Mar 27 2023 16:10:36 GMT-0400 (Eastern Daylight Time)","443715","3","1","","","","","","","","","","135","","","","3","2","[{""stimulus"":""img/3to2/1.png"",""time"":104},{""stimulus"":""img/3to2/2.png"",""time"":204},{""stimulus"":""img/3to2/3.png"",""time"":302},{""stimulus"":""img/3to2/4.png"",""time"":403},{""stimulus"":""img/3to2/5.png"",""time"":502},{""stimulus"":""img/3to2/6.png"",""time"":603},{""stimulus"":""img/3to2/7.png"",""time"":707},{""stimulus"":""img/3to2/8.png"",""time"":798},{""stimulus"":""img/3to2/9.png"",""time"":895},{""stimulus"":""img/3to2/10.png"",""time"":996},{""stimulus"":""img/3to2/11.png"",""time"":1101},{""stimulus"":""img/3to2/12.png"",""time"":1192}]","[]"
"image-keyboard-response","186","207475","0.0-5.0-1.91","62fd76d3f0824c29d4b1e6bd","bdp_cybrbll","Mon Mar 27 2023 16:10:36 GMT-0400 (Eastern Daylight Time)","443715","3","1","","94","","","","choice","","img/2to1/1.png","2","134","795","0.5","0.1","2","3","",""
"animation","187","208766","0.0-5.0-2.91","62fd76d3f0824c29d4b1e6bd","bdp_cybrbll","Mon Mar 27 2023 16:10:36 GMT-0400 (Eastern Daylight Time)","443715","3","1","","","","","","","","","","134","","","","2","3","[{""stimulus"":""img/2to3/1.png"",""time"":114},{""stimulus"":""img/2to3/2.png"",""time"":202},{""stimulus"":""img/2to3/3.png"",""time"":302},{""stimulus"":""img/2to3/4.png"",""time"":401},{""stimulus"":""img/2to3/5.png"",""time"":500},{""stimulus"":""img/2to3/6.png"",""time"":599},{""stimulus"":""img/2to3/7.png"",""time"":699},{""stimulus"":""img/2to3/8.png"",""time"":801},{""stimulus"":""img/2to3/9.png"",""time"":895},{""stimulus"":""img/2to3/10.png"",""time"":997},{""stimulus"":""img/2to3/11.png"",""time"":1091},{""stimulus"":""img/2to3/12.png"",""time"":1193}]","[]"
"image-keyboard-response","188","209223","0.0-5.0-1.92","62fd76d3f0824c29d4b1e6bd","bdp_cybrbll","Mon Mar 27 2023 16:10:36 GMT-0400 (Eastern Daylight Time)","443715","3","1","","null","","","","observe","","img/3to2/1.png","null","133","451","0.5","0.1","3","1","",""
"animation","189","210512","0.0-5.0-2.92","62fd76d3f0824c29d4b1e6bd","bdp_cybrbll","Mon Mar 27 2023 16:10:36 GMT-0400 (Eastern Daylight Time)","443715","3","1","","","","","","","","","","133","","","","3","1","[{""stimulus"":""img/3to1/1.png"",""time"":108},{""stimulus"":""img/3to1/2.png"",""time"":203},{""stimulus"":""img/3to1/3.png"",""time"":302},{""stimulus"":""img/3to1/4.png"",""time"":402},{""stimulus"":""img/3to1/5.png"",""time"":502},{""stimulus"":""img/3to1/6.png"",""time"":598},{""stimulus"":""img/3to1/7.png"",""time"":696},{""stimulus"":""img/3to1/8.png"",""time"":795},{""stimulus"":""img/3to1/9.png"",""time"":896},{""stimulus"":""img/3to1/10.png"",""time"":994},{""stimulus"":""img/3to1/11.png"",""time"":1093},{""stimulus"":""img/3to1/12.png"",""time"":1191}]","[]"
"image-keyboard-response","190","210731","0.0-5.0-1.93","62fd76d3f0824c29d4b1e6bd","bdp_cybrbll","Mon Mar 27 2023 16:10:36 GMT-0400 (Eastern Daylight Time)","443715","3","1","","null","","","","observe","","img/1to3/1.png","null","132","213","0.5","0.1","1","2","",""
