"trial_type","trial_index","time_elapsed","internal_node_id","subject_id","task","startTime","totalTime","fairPartner","unfairPartner","view_history","rt","event","trial","time","trialtype","success","stimulus","key_press","throwsLeft","rtDur","pFair","pUnfair","holder","receiver","animation_sequence","responses"
"pavlovia","0","1","0.0-0.0","60599946259dc97d30e2001f","bdp_cybrbll","Sun Apr 02 2023 20:37:29 GMT-0700 (Pacific Daylight Time)","433008","3","1","","","","","","","","","","","","","","","","",""
"instructions","1","2879","0.0-1.0","60599946259dc97d30e2001f","bdp_cybrbll","Sun Apr 02 2023 20:37:29 GMT-0700 (Pacific Daylight Time)","433008","3","1","[{""page_index"":0,""viewing_time"":2878}]","2878","","","","","","","","","","","","","","",""
"","","","","60599946259dc97d30e2001f","bdp_cybrbll","Sun Apr 02 2023 20:37:29 GMT-0700 (Pacific Daylight Time)","433008","3","1","","","fullscreenenter","2","4675","fullscreenenter","","","","","","","","","","",""
"fullscreen","2","5677","0.0-2.0","60599946259dc97d30e2001f","bdp_cybrbll","Sun Apr 02 2023 20:37:29 GMT-0700 (Pacific Daylight Time)","433008","3","1","","","","","","","true","","","","","","","","","",""
"instructions","3","35960","0.0-4.0","60599946259dc97d30e2001f","bdp_cybrbll","Sun Apr 02 2023 20:37:29 GMT-0700 (Pacific Daylight Time)","433008","3","1","[{""page_index"":0,""viewing_time"":30282}]","30282","","","","","","","","","","","","","","",""
"image-keyboard-response","4","37376","0.0-5.0-1.0","60599946259dc97d30e2001f","bdp_cybrbll","Sun Apr 02 2023 20:37:29 GMT-0700 (Pacific Daylight Time)","433008","3","1","","1415","","","","choice","","img/2to1/1.png","1","225","518","0.5","0.5","2","1","",""
"animation","5","38666","0.0-5.0-2.0","60599946259dc97d30e2001f","bdp_cybrbll","Sun Apr 02 2023 20:37:29 GMT-0700 (Pacific Daylight Time)","433008","3","1","","","","","","","","","","225","","","","2","1","[{""stimulus"":""img/2to1/1.png"",""time"":100},{""stimulus"":""img/2to1/2.png"",""time"":210},{""stimulus"":""img/2to1/3.png"",""time"":306},{""stimulus"":""img/2to1/4.png"",""time"":402},{""stimulus"":""img/2to1/5.png"",""time"":498},{""stimulus"":""img/2to1/6.png"",""time"":609},{""stimulus"":""img/2to1/7.png"",""time"":705},{""stimulus"":""img/2to1/8.png"",""time"":798},{""stimulus"":""img/2to1/9.png"",""time"":894},{""stimulus"":""img/2to1/10.png"",""time"":1005},{""stimulus"":""img/2to1/11.png"",""time"":1099},{""stimulus"":""img/2to1/12.png"",""time"":1195}]","[]"
"image-keyboard-response","6","39093","0.0-5.0-1.1","60599946259dc97d30e2001f","bdp_cybrbll","Sun Apr 02 2023 20:37:29 GMT-0700 (Pacific Daylight Time)","433008","3","1","","null","","","","observe","","img/1to3/1.png","null","224","415","0.5","0.5","1","2","",""
"animation","7","40393","0.0-5.0-2.1","60599946259dc97d30e2001f","bdp_cybrbll","Sun Apr 02 2023 20:37:29 GMT-0700 (Pacific Daylight Time)","433008","3","1","","","","","","","","","","224","","","","1","2","[{""stimulus"":""img/1to2/1.png"",""time"":112},{""stimulus"":""img/1to2/2.png"",""time"":205},{""stimulus"":""img/1to2/3.png"",""time"":300},{""stimulus"":""img/1to2/4.png"",""time"":409},{""stimulus"":""img/1to2/5.png"",""time"":505},{""stimulus"":""img/1to2/6.png"",""time"":600},{""stimulus"":""img/1to2/7.png"",""time"":695},{""stimulus"":""img/1to2/8.png"",""time"":807},{""stimulus"":""img/1to2/9.png"",""time"":903},{""stimulus"":""img/1to2/10.png"",""time"":998},{""stimulus"":""img/1to2/11.png"",""time"":1094},{""stimulus"":""img/1to2/12.png"",""time"":1188}]","[]"
"image-keyboard-response","8","40632","0.0-5.0-1.2","60599946259dc97d30e2001f","bdp_cybrbll","Sun Apr 02 2023 20:37:29 GMT-0700 (Pacific Daylight Time)","433008","3","1","","239","","","","choice","","img/2to1/1.png","2","223","647","0.5","0.5","2","3","",""
"animation","9","41930","0.0-5.0-2.2","60599946259dc97d30e2001f","bdp_cybrbll","Sun Apr 02 2023 20:37:29 GMT-0700 (Pacific Daylight Time)","433008","3","1","","","","","","","","","","223","","","","2","3","[{""stimulus"":""img/2to3/1.png"",""time"":106},{""stimulus"":""img/2to3/2.png"",""time"":202},{""stimulus"":""img/2to3/3.png"",""time"":298},{""stimulus"":""img/2to3/4.png"",""time"":407},{""stimulus"":""img/2to3/5.png"",""time"":501},{""stimulus"":""img/2to3/6.png"",""time"":610},{""stimulus"":""img/2to3/7.png"",""time"":703},{""stimulus"":""img/2to3/8.png"",""time"":796},{""stimulus"":""img/2to3/9.png"",""time"":904},{""stimulus"":""img/2to3/10.png"",""time"":998},{""stimulus"":""img/2to3/11.png"",""time"":1093},{""stimulus"":""img/2to3/12.png"",""time"":1204}]","[]"
"image-keyboard-response","10","42136","0.0-5.0-1.3","60599946259dc97d30e2001f","bdp_cybrbll","Sun Apr 02 2023 20:37:29 GMT-0700 (Pacific Daylight Time)","433008","3","1","","null","","","","observe","","img/3to2/1.png","null","222","195","0.5","0.5","3","1","",""
"animation","11","43434","0.0-5.0-2.3","60599946259dc97d30e2001f","bdp_cybrbll","Sun Apr 02 2023 20:37:29 GMT-0700 (Pacific Daylight Time)","433008","3","1","","","","","","","","","","222","","","","3","1","[{""stimulus"":""img/3to1/1.png"",""time"":112},{""stimulus"":""img/3to1/2.png"",""time"":208},{""stimulus"":""img/3to1/3.png"",""time"":304},{""stimulus"":""img/3to1/4.png"",""time"":400},{""stimulus"":""img/3to1/5.png"",""time"":510},{""stimulus"":""img/3to1/6.png"",""time"":606},{""stimulus"":""img/3to1/7.png"",""time"":701},{""stimulus"":""img/3to1/8.png"",""time"":796},{""stimulus"":""img/3to1/9.png"",""time"":892},{""stimulus"":""img/3to1/10.png"",""time"":991},{""stimulus"":""img/3to1/11.png"",""time"":1096},{""stimulus"":""img/3to1/12.png"",""time"":1189}]","[]"
"image-keyboard-response","12","44505","0.0-5.0-1.4","60599946259dc97d30e2001f","bdp_cybrbll","Sun Apr 02 2023 20:37:29 GMT-0700 (Pacific Daylight Time)","433008","3","1","","null","","","","observe","","img/1to3/1.png","null","221","1062","0.5","0.5","1","2","",""
"animation","13","45795","0.0-5.0-2.4","60599946259dc97d30e2001f","bdp_cybrbll","Sun Apr 02 2023 20:37:29 GMT-0700 (Pacific Daylight Time)","433008","3","1","","","","","","","","","","221","","","","1","2","[{""stimulus"":""img/1to2/1.png"",""time"":112},{""stimulus"":""img/1to2/2.png"",""time"":208},{""stimulus"":""img/1to2/3.png"",""time"":302},{""stimulus"":""img/1to2/4.png"",""time"":398},{""stimulus"":""img/1to2/5.png"",""time"":496},{""stimulus"":""img/1to2/6.png"",""time"":606},{""stimulus"":""img/1to2/7.png"",""time"":700},{""stimulus"":""img/1to2/8.png"",""time"":796},{""stimulus"":""img/1to2/9.png"",""time"":892},{""stimulus"":""img/1to2/10.png"",""time"":1002},{""stimulus"":""img/1to2/11.png"",""time"":1098},{""stimulus"":""img/1to2/12.png"",""time"":1194}]","[]"
"image-keyboard-response","14","45808","0.0-5.0-1.5","60599946259dc97d30e2001f","bdp_cybrbll","Sun Apr 02 2023 20:37:29 GMT-0700 (Pacific Daylight Time)","433008","3","1","","13","","","","choice","","img/2to1/1.png","2","220","836","0.5","0.5","2","3","",""
"animation","15","47101","0.0-5.0-2.5","60599946259dc97d30e2001f","bdp_cybrbll","Sun Apr 02 2023 20:37:29 GMT-0700 (Pacific Daylight Time)","433008","3","1","","","","","","","","","","220","","","","2","3","[{""stimulus"":""img/2to3/1.png"",""time"":113},{""stimulus"":""img/2to3/2.png"",""time"":209},{""stimulus"":""img/2to3/3.png"",""time"":305},{""stimulus"":""img/2to3/4.png"",""time"":400},{""stimulus"":""img/2to3/5.png"",""time"":496},{""stimulus"":""img/2to3/6.png"",""time"":608},{""stimulus"":""img/2to3/7.png"",""time"":704},{""stimulus"":""img/2to3/8.png"",""time"":800},{""stimulus"":""img/2to3/9.png"",""time"":896},{""stimulus"":""img/2to3/10.png"",""time"":992},{""stimulus"":""img/2to3/11.png"",""time"":1090},{""stimulus"":""img/2to3/12.png"",""time"":1198}]","[]"
"image-keyboard-response","16","47848","0.0-5.0-1.6","60599946259dc97d30e2001f","bdp_cybrbll","Sun Apr 02 2023 20:37:29 GMT-0700 (Pacific Daylight Time)","433008","3","1","","null","","","","observe","","img/3to2/1.png","null","219","739","0.5","0.5","3","2","",""
"animation","17","49145","0.0-5.0-2.6","60599946259dc97d30e2001f","bdp_cybrbll","Sun Apr 02 2023 20:37:29 GMT-0700 (Pacific Daylight Time)","433008","3","1","","","","","","","","","","219","","","","3","2","[{""stimulus"":""img/3to2/1.png"",""time"":110},{""stimulus"":""img/3to2/2.png"",""time"":206},{""stimulus"":""img/3to2/3.png"",""time"":302},{""stimulus"":""img/3to2/4.png"",""time"":398},{""stimulus"":""img/3to2/5.png"",""time"":509},{""stimulus"":""img/3to2/6.png"",""time"":602},{""stimulus"":""img/3to2/7.png"",""time"":696},{""stimulus"":""img/3to2/8.png"",""time"":806},{""stimulus"":""img/3to2/9.png"",""time"":901},{""stimulus"":""img/3to2/10.png"",""time"":997},{""stimulus"":""img/3to2/11.png"",""time"":1090},{""stimulus"":""img/3to2/12.png"",""time"":1189}]","[]"
"image-keyboard-response","18","49296","0.0-5.0-1.7","60599946259dc97d30e2001f","bdp_cybrbll","Sun Apr 02 2023 20:37:29 GMT-0700 (Pacific Daylight Time)","433008","3","1","","151","","","","choice","","img/2to1/1.png","1","218","454","0.5","0.5","2","1","",""
"animation","19","50586","0.0-5.0-2.7","60599946259dc97d30e2001f","bdp_cybrbll","Sun Apr 02 2023 20:37:29 GMT-0700 (Pacific Daylight Time)","433008","3","1","","","","","","","","","","218","","","","2","1","[{""stimulus"":""img/2to1/1.png"",""time"":105},{""stimulus"":""img/2to1/2.png"",""time"":200},{""stimulus"":""img/2to1/3.png"",""time"":309},{""stimulus"":""img/2to1/4.png"",""time"":405},{""stimulus"":""img/2to1/5.png"",""time"":499},{""stimulus"":""img/2to1/6.png"",""time"":595},{""stimulus"":""img/2to1/7.png"",""time"":706},{""stimulus"":""img/2to1/8.png"",""time"":801},{""stimulus"":""img/2to1/9.png"",""time"":896},{""stimulus"":""img/2to1/10.png"",""time"":991},{""stimulus"":""img/2to1/11.png"",""time"":1101},{""stimulus"":""img/2to1/12.png"",""time"":1195}]","[]"
"image-keyboard-response","20","51082","0.0-5.0-1.8","60599946259dc97d30e2001f","bdp_cybrbll","Sun Apr 02 2023 20:37:29 GMT-0700 (Pacific Daylight Time)","433008","3","1","","null","","","","observe","","img/1to3/1.png","null","217","481","0.5","0.5","1","2","",""
"animation","21","52372","0.0-5.0-2.8","60599946259dc97d30e2001f","bdp_cybrbll","Sun Apr 02 2023 20:37:29 GMT-0700 (Pacific Daylight Time)","433008","3","1","","","","","","","","","","217","","","","1","2","[{""stimulus"":""img/1to2/1.png"",""time"":112},{""stimulus"":""img/1to2/2.png"",""time"":208},{""stimulus"":""img/1to2/3.png"",""time"":304},{""stimulus"":""img/1to2/4.png"",""time"":400},{""stimulus"":""img/1to2/5.png"",""time"":510},{""stimulus"":""img/1to2/6.png"",""time"":606},{""stimulus"":""img/1to2/7.png"",""time"":702},{""stimulus"":""img/1to2/8.png"",""time"":798},{""stimulus"":""img/1to2/9.png"",""time"":894},{""stimulus"":""img/1to2/10.png"",""time"":1004},{""stimulus"":""img/1to2/11.png"",""time"":1100},{""stimulus"":""img/1to2/12.png"",""time"":1196}]","[]"
"image-keyboard-response","22","53056","0.0-5.0-1.9","60599946259dc97d30e2001f","bdp_cybrbll","Sun Apr 02 2023 20:37:29 GMT-0700 (Pacific Daylight Time)","433008","3","1","","683","","","","choice","","img/2to1/1.png","2","216","489","0.5","0.5","2","3","",""
"animation","23","54343","0.0-5.0-2.9","60599946259dc97d30e2001f","bdp_cybrbll","Sun Apr 02 2023 20:37:29 GMT-0700 (Pacific Daylight Time)","433008","3","1","","","","","","","","","","216","","","","2","3","[{""stimulus"":""img/2to3/1.png"",""time"":99},{""stimulus"":""img/2to3/2.png"",""time"":210},{""stimulus"":""img/2to3/3.png"",""time"":306},{""stimulus"":""img/2to3/4.png"",""time"":401},{""stimulus"":""img/2to3/5.png"",""time"":496},{""stimulus"":""img/2to3/6.png"",""time"":607},{""stimulus"":""img/2to3/7.png"",""time"":701},{""stimulus"":""img/2to3/8.png"",""time"":797},{""stimulus"":""img/2to3/9.png"",""time"":893},{""stimulus"":""img/2to3/10.png"",""time"":991},{""stimulus"":""img/2to3/11.png"",""time"":1097},{""stimulus"":""img/2to3/12.png"",""time"":1192}]","[]"
"image-keyboard-response","24","55608","0.0-5.0-1.10","60599946259dc97d30e2001f","bdp_cybrbll","Sun Apr 02 2023 20:37:29 GMT-0700 (Pacific Daylight Time)","433008","3","1","","null","","","","observe","","img/3to2/1.png","null","215","1262","0.5","0.5","3","1","",""
"animation","25","56897","0.0-5.0-2.10","60599946259dc97d30e2001f","bdp_cybrbll","Sun Apr 02 2023 20:37:29 GMT-0700 (Pacific Daylight Time)","433008","3","1","","","","","","","","","","215","","","","3","1","[{""stimulus"":""img/3to1/1.png"",""time"":109},{""stimulus"":""img/3to1/2.png"",""time"":203},{""stimulus"":""img/3to1/3.png"",""time"":312},{""stimulus"":""img/3to1/4.png"",""time"":404},{""stimulus"":""img/3to1/5.png"",""time"":495},{""stimulus"":""img/3to1/6.png"",""time"":607},{""stimulus"":""img/3to1/7.png"",""time"":701},{""stimulus"":""img/3to1/8.png"",""time"":797},{""stimulus"":""img/3to1/9.png"",""time"":891},{""stimulus"":""img/3to1/10.png"",""time"":1003},{""stimulus"":""img/3to1/11.png"",""time"":1099},{""stimulus"":""img/3to1/12.png"",""time"":1195}]","[]"
"image-keyboard-response","26","57419","0.0-5.0-1.11","60599946259dc97d30e2001f","bdp_cybrbll","Sun Apr 02 2023 20:37:29 GMT-0700 (Pacific Daylight Time)","433008","3","1","","null","","","","observe","","img/1to3/1.png","null","214","513","0.5","0.5","1","3","",""
"animation","27","58707","0.0-5.0-2.11","60599946259dc97d30e2001f","bdp_cybrbll","Sun Apr 02 2023 20:37:29 GMT-0700 (Pacific Daylight Time)","433008","3","1","","","","","","","","","","214","","","","1","3","[{""stimulus"":""img/1to3/1.png"",""time"":111},{""stimulus"":""img/1to3/2.png"",""time"":202},{""stimulus"":""img/1to3/3.png"",""time"":312},{""stimulus"":""img/1to3/4.png"",""time"":408},{""stimulus"":""img/1to3/5.png"",""time"":502},{""stimulus"":""img/1to3/6.png"",""time"":598},{""stimulus"":""img/1to3/7.png"",""time"":694},{""stimulus"":""img/1to3/8.png"",""time"":806},{""stimulus"":""img/1to3/9.png"",""time"":902},{""stimulus"":""img/1to3/10.png"",""time"":999},{""stimulus"":""img/1to3/11.png"",""time"":1095},{""stimulus"":""img/1to3/12.png"",""time"":1191}]","[]"
"image-keyboard-response","28","59167","0.0-5.0-1.12","60599946259dc97d30e2001f","bdp_cybrbll","Sun Apr 02 2023 20:37:29 GMT-0700 (Pacific Daylight Time)","433008","3","1","","null","","","","observe","","img/3to2/1.png","null","213","458","0.5","0.5","3","1","",""
"animation","29","60469","0.0-5.0-2.12","60599946259dc97d30e2001f","bdp_cybrbll","Sun Apr 02 2023 20:37:29 GMT-0700 (Pacific Daylight Time)","433008","3","1","","","","","","","","","","213","","","","3","1","[{""stimulus"":""img/3to1/1.png"",""time"":112},{""stimulus"":""img/3to1/2.png"",""time"":208},{""stimulus"":""img/3to1/3.png"",""time"":303},{""stimulus"":""img/3to1/4.png"",""time"":399},{""stimulus"":""img/3to1/5.png"",""time"":511},{""stimulus"":""img/3to1/6.png"",""time"":605},{""stimulus"":""img/3to1/7.png"",""time"":699},{""stimulus"":""img/3to1/8.png"",""time"":795},{""stimulus"":""img/3to1/9.png"",""time"":907},{""stimulus"":""img/3to1/10.png"",""time"":1001},{""stimulus"":""img/3to1/11.png"",""time"":1097},{""stimulus"":""img/3to1/12.png"",""time"":1191}]","[]"
"image-keyboard-response","30","61006","0.0-5.0-1.13","60599946259dc97d30e2001f","bdp_cybrbll","Sun Apr 02 2023 20:37:29 GMT-0700 (Pacific Daylight Time)","433008","3","1","","null","","","","observe","","img/1to3/1.png","null","212","521","0.5","0.5","1","2","",""
"animation","31","62301","0.0-5.0-2.13","60599946259dc97d30e2001f","bdp_cybrbll","Sun Apr 02 2023 20:37:29 GMT-0700 (Pacific Daylight Time)","433008","3","1","","","","","","","","","","212","","","","1","2","[{""stimulus"":""img/1to2/1.png"",""time"":108},{""stimulus"":""img/1to2/2.png"",""time"":204},{""stimulus"":""img/1to2/3.png"",""time"":298},{""stimulus"":""img/1to2/4.png"",""time"":410},{""stimulus"":""img/1to2/5.png"",""time"":506},{""stimulus"":""img/1to2/6.png"",""time"":600},{""stimulus"":""img/1to2/7.png"",""time"":696},{""stimulus"":""img/1to2/8.png"",""time"":807},{""stimulus"":""img/1to2/9.png"",""time"":900},{""stimulus"":""img/1to2/10.png"",""time"":993},{""stimulus"":""img/1to2/11.png"",""time"":1103},{""stimulus"":""img/1to2/12.png"",""time"":1198}]","[]"
"image-keyboard-response","32","62656","0.0-5.0-1.14","60599946259dc97d30e2001f","bdp_cybrbll","Sun Apr 02 2023 20:37:29 GMT-0700 (Pacific Daylight Time)","433008","3","1","","355","","","","choice","","img/2to1/1.png","2","211","845","0.5","0.5","2","3","",""
"animation","33","63958","0.0-5.0-2.14","60599946259dc97d30e2001f","bdp_cybrbll","Sun Apr 02 2023 20:37:29 GMT-0700 (Pacific Daylight Time)","433008","3","1","","","","","","","","","","211","","","","2","3","[{""stimulus"":""img/2to3/1.png"",""time"":109},{""stimulus"":""img/2to3/2.png"",""time"":205},{""stimulus"":""img/2to3/3.png"",""time"":301},{""stimulus"":""img/2to3/4.png"",""time"":397},{""stimulus"":""img/2to3/5.png"",""time"":509},{""stimulus"":""img/2to3/6.png"",""time"":605},{""stimulus"":""img/2to3/7.png"",""time"":699},{""stimulus"":""img/2to3/8.png"",""time"":795},{""stimulus"":""img/2to3/9.png"",""time"":905},{""stimulus"":""img/2to3/10.png"",""time"":1001},{""stimulus"":""img/2to3/11.png"",""time"":1095},{""stimulus"":""img/2to3/12.png"",""time"":1190}]","[]"
"image-keyboard-response","34","64530","0.0-5.0-1.15","60599946259dc97d30e2001f","bdp_cybrbll","Sun Apr 02 2023 20:37:29 GMT-0700 (Pacific Daylight Time)","433008","3","1","","null","","","","observe","","img/3to2/1.png","null","210","563","0.5","0.5","3","1","",""
"animation","35","65820","0.0-5.0-2.15","60599946259dc97d30e2001f","bdp_cybrbll","Sun Apr 02 2023 20:37:29 GMT-0700 (Pacific Daylight Time)","433008","3","1","","","","","","","","","","210","","","","3","1","[{""stimulus"":""img/3to1/1.png"",""time"":109},{""stimulus"":""img/3to1/2.png"",""time"":201},{""stimulus"":""img/3to1/3.png"",""time"":309},{""stimulus"":""img/3to1/4.png"",""time"":402},{""stimulus"":""img/3to1/5.png"",""time"":498},{""stimulus"":""img/3to1/6.png"",""time"":610},{""stimulus"":""img/3to1/7.png"",""time"":706},{""stimulus"":""img/3to1/8.png"",""time"":802},{""stimulus"":""img/3to1/9.png"",""time"":895},{""stimulus"":""img/3to1/10.png"",""time"":1005},{""stimulus"":""img/3to1/11.png"",""time"":1100},{""stimulus"":""img/3to1/12.png"",""time"":1194}]","[]"
"image-keyboard-response","36","66139","0.0-5.0-1.16","60599946259dc97d30e2001f","bdp_cybrbll","Sun Apr 02 2023 20:37:29 GMT-0700 (Pacific Daylight Time)","433008","3","1","","null","","","","observe","","img/1to3/1.png","null","209","307","0.5","0.5","1","3","",""
"animation","37","67436","0.0-5.0-2.16","60599946259dc97d30e2001f","bdp_cybrbll","Sun Apr 02 2023 20:37:29 GMT-0700 (Pacific Daylight Time)","433008","3","1","","","","","","","","","","209","","","","1","3","[{""stimulus"":""img/1to3/1.png"",""time"":112},{""stimulus"":""img/1to3/2.png"",""time"":208},{""stimulus"":""img/1to3/3.png"",""time"":304},{""stimulus"":""img/1to3/4.png"",""time"":400},{""stimulus"":""img/1to3/5.png"",""time"":496},{""stimulus"":""img/1to3/6.png"",""time"":608},{""stimulus"":""img/1to3/7.png"",""time"":704},{""stimulus"":""img/1to3/8.png"",""time"":800},{""stimulus"":""img/1to3/9.png"",""time"":896},{""stimulus"":""img/1to3/10.png"",""time"":990},{""stimulus"":""img/1to3/11.png"",""time"":1104},{""stimulus"":""img/1to3/12.png"",""time"":1200}]","[]"
"image-keyboard-response","38","67786","0.0-5.0-1.17","60599946259dc97d30e2001f","bdp_cybrbll","Sun Apr 02 2023 20:37:29 GMT-0700 (Pacific Daylight Time)","433008","3","1","","null","","","","observe","","img/3to2/1.png","null","208","346","0.5","0.5","3","1","",""
"animation","39","69078","0.0-5.0-2.17","60599946259dc97d30e2001f","bdp_cybrbll","Sun Apr 02 2023 20:37:29 GMT-0700 (Pacific Daylight Time)","433008","3","1","","","","","","","","","","208","","","","3","1","[{""stimulus"":""img/3to1/1.png"",""time"":112},{""stimulus"":""img/3to1/2.png"",""time"":206},{""stimulus"":""img/3to1/3.png"",""time"":300},{""stimulus"":""img/3to1/4.png"",""time"":412},{""stimulus"":""img/3to1/5.png"",""time"":506},{""stimulus"":""img/3to1/6.png"",""time"":600},{""stimulus"":""img/3to1/7.png"",""time"":696},{""stimulus"":""img/3to1/8.png"",""time"":806},{""stimulus"":""img/3to1/9.png"",""time"":900},{""stimulus"":""img/3to1/10.png"",""time"":994},{""stimulus"":""img/3to1/11.png"",""time"":1104},{""stimulus"":""img/3to1/12.png"",""time"":1198}]","[]"
"image-keyboard-response","40","69636","0.0-5.0-1.18","60599946259dc97d30e2001f","bdp_cybrbll","Sun Apr 02 2023 20:37:29 GMT-0700 (Pacific Daylight Time)","433008","3","1","","null","","","","observe","","img/1to3/1.png","null","207","552","0.5","0.5","1","2","",""
"animation","41","70934","0.0-5.0-2.18","60599946259dc97d30e2001f","bdp_cybrbll","Sun Apr 02 2023 20:37:29 GMT-0700 (Pacific Daylight Time)","433008","3","1","","","","","","","","","","207","","","","1","2","[{""stimulus"":""img/1to2/1.png"",""time"":110},{""stimulus"":""img/1to2/2.png"",""time"":205},{""stimulus"":""img/1to2/3.png"",""time"":301},{""stimulus"":""img/1to2/4.png"",""time"":397},{""stimulus"":""img/1to2/5.png"",""time"":497},{""stimulus"":""img/1to2/6.png"",""time"":601},{""stimulus"":""img/1to2/7.png"",""time"":697},{""stimulus"":""img/1to2/8.png"",""time"":793},{""stimulus"":""img/1to2/9.png"",""time"":903},{""stimulus"":""img/1to2/10.png"",""time"":998},{""stimulus"":""img/1to2/11.png"",""time"":1094},{""stimulus"":""img/1to2/12.png"",""time"":1204}]","[]"
"image-keyboard-response","42","71248","0.0-5.0-1.19","60599946259dc97d30e2001f","bdp_cybrbll","Sun Apr 02 2023 20:37:29 GMT-0700 (Pacific Daylight Time)","433008","3","1","","313","","","","choice","","img/2to1/1.png","2","206","957","0.5","0.5","2","3","",""
"animation","43","72546","0.0-5.0-2.19","60599946259dc97d30e2001f","bdp_cybrbll","Sun Apr 02 2023 20:37:29 GMT-0700 (Pacific Daylight Time)","433008","3","1","","","","","","","","","","206","","","","2","3","[{""stimulus"":""img/2to3/1.png"",""time"":99},{""stimulus"":""img/2to3/2.png"",""time"":198},{""stimulus"":""img/2to3/3.png"",""time"":310},{""stimulus"":""img/2to3/4.png"",""time"":406},{""stimulus"":""img/2to3/5.png"",""time"":502},{""stimulus"":""img/2to3/6.png"",""time"":598},{""stimulus"":""img/2to3/7.png"",""time"":693},{""stimulus"":""img/2to3/8.png"",""time"":804},{""stimulus"":""img/2to3/9.png"",""time"":900},{""stimulus"":""img/2to3/10.png"",""time"":996},{""stimulus"":""img/2to3/11.png"",""time"":1090},{""stimulus"":""img/2to3/12.png"",""time"":1202}]","[]"
"image-keyboard-response","44","72828","0.0-5.0-1.20","60599946259dc97d30e2001f","bdp_cybrbll","Sun Apr 02 2023 20:37:29 GMT-0700 (Pacific Daylight Time)","433008","3","1","","null","","","","observe","","img/3to2/1.png","null","205","281","0.5","0.5","3","1","",""
"animation","45","74125","0.0-5.0-2.20","60599946259dc97d30e2001f","bdp_cybrbll","Sun Apr 02 2023 20:37:29 GMT-0700 (Pacific Daylight Time)","433008","3","1","","","","","","","","","","205","","","","3","1","[{""stimulus"":""img/3to1/1.png"",""time"":110},{""stimulus"":""img/3to1/2.png"",""time"":206},{""stimulus"":""img/3to1/3.png"",""time"":302},{""stimulus"":""img/3to1/4.png"",""time"":412},{""stimulus"":""img/3to1/5.png"",""time"":507},{""stimulus"":""img/3to1/6.png"",""time"":602},{""stimulus"":""img/3to1/7.png"",""time"":698},{""stimulus"":""img/3to1/8.png"",""time"":807},{""stimulus"":""img/3to1/9.png"",""time"":900},{""stimulus"":""img/3to1/10.png"",""time"":996},{""stimulus"":""img/3to1/11.png"",""time"":1092},{""stimulus"":""img/3to1/12.png"",""time"":1203}]","[]"
"image-keyboard-response","46","74691","0.0-5.0-1.21","60599946259dc97d30e2001f","bdp_cybrbll","Sun Apr 02 2023 20:37:29 GMT-0700 (Pacific Daylight Time)","433008","3","1","","null","","","","observe","","img/1to3/1.png","null","204","551","0.5","0.5","1","2","",""
"animation","47","75981","0.0-5.0-2.21","60599946259dc97d30e2001f","bdp_cybrbll","Sun Apr 02 2023 20:37:29 GMT-0700 (Pacific Daylight Time)","433008","3","1","","","","","","","","","","204","","","","1","2","[{""stimulus"":""img/1to2/1.png"",""time"":112},{""stimulus"":""img/1to2/2.png"",""time"":206},{""stimulus"":""img/1to2/3.png"",""time"":302},{""stimulus"":""img/1to2/4.png"",""time"":398},{""stimulus"":""img/1to2/5.png"",""time"":510},{""stimulus"":""img/1to2/6.png"",""time"":603},{""stimulus"":""img/1to2/7.png"",""time"":698},{""stimulus"":""img/1to2/8.png"",""time"":806},{""stimulus"":""img/1to2/9.png"",""time"":899},{""stimulus"":""img/1to2/10.png"",""time"":992},{""stimulus"":""img/1to2/11.png"",""time"":1102},{""stimulus"":""img/1to2/12.png"",""time"":1198}]","[]"
"image-keyboard-response","48","76424","0.0-5.0-1.22","60599946259dc97d30e2001f","bdp_cybrbll","Sun Apr 02 2023 20:37:29 GMT-0700 (Pacific Daylight Time)","433008","3","1","","443","","","","choice","","img/2to1/1.png","1","203","559","0.5","0.5","2","1","",""
"animation","49","77716","0.0-5.0-2.22","60599946259dc97d30e2001f","bdp_cybrbll","Sun Apr 02 2023 20:37:29 GMT-0700 (Pacific Daylight Time)","433008","3","1","","","","","","","","","","203","","","","2","1","[{""stimulus"":""img/2to1/1.png"",""time"":112},{""stimulus"":""img/2to1/2.png"",""time"":206},{""stimulus"":""img/2to1/3.png"",""time"":301},{""stimulus"":""img/2to1/4.png"",""time"":412},{""stimulus"":""img/2to1/5.png"",""time"":508},{""stimulus"":""img/2to1/6.png"",""time"":604},{""stimulus"":""img/2to1/7.png"",""time"":700},{""stimulus"":""img/2to1/8.png"",""time"":796},{""stimulus"":""img/2to1/9.png"",""time"":892},{""stimulus"":""img/2to1/10.png"",""time"":1004},{""stimulus"":""img/2to1/11.png"",""time"":1100},{""stimulus"":""img/2to1/12.png"",""time"":1196}]","[]"
"image-keyboard-response","50","78566","0.0-5.0-1.23","60599946259dc97d30e2001f","bdp_cybrbll","Sun Apr 02 2023 20:37:29 GMT-0700 (Pacific Daylight Time)","433008","3","1","","null","","","","observe","","img/1to3/1.png","null","202","841","0.5","0.5","1","2","",""
"animation","51","79863","0.0-5.0-2.23","60599946259dc97d30e2001f","bdp_cybrbll","Sun Apr 02 2023 20:37:29 GMT-0700 (Pacific Daylight Time)","433008","3","1","","","","","","","","","","202","","","","1","2","[{""stimulus"":""img/1to2/1.png"",""time"":112},{""stimulus"":""img/1to2/2.png"",""time"":208},{""stimulus"":""img/1to2/3.png"",""time"":302},{""stimulus"":""img/1to2/4.png"",""time"":398},{""stimulus"":""img/1to2/5.png"",""time"":508},{""stimulus"":""img/1to2/6.png"",""time"":604},{""stimulus"":""img/1to2/7.png"",""time"":700},{""stimulus"":""img/1to2/8.png"",""time"":794},{""stimulus"":""img/1to2/9.png"",""time"":904},{""stimulus"":""img/1to2/10.png"",""time"":999},{""stimulus"":""img/1to2/11.png"",""time"":1093},{""stimulus"":""img/1to2/12.png"",""time"":1203}]","[]"
"image-keyboard-response","52","80215","0.0-5.0-1.24","60599946259dc97d30e2001f","bdp_cybrbll","Sun Apr 02 2023 20:37:29 GMT-0700 (Pacific Daylight Time)","433008","3","1","","352","","","","choice","","img/2to1/1.png","2","201","923","0.5","0.5","2","3","",""
"animation","53","81513","0.0-5.0-2.24","60599946259dc97d30e2001f","bdp_cybrbll","Sun Apr 02 2023 20:37:29 GMT-0700 (Pacific Daylight Time)","433008","3","1","","","","","","","","","","201","","","","2","3","[{""stimulus"":""img/2to3/1.png"",""time"":100},{""stimulus"":""img/2to3/2.png"",""time"":204},{""stimulus"":""img/2to3/3.png"",""time"":298},{""stimulus"":""img/2to3/4.png"",""time"":408},{""stimulus"":""img/2to3/5.png"",""time"":504},{""stimulus"":""img/2to3/6.png"",""time"":598},{""stimulus"":""img/2to3/7.png"",""time"":709},{""stimulus"":""img/2to3/8.png"",""time"":805},{""stimulus"":""img/2to3/9.png"",""time"":900},{""stimulus"":""img/2to3/10.png"",""time"":996},{""stimulus"":""img/2to3/11.png"",""time"":1092},{""stimulus"":""img/2to3/12.png"",""time"":1204}]","[]"
"image-keyboard-response","54","82992","0.0-5.0-1.25","60599946259dc97d30e2001f","bdp_cybrbll","Sun Apr 02 2023 20:37:29 GMT-0700 (Pacific Daylight Time)","433008","3","1","","null","","","","observe","","img/3to2/1.png","null","200","1471","0.5","0.5","3","2","",""
"animation","55","84293","0.0-5.0-2.25","60599946259dc97d30e2001f","bdp_cybrbll","Sun Apr 02 2023 20:37:29 GMT-0700 (Pacific Daylight Time)","433008","3","1","","","","","","","","","","200","","","","3","2","[{""stimulus"":""img/3to2/1.png"",""time"":109},{""stimulus"":""img/3to2/2.png"",""time"":205},{""stimulus"":""img/3to2/3.png"",""time"":299},{""stimulus"":""img/3to2/4.png"",""time"":411},{""stimulus"":""img/3to2/5.png"",""time"":505},{""stimulus"":""img/3to2/6.png"",""time"":600},{""stimulus"":""img/3to2/7.png"",""time"":696},{""stimulus"":""img/3to2/8.png"",""time"":807},{""stimulus"":""img/3to2/9.png"",""time"":892},{""stimulus"":""img/3to2/10.png"",""time"":999},{""stimulus"":""img/3to2/11.png"",""time"":1095},{""stimulus"":""img/3to2/12.png"",""time"":1189}]","[]"
"image-keyboard-response","56","84463","0.0-5.0-1.26","60599946259dc97d30e2001f","bdp_cybrbll","Sun Apr 02 2023 20:37:29 GMT-0700 (Pacific Daylight Time)","433008","3","1","","170","","","","choice","","img/2to1/1.png","1","199","197","0.5","0.5","2","1","",""
"animation","57","85755","0.0-5.0-2.26","60599946259dc97d30e2001f","bdp_cybrbll","Sun Apr 02 2023 20:37:29 GMT-0700 (Pacific Daylight Time)","433008","3","1","","","","","","","","","","199","","","","2","1","[{""stimulus"":""img/2to1/1.png"",""time"":115},{""stimulus"":""img/2to1/2.png"",""time"":209},{""stimulus"":""img/2to1/3.png"",""time"":303},{""stimulus"":""img/2to1/4.png"",""time"":399},{""stimulus"":""img/2to1/5.png"",""time"":511},{""stimulus"":""img/2to1/6.png"",""time"":607},{""stimulus"":""img/2to1/7.png"",""time"":703},{""stimulus"":""img/2to1/8.png"",""time"":799},{""stimulus"":""img/2to1/9.png"",""time"":895},{""stimulus"":""img/2to1/10.png"",""time"":1005},{""stimulus"":""img/2to1/11.png"",""time"":1101},{""stimulus"":""img/2to1/12.png"",""time"":1196}]","[]"
"image-keyboard-response","58","86041","0.0-5.0-1.27","60599946259dc97d30e2001f","bdp_cybrbll","Sun Apr 02 2023 20:37:29 GMT-0700 (Pacific Daylight Time)","433008","3","1","","null","","","","observe","","img/1to3/1.png","null","198","284","0.5","0.5","1","2","",""
"animation","59","87332","0.0-5.0-2.27","60599946259dc97d30e2001f","bdp_cybrbll","Sun Apr 02 2023 20:37:29 GMT-0700 (Pacific Daylight Time)","433008","3","1","","","","","","","","","","198","","","","1","2","[{""stimulus"":""img/1to2/1.png"",""time"":112},{""stimulus"":""img/1to2/2.png"",""time"":206},{""stimulus"":""img/1to2/3.png"",""time"":302},{""stimulus"":""img/1to2/4.png"",""time"":396},{""stimulus"":""img/1to2/5.png"",""time"":508},{""stimulus"":""img/1to2/6.png"",""time"":604},{""stimulus"":""img/1to2/7.png"",""time"":700},{""stimulus"":""img/1to2/8.png"",""time"":796},{""stimulus"":""img/1to2/9.png"",""time"":892},{""stimulus"":""img/1to2/10.png"",""time"":1004},{""stimulus"":""img/1to2/11.png"",""time"":1100},{""stimulus"":""img/1to2/12.png"",""time"":1195}]","[]"
"image-keyboard-response","60","87576","0.0-5.0-1.28","60599946259dc97d30e2001f","bdp_cybrbll","Sun Apr 02 2023 20:37:29 GMT-0700 (Pacific Daylight Time)","433008","3","1","","244","","","","choice","","img/2to1/1.png","2","197","306","0.5","0.5","2","3","",""
"animation","61","88876","0.0-5.0-2.28","60599946259dc97d30e2001f","bdp_cybrbll","Sun Apr 02 2023 20:37:29 GMT-0700 (Pacific Daylight Time)","433008","3","1","","","","","","","","","","197","","","","2","3","[{""stimulus"":""img/2to3/1.png"",""time"":107},{""stimulus"":""img/2to3/2.png"",""time"":200},{""stimulus"":""img/2to3/3.png"",""time"":309},{""stimulus"":""img/2to3/4.png"",""time"":403},{""stimulus"":""img/2to3/5.png"",""time"":497},{""stimulus"":""img/2to3/6.png"",""time"":605},{""stimulus"":""img/2to3/7.png"",""time"":699},{""stimulus"":""img/2to3/8.png"",""time"":794},{""stimulus"":""img/2to3/9.png"",""time"":904},{""stimulus"":""img/2to3/10.png"",""time"":998},{""stimulus"":""img/2to3/11.png"",""time"":1093},{""stimulus"":""img/2to3/12.png"",""time"":1204}]","[]"
"image-keyboard-response","62","90210","0.0-5.0-1.29","60599946259dc97d30e2001f","bdp_cybrbll","Sun Apr 02 2023 20:37:29 GMT-0700 (Pacific Daylight Time)","433008","3","1","","null","","","","observe","","img/3to2/1.png","null","196","1324","0.5","0.5","3","1","",""
"animation","63","91508","0.0-5.0-2.29","60599946259dc97d30e2001f","bdp_cybrbll","Sun Apr 02 2023 20:37:29 GMT-0700 (Pacific Daylight Time)","433008","3","1","","","","","","","","","","196","","","","3","1","[{""stimulus"":""img/3to1/1.png"",""time"":111},{""stimulus"":""img/3to1/2.png"",""time"":205},{""stimulus"":""img/3to1/3.png"",""time"":301},{""stimulus"":""img/3to1/4.png"",""time"":411},{""stimulus"":""img/3to1/5.png"",""time"":505},{""stimulus"":""img/3to1/6.png"",""time"":598},{""stimulus"":""img/3to1/7.png"",""time"":709},{""stimulus"":""img/3to1/8.png"",""time"":804},{""stimulus"":""img/3to1/9.png"",""time"":900},{""stimulus"":""img/3to1/10.png"",""time"":994},{""stimulus"":""img/3to1/11.png"",""time"":1090},{""stimulus"":""img/3to1/12.png"",""time"":1202}]","[]"
"image-keyboard-response","64","92011","0.0-5.0-1.30","60599946259dc97d30e2001f","bdp_cybrbll","Sun Apr 02 2023 20:37:29 GMT-0700 (Pacific Daylight Time)","433008","3","1","","null","","","","observe","","img/1to3/1.png","null","195","498","0.5","0.5","1","2","",""
"animation","65","93309","0.0-5.0-2.30","60599946259dc97d30e2001f","bdp_cybrbll","Sun Apr 02 2023 20:37:29 GMT-0700 (Pacific Daylight Time)","433008","3","1","","","","","","","","","","195","","","","1","2","[{""stimulus"":""img/1to2/1.png"",""time"":109},{""stimulus"":""img/1to2/2.png"",""time"":205},{""stimulus"":""img/1to2/3.png"",""time"":299},{""stimulus"":""img/1to2/4.png"",""time"":410},{""stimulus"":""img/1to2/5.png"",""time"":503},{""stimulus"":""img/1to2/6.png"",""time"":594},{""stimulus"":""img/1to2/7.png"",""time"":694},{""stimulus"":""img/1to2/8.png"",""time"":804},{""stimulus"":""img/1to2/9.png"",""time"":900},{""stimulus"":""img/1to2/10.png"",""time"":995},{""stimulus"":""img/1to2/11.png"",""time"":1091},{""stimulus"":""img/1to2/12.png"",""time"":1203}]","[]"
"image-keyboard-response","66","93639","0.0-5.0-1.31","60599946259dc97d30e2001f","bdp_cybrbll","Sun Apr 02 2023 20:37:29 GMT-0700 (Pacific Daylight Time)","433008","3","1","","329","","","","choice","","img/2to1/1.png","2","194","264","0.5","0.5","2","3","",""
"animation","67","94937","0.0-5.0-2.31","60599946259dc97d30e2001f","bdp_cybrbll","Sun Apr 02 2023 20:37:29 GMT-0700 (Pacific Daylight Time)","433008","3","1","","","","","","","","","","194","","","","2","3","[{""stimulus"":""img/2to3/1.png"",""time"":110},{""stimulus"":""img/2to3/2.png"",""time"":205},{""stimulus"":""img/2to3/3.png"",""time"":301},{""stimulus"":""img/2to3/4.png"",""time"":397},{""stimulus"":""img/2to3/5.png"",""time"":507},{""stimulus"":""img/2to3/6.png"",""time"":603},{""stimulus"":""img/2to3/7.png"",""time"":697},{""stimulus"":""img/2to3/8.png"",""time"":808},{""stimulus"":""img/2to3/9.png"",""time"":902},{""stimulus"":""img/2to3/10.png"",""time"":998},{""stimulus"":""img/2to3/11.png"",""time"":1094},{""stimulus"":""img/2to3/12.png"",""time"":1203}]","[]"
"image-keyboard-response","68","95625","0.0-5.0-1.32","60599946259dc97d30e2001f","bdp_cybrbll","Sun Apr 02 2023 20:37:29 GMT-0700 (Pacific Daylight Time)","433008","3","1","","null","","","","observe","","img/3to2/1.png","null","193","686","0.5","0.5","3","2","",""
"animation","69","96920","0.0-5.0-2.32","60599946259dc97d30e2001f","bdp_cybrbll","Sun Apr 02 2023 20:37:29 GMT-0700 (Pacific Daylight Time)","433008","3","1","","","","","","","","","","193","","","","3","2","[{""stimulus"":""img/3to2/1.png"",""time"":112},{""stimulus"":""img/3to2/2.png"",""time"":206},{""stimulus"":""img/3to2/3.png"",""time"":302},{""stimulus"":""img/3to2/4.png"",""time"":398},{""stimulus"":""img/3to2/5.png"",""time"":508},{""stimulus"":""img/3to2/6.png"",""time"":600},{""stimulus"":""img/3to2/7.png"",""time"":708},{""stimulus"":""img/3to2/8.png"",""time"":804},{""stimulus"":""img/3to2/9.png"",""time"":898},{""stimulus"":""img/3to2/10.png"",""time"":993},{""stimulus"":""img/3to2/11.png"",""time"":1104},{""stimulus"":""img/3to2/12.png"",""time"":1199}]","[]"
"image-keyboard-response","70","97287","0.0-5.0-1.33","60599946259dc97d30e2001f","bdp_cybrbll","Sun Apr 02 2023 20:37:29 GMT-0700 (Pacific Daylight Time)","433008","3","1","","367","","","","choice","","img/2to1/1.png","1","192","768","0.5","0.5","2","1","",""
"animation","71","98587","0.0-5.0-2.33","60599946259dc97d30e2001f","bdp_cybrbll","Sun Apr 02 2023 20:37:29 GMT-0700 (Pacific Daylight Time)","433008","3","1","","","","","","","","","","192","","","","2","1","[{""stimulus"":""img/2to1/1.png"",""time"":100},{""stimulus"":""img/2to1/2.png"",""time"":207},{""stimulus"":""img/2to1/3.png"",""time"":303},{""stimulus"":""img/2to1/4.png"",""time"":399},{""stimulus"":""img/2to1/5.png"",""time"":511},{""stimulus"":""img/2to1/6.png"",""time"":607},{""stimulus"":""img/2to1/7.png"",""time"":700},{""stimulus"":""img/2to1/8.png"",""time"":795},{""stimulus"":""img/2to1/9.png"",""time"":907},{""stimulus"":""img/2to1/10.png"",""time"":1001},{""stimulus"":""img/2to1/11.png"",""time"":1096},{""stimulus"":""img/2to1/12.png"",""time"":1190}]","[]"
"image-keyboard-response","72","99384","0.0-5.0-1.34","60599946259dc97d30e2001f","bdp_cybrbll","Sun Apr 02 2023 20:37:29 GMT-0700 (Pacific Daylight Time)","433008","3","1","","null","","","","observe","","img/1to3/1.png","null","191","788","0.5","0.5","1","2","",""
"animation","73","100680","0.0-5.0-2.34","60599946259dc97d30e2001f","bdp_cybrbll","Sun Apr 02 2023 20:37:29 GMT-0700 (Pacific Daylight Time)","433008","3","1","","","","","","","","","","191","","","","1","2","[{""stimulus"":""img/1to2/1.png"",""time"":112},{""stimulus"":""img/1to2/2.png"",""time"":208},{""stimulus"":""img/1to2/3.png"",""time"":298},{""stimulus"":""img/1to2/4.png"",""time"":400},{""stimulus"":""img/1to2/5.png"",""time"":496},{""stimulus"":""img/1to2/6.png"",""time"":606},{""stimulus"":""img/1to2/7.png"",""time"":702},{""stimulus"":""img/1to2/8.png"",""time"":798},{""stimulus"":""img/1to2/9.png"",""time"":892},{""stimulus"":""img/1to2/10.png"",""time"":1001},{""stimulus"":""img/1to2/11.png"",""time"":1093},{""stimulus"":""img/1to2/12.png"",""time"":1189}]","[]"
"image-keyboard-response","74","100912","0.0-5.0-1.35","60599946259dc97d30e2001f","bdp_cybrbll","Sun Apr 02 2023 20:37:29 GMT-0700 (Pacific Daylight Time)","433008","3","1","","232","","","","choice","","img/2to1/1.png","2","190","273","0.5","0.5","2","3","",""
"animation","75","102202","0.0-5.0-2.35","60599946259dc97d30e2001f","bdp_cybrbll","Sun Apr 02 2023 20:37:29 GMT-0700 (Pacific Daylight Time)","433008","3","1","","","","","","","","","","190","","","","2","3","[{""stimulus"":""img/2to3/1.png"",""time"":100},{""stimulus"":""img/2to3/2.png"",""time"":198},{""stimulus"":""img/2to3/3.png"",""time"":308},{""stimulus"":""img/2to3/4.png"",""time"":404},{""stimulus"":""img/2to3/5.png"",""time"":500},{""stimulus"":""img/2to3/6.png"",""time"":595},{""stimulus"":""img/2to3/7.png"",""time"":706},{""stimulus"":""img/2to3/8.png"",""time"":801},{""stimulus"":""img/2to3/9.png"",""time"":894},{""stimulus"":""img/2to3/10.png"",""time"":1004},{""stimulus"":""img/2to3/11.png"",""time"":1099},{""stimulus"":""img/2to3/12.png"",""time"":1194}]","[]"
"image-keyboard-response","76","103074","0.0-5.0-1.36","60599946259dc97d30e2001f","bdp_cybrbll","Sun Apr 02 2023 20:37:29 GMT-0700 (Pacific Daylight Time)","433008","3","1","","null","","","","observe","","img/3to2/1.png","null","189","864","0.5","0.5","3","1","",""
"animation","77","104373","0.0-5.0-2.36","60599946259dc97d30e2001f","bdp_cybrbll","Sun Apr 02 2023 20:37:29 GMT-0700 (Pacific Daylight Time)","433008","3","1","","","","","","","","","","189","","","","3","1","[{""stimulus"":""img/3to1/1.png"",""time"":110},{""stimulus"":""img/3to1/2.png"",""time"":206},{""stimulus"":""img/3to1/3.png"",""time"":300},{""stimulus"":""img/3to1/4.png"",""time"":412},{""stimulus"":""img/3to1/5.png"",""time"":508},{""stimulus"":""img/3to1/6.png"",""time"":604},{""stimulus"":""img/3to1/7.png"",""time"":700},{""stimulus"":""img/3to1/8.png"",""time"":796},{""stimulus"":""img/3to1/9.png"",""time"":892},{""stimulus"":""img/3to1/10.png"",""time"":1001},{""stimulus"":""img/3to1/11.png"",""time"":1097},{""stimulus"":""img/3to1/12.png"",""time"":1190}]","[]"
"image-keyboard-response","78","105292","0.0-5.0-1.37","60599946259dc97d30e2001f","bdp_cybrbll","Sun Apr 02 2023 20:37:29 GMT-0700 (Pacific Daylight Time)","433008","3","1","","null","","","","observe","","img/1to3/1.png","null","188","911","0.5","0.5","1","2","",""
"animation","79","106584","0.0-5.0-2.37","60599946259dc97d30e2001f","bdp_cybrbll","Sun Apr 02 2023 20:37:29 GMT-0700 (Pacific Daylight Time)","433008","3","1","","","","","","","","","","188","","","","1","2","[{""stimulus"":""img/1to2/1.png"",""time"":112},{""stimulus"":""img/1to2/2.png"",""time"":207},{""stimulus"":""img/1to2/3.png"",""time"":302},{""stimulus"":""img/1to2/4.png"",""time"":410},{""stimulus"":""img/1to2/5.png"",""time"":503},{""stimulus"":""img/1to2/6.png"",""time"":595},{""stimulus"":""img/1to2/7.png"",""time"":706},{""stimulus"":""img/1to2/8.png"",""time"":802},{""stimulus"":""img/1to2/9.png"",""time"":895},{""stimulus"":""img/1to2/10.png"",""time"":1006},{""stimulus"":""img/1to2/11.png"",""time"":1102},{""stimulus"":""img/1to2/12.png"",""time"":1196}]","[]"
"image-keyboard-response","80","107087","0.0-5.0-1.38","60599946259dc97d30e2001f","bdp_cybrbll","Sun Apr 02 2023 20:37:29 GMT-0700 (Pacific Daylight Time)","433008","3","1","","503","","","","choice","","img/2to1/1.png","1","187","607","0.5","0.5","2","1","",""
"animation","81","108390","0.0-5.0-2.38","60599946259dc97d30e2001f","bdp_cybrbll","Sun Apr 02 2023 20:37:29 GMT-0700 (Pacific Daylight Time)","433008","3","1","","","","","","","","","","187","","","","2","1","[{""stimulus"":""img/2to1/1.png"",""time"":100},{""stimulus"":""img/2to1/2.png"",""time"":210},{""stimulus"":""img/2to1/3.png"",""time"":303},{""stimulus"":""img/2to1/4.png"",""time"":399},{""stimulus"":""img/2to1/5.png"",""time"":509},{""stimulus"":""img/2to1/6.png"",""time"":605},{""stimulus"":""img/2to1/7.png"",""time"":701},{""stimulus"":""img/2to1/8.png"",""time"":797},{""stimulus"":""img/2to1/9.png"",""time"":893},{""stimulus"":""img/2to1/10.png"",""time"":1005},{""stimulus"":""img/2to1/11.png"",""time"":1100},{""stimulus"":""img/2to1/12.png"",""time"":1193}]","[]"
"image-keyboard-response","82","109788","0.0-5.0-1.39","60599946259dc97d30e2001f","bdp_cybrbll","Sun Apr 02 2023 20:37:29 GMT-0700 (Pacific Daylight Time)","433008","3","1","","null","","","","observe","","img/1to3/1.png","null","186","1390","0.5","0.5","1","2","",""
"animation","83","111083","0.0-5.0-2.39","60599946259dc97d30e2001f","bdp_cybrbll","Sun Apr 02 2023 20:37:29 GMT-0700 (Pacific Daylight Time)","433008","3","1","","","","","","","","","","186","","","","1","2","[{""stimulus"":""img/1to2/1.png"",""time"":112},{""stimulus"":""img/1to2/2.png"",""time"":208},{""stimulus"":""img/1to2/3.png"",""time"":302},{""stimulus"":""img/1to2/4.png"",""time"":411},{""stimulus"":""img/1to2/5.png"",""time"":504},{""stimulus"":""img/1to2/6.png"",""time"":599},{""stimulus"":""img/1to2/7.png"",""time"":694},{""stimulus"":""img/1to2/8.png"",""time"":805},{""stimulus"":""img/1to2/9.png"",""time"":901},{""stimulus"":""img/1to2/10.png"",""time"":997},{""stimulus"":""img/1to2/11.png"",""time"":1091},{""stimulus"":""img/1to2/12.png"",""time"":1201}]","[]"
"image-keyboard-response","84","111335","0.0-5.0-1.40","60599946259dc97d30e2001f","bdp_cybrbll","Sun Apr 02 2023 20:37:29 GMT-0700 (Pacific Daylight Time)","433008","3","1","","252","","","","choice","","img/2to1/1.png","2","185","317","0.5","0.5","2","3","",""
"animation","85","112628","0.0-5.0-2.40","60599946259dc97d30e2001f","bdp_cybrbll","Sun Apr 02 2023 20:37:29 GMT-0700 (Pacific Daylight Time)","433008","3","1","","","","","","","","","","185","","","","2","3","[{""stimulus"":""img/2to3/1.png"",""time"":112},{""stimulus"":""img/2to3/2.png"",""time"":208},{""stimulus"":""img/2to3/3.png"",""time"":304},{""stimulus"":""img/2to3/4.png"",""time"":400},{""stimulus"":""img/2to3/5.png"",""time"":510},{""stimulus"":""img/2to3/6.png"",""time"":606},{""stimulus"":""img/2to3/7.png"",""time"":702},{""stimulus"":""img/2to3/8.png"",""time"":798},{""stimulus"":""img/2to3/9.png"",""time"":894},{""stimulus"":""img/2to3/10.png"",""time"":1005},{""stimulus"":""img/2to3/11.png"",""time"":1101},{""stimulus"":""img/2to3/12.png"",""time"":1197}]","[]"
"image-keyboard-response","86","113403","0.0-5.0-1.41","60599946259dc97d30e2001f","bdp_cybrbll","Sun Apr 02 2023 20:37:29 GMT-0700 (Pacific Daylight Time)","433008","3","1","","null","","","","observe","","img/3to2/1.png","null","184","764","0.5","0.5","3","1","",""
"animation","87","114704","0.0-5.0-2.41","60599946259dc97d30e2001f","bdp_cybrbll","Sun Apr 02 2023 20:37:29 GMT-0700 (Pacific Daylight Time)","433008","3","1","","","","","","","","","","184","","","","3","1","[{""stimulus"":""img/3to1/1.png"",""time"":108},{""stimulus"":""img/3to1/2.png"",""time"":204},{""stimulus"":""img/3to1/3.png"",""time"":298},{""stimulus"":""img/3to1/4.png"",""time"":410},{""stimulus"":""img/3to1/5.png"",""time"":504},{""stimulus"":""img/3to1/6.png"",""time"":600},{""stimulus"":""img/3to1/7.png"",""time"":696},{""stimulus"":""img/3to1/8.png"",""time"":807},{""stimulus"":""img/3to1/9.png"",""time"":902},{""stimulus"":""img/3to1/10.png"",""time"":998},{""stimulus"":""img/3to1/11.png"",""time"":1094},{""stimulus"":""img/3to1/12.png"",""time"":1190}]","[]"
"image-keyboard-response","88","115226","0.0-5.0-1.42","60599946259dc97d30e2001f","bdp_cybrbll","Sun Apr 02 2023 20:37:29 GMT-0700 (Pacific Daylight Time)","433008","3","1","","null","","","","observe","","img/1to3/1.png","null","183","509","0.5","0.5","1","3","",""
"animation","89","116526","0.0-5.0-2.42","60599946259dc97d30e2001f","bdp_cybrbll","Sun Apr 02 2023 20:37:29 GMT-0700 (Pacific Daylight Time)","433008","3","1","","","","","","","","","","183","","","","1","3","[{""stimulus"":""img/1to3/1.png"",""time"":112},{""stimulus"":""img/1to3/2.png"",""time"":207},{""stimulus"":""img/1to3/3.png"",""time"":302},{""stimulus"":""img/1to3/4.png"",""time"":398},{""stimulus"":""img/1to3/5.png"",""time"":508},{""stimulus"":""img/1to3/6.png"",""time"":604},{""stimulus"":""img/1to3/7.png"",""time"":697},{""stimulus"":""img/1to3/8.png"",""time"":806},{""stimulus"":""img/1to3/9.png"",""time"":900},{""stimulus"":""img/1to3/10.png"",""time"":996},{""stimulus"":""img/1to3/11.png"",""time"":1092},{""stimulus"":""img/1to3/12.png"",""time"":1204}]","[]"
"image-keyboard-response","90","116813","0.0-5.0-1.43","60599946259dc97d30e2001f","bdp_cybrbll","Sun Apr 02 2023 20:37:29 GMT-0700 (Pacific Daylight Time)","433008","3","1","","null","","","","observe","","img/3to2/1.png","null","182","274","0.5","0.5","3","1","",""
"animation","91","118116","0.0-5.0-2.43","60599946259dc97d30e2001f","bdp_cybrbll","Sun Apr 02 2023 20:37:29 GMT-0700 (Pacific Daylight Time)","433008","3","1","","","","","","","","","","182","","","","3","1","[{""stimulus"":""img/3to1/1.png"",""time"":110},{""stimulus"":""img/3to1/2.png"",""time"":202},{""stimulus"":""img/3to1/3.png"",""time"":310},{""stimulus"":""img/3to1/4.png"",""time"":404},{""stimulus"":""img/3to1/5.png"",""time"":500},{""stimulus"":""img/3to1/6.png"",""time"":610},{""stimulus"":""img/3to1/7.png"",""time"":706},{""stimulus"":""img/3to1/8.png"",""time"":801},{""stimulus"":""img/3to1/9.png"",""time"":897},{""stimulus"":""img/3to1/10.png"",""time"":1005},{""stimulus"":""img/3to1/11.png"",""time"":1099},{""stimulus"":""img/3to1/12.png"",""time"":1193}]","[]"
"image-keyboard-response","92","118430","0.0-5.0-1.44","60599946259dc97d30e2001f","bdp_cybrbll","Sun Apr 02 2023 20:37:29 GMT-0700 (Pacific Daylight Time)","433008","3","1","","null","","","","observe","","img/1to3/1.png","null","181","309","0.5","0.5","1","2","",""
"animation","93","119730","0.0-5.0-2.44","60599946259dc97d30e2001f","bdp_cybrbll","Sun Apr 02 2023 20:37:29 GMT-0700 (Pacific Daylight Time)","433008","3","1","","","","","","","","","","181","","","","1","2","[{""stimulus"":""img/1to2/1.png"",""time"":112},{""stimulus"":""img/1to2/2.png"",""time"":208},{""stimulus"":""img/1to2/3.png"",""time"":303},{""stimulus"":""img/1to2/4.png"",""time"":399},{""stimulus"":""img/1to2/5.png"",""time"":495},{""stimulus"":""img/1to2/6.png"",""time"":605},{""stimulus"":""img/1to2/7.png"",""time"":700},{""stimulus"":""img/1to2/8.png"",""time"":793},{""stimulus"":""img/1to2/9.png"",""time"":904},{""stimulus"":""img/1to2/10.png"",""time"":1000},{""stimulus"":""img/1to2/11.png"",""time"":1094},{""stimulus"":""img/1to2/12.png"",""time"":1188}]","[]"
"image-keyboard-response","94","119895","0.0-5.0-1.45","60599946259dc97d30e2001f","bdp_cybrbll","Sun Apr 02 2023 20:37:29 GMT-0700 (Pacific Daylight Time)","433008","3","1","","164","","","","choice","","img/2to1/1.png","1","180","880","0.5","0.5","2","1","",""
"animation","95","121196","0.0-5.0-2.45","60599946259dc97d30e2001f","bdp_cybrbll","Sun Apr 02 2023 20:37:29 GMT-0700 (Pacific Daylight Time)","433008","3","1","","","","","","","","","","180","","","","2","1","[{""stimulus"":""img/2to1/1.png"",""time"":107},{""stimulus"":""img/2to1/2.png"",""time"":201},{""stimulus"":""img/2to1/3.png"",""time"":313},{""stimulus"":""img/2to1/4.png"",""time"":409},{""stimulus"":""img/2to1/5.png"",""time"":505},{""stimulus"":""img/2to1/6.png"",""time"":601},{""stimulus"":""img/2to1/7.png"",""time"":697},{""stimulus"":""img/2to1/8.png"",""time"":793},{""stimulus"":""img/2to1/9.png"",""time"":903},{""stimulus"":""img/2to1/10.png"",""time"":999},{""stimulus"":""img/2to1/11.png"",""time"":1093},{""stimulus"":""img/2to1/12.png"",""time"":1189}]","[]"
"image-keyboard-response","96","121466","0.0-5.0-1.46","60599946259dc97d30e2001f","bdp_cybrbll","Sun Apr 02 2023 20:37:29 GMT-0700 (Pacific Daylight Time)","433008","3","1","","null","","","","observe","","img/1to3/1.png","null","179","265","0.5","0.5","1","2","",""
"animation","97","122764","0.0-5.0-2.46","60599946259dc97d30e2001f","bdp_cybrbll","Sun Apr 02 2023 20:37:29 GMT-0700 (Pacific Daylight Time)","433008","3","1","","","","","","","","","","179","","","","1","2","[{""stimulus"":""img/1to2/1.png"",""time"":112},{""stimulus"":""img/1to2/2.png"",""time"":204},{""stimulus"":""img/1to2/3.png"",""time"":300},{""stimulus"":""img/1to2/4.png"",""time"":410},{""stimulus"":""img/1to2/5.png"",""time"":506},{""stimulus"":""img/1to2/6.png"",""time"":601},{""stimulus"":""img/1to2/7.png"",""time"":696},{""stimulus"":""img/1to2/8.png"",""time"":806},{""stimulus"":""img/1to2/9.png"",""time"":902},{""stimulus"":""img/1to2/10.png"",""time"":996},{""stimulus"":""img/1to2/11.png"",""time"":1092},{""stimulus"":""img/1to2/12.png"",""time"":1204}]","[]"
"image-keyboard-response","98","123112","0.0-5.0-1.47","60599946259dc97d30e2001f","bdp_cybrbll","Sun Apr 02 2023 20:37:29 GMT-0700 (Pacific Daylight Time)","433008","3","1","","347","","","","choice","","img/2to1/1.png","2","178","456","0.5","0.5","2","3","",""
"animation","99","124410","0.0-5.0-2.47","60599946259dc97d30e2001f","bdp_cybrbll","Sun Apr 02 2023 20:37:29 GMT-0700 (Pacific Daylight Time)","433008","3","1","","","","","","","","","","178","","","","2","3","[{""stimulus"":""img/2to3/1.png"",""time"":100},{""stimulus"":""img/2to3/2.png"",""time"":212},{""stimulus"":""img/2to3/3.png"",""time"":306},{""stimulus"":""img/2to3/4.png"",""time"":401},{""stimulus"":""img/2to3/5.png"",""time"":509},{""stimulus"":""img/2to3/6.png"",""time"":602},{""stimulus"":""img/2to3/7.png"",""time"":697},{""stimulus"":""img/2to3/8.png"",""time"":793},{""stimulus"":""img/2to3/9.png"",""time"":903},{""stimulus"":""img/2to3/10.png"",""time"":998},{""stimulus"":""img/2to3/11.png"",""time"":1092},{""stimulus"":""img/2to3/12.png"",""time"":1202}]","[]"
"image-keyboard-response","100","124648","0.0-5.0-1.48","60599946259dc97d30e2001f","bdp_cybrbll","Sun Apr 02 2023 20:37:29 GMT-0700 (Pacific Daylight Time)","433008","3","1","","null","","","","observe","","img/3to2/1.png","null","177","234","0.5","0.5","3","2","",""
"animation","101","125950","0.0-5.0-2.48","60599946259dc97d30e2001f","bdp_cybrbll","Sun Apr 02 2023 20:37:29 GMT-0700 (Pacific Daylight Time)","433008","3","1","","","","","","","","","","177","","","","3","2","[{""stimulus"":""img/3to2/1.png"",""time"":111},{""stimulus"":""img/3to2/2.png"",""time"":208},{""stimulus"":""img/3to2/3.png"",""time"":303},{""stimulus"":""img/3to2/4.png"",""time"":397},{""stimulus"":""img/3to2/5.png"",""time"":508},{""stimulus"":""img/3to2/6.png"",""time"":603},{""stimulus"":""img/3to2/7.png"",""time"":698},{""stimulus"":""img/3to2/8.png"",""time"":794},{""stimulus"":""img/3to2/9.png"",""time"":904},{""stimulus"":""img/3to2/10.png"",""time"":998},{""stimulus"":""img/3to2/11.png"",""time"":1094},{""stimulus"":""img/3to2/12.png"",""time"":1190}]","[]"
"image-keyboard-response","102","126143","0.0-5.0-1.49","60599946259dc97d30e2001f","bdp_cybrbll","Sun Apr 02 2023 20:37:29 GMT-0700 (Pacific Daylight Time)","433008","3","1","","193","","","","choice","","img/2to1/1.png","1","176","344","0.5","0.5","2","1","",""
"animation","103","127432","0.0-5.0-2.49","60599946259dc97d30e2001f","bdp_cybrbll","Sun Apr 02 2023 20:37:29 GMT-0700 (Pacific Daylight Time)","433008","3","1","","","","","","","","","","176","","","","2","1","[{""stimulus"":""img/2to1/1.png"",""time"":111},{""stimulus"":""img/2to1/2.png"",""time"":205},{""stimulus"":""img/2to1/3.png"",""time"":300},{""stimulus"":""img/2to1/4.png"",""time"":397},{""stimulus"":""img/2to1/5.png"",""time"":509},{""stimulus"":""img/2to1/6.png"",""time"":605},{""stimulus"":""img/2to1/7.png"",""time"":701},{""stimulus"":""img/2to1/8.png"",""time"":795},{""stimulus"":""img/2to1/9.png"",""time"":905},{""stimulus"":""img/2to1/10.png"",""time"":1001},{""stimulus"":""img/2to1/11.png"",""time"":1097},{""stimulus"":""img/2to1/12.png"",""time"":1193}]","[]"
"image-keyboard-response","104","128883","0.0-5.0-1.50","60599946259dc97d30e2001f","bdp_cybrbll","Sun Apr 02 2023 20:37:29 GMT-0700 (Pacific Daylight Time)","433008","3","1","","null","","","","observe","","img/1to3/1.png","null","175","1444","0.5","0.5","1","2","",""
"animation","105","130176","0.0-5.0-2.50","60599946259dc97d30e2001f","bdp_cybrbll","Sun Apr 02 2023 20:37:29 GMT-0700 (Pacific Daylight Time)","433008","3","1","","","","","","","","","","175","","","","1","2","[{""stimulus"":""img/1to2/1.png"",""time"":112},{""stimulus"":""img/1to2/2.png"",""time"":208},{""stimulus"":""img/1to2/3.png"",""time"":304},{""stimulus"":""img/1to2/4.png"",""time"":400},{""stimulus"":""img/1to2/5.png"",""time"":496},{""stimulus"":""img/1to2/6.png"",""time"":596},{""stimulus"":""img/1to2/7.png"",""time"":702},{""stimulus"":""img/1to2/8.png"",""time"":798},{""stimulus"":""img/1to2/9.png"",""time"":893},{""stimulus"":""img/1to2/10.png"",""time"":1006},{""stimulus"":""img/1to2/11.png"",""time"":1102},{""stimulus"":""img/1to2/12.png"",""time"":1197}]","[]"
"image-keyboard-response","106","130367","0.0-5.0-1.51","60599946259dc97d30e2001f","bdp_cybrbll","Sun Apr 02 2023 20:37:29 GMT-0700 (Pacific Daylight Time)","433008","3","1","","191","","","","choice","","img/2to1/1.png","2","174","500","0.5","0.5","2","3","",""
"animation","107","131662","0.0-5.0-2.51","60599946259dc97d30e2001f","bdp_cybrbll","Sun Apr 02 2023 20:37:29 GMT-0700 (Pacific Daylight Time)","433008","3","1","","","","","","","","","","174","","","","2","3","[{""stimulus"":""img/2to3/1.png"",""time"":111},{""stimulus"":""img/2to3/2.png"",""time"":205},{""stimulus"":""img/2to3/3.png"",""time"":301},{""stimulus"":""img/2to3/4.png"",""time"":397},{""stimulus"":""img/2to3/5.png"",""time"":509},{""stimulus"":""img/2to3/6.png"",""time"":605},{""stimulus"":""img/2to3/7.png"",""time"":701},{""stimulus"":""img/2to3/8.png"",""time"":795},{""stimulus"":""img/2to3/9.png"",""time"":903},{""stimulus"":""img/2to3/10.png"",""time"":996},{""stimulus"":""img/2to3/11.png"",""time"":1090},{""stimulus"":""img/2to3/12.png"",""time"":1199}]","[]"
"image-keyboard-response","108","132459","0.0-5.0-1.52","60599946259dc97d30e2001f","bdp_cybrbll","Sun Apr 02 2023 20:37:29 GMT-0700 (Pacific Daylight Time)","433008","3","1","","null","","","","observe","","img/3to2/1.png","null","173","795","0.5","0.5","3","1","",""
"animation","109","133748","0.0-5.0-2.52","60599946259dc97d30e2001f","bdp_cybrbll","Sun Apr 02 2023 20:37:29 GMT-0700 (Pacific Daylight Time)","433008","3","1","","","","","","","","","","173","","","","3","1","[{""stimulus"":""img/3to1/1.png"",""time"":112},{""stimulus"":""img/3to1/2.png"",""time"":206},{""stimulus"":""img/3to1/3.png"",""time"":300},{""stimulus"":""img/3to1/4.png"",""time"":410},{""stimulus"":""img/3to1/5.png"",""time"":504},{""stimulus"":""img/3to1/6.png"",""time"":596},{""stimulus"":""img/3to1/7.png"",""time"":703},{""stimulus"":""img/3to1/8.png"",""time"":798},{""stimulus"":""img/3to1/9.png"",""time"":892},{""stimulus"":""img/3to1/10.png"",""time"":1004},{""stimulus"":""img/3to1/11.png"",""time"":1099},{""stimulus"":""img/3to1/12.png"",""time"":1194}]","[]"
"image-keyboard-response","110","134082","0.0-5.0-1.53","60599946259dc97d30e2001f","bdp_cybrbll","Sun Apr 02 2023 20:37:29 GMT-0700 (Pacific Daylight Time)","433008","3","1","","null","","","","observe","","img/1to3/1.png","null","172","326","0.5","0.5","1","2","",""
"animation","111","135372","0.0-5.0-2.53","60599946259dc97d30e2001f","bdp_cybrbll","Sun Apr 02 2023 20:37:29 GMT-0700 (Pacific Daylight Time)","433008","3","1","","","","","","","","","","172","","","","1","2","[{""stimulus"":""img/1to2/1.png"",""time"":112},{""stimulus"":""img/1to2/2.png"",""time"":208},{""stimulus"":""img/1to2/3.png"",""time"":304},{""stimulus"":""img/1to2/4.png"",""time"":400},{""stimulus"":""img/1to2/5.png"",""time"":496},{""stimulus"":""img/1to2/6.png"",""time"":604},{""stimulus"":""img/1to2/7.png"",""time"":700},{""stimulus"":""img/1to2/8.png"",""time"":807},{""stimulus"":""img/1to2/9.png"",""time"":900},{""stimulus"":""img/1to2/10.png"",""time"":994},{""stimulus"":""img/1to2/11.png"",""time"":1104},{""stimulus"":""img/1to2/12.png"",""time"":1197}]","[]"
"image-keyboard-response","112","135551","0.0-5.0-1.54","60599946259dc97d30e2001f","bdp_cybrbll","Sun Apr 02 2023 20:37:29 GMT-0700 (Pacific Daylight Time)","433008","3","1","","179","","","","choice","","img/2to1/1.png","2","171","484","0.5","0.5","2","3","",""
"animation","113","136852","0.0-5.0-2.54","60599946259dc97d30e2001f","bdp_cybrbll","Sun Apr 02 2023 20:37:29 GMT-0700 (Pacific Daylight Time)","433008","3","1","","","","","","","","","","171","","","","2","3","[{""stimulus"":""img/2to3/1.png"",""time"":101},{""stimulus"":""img/2to3/2.png"",""time"":210},{""stimulus"":""img/2to3/3.png"",""time"":305},{""stimulus"":""img/2to3/4.png"",""time"":401},{""stimulus"":""img/2to3/5.png"",""time"":496},{""stimulus"":""img/2to3/6.png"",""time"":608},{""stimulus"":""img/2to3/7.png"",""time"":703},{""stimulus"":""img/2to3/8.png"",""time"":796},{""stimulus"":""img/2to3/9.png"",""time"":905},{""stimulus"":""img/2to3/10.png"",""time"":1000},{""stimulus"":""img/2to3/11.png"",""time"":1093},{""stimulus"":""img/2to3/12.png"",""time"":1189}]","[]"
"image-keyboard-response","114","137108","0.0-5.0-1.55","60599946259dc97d30e2001f","bdp_cybrbll","Sun Apr 02 2023 20:37:29 GMT-0700 (Pacific Daylight Time)","433008","3","1","","null","","","","observe","","img/3to2/1.png","null","170","242","0.5","0.5","3","2","",""
"animation","115","138409","0.0-5.0-2.55","60599946259dc97d30e2001f","bdp_cybrbll","Sun Apr 02 2023 20:37:29 GMT-0700 (Pacific Daylight Time)","433008","3","1","","","","","","","","","","170","","","","3","2","[{""stimulus"":""img/3to2/1.png"",""time"":112},{""stimulus"":""img/3to2/2.png"",""time"":208},{""stimulus"":""img/3to2/3.png"",""time"":304},{""stimulus"":""img/3to2/4.png"",""time"":399},{""stimulus"":""img/3to2/5.png"",""time"":510},{""stimulus"":""img/3to2/6.png"",""time"":605},{""stimulus"":""img/3to2/7.png"",""time"":699},{""stimulus"":""img/3to2/8.png"",""time"":795},{""stimulus"":""img/3to2/9.png"",""time"":904},{""stimulus"":""img/3to2/10.png"",""time"":998},{""stimulus"":""img/3to2/11.png"",""time"":1094},{""stimulus"":""img/3to2/12.png"",""time"":1190}]","[]"
"image-keyboard-response","116","138902","0.0-5.0-1.56","60599946259dc97d30e2001f","bdp_cybrbll","Sun Apr 02 2023 20:37:29 GMT-0700 (Pacific Daylight Time)","433008","3","1","","493","","","","choice","","img/2to1/1.png","1","169","761","0.5","0.5","2","1","",""
"animation","117","140199","0.0-5.0-2.56","60599946259dc97d30e2001f","bdp_cybrbll","Sun Apr 02 2023 20:37:29 GMT-0700 (Pacific Daylight Time)","433008","3","1","","","","","","","","","","169","","","","2","1","[{""stimulus"":""img/2to1/1.png"",""time"":103},{""stimulus"":""img/2to1/2.png"",""time"":215},{""stimulus"":""img/2to1/3.png"",""time"":310},{""stimulus"":""img/2to1/4.png"",""time"":406},{""stimulus"":""img/2to1/5.png"",""time"":500},{""stimulus"":""img/2to1/6.png"",""time"":594},{""stimulus"":""img/2to1/7.png"",""time"":708},{""stimulus"":""img/2to1/8.png"",""time"":804},{""stimulus"":""img/2to1/9.png"",""time"":900},{""stimulus"":""img/2to1/10.png"",""time"":995},{""stimulus"":""img/2to1/11.png"",""time"":1091},{""stimulus"":""img/2to1/12.png"",""time"":1201}]","[]"
"image-keyboard-response","118","140663","0.0-5.0-1.57","60599946259dc97d30e2001f","bdp_cybrbll","Sun Apr 02 2023 20:37:29 GMT-0700 (Pacific Daylight Time)","433008","3","1","","null","","","","observe","","img/1to3/1.png","null","168","463","0.5","0.5","1","2","",""
"animation","119","141964","0.0-5.0-2.57","60599946259dc97d30e2001f","bdp_cybrbll","Sun Apr 02 2023 20:37:29 GMT-0700 (Pacific Daylight Time)","433008","3","1","","","","","","","","","","168","","","","1","2","[{""stimulus"":""img/1to2/1.png"",""time"":110},{""stimulus"":""img/1to2/2.png"",""time"":206},{""stimulus"":""img/1to2/3.png"",""time"":301},{""stimulus"":""img/1to2/4.png"",""time"":397},{""stimulus"":""img/1to2/5.png"",""time"":509},{""stimulus"":""img/1to2/6.png"",""time"":605},{""stimulus"":""img/1to2/7.png"",""time"":701},{""stimulus"":""img/1to2/8.png"",""time"":797},{""stimulus"":""img/1to2/9.png"",""time"":906},{""stimulus"":""img/1to2/10.png"",""time"":1001},{""stimulus"":""img/1to2/11.png"",""time"":1097},{""stimulus"":""img/1to2/12.png"",""time"":1191}]","[]"
"image-keyboard-response","120","142190","0.0-5.0-1.58","60599946259dc97d30e2001f","bdp_cybrbll","Sun Apr 02 2023 20:37:29 GMT-0700 (Pacific Daylight Time)","433008","3","1","","226","","","","choice","","img/2to1/1.png","2","167","467","0.5","0.5","2","3","",""
"animation","121","143490","0.0-5.0-2.58","60599946259dc97d30e2001f","bdp_cybrbll","Sun Apr 02 2023 20:37:29 GMT-0700 (Pacific Daylight Time)","433008","3","1","","","","","","","","","","167","","","","2","3","[{""stimulus"":""img/2to3/1.png"",""time"":104},{""stimulus"":""img/2to3/2.png"",""time"":200},{""stimulus"":""img/2to3/3.png"",""time"":310},{""stimulus"":""img/2to3/4.png"",""time"":406},{""stimulus"":""img/2to3/5.png"",""time"":502},{""stimulus"":""img/2to3/6.png"",""time"":598},{""stimulus"":""img/2to3/7.png"",""time"":694},{""stimulus"":""img/2to3/8.png"",""time"":805},{""stimulus"":""img/2to3/9.png"",""time"":899},{""stimulus"":""img/2to3/10.png"",""time"":996},{""stimulus"":""img/2to3/11.png"",""time"":1091},{""stimulus"":""img/2to3/12.png"",""time"":1204}]","[]"
"image-keyboard-response","122","143906","0.0-5.0-1.59","60599946259dc97d30e2001f","bdp_cybrbll","Sun Apr 02 2023 20:37:29 GMT-0700 (Pacific Daylight Time)","433008","3","1","","null","","","","observe","","img/3to2/1.png","null","166","406","0.5","0.5","3","1","",""
"animation","123","145203","0.0-5.0-2.59","60599946259dc97d30e2001f","bdp_cybrbll","Sun Apr 02 2023 20:37:29 GMT-0700 (Pacific Daylight Time)","433008","3","1","","","","","","","","","","166","","","","3","1","[{""stimulus"":""img/3to1/1.png"",""time"":111},{""stimulus"":""img/3to1/2.png"",""time"":205},{""stimulus"":""img/3to1/3.png"",""time"":301},{""stimulus"":""img/3to1/4.png"",""time"":409},{""stimulus"":""img/3to1/5.png"",""time"":503},{""stimulus"":""img/3to1/6.png"",""time"":599},{""stimulus"":""img/3to1/7.png"",""time"":695},{""stimulus"":""img/3to1/8.png"",""time"":806},{""stimulus"":""img/3to1/9.png"",""time"":901},{""stimulus"":""img/3to1/10.png"",""time"":996},{""stimulus"":""img/3to1/11.png"",""time"":1092},{""stimulus"":""img/3to1/12.png"",""time"":1204}]","[]"
"image-keyboard-response","124","145964","0.0-5.0-1.60","60599946259dc97d30e2001f","bdp_cybrbll","Sun Apr 02 2023 20:37:29 GMT-0700 (Pacific Daylight Time)","433008","3","1","","null","","","","observe","","img/1to3/1.png","null","165","759","0.5","0.5","1","3","",""
"animation","125","147261","0.0-5.0-2.60","60599946259dc97d30e2001f","bdp_cybrbll","Sun Apr 02 2023 20:37:29 GMT-0700 (Pacific Daylight Time)","433008","3","1","","","","","","","","","","165","","","","1","3","[{""stimulus"":""img/1to3/1.png"",""time"":110},{""stimulus"":""img/1to3/2.png"",""time"":205},{""stimulus"":""img/1to3/3.png"",""time"":301},{""stimulus"":""img/1to3/4.png"",""time"":397},{""stimulus"":""img/1to3/5.png"",""time"":509},{""stimulus"":""img/1to3/6.png"",""time"":605},{""stimulus"":""img/1to3/7.png"",""time"":699},{""stimulus"":""img/1to3/8.png"",""time"":795},{""stimulus"":""img/1to3/9.png"",""time"":905},{""stimulus"":""img/1to3/10.png"",""time"":1001},{""stimulus"":""img/1to3/11.png"",""time"":1095},{""stimulus"":""img/1to3/12.png"",""time"":1204}]","[]"
"image-keyboard-response","126","147581","0.0-5.0-1.61","60599946259dc97d30e2001f","bdp_cybrbll","Sun Apr 02 2023 20:37:29 GMT-0700 (Pacific Daylight Time)","433008","3","1","","null","","","","observe","","img/3to2/1.png","null","164","312","0.5","0.5","3","2","",""
"animation","127","148869","0.0-5.0-2.61","60599946259dc97d30e2001f","bdp_cybrbll","Sun Apr 02 2023 20:37:29 GMT-0700 (Pacific Daylight Time)","433008","3","1","","","","","","","","","","164","","","","3","2","[{""stimulus"":""img/3to2/1.png"",""time"":112},{""stimulus"":""img/3to2/2.png"",""time"":208},{""stimulus"":""img/3to2/3.png"",""time"":302},{""stimulus"":""img/3to2/4.png"",""time"":398},{""stimulus"":""img/3to2/5.png"",""time"":510},{""stimulus"":""img/3to2/6.png"",""time"":604},{""stimulus"":""img/3to2/7.png"",""time"":700},{""stimulus"":""img/3to2/8.png"",""time"":796},{""stimulus"":""img/3to2/9.png"",""time"":892},{""stimulus"":""img/3to2/10.png"",""time"":1004},{""stimulus"":""img/3to2/11.png"",""time"":1099},{""stimulus"":""img/3to2/12.png"",""time"":1194}]","[]"
"image-keyboard-response","128","149334","0.0-5.0-1.62","60599946259dc97d30e2001f","bdp_cybrbll","Sun Apr 02 2023 20:37:29 GMT-0700 (Pacific Daylight Time)","433008","3","1","","465","","","","choice","","img/2to1/1.png","1","163","556","0.5","0.5","2","1","",""
"animation","129","150623","0.0-5.0-2.62","60599946259dc97d30e2001f","bdp_cybrbll","Sun Apr 02 2023 20:37:29 GMT-0700 (Pacific Daylight Time)","433008","3","1","","","","","","","","","","163","","","","2","1","[{""stimulus"":""img/2to1/1.png"",""time"":111},{""stimulus"":""img/2to1/2.png"",""time"":207},{""stimulus"":""img/2to1/3.png"",""time"":303},{""stimulus"":""img/2to1/4.png"",""time"":411},{""stimulus"":""img/2to1/5.png"",""time"":505},{""stimulus"":""img/2to1/6.png"",""time"":601},{""stimulus"":""img/2to1/7.png"",""time"":697},{""stimulus"":""img/2to1/8.png"",""time"":793},{""stimulus"":""img/2to1/9.png"",""time"":905},{""stimulus"":""img/2to1/10.png"",""time"":1001},{""stimulus"":""img/2to1/11.png"",""time"":1097},{""stimulus"":""img/2to1/12.png"",""time"":1193}]","[]"
"image-keyboard-response","130","150943","0.0-5.0-1.63","60599946259dc97d30e2001f","bdp_cybrbll","Sun Apr 02 2023 20:37:29 GMT-0700 (Pacific Daylight Time)","433008","3","1","","null","","","","observe","","img/1to3/1.png","null","162","309","0.5","0.5","1","3","",""
"animation","131","152233","0.0-5.0-2.63","60599946259dc97d30e2001f","bdp_cybrbll","Sun Apr 02 2023 20:37:29 GMT-0700 (Pacific Daylight Time)","433008","3","1","","","","","","","","","","162","","","","1","3","[{""stimulus"":""img/1to3/1.png"",""time"":113},{""stimulus"":""img/1to3/2.png"",""time"":209},{""stimulus"":""img/1to3/3.png"",""time"":305},{""stimulus"":""img/1to3/4.png"",""time"":401},{""stimulus"":""img/1to3/5.png"",""time"":497},{""stimulus"":""img/1to3/6.png"",""time"":606},{""stimulus"":""img/1to3/7.png"",""time"":700},{""stimulus"":""img/1to3/8.png"",""time"":795},{""stimulus"":""img/1to3/9.png"",""time"":906},{""stimulus"":""img/1to3/10.png"",""time"":1002},{""stimulus"":""img/1to3/11.png"",""time"":1098},{""stimulus"":""img/1to3/12.png"",""time"":1194}]","[]"
"image-keyboard-response","132","152723","0.0-5.0-1.64","60599946259dc97d30e2001f","bdp_cybrbll","Sun Apr 02 2023 20:37:29 GMT-0700 (Pacific Daylight Time)","433008","3","1","","null","","","","observe","","img/3to2/1.png","null","161","488","0.5","0.5","3","2","",""
"animation","133","154019","0.0-5.0-2.64","60599946259dc97d30e2001f","bdp_cybrbll","Sun Apr 02 2023 20:37:29 GMT-0700 (Pacific Daylight Time)","433008","3","1","","","","","","","","","","161","","","","3","2","[{""stimulus"":""img/3to2/1.png"",""time"":109},{""stimulus"":""img/3to2/2.png"",""time"":202},{""stimulus"":""img/3to2/3.png"",""time"":311},{""stimulus"":""img/3to2/4.png"",""time"":406},{""stimulus"":""img/3to2/5.png"",""time"":502},{""stimulus"":""img/3to2/6.png"",""time"":597},{""stimulus"":""img/3to2/7.png"",""time"":708},{""stimulus"":""img/3to2/8.png"",""time"":804},{""stimulus"":""img/3to2/9.png"",""time"":899},{""stimulus"":""img/3to2/10.png"",""time"":995},{""stimulus"":""img/3to2/11.png"",""time"":1091},{""stimulus"":""img/3to2/12.png"",""time"":1189}]","[]"
"image-keyboard-response","134","154398","0.0-5.0-1.65","60599946259dc97d30e2001f","bdp_cybrbll","Sun Apr 02 2023 20:37:29 GMT-0700 (Pacific Daylight Time)","433008","3","1","","378","","","","choice","","img/2to1/1.png","1","160","313","0.5","0.5","2","1","",""
"animation","135","155691","0.0-5.0-2.65","60599946259dc97d30e2001f","bdp_cybrbll","Sun Apr 02 2023 20:37:29 GMT-0700 (Pacific Daylight Time)","433008","3","1","","","","","","","","","","160","","","","2","1","[{""stimulus"":""img/2to1/1.png"",""time"":100},{""stimulus"":""img/2to1/2.png"",""time"":205},{""stimulus"":""img/2to1/3.png"",""time"":299},{""stimulus"":""img/2to1/4.png"",""time"":411},{""stimulus"":""img/2to1/5.png"",""time"":504},{""stimulus"":""img/2to1/6.png"",""time"":599},{""stimulus"":""img/2to1/7.png"",""time"":695},{""stimulus"":""img/2to1/8.png"",""time"":807},{""stimulus"":""img/2to1/9.png"",""time"":901},{""stimulus"":""img/2to1/10.png"",""time"":997},{""stimulus"":""img/2to1/11.png"",""time"":1105},{""stimulus"":""img/2to1/12.png"",""time"":1200}]","[]"
"image-keyboard-response","136","155931","0.0-5.0-1.66","60599946259dc97d30e2001f","bdp_cybrbll","Sun Apr 02 2023 20:37:29 GMT-0700 (Pacific Daylight Time)","433008","3","1","","null","","","","observe","","img/1to3/1.png","null","159","238","0.5","0.5","1","2","",""
"animation","137","157219","0.0-5.0-2.66","60599946259dc97d30e2001f","bdp_cybrbll","Sun Apr 02 2023 20:37:29 GMT-0700 (Pacific Daylight Time)","433008","3","1","","","","","","","","","","159","","","","1","2","[{""stimulus"":""img/1to2/1.png"",""time"":111},{""stimulus"":""img/1to2/2.png"",""time"":205},{""stimulus"":""img/1to2/3.png"",""time"":301},{""stimulus"":""img/1to2/4.png"",""time"":397},{""stimulus"":""img/1to2/5.png"",""time"":509},{""stimulus"":""img/1to2/6.png"",""time"":603},{""stimulus"":""img/1to2/7.png"",""time"":695},{""stimulus"":""img/1to2/8.png"",""time"":805},{""stimulus"":""img/1to2/9.png"",""time"":897},{""stimulus"":""img/1to2/10.png"",""time"":992},{""stimulus"":""img/1to2/11.png"",""time"":1103},{""stimulus"":""img/1to2/12.png"",""time"":1197}]","[]"
"image-keyboard-response","138","157238","0.0-5.0-1.67","60599946259dc97d30e2001f","bdp_cybrbll","Sun Apr 02 2023 20:37:29 GMT-0700 (Pacific Daylight Time)","433008","3","1","","19","","","","choice","","img/2to1/1.png","2","158","483","0.5","0.5","2","3","",""
"animation","139","158529","0.0-5.0-2.67","60599946259dc97d30e2001f","bdp_cybrbll","Sun Apr 02 2023 20:37:29 GMT-0700 (Pacific Daylight Time)","433008","3","1","","","","","","","","","","158","","","","2","3","[{""stimulus"":""img/2to3/1.png"",""time"":100},{""stimulus"":""img/2to3/2.png"",""time"":208},{""stimulus"":""img/2to3/3.png"",""time"":302},{""stimulus"":""img/2to3/4.png"",""time"":398},{""stimulus"":""img/2to3/5.png"",""time"":510},{""stimulus"":""img/2to3/6.png"",""time"":606},{""stimulus"":""img/2to3/7.png"",""time"":700},{""stimulus"":""img/2to3/8.png"",""time"":796},{""stimulus"":""img/2to3/9.png"",""time"":892},{""stimulus"":""img/2to3/10.png"",""time"":1004},{""stimulus"":""img/2to3/11.png"",""time"":1099},{""stimulus"":""img/2to3/12.png"",""time"":1195}]","[]"
"image-keyboard-response","140","159711","0.0-5.0-1.68","60599946259dc97d30e2001f","bdp_cybrbll","Sun Apr 02 2023 20:37:29 GMT-0700 (Pacific Daylight Time)","433008","3","1","","null","","","","observe","","img/3to2/1.png","null","157","1175","0.5","0.5","3","2","",""
"animation","141","161012","0.0-5.0-2.68","60599946259dc97d30e2001f","bdp_cybrbll","Sun Apr 02 2023 20:37:29 GMT-0700 (Pacific Daylight Time)","433008","3","1","","","","","","","","","","157","","","","3","2","[{""stimulus"":""img/3to2/1.png"",""time"":107},{""stimulus"":""img/3to2/2.png"",""time"":203},{""stimulus"":""img/3to2/3.png"",""time"":299},{""stimulus"":""img/3to2/4.png"",""time"":409},{""stimulus"":""img/3to2/5.png"",""time"":505},{""stimulus"":""img/3to2/6.png"",""time"":601},{""stimulus"":""img/3to2/7.png"",""time"":697},{""stimulus"":""img/3to2/8.png"",""time"":793},{""stimulus"":""img/3to2/9.png"",""time"":905},{""stimulus"":""img/3to2/10.png"",""time"":1001},{""stimulus"":""img/3to2/11.png"",""time"":1095},{""stimulus"":""img/3to2/12.png"",""time"":1191}]","[]"
"image-keyboard-response","142","161135","0.0-5.0-1.69","60599946259dc97d30e2001f","bdp_cybrbll","Sun Apr 02 2023 20:37:29 GMT-0700 (Pacific Daylight Time)","433008","3","1","","122","","","","choice","","img/2to1/1.png","1","156","285","0.5","0.5","2","1","",""
"animation","143","162425","0.0-5.0-2.69","60599946259dc97d30e2001f","bdp_cybrbll","Sun Apr 02 2023 20:37:29 GMT-0700 (Pacific Daylight Time)","433008","3","1","","","","","","","","","","156","","","","2","1","[{""stimulus"":""img/2to1/1.png"",""time"":102},{""stimulus"":""img/2to1/2.png"",""time"":212},{""stimulus"":""img/2to1/3.png"",""time"":307},{""stimulus"":""img/2to1/4.png"",""time"":403},{""stimulus"":""img/2to1/5.png"",""time"":499},{""stimulus"":""img/2to1/6.png"",""time"":607},{""stimulus"":""img/2to1/7.png"",""time"":702},{""stimulus"":""img/2to1/8.png"",""time"":798},{""stimulus"":""img/2to1/9.png"",""time"":892},{""stimulus"":""img/2to1/10.png"",""time"":1002},{""stimulus"":""img/2to1/11.png"",""time"":1098},{""stimulus"":""img/2to1/12.png"",""time"":1194}]","[]"
"image-keyboard-response","144","163011","0.0-5.0-1.70","60599946259dc97d30e2001f","bdp_cybrbll","Sun Apr 02 2023 20:37:29 GMT-0700 (Pacific Daylight Time)","433008","3","1","","null","","","","observe","","img/1to3/1.png","null","155","581","0.5","0.5","1","2","",""
"animation","145","164308","0.0-5.0-2.70","60599946259dc97d30e2001f","bdp_cybrbll","Sun Apr 02 2023 20:37:29 GMT-0700 (Pacific Daylight Time)","433008","3","1","","","","","","","","","","155","","","","1","2","[{""stimulus"":""img/1to2/1.png"",""time"":113},{""stimulus"":""img/1to2/2.png"",""time"":209},{""stimulus"":""img/1to2/3.png"",""time"":305},{""stimulus"":""img/1to2/4.png"",""time"":401},{""stimulus"":""img/1to2/5.png"",""time"":497},{""stimulus"":""img/1to2/6.png"",""time"":609},{""stimulus"":""img/1to2/7.png"",""time"":705},{""stimulus"":""img/1to2/8.png"",""time"":801},{""stimulus"":""img/1to2/9.png"",""time"":897},{""stimulus"":""img/1to2/10.png"",""time"":993},{""stimulus"":""img/1to2/11.png"",""time"":1105},{""stimulus"":""img/1to2/12.png"",""time"":1201}]","[]"
"image-keyboard-response","146","164838","0.0-5.0-1.71","60599946259dc97d30e2001f","bdp_cybrbll","Sun Apr 02 2023 20:37:29 GMT-0700 (Pacific Daylight Time)","433008","3","1","","530","","","","choice","","img/2to1/1.png","2","154","263","0.5","0.5","2","3","",""
"animation","147","166125","0.0-5.0-2.71","60599946259dc97d30e2001f","bdp_cybrbll","Sun Apr 02 2023 20:37:29 GMT-0700 (Pacific Daylight Time)","433008","3","1","","","","","","","","","","154","","","","2","3","[{""stimulus"":""img/2to3/1.png"",""time"":113},{""stimulus"":""img/2to3/2.png"",""time"":208},{""stimulus"":""img/2to3/3.png"",""time"":301},{""stimulus"":""img/2to3/4.png"",""time"":411},{""stimulus"":""img/2to3/5.png"",""time"":505},{""stimulus"":""img/2to3/6.png"",""time"":598},{""stimulus"":""img/2to3/7.png"",""time"":694},{""stimulus"":""img/2to3/8.png"",""time"":800},{""stimulus"":""img/2to3/9.png"",""time"":895},{""stimulus"":""img/2to3/10.png"",""time"":1003},{""stimulus"":""img/2to3/11.png"",""time"":1097},{""stimulus"":""img/2to3/12.png"",""time"":1194}]","[]"
"image-keyboard-response","148","166635","0.0-5.0-1.72","60599946259dc97d30e2001f","bdp_cybrbll","Sun Apr 02 2023 20:37:29 GMT-0700 (Pacific Daylight Time)","433008","3","1","","null","","","","observe","","img/3to2/1.png","null","153","507","0.5","0.5","3","1","",""
"animation","149","167927","0.0-5.0-2.72","60599946259dc97d30e2001f","bdp_cybrbll","Sun Apr 02 2023 20:37:29 GMT-0700 (Pacific Daylight Time)","433008","3","1","","","","","","","","","","153","","","","3","1","[{""stimulus"":""img/3to1/1.png"",""time"":112},{""stimulus"":""img/3to1/2.png"",""time"":204},{""stimulus"":""img/3to1/3.png"",""time"":299},{""stimulus"":""img/3to1/4.png"",""time"":408},{""stimulus"":""img/3to1/5.png"",""time"":504},{""stimulus"":""img/3to1/6.png"",""time"":599},{""stimulus"":""img/3to1/7.png"",""time"":709},{""stimulus"":""img/3to1/8.png"",""time"":804},{""stimulus"":""img/3to1/9.png"",""time"":898},{""stimulus"":""img/3to1/10.png"",""time"":993},{""stimulus"":""img/3to1/11.png"",""time"":1104},{""stimulus"":""img/3to1/12.png"",""time"":1199}]","[]"
"image-keyboard-response","150","168323","0.0-5.0-1.73","60599946259dc97d30e2001f","bdp_cybrbll","Sun Apr 02 2023 20:37:29 GMT-0700 (Pacific Daylight Time)","433008","3","1","","null","","","","observe","","img/1to3/1.png","null","152","395","0.5","0.5","1","3","",""
"animation","151","169617","0.0-5.0-2.73","60599946259dc97d30e2001f","bdp_cybrbll","Sun Apr 02 2023 20:37:29 GMT-0700 (Pacific Daylight Time)","433008","3","1","","","","","","","","","","152","","","","1","3","[{""stimulus"":""img/1to3/1.png"",""time"":111},{""stimulus"":""img/1to3/2.png"",""time"":206},{""stimulus"":""img/1to3/3.png"",""time"":300},{""stimulus"":""img/1to3/4.png"",""time"":410},{""stimulus"":""img/1to3/5.png"",""time"":504},{""stimulus"":""img/1to3/6.png"",""time"":596},{""stimulus"":""img/1to3/7.png"",""time"":704},{""stimulus"":""img/1to3/8.png"",""time"":800},{""stimulus"":""img/1to3/9.png"",""time"":896},{""stimulus"":""img/1to3/10.png"",""time"":1006},{""stimulus"":""img/1to3/11.png"",""time"":1102},{""stimulus"":""img/1to3/12.png"",""time"":1198}]","[]"
"image-keyboard-response","152","170173","0.0-5.0-1.74","60599946259dc97d30e2001f","bdp_cybrbll","Sun Apr 02 2023 20:37:29 GMT-0700 (Pacific Daylight Time)","433008","3","1","","null","","","","observe","","img/3to2/1.png","null","151","554","0.5","0.5","3","1","",""
"animation","153","171468","0.0-5.0-2.74","60599946259dc97d30e2001f","bdp_cybrbll","Sun Apr 02 2023 20:37:29 GMT-0700 (Pacific Daylight Time)","433008","3","1","","","","","","","","","","151","","","","3","1","[{""stimulus"":""img/3to1/1.png"",""time"":112},{""stimulus"":""img/3to1/2.png"",""time"":208},{""stimulus"":""img/3to1/3.png"",""time"":303},{""stimulus"":""img/3to1/4.png"",""time"":399},{""stimulus"":""img/3to1/5.png"",""time"":511},{""stimulus"":""img/3to1/6.png"",""time"":607},{""stimulus"":""img/3to1/7.png"",""time"":703},{""stimulus"":""img/3to1/8.png"",""time"":799},{""stimulus"":""img/3to1/9.png"",""time"":895},{""stimulus"":""img/3to1/10.png"",""time"":991},{""stimulus"":""img/3to1/11.png"",""time"":1103},{""stimulus"":""img/3to1/12.png"",""time"":1199}]","[]"
"image-keyboard-response","154","171708","0.0-5.0-1.75","60599946259dc97d30e2001f","bdp_cybrbll","Sun Apr 02 2023 20:37:29 GMT-0700 (Pacific Daylight Time)","433008","3","1","","null","","","","observe","","img/1to3/1.png","null","150","228","0.5","0.5","1","3","",""
"animation","155","173008","0.0-5.0-2.75","60599946259dc97d30e2001f","bdp_cybrbll","Sun Apr 02 2023 20:37:29 GMT-0700 (Pacific Daylight Time)","433008","3","1","","","","","","","","","","150","","","","1","3","[{""stimulus"":""img/1to3/1.png"",""time"":113},{""stimulus"":""img/1to3/2.png"",""time"":208},{""stimulus"":""img/1to3/3.png"",""time"":303},{""stimulus"":""img/1to3/4.png"",""time"":399},{""stimulus"":""img/1to3/5.png"",""time"":510},{""stimulus"":""img/1to3/6.png"",""time"":604},{""stimulus"":""img/1to3/7.png"",""time"":698},{""stimulus"":""img/1to3/8.png"",""time"":807},{""stimulus"":""img/1to3/9.png"",""time"":903},{""stimulus"":""img/1to3/10.png"",""time"":999},{""stimulus"":""img/1to3/11.png"",""time"":1095},{""stimulus"":""img/1to3/12.png"",""time"":1189}]","[]"
"image-keyboard-response","156","173546","0.0-5.0-1.76","60599946259dc97d30e2001f","bdp_cybrbll","Sun Apr 02 2023 20:37:29 GMT-0700 (Pacific Daylight Time)","433008","3","1","","null","","","","observe","","img/3to2/1.png","null","149","526","0.5","0.1","3","2","",""
"animation","157","174841","0.0-5.0-2.76","60599946259dc97d30e2001f","bdp_cybrbll","Sun Apr 02 2023 20:37:29 GMT-0700 (Pacific Daylight Time)","433008","3","1","","","","","","","","","","149","","","","3","2","[{""stimulus"":""img/3to2/1.png"",""time"":109},{""stimulus"":""img/3to2/2.png"",""time"":202},{""stimulus"":""img/3to2/3.png"",""time"":309},{""stimulus"":""img/3to2/4.png"",""time"":403},{""stimulus"":""img/3to2/5.png"",""time"":499},{""stimulus"":""img/3to2/6.png"",""time"":595},{""stimulus"":""img/3to2/7.png"",""time"":707},{""stimulus"":""img/3to2/8.png"",""time"":803},{""stimulus"":""img/3to2/9.png"",""time"":899},{""stimulus"":""img/3to2/10.png"",""time"":995},{""stimulus"":""img/3to2/11.png"",""time"":1091},{""stimulus"":""img/3to2/12.png"",""time"":1201}]","[]"
"image-keyboard-response","158","175103","0.0-5.0-1.77","60599946259dc97d30e2001f","bdp_cybrbll","Sun Apr 02 2023 20:37:29 GMT-0700 (Pacific Daylight Time)","433008","3","1","","260","","","","choice","","img/2to1/1.png","1","148","302","0.5","0.1","2","1","",""
"animation","159","176395","0.0-5.0-2.77","60599946259dc97d30e2001f","bdp_cybrbll","Sun Apr 02 2023 20:37:29 GMT-0700 (Pacific Daylight Time)","433008","3","1","","","","","","","","","","148","","","","2","1","[{""stimulus"":""img/2to1/1.png"",""time"":105},{""stimulus"":""img/2to1/2.png"",""time"":200},{""stimulus"":""img/2to1/3.png"",""time"":308},{""stimulus"":""img/2to1/4.png"",""time"":402},{""stimulus"":""img/2to1/5.png"",""time"":495},{""stimulus"":""img/2to1/6.png"",""time"":606},{""stimulus"":""img/2to1/7.png"",""time"":702},{""stimulus"":""img/2to1/8.png"",""time"":798},{""stimulus"":""img/2to1/9.png"",""time"":892},{""stimulus"":""img/2to1/10.png"",""time"":1004},{""stimulus"":""img/2to1/11.png"",""time"":1100},{""stimulus"":""img/2to1/12.png"",""time"":1196}]","[]"
"image-keyboard-response","160","176759","0.0-5.0-1.78","60599946259dc97d30e2001f","bdp_cybrbll","Sun Apr 02 2023 20:37:29 GMT-0700 (Pacific Daylight Time)","433008","3","1","","null","","","","observe","","img/1to3/1.png","null","147","350","0.5","0.1","1","3","",""
"animation","161","178057","0.0-5.0-2.78","60599946259dc97d30e2001f","bdp_cybrbll","Sun Apr 02 2023 20:37:29 GMT-0700 (Pacific Daylight Time)","433008","3","1","","","","","","","","","","147","","","","1","3","[{""stimulus"":""img/1to3/1.png"",""time"":107},{""stimulus"":""img/1to3/2.png"",""time"":201},{""stimulus"":""img/1to3/3.png"",""time"":312},{""stimulus"":""img/1to3/4.png"",""time"":408},{""stimulus"":""img/1to3/5.png"",""time"":504},{""stimulus"":""img/1to3/6.png"",""time"":600},{""stimulus"":""img/1to3/7.png"",""time"":696},{""stimulus"":""img/1to3/8.png"",""time"":806},{""stimulus"":""img/1to3/9.png"",""time"":900},{""stimulus"":""img/1to3/10.png"",""time"":994},{""stimulus"":""img/1to3/11.png"",""time"":1090},{""stimulus"":""img/1to3/12.png"",""time"":1202}]","[]"
"image-keyboard-response","162","178407","0.0-5.0-1.79","60599946259dc97d30e2001f","bdp_cybrbll","Sun Apr 02 2023 20:37:29 GMT-0700 (Pacific Daylight Time)","433008","3","1","","null","","","","observe","","img/3to2/1.png","null","146","343","0.5","0.1","3","2","",""
"animation","163","179700","0.0-5.0-2.79","60599946259dc97d30e2001f","bdp_cybrbll","Sun Apr 02 2023 20:37:29 GMT-0700 (Pacific Daylight Time)","433008","3","1","","","","","","","","","","146","","","","3","2","[{""stimulus"":""img/3to2/1.png"",""time"":112},{""stimulus"":""img/3to2/2.png"",""time"":208},{""stimulus"":""img/3to2/3.png"",""time"":304},{""stimulus"":""img/3to2/4.png"",""time"":399},{""stimulus"":""img/3to2/5.png"",""time"":509},{""stimulus"":""img/3to2/6.png"",""time"":605},{""stimulus"":""img/3to2/7.png"",""time"":701},{""stimulus"":""img/3to2/8.png"",""time"":797},{""stimulus"":""img/3to2/9.png"",""time"":893},{""stimulus"":""img/3to2/10.png"",""time"":1005},{""stimulus"":""img/3to2/11.png"",""time"":1101},{""stimulus"":""img/3to2/12.png"",""time"":1197}]","[]"
"image-keyboard-response","164","179958","0.0-5.0-1.80","60599946259dc97d30e2001f","bdp_cybrbll","Sun Apr 02 2023 20:37:29 GMT-0700 (Pacific Daylight Time)","433008","3","1","","258","","","","choice","","img/2to1/1.png","2","145","559","0.5","0.1","2","3","",""
"animation","165","181254","0.0-5.0-2.80","60599946259dc97d30e2001f","bdp_cybrbll","Sun Apr 02 2023 20:37:29 GMT-0700 (Pacific Daylight Time)","433008","3","1","","","","","","","","","","145","","","","2","3","[{""stimulus"":""img/2to3/1.png"",""time"":106},{""stimulus"":""img/2to3/2.png"",""time"":202},{""stimulus"":""img/2to3/3.png"",""time"":298},{""stimulus"":""img/2to3/4.png"",""time"":410},{""stimulus"":""img/2to3/5.png"",""time"":504},{""stimulus"":""img/2to3/6.png"",""time"":600},{""stimulus"":""img/2to3/7.png"",""time"":696},{""stimulus"":""img/2to3/8.png"",""time"":806},{""stimulus"":""img/2to3/9.png"",""time"":900},{""stimulus"":""img/2to3/10.png"",""time"":994},{""stimulus"":""img/2to3/11.png"",""time"":1104},{""stimulus"":""img/2to3/12.png"",""time"":1200}]","[]"
"image-keyboard-response","166","181931","0.0-5.0-1.81","60599946259dc97d30e2001f","bdp_cybrbll","Sun Apr 02 2023 20:37:29 GMT-0700 (Pacific Daylight Time)","433008","3","1","","null","","","","observe","","img/3to2/1.png","null","144","668","0.5","0.1","3","2","",""
"animation","167","183225","0.0-5.0-2.81","60599946259dc97d30e2001f","bdp_cybrbll","Sun Apr 02 2023 20:37:29 GMT-0700 (Pacific Daylight Time)","433008","3","1","","","","","","","","","","144","","","","3","2","[{""stimulus"":""img/3to2/1.png"",""time"":109},{""stimulus"":""img/3to2/2.png"",""time"":202},{""stimulus"":""img/3to2/3.png"",""time"":311},{""stimulus"":""img/3to2/4.png"",""time"":405},{""stimulus"":""img/3to2/5.png"",""time"":501},{""stimulus"":""img/3to2/6.png"",""time"":595},{""stimulus"":""img/3to2/7.png"",""time"":707},{""stimulus"":""img/3to2/8.png"",""time"":802},{""stimulus"":""img/3to2/9.png"",""time"":895},{""stimulus"":""img/3to2/10.png"",""time"":991},{""stimulus"":""img/3to2/11.png"",""time"":1103},{""stimulus"":""img/3to2/12.png"",""time"":1198}]","[]"
"image-keyboard-response","168","183614","0.0-5.0-1.82","60599946259dc97d30e2001f","bdp_cybrbll","Sun Apr 02 2023 20:37:29 GMT-0700 (Pacific Daylight Time)","433008","3","1","","389","","","","choice","","img/2to1/1.png","2","143","385","0.5","0.1","2","3","",""
"animation","169","184904","0.0-5.0-2.82","60599946259dc97d30e2001f","bdp_cybrbll","Sun Apr 02 2023 20:37:29 GMT-0700 (Pacific Daylight Time)","433008","3","1","","","","","","","","","","143","","","","2","3","[{""stimulus"":""img/2to3/1.png"",""time"":102},{""stimulus"":""img/2to3/2.png"",""time"":212},{""stimulus"":""img/2to3/3.png"",""time"":307},{""stimulus"":""img/2to3/4.png"",""time"":402},{""stimulus"":""img/2to3/5.png"",""time"":496},{""stimulus"":""img/2to3/6.png"",""time"":608},{""stimulus"":""img/2to3/7.png"",""time"":704},{""stimulus"":""img/2to3/8.png"",""time"":798},{""stimulus"":""img/2to3/9.png"",""time"":894},{""stimulus"":""img/2to3/10.png"",""time"":990},{""stimulus"":""img/2to3/11.png"",""time"":1100},{""stimulus"":""img/2to3/12.png"",""time"":1194}]","[]"
"image-keyboard-response","170","185805","0.0-5.0-1.83","60599946259dc97d30e2001f","bdp_cybrbll","Sun Apr 02 2023 20:37:29 GMT-0700 (Pacific Daylight Time)","433008","3","1","","null","","","","observe","","img/3to2/1.png","null","142","897","0.5","0.1","3","2","",""
"animation","171","187102","0.0-5.0-2.83","60599946259dc97d30e2001f","bdp_cybrbll","Sun Apr 02 2023 20:37:29 GMT-0700 (Pacific Daylight Time)","433008","3","1","","","","","","","","","","142","","","","3","2","[{""stimulus"":""img/3to2/1.png"",""time"":112},{""stimulus"":""img/3to2/2.png"",""time"":206},{""stimulus"":""img/3to2/3.png"",""time"":301},{""stimulus"":""img/3to2/4.png"",""time"":397},{""stimulus"":""img/3to2/5.png"",""time"":507},{""stimulus"":""img/3to2/6.png"",""time"":601},{""stimulus"":""img/3to2/7.png"",""time"":697},{""stimulus"":""img/3to2/8.png"",""time"":807},{""stimulus"":""img/3to2/9.png"",""time"":901},{""stimulus"":""img/3to2/10.png"",""time"":997},{""stimulus"":""img/3to2/11.png"",""time"":1091},{""stimulus"":""img/3to2/12.png"",""time"":1203}]","[]"
"image-keyboard-response","172","187302","0.0-5.0-1.84","60599946259dc97d30e2001f","bdp_cybrbll","Sun Apr 02 2023 20:37:29 GMT-0700 (Pacific Daylight Time)","433008","3","1","","200","","","","choice","","img/2to1/1.png","1","141","458","0.5","0.1","2","1","",""
"animation","173","188595","0.0-5.0-2.84","60599946259dc97d30e2001f","bdp_cybrbll","Sun Apr 02 2023 20:37:29 GMT-0700 (Pacific Daylight Time)","433008","3","1","","","","","","","","","","141","","","","2","1","[{""stimulus"":""img/2to1/1.png"",""time"":111},{""stimulus"":""img/2to1/2.png"",""time"":205},{""stimulus"":""img/2to1/3.png"",""time"":301},{""stimulus"":""img/2to1/4.png"",""time"":397},{""stimulus"":""img/2to1/5.png"",""time"":509},{""stimulus"":""img/2to1/6.png"",""time"":605},{""stimulus"":""img/2to1/7.png"",""time"":701},{""stimulus"":""img/2to1/8.png"",""time"":793},{""stimulus"":""img/2to1/9.png"",""time"":891},{""stimulus"":""img/2to1/10.png"",""time"":1001},{""stimulus"":""img/2to1/11.png"",""time"":1092},{""stimulus"":""img/2to1/12.png"",""time"":1200}]","[]"
"image-keyboard-response","174","188944","0.0-5.0-1.85","60599946259dc97d30e2001f","bdp_cybrbll","Sun Apr 02 2023 20:37:29 GMT-0700 (Pacific Daylight Time)","433008","3","1","","null","","","","observe","","img/1to3/1.png","null","140","339","0.5","0.1","1","3","",""
"animation","175","190236","0.0-5.0-2.85","60599946259dc97d30e2001f","bdp_cybrbll","Sun Apr 02 2023 20:37:29 GMT-0700 (Pacific Daylight Time)","433008","3","1","","","","","","","","","","140","","","","1","3","[{""stimulus"":""img/1to3/1.png"",""time"":110},{""stimulus"":""img/1to3/2.png"",""time"":205},{""stimulus"":""img/1to3/3.png"",""time"":300},{""stimulus"":""img/1to3/4.png"",""time"":410},{""stimulus"":""img/1to3/5.png"",""time"":504},{""stimulus"":""img/1to3/6.png"",""time"":601},{""stimulus"":""img/1to3/7.png"",""time"":697},{""stimulus"":""img/1to3/8.png"",""time"":793},{""stimulus"":""img/1to3/9.png"",""time"":903},{""stimulus"":""img/1to3/10.png"",""time"":996},{""stimulus"":""img/1to3/11.png"",""time"":1104},{""stimulus"":""img/1to3/12.png"",""time"":1189}]","[]"
"image-keyboard-response","176","190610","0.0-5.0-1.86","60599946259dc97d30e2001f","bdp_cybrbll","Sun Apr 02 2023 20:37:29 GMT-0700 (Pacific Daylight Time)","433008","3","1","","null","","","","observe","","img/3to2/1.png","null","139","367","0.5","0.1","3","2","",""
"animation","177","191908","0.0-5.0-2.86","60599946259dc97d30e2001f","bdp_cybrbll","Sun Apr 02 2023 20:37:29 GMT-0700 (Pacific Daylight Time)","433008","3","1","","","","","","","","","","139","","","","3","2","[{""stimulus"":""img/3to2/1.png"",""time"":109},{""stimulus"":""img/3to2/2.png"",""time"":204},{""stimulus"":""img/3to2/3.png"",""time"":312},{""stimulus"":""img/3to2/4.png"",""time"":406},{""stimulus"":""img/3to2/5.png"",""time"":501},{""stimulus"":""img/3to2/6.png"",""time"":595},{""stimulus"":""img/3to2/7.png"",""time"":707},{""stimulus"":""img/3to2/8.png"",""time"":803},{""stimulus"":""img/3to2/9.png"",""time"":898},{""stimulus"":""img/3to2/10.png"",""time"":994},{""stimulus"":""img/3to2/11.png"",""time"":1090},{""stimulus"":""img/3to2/12.png"",""time"":1202}]","[]"
"image-keyboard-response","178","192182","0.0-5.0-1.87","60599946259dc97d30e2001f","bdp_cybrbll","Sun Apr 02 2023 20:37:29 GMT-0700 (Pacific Daylight Time)","433008","3","1","","274","","","","choice","","img/2to1/1.png","1","138","307","0.5","0.1","2","1","",""
"animation","179","193470","0.0-5.0-2.87","60599946259dc97d30e2001f","bdp_cybrbll","Sun Apr 02 2023 20:37:29 GMT-0700 (Pacific Daylight Time)","433008","3","1","","","","","","","","","","138","","","","2","1","[{""stimulus"":""img/2to1/1.png"",""time"":110},{""stimulus"":""img/2to1/2.png"",""time"":206},{""stimulus"":""img/2to1/3.png"",""time"":301},{""stimulus"":""img/2to1/4.png"",""time"":412},{""stimulus"":""img/2to1/5.png"",""time"":508},{""stimulus"":""img/2to1/6.png"",""time"":595},{""stimulus"":""img/2to1/7.png"",""time"":700},{""stimulus"":""img/2to1/8.png"",""time"":794},{""stimulus"":""img/2to1/9.png"",""time"":905},{""stimulus"":""img/2to1/10.png"",""time"":1001},{""stimulus"":""img/2to1/11.png"",""time"":1096},{""stimulus"":""img/2to1/12.png"",""time"":1192}]","[]"
"image-keyboard-response","180","194084","0.0-5.0-1.88","60599946259dc97d30e2001f","bdp_cybrbll","Sun Apr 02 2023 20:37:29 GMT-0700 (Pacific Daylight Time)","433008","3","1","","null","","","","observe","","img/1to3/1.png","null","137","609","0.5","0.1","1","3","",""
"animation","181","195380","0.0-5.0-2.88","60599946259dc97d30e2001f","bdp_cybrbll","Sun Apr 02 2023 20:37:29 GMT-0700 (Pacific Daylight Time)","433008","3","1","","","","","","","","","","137","","","","1","3","[{""stimulus"":""img/1to3/1.png"",""time"":108},{""stimulus"":""img/1to3/2.png"",""time"":204},{""stimulus"":""img/1to3/3.png"",""time"":300},{""stimulus"":""img/1to3/4.png"",""time"":412},{""stimulus"":""img/1to3/5.png"",""time"":508},{""stimulus"":""img/1to3/6.png"",""time"":603},{""stimulus"":""img/1to3/7.png"",""time"":698},{""stimulus"":""img/1to3/8.png"",""time"":808},{""stimulus"":""img/1to3/9.png"",""time"":903},{""stimulus"":""img/1to3/10.png"",""time"":997},{""stimulus"":""img/1to3/11.png"",""time"":1091},{""stimulus"":""img/1to3/12.png"",""time"":1200}]","[]"
"image-keyboard-response","182","195998","0.0-5.0-1.89","60599946259dc97d30e2001f","bdp_cybrbll","Sun Apr 02 2023 20:37:29 GMT-0700 (Pacific Daylight Time)","433008","3","1","","null","","","","observe","","img/3to2/1.png","null","136","616","0.5","0.1","3","1","",""
"animation","183","197297","0.0-5.0-2.89","60599946259dc97d30e2001f","bdp_cybrbll","Sun Apr 02 2023 20:37:29 GMT-0700 (Pacific Daylight Time)","433008","3","1","","","","","","","","","","136","","","","3","1","[{""stimulus"":""img/3to1/1.png"",""time"":111},{""stimulus"":""img/3to1/2.png"",""time"":207},{""stimulus"":""img/3to1/3.png"",""time"":303},{""stimulus"":""img/3to1/4.png"",""time"":399},{""stimulus"":""img/3to1/5.png"",""time"":509},{""stimulus"":""img/3to1/6.png"",""time"":603},{""stimulus"":""img/3to1/7.png"",""time"":697},{""stimulus"":""img/3to1/8.png"",""time"":793},{""stimulus"":""img/3to1/9.png"",""time"":905},{""stimulus"":""img/3to1/10.png"",""time"":1000},{""stimulus"":""img/3to1/11.png"",""time"":1094},{""stimulus"":""img/3to1/12.png"",""time"":1190}]","[]"
"image-keyboard-response","184","197518","0.0-5.0-1.90","60599946259dc97d30e2001f","bdp_cybrbll","Sun Apr 02 2023 20:37:29 GMT-0700 (Pacific Daylight Time)","433008","3","1","","null","","","","observe","","img/1to3/1.png","null","135","215","0.5","0.1","1","3","",""
"animation","185","198807","0.0-5.0-2.90","60599946259dc97d30e2001f","bdp_cybrbll","Sun Apr 02 2023 20:37:29 GMT-0700 (Pacific Daylight Time)","433008","3","1","","","","","","","","","","135","","","","1","3","[{""stimulus"":""img/1to3/1.png"",""time"":111},{""stimulus"":""img/1to3/2.png"",""time"":207},{""stimulus"":""img/1to3/3.png"",""time"":303},{""stimulus"":""img/1to3/4.png"",""time"":399},{""stimulus"":""img/1to3/5.png"",""time"":509},{""stimulus"":""img/1to3/6.png"",""time"":605},{""stimulus"":""img/1to3/7.png"",""time"":701},{""stimulus"":""img/1to3/8.png"",""time"":796},{""stimulus"":""img/1to3/9.png"",""time"":906},{""stimulus"":""img/1to3/10.png"",""time"":1001},{""stimulus"":""img/1to3/11.png"",""time"":1097},{""stimulus"":""img/1to3/12.png"",""time"":1193}]","[]"
"image-keyboard-response","186","198952","0.0-5.0-1.91","60599946259dc97d30e2001f","bdp_cybrbll","Sun Apr 02 2023 20:37:29 GMT-0700 (Pacific Daylight Time)","433008","3","1","","null","","","","observe","","img/3to2/1.png","null","134","130","0.5","0.1","3","2","",""
"animation","187","200242","0.0-5.0-2.91","60599946259dc97d30e2001f","bdp_cybrbll","Sun Apr 02 2023 20:37:29 GMT-0700 (Pacific Daylight Time)","433008","3","1","","","","","","","","","","134","","","","3","2","[{""stimulus"":""img/3to2/1.png"",""time"":110},{""stimulus"":""img/3to2/2.png"",""time"":206},{""stimulus"":""img/3to2/3.png"",""time"":302},{""stimulus"":""img/3to2/4.png"",""time"":398},{""stimulus"":""img/3to2/5.png"",""time"":508},{""stimulus"":""img/3to2/6.png"",""time"":604},{""stimulus"":""img/3to2/7.png"",""time"":700},{""stimulus"":""img/3to2/8.png"",""time"":794},{""stimulus"":""img/3to2/9.png"",""time"":906},{""stimulus"":""img/3to2/10.png"",""time"":1002},{""stimulus"":""img/3to2/11.png"",""time"":1098},{""stimulus"":""img/3to2/12.png"",""time"":1194}]","[]"
"image-keyboard-response","188","200367","0.0-5.0-1.92","60599946259dc97d30e2001f","bdp_cybrbll","Sun Apr 02 2023 20:37:29 GMT-0700 (Pacific Daylight Time)","433008","3","1","","125","","","","choice","","img/2to1/1.png","1","133","499","0.5","0.1","2","1","",""
"animation","189","201660","0.0-5.0-2.92","60599946259dc97d30e2001f","bdp_cybrbll","Sun Apr 02 2023 20:37:29 GMT-0700 (Pacific Daylight Time)","433008","3","1","","","","","","","","","","133","","","","2","1","[{""stimulus"":""img/2to1/1.png"",""time"":113},{""stimulus"":""img/2to1/2.png"",""time"":209},{""stimulus"":""img/2to1/3.png"",""time"":305},{""stimulus"":""img/2to1/4.png"",""time"":399},{""stimulus"":""img/2to1/5.png"",""time"":511},{""stimulus"":""img/2to1/6.png"",""time"":606},{""stimulus"":""img/2to1/7.png"",""time"":701},{""stimulus"":""img/2to1/8.png"",""time"":797},{""stimulus"":""img/2to1/9.png"",""time"":893},{""stimulus"":""img/2to1/10.png"",""time"":1005},{""stimulus"":""img/2to1/11.png"",""time"":1101},{""stimulus"":""img/2to1/12.png"",""time"":1197}]","[]"
"image-keyboard-response","190","201882","0.0-5.0-1.93","60599946259dc97d30e2001f","bdp_cybrbll","Sun Apr 02 2023 20:37:29 GMT-0700 (Pacific Daylight Time)","433008","3","1","","null","","","","observe","","img/1to3/1.png","null","132","216","0.5","0.1","1","3","",""
