"event","trial","time","trialtype","subject_id","task","startTime","totalTime","fairPartner","unfairPartner","trial_type","trial_index","time_elapsed","internal_node_id","view_history","rt","success","stimulus","key_press","throwsLeft","rtDur","pFair","pUnfair","holder","receiver","animation_sequence","responses"
"focus","0","0","focusevent","5e03f8517f08edece67a3137","bdp_cybrbll","Sat Mar 25 2023 17:05:44 GMT-0700 (Pacific Daylight Time)","521134","1","3","","","","","","","","","","","","","","","","",""
"","","","","5e03f8517f08edece67a3137","bdp_cybrbll","Sat Mar 25 2023 17:05:44 GMT-0700 (Pacific Daylight Time)","521134","1","3","pavlovia","0","7","0.0-0.0","","","","","","","","","","","","",""
"","","","","5e03f8517f08edece67a3137","bdp_cybrbll","Sat Mar 25 2023 17:05:44 GMT-0700 (Pacific Daylight Time)","521134","1","3","instructions","1","5144","0.0-1.0","[{""page_index"":0,""viewing_time"":5135}]","5136","","","","","","","","","","",""
"fullscreenexit","2","7112","fullscreenexit","5e03f8517f08edece67a3137","bdp_cybrbll","Sat Mar 25 2023 17:05:44 GMT-0700 (Pacific Daylight Time)","521134","1","3","","","","","","","","","","","","","","","","",""
"","","","","5e03f8517f08edece67a3137","bdp_cybrbll","Sat Mar 25 2023 17:05:44 GMT-0700 (Pacific Daylight Time)","521134","1","3","fullscreen","2","7896","0.0-2.0","","","true","","","","","","","","","",""
"","","","fullscreenfail","5e03f8517f08edece67a3137","bdp_cybrbll","Sat Mar 25 2023 17:05:44 GMT-0700 (Pacific Daylight Time)","521134","1","3","image-keyboard-response","3","10589","0.0-3.0-0.0","","2687","","","32","","","","","","","",""
"","","","","5e03f8517f08edece67a3137","bdp_cybrbll","Sat Mar 25 2023 17:05:44 GMT-0700 (Pacific Daylight Time)","521134","1","3","instructions","4","64291","0.0-4.0","[{""page_index"":0,""viewing_time"":53446}]","53446","","","","","","","","","","",""
"","","","choice","5e03f8517f08edece67a3137","bdp_cybrbll","Sat Mar 25 2023 17:05:44 GMT-0700 (Pacific Daylight Time)","521134","1","3","image-keyboard-response","5","65520","0.0-5.0-1.0","","1226","","img/2to1/1.png","1","225","552","0.5","0.5","2","1","",""
"","","","","5e03f8517f08edece67a3137","bdp_cybrbll","Sat Mar 25 2023 17:05:44 GMT-0700 (Pacific Daylight Time)","521134","1","3","animation","6","66927","0.0-5.0-2.0","","","","","","225","","","","2","1","[{""stimulus"":""img/2to1/1.png"",""time"":103},{""stimulus"":""img/2to1/2.png"",""time"":212},{""stimulus"":""img/2to1/3.png"",""time"":322},{""stimulus"":""img/2to1/4.png"",""time"":429},{""stimulus"":""img/2to1/5.png"",""time"":536},{""stimulus"":""img/2to1/6.png"",""time"":646},{""stimulus"":""img/2to1/7.png"",""time"":756},{""stimulus"":""img/2to1/8.png"",""time"":866},{""stimulus"":""img/2to1/9.png"",""time"":973},{""stimulus"":""img/2to1/10.png"",""time"":1082},{""stimulus"":""img/2to1/11.png"",""time"":1190},{""stimulus"":""img/2to1/12.png"",""time"":1295}]","[]"
"","","","observe","5e03f8517f08edece67a3137","bdp_cybrbll","Sat Mar 25 2023 17:05:44 GMT-0700 (Pacific Daylight Time)","521134","1","3","image-keyboard-response","7","67157","0.0-5.0-1.1","","null","","img/1to3/1.png","null","224","222","0.5","0.5","1","2","",""
"","","","","5e03f8517f08edece67a3137","bdp_cybrbll","Sat Mar 25 2023 17:05:44 GMT-0700 (Pacific Daylight Time)","521134","1","3","animation","8","68570","0.0-5.0-2.1","","","","","","224","","","","1","2","[{""stimulus"":""img/1to2/1.png"",""time"":109},{""stimulus"":""img/1to2/2.png"",""time"":218},{""stimulus"":""img/1to2/3.png"",""time"":329},{""stimulus"":""img/1to2/4.png"",""time"":441},{""stimulus"":""img/1to2/5.png"",""time"":549},{""stimulus"":""img/1to2/6.png"",""time"":649},{""stimulus"":""img/1to2/7.png"",""time"":760},{""stimulus"":""img/1to2/8.png"",""time"":871},{""stimulus"":""img/1to2/9.png"",""time"":983},{""stimulus"":""img/1to2/10.png"",""time"":1088},{""stimulus"":""img/1to2/11.png"",""time"":1199},{""stimulus"":""img/1to2/12.png"",""time"":1309}]","[]"
"","","","choice","5e03f8517f08edece67a3137","bdp_cybrbll","Sat Mar 25 2023 17:05:44 GMT-0700 (Pacific Daylight Time)","521134","1","3","image-keyboard-response","9","68949","0.0-5.0-1.2","","378","","img/2to1/1.png","2","223","620","0.5","0.5","2","3","",""
"","","","","5e03f8517f08edece67a3137","bdp_cybrbll","Sat Mar 25 2023 17:05:44 GMT-0700 (Pacific Daylight Time)","521134","1","3","animation","10","70354","0.0-5.0-2.2","","","","","","223","","","","2","3","[{""stimulus"":""img/2to3/1.png"",""time"":112},{""stimulus"":""img/2to3/2.png"",""time"":220},{""stimulus"":""img/2to3/3.png"",""time"":324},{""stimulus"":""img/2to3/4.png"",""time"":430},{""stimulus"":""img/2to3/5.png"",""time"":539},{""stimulus"":""img/2to3/6.png"",""time"":647},{""stimulus"":""img/2to3/7.png"",""time"":757},{""stimulus"":""img/2to3/8.png"",""time"":861},{""stimulus"":""img/2to3/9.png"",""time"":972},{""stimulus"":""img/2to3/10.png"",""time"":1078},{""stimulus"":""img/2to3/11.png"",""time"":1190},{""stimulus"":""img/2to3/12.png"",""time"":1296}]","[]"
"","","","observe","5e03f8517f08edece67a3137","bdp_cybrbll","Sat Mar 25 2023 17:05:44 GMT-0700 (Pacific Daylight Time)","521134","1","3","image-keyboard-response","11","71454","0.0-5.0-1.3","","null","","img/3to2/1.png","null","222","1092","0.5","0.5","3","2","",""
"","","","","5e03f8517f08edece67a3137","bdp_cybrbll","Sat Mar 25 2023 17:05:44 GMT-0700 (Pacific Daylight Time)","521134","1","3","animation","12","72859","0.0-5.0-2.3","","","","","","222","","","","3","2","[{""stimulus"":""img/3to2/1.png"",""time"":108},{""stimulus"":""img/3to2/2.png"",""time"":216},{""stimulus"":""img/3to2/3.png"",""time"":320},{""stimulus"":""img/3to2/4.png"",""time"":422},{""stimulus"":""img/3to2/5.png"",""time"":527},{""stimulus"":""img/3to2/6.png"",""time"":647},{""stimulus"":""img/3to2/7.png"",""time"":757},{""stimulus"":""img/3to2/8.png"",""time"":863},{""stimulus"":""img/3to2/9.png"",""time"":967},{""stimulus"":""img/3to2/10.png"",""time"":1076},{""stimulus"":""img/3to2/11.png"",""time"":1187},{""stimulus"":""img/3to2/12.png"",""time"":1296}]","[]"
"","","","choice","5e03f8517f08edece67a3137","bdp_cybrbll","Sat Mar 25 2023 17:05:44 GMT-0700 (Pacific Daylight Time)","521134","1","3","image-keyboard-response","13","73239","0.0-5.0-1.4","","379","","img/2to1/1.png","1","221","847","0.5","0.5","2","1","",""
"","","","","5e03f8517f08edece67a3137","bdp_cybrbll","Sat Mar 25 2023 17:05:44 GMT-0700 (Pacific Daylight Time)","521134","1","3","animation","14","74638","0.0-5.0-2.4","","","","","","221","","","","2","1","[{""stimulus"":""img/2to1/1.png"",""time"":109},{""stimulus"":""img/2to1/2.png"",""time"":216},{""stimulus"":""img/2to1/3.png"",""time"":325},{""stimulus"":""img/2to1/4.png"",""time"":429},{""stimulus"":""img/2to1/5.png"",""time"":542},{""stimulus"":""img/2to1/6.png"",""time"":648},{""stimulus"":""img/2to1/7.png"",""time"":755},{""stimulus"":""img/2to1/8.png"",""time"":863},{""stimulus"":""img/2to1/9.png"",""time"":966},{""stimulus"":""img/2to1/10.png"",""time"":1071},{""stimulus"":""img/2to1/11.png"",""time"":1184},{""stimulus"":""img/2to1/12.png"",""time"":1294}]","[]"
"","","","observe","5e03f8517f08edece67a3137","bdp_cybrbll","Sat Mar 25 2023 17:05:44 GMT-0700 (Pacific Daylight Time)","521134","1","3","image-keyboard-response","15","74870","0.0-5.0-1.5","","null","","img/1to3/1.png","null","220","224","0.5","0.5","1","2","",""
"","","","","5e03f8517f08edece67a3137","bdp_cybrbll","Sat Mar 25 2023 17:05:44 GMT-0700 (Pacific Daylight Time)","521134","1","3","animation","16","76263","0.0-5.0-2.5","","","","","","220","","","","1","2","[{""stimulus"":""img/1to2/1.png"",""time"":108},{""stimulus"":""img/1to2/2.png"",""time"":215},{""stimulus"":""img/1to2/3.png"",""time"":329},{""stimulus"":""img/1to2/4.png"",""time"":435},{""stimulus"":""img/1to2/5.png"",""time"":539},{""stimulus"":""img/1to2/6.png"",""time"":648},{""stimulus"":""img/1to2/7.png"",""time"":752},{""stimulus"":""img/1to2/8.png"",""time"":860},{""stimulus"":""img/1to2/9.png"",""time"":965},{""stimulus"":""img/1to2/10.png"",""time"":1074},{""stimulus"":""img/1to2/11.png"",""time"":1180},{""stimulus"":""img/1to2/12.png"",""time"":1288}]","[]"
"","","","choice","5e03f8517f08edece67a3137","bdp_cybrbll","Sat Mar 25 2023 17:05:44 GMT-0700 (Pacific Daylight Time)","521134","1","3","image-keyboard-response","17","76693","0.0-5.0-1.6","","428","","img/2to1/1.png","2","219","935","0.5","0.5","2","3","",""
"","","","","5e03f8517f08edece67a3137","bdp_cybrbll","Sat Mar 25 2023 17:05:44 GMT-0700 (Pacific Daylight Time)","521134","1","3","animation","18","78098","0.0-5.0-2.6","","","","","","219","","","","2","3","[{""stimulus"":""img/2to3/1.png"",""time"":111},{""stimulus"":""img/2to3/2.png"",""time"":222},{""stimulus"":""img/2to3/3.png"",""time"":328},{""stimulus"":""img/2to3/4.png"",""time"":437},{""stimulus"":""img/2to3/5.png"",""time"":543},{""stimulus"":""img/2to3/6.png"",""time"":647},{""stimulus"":""img/2to3/7.png"",""time"":752},{""stimulus"":""img/2to3/8.png"",""time"":859},{""stimulus"":""img/2to3/9.png"",""time"":967},{""stimulus"":""img/2to3/10.png"",""time"":1072},{""stimulus"":""img/2to3/11.png"",""time"":1182},{""stimulus"":""img/2to3/12.png"",""time"":1292}]","[]"
"","","","observe","5e03f8517f08edece67a3137","bdp_cybrbll","Sat Mar 25 2023 17:05:44 GMT-0700 (Pacific Daylight Time)","521134","1","3","image-keyboard-response","19","78570","0.0-5.0-1.7","","null","","img/3to2/1.png","null","218","463","0.5","0.5","3","2","",""
"","","","","5e03f8517f08edece67a3137","bdp_cybrbll","Sat Mar 25 2023 17:05:44 GMT-0700 (Pacific Daylight Time)","521134","1","3","animation","20","79976","0.0-5.0-2.7","","","","","","218","","","","3","2","[{""stimulus"":""img/3to2/1.png"",""time"":111},{""stimulus"":""img/3to2/2.png"",""time"":220},{""stimulus"":""img/3to2/3.png"",""time"":327},{""stimulus"":""img/3to2/4.png"",""time"":434},{""stimulus"":""img/3to2/5.png"",""time"":546},{""stimulus"":""img/3to2/6.png"",""time"":654},{""stimulus"":""img/3to2/7.png"",""time"":762},{""stimulus"":""img/3to2/8.png"",""time"":869},{""stimulus"":""img/3to2/9.png"",""time"":981},{""stimulus"":""img/3to2/10.png"",""time"":1094},{""stimulus"":""img/3to2/11.png"",""time"":1194},{""stimulus"":""img/3to2/12.png"",""time"":1301}]","[]"
"","","","choice","5e03f8517f08edece67a3137","bdp_cybrbll","Sat Mar 25 2023 17:05:44 GMT-0700 (Pacific Daylight Time)","521134","1","3","image-keyboard-response","21","80298","0.0-5.0-1.8","","321","","img/2to1/1.png","2","217","734","0.5","0.5","2","3","",""
"","","","","5e03f8517f08edece67a3137","bdp_cybrbll","Sat Mar 25 2023 17:05:44 GMT-0700 (Pacific Daylight Time)","521134","1","3","animation","22","81694","0.0-5.0-2.8","","","","","","217","","","","2","3","[{""stimulus"":""img/2to3/1.png"",""time"":107},{""stimulus"":""img/2to3/2.png"",""time"":215},{""stimulus"":""img/2to3/3.png"",""time"":321},{""stimulus"":""img/2to3/4.png"",""time"":429},{""stimulus"":""img/2to3/5.png"",""time"":537},{""stimulus"":""img/2to3/6.png"",""time"":646},{""stimulus"":""img/2to3/7.png"",""time"":757},{""stimulus"":""img/2to3/8.png"",""time"":856},{""stimulus"":""img/2to3/9.png"",""time"":965},{""stimulus"":""img/2to3/10.png"",""time"":1074},{""stimulus"":""img/2to3/11.png"",""time"":1182},{""stimulus"":""img/2to3/12.png"",""time"":1287}]","[]"
"","","","observe","5e03f8517f08edece67a3137","bdp_cybrbll","Sat Mar 25 2023 17:05:44 GMT-0700 (Pacific Daylight Time)","521134","1","3","image-keyboard-response","23","81970","0.0-5.0-1.9","","null","","img/3to2/1.png","null","216","265","0.5","0.5","3","2","",""
"","","","","5e03f8517f08edece67a3137","bdp_cybrbll","Sat Mar 25 2023 17:05:44 GMT-0700 (Pacific Daylight Time)","521134","1","3","animation","24","83360","0.0-5.0-2.9","","","","","","216","","","","3","2","[{""stimulus"":""img/3to2/1.png"",""time"":108},{""stimulus"":""img/3to2/2.png"",""time"":215},{""stimulus"":""img/3to2/3.png"",""time"":328},{""stimulus"":""img/3to2/4.png"",""time"":433},{""stimulus"":""img/3to2/5.png"",""time"":541},{""stimulus"":""img/3to2/6.png"",""time"":646},{""stimulus"":""img/3to2/7.png"",""time"":751},{""stimulus"":""img/3to2/8.png"",""time"":856},{""stimulus"":""img/3to2/9.png"",""time"":962},{""stimulus"":""img/3to2/10.png"",""time"":1068},{""stimulus"":""img/3to2/11.png"",""time"":1177},{""stimulus"":""img/3to2/12.png"",""time"":1286}]","[]"
"","","","choice","5e03f8517f08edece67a3137","bdp_cybrbll","Sat Mar 25 2023 17:05:44 GMT-0700 (Pacific Daylight Time)","521134","1","3","image-keyboard-response","25","84264","0.0-5.0-1.10","","903","","img/2to1/1.png","2","215","197","0.5","0.5","2","3","",""
"","","","","5e03f8517f08edece67a3137","bdp_cybrbll","Sat Mar 25 2023 17:05:44 GMT-0700 (Pacific Daylight Time)","521134","1","3","animation","26","85685","0.0-5.0-2.10","","","","","","215","","","","2","3","[{""stimulus"":""img/2to3/1.png"",""time"":111},{""stimulus"":""img/2to3/2.png"",""time"":218},{""stimulus"":""img/2to3/3.png"",""time"":328},{""stimulus"":""img/2to3/4.png"",""time"":436},{""stimulus"":""img/2to3/5.png"",""time"":544},{""stimulus"":""img/2to3/6.png"",""time"":653},{""stimulus"":""img/2to3/7.png"",""time"":765},{""stimulus"":""img/2to3/8.png"",""time"":875},{""stimulus"":""img/2to3/9.png"",""time"":988},{""stimulus"":""img/2to3/10.png"",""time"":1096},{""stimulus"":""img/2to3/11.png"",""time"":1206},{""stimulus"":""img/2to3/12.png"",""time"":1313}]","[]"
"","","","observe","5e03f8517f08edece67a3137","bdp_cybrbll","Sat Mar 25 2023 17:05:44 GMT-0700 (Pacific Daylight Time)","521134","1","3","image-keyboard-response","27","86524","0.0-5.0-1.11","","null","","img/3to2/1.png","null","214","836","0.5","0.5","3","1","",""
"","","","","5e03f8517f08edece67a3137","bdp_cybrbll","Sat Mar 25 2023 17:05:44 GMT-0700 (Pacific Daylight Time)","521134","1","3","animation","28","87915","0.0-5.0-2.11","","","","","","214","","","","3","1","[{""stimulus"":""img/3to1/1.png"",""time"":106},{""stimulus"":""img/3to1/2.png"",""time"":214},{""stimulus"":""img/3to1/3.png"",""time"":320},{""stimulus"":""img/3to1/4.png"",""time"":430},{""stimulus"":""img/3to1/5.png"",""time"":539},{""stimulus"":""img/3to1/6.png"",""time"":645},{""stimulus"":""img/3to1/7.png"",""time"":752},{""stimulus"":""img/3to1/8.png"",""time"":860},{""stimulus"":""img/3to1/9.png"",""time"":966},{""stimulus"":""img/3to1/10.png"",""time"":1075},{""stimulus"":""img/3to1/11.png"",""time"":1176},{""stimulus"":""img/3to1/12.png"",""time"":1280}]","[]"
"","","","observe","5e03f8517f08edece67a3137","bdp_cybrbll","Sat Mar 25 2023 17:05:44 GMT-0700 (Pacific Daylight Time)","521134","1","3","image-keyboard-response","29","88238","0.0-5.0-1.12","","null","","img/1to3/1.png","null","213","319","0.5","0.5","1","2","",""
"","","","","5e03f8517f08edece67a3137","bdp_cybrbll","Sat Mar 25 2023 17:05:44 GMT-0700 (Pacific Daylight Time)","521134","1","3","animation","30","89651","0.0-5.0-2.12","","","","","","213","","","","1","2","[{""stimulus"":""img/1to2/1.png"",""time"":108},{""stimulus"":""img/1to2/2.png"",""time"":215},{""stimulus"":""img/1to2/3.png"",""time"":326},{""stimulus"":""img/1to2/4.png"",""time"":437},{""stimulus"":""img/1to2/5.png"",""time"":546},{""stimulus"":""img/1to2/6.png"",""time"":657},{""stimulus"":""img/1to2/7.png"",""time"":763},{""stimulus"":""img/1to2/8.png"",""time"":871},{""stimulus"":""img/1to2/9.png"",""time"":977},{""stimulus"":""img/1to2/10.png"",""time"":1082},{""stimulus"":""img/1to2/11.png"",""time"":1196},{""stimulus"":""img/1to2/12.png"",""time"":1302}]","[]"
"","","","choice","5e03f8517f08edece67a3137","bdp_cybrbll","Sat Mar 25 2023 17:05:44 GMT-0700 (Pacific Daylight Time)","521134","1","3","image-keyboard-response","31","90335","0.0-5.0-1.13","","684","","img/2to1/1.png","2","212","262","0.5","0.5","2","3","",""
"","","","","5e03f8517f08edece67a3137","bdp_cybrbll","Sat Mar 25 2023 17:05:44 GMT-0700 (Pacific Daylight Time)","521134","1","3","animation","32","91736","0.0-5.0-2.13","","","","","","212","","","","2","3","[{""stimulus"":""img/2to3/1.png"",""time"":112},{""stimulus"":""img/2to3/2.png"",""time"":218},{""stimulus"":""img/2to3/3.png"",""time"":326},{""stimulus"":""img/2to3/4.png"",""time"":433},{""stimulus"":""img/2to3/5.png"",""time"":547},{""stimulus"":""img/2to3/6.png"",""time"":651},{""stimulus"":""img/2to3/7.png"",""time"":758},{""stimulus"":""img/2to3/8.png"",""time"":866},{""stimulus"":""img/2to3/9.png"",""time"":974},{""stimulus"":""img/2to3/10.png"",""time"":1081},{""stimulus"":""img/2to3/11.png"",""time"":1187},{""stimulus"":""img/2to3/12.png"",""time"":1291}]","[]"
"","","","observe","5e03f8517f08edece67a3137","bdp_cybrbll","Sat Mar 25 2023 17:05:44 GMT-0700 (Pacific Daylight Time)","521134","1","3","image-keyboard-response","33","92011","0.0-5.0-1.14","","null","","img/3to2/1.png","null","211","266","0.5","0.5","3","2","",""
"","","","","5e03f8517f08edece67a3137","bdp_cybrbll","Sat Mar 25 2023 17:05:44 GMT-0700 (Pacific Daylight Time)","521134","1","3","animation","34","93419","0.0-5.0-2.14","","","","","","211","","","","3","2","[{""stimulus"":""img/3to2/1.png"",""time"":108},{""stimulus"":""img/3to2/2.png"",""time"":222},{""stimulus"":""img/3to2/3.png"",""time"":330},{""stimulus"":""img/3to2/4.png"",""time"":440},{""stimulus"":""img/3to2/5.png"",""time"":548},{""stimulus"":""img/3to2/6.png"",""time"":656},{""stimulus"":""img/3to2/7.png"",""time"":769},{""stimulus"":""img/3to2/8.png"",""time"":875},{""stimulus"":""img/3to2/9.png"",""time"":986},{""stimulus"":""img/3to2/10.png"",""time"":1093},{""stimulus"":""img/3to2/11.png"",""time"":1196},{""stimulus"":""img/3to2/12.png"",""time"":1295}]","[]"
"","","","choice","5e03f8517f08edece67a3137","bdp_cybrbll","Sat Mar 25 2023 17:05:44 GMT-0700 (Pacific Daylight Time)","521134","1","3","image-keyboard-response","35","94247","0.0-5.0-1.15","","826","","img/2to1/1.png","1","210","566","0.5","0.5","2","1","",""
"","","","","5e03f8517f08edece67a3137","bdp_cybrbll","Sat Mar 25 2023 17:05:44 GMT-0700 (Pacific Daylight Time)","521134","1","3","animation","36","95666","0.0-5.0-2.15","","","","","","210","","","","2","1","[{""stimulus"":""img/2to1/1.png"",""time"":110},{""stimulus"":""img/2to1/2.png"",""time"":219},{""stimulus"":""img/2to1/3.png"",""time"":327},{""stimulus"":""img/2to1/4.png"",""time"":437},{""stimulus"":""img/2to1/5.png"",""time"":552},{""stimulus"":""img/2to1/6.png"",""time"":656},{""stimulus"":""img/2to1/7.png"",""time"":768},{""stimulus"":""img/2to1/8.png"",""time"":874},{""stimulus"":""img/2to1/9.png"",""time"":984},{""stimulus"":""img/2to1/10.png"",""time"":1090},{""stimulus"":""img/2to1/11.png"",""time"":1202},{""stimulus"":""img/2to1/12.png"",""time"":1312}]","[]"
"","","","observe","5e03f8517f08edece67a3137","bdp_cybrbll","Sat Mar 25 2023 17:05:44 GMT-0700 (Pacific Daylight Time)","521134","1","3","image-keyboard-response","37","95894","0.0-5.0-1.16","","null","","img/1to3/1.png","null","209","225","0.5","0.5","1","2","",""
"","","","","5e03f8517f08edece67a3137","bdp_cybrbll","Sat Mar 25 2023 17:05:44 GMT-0700 (Pacific Daylight Time)","521134","1","3","animation","38","97296","0.0-5.0-2.16","","","","","","209","","","","1","2","[{""stimulus"":""img/1to2/1.png"",""time"":110},{""stimulus"":""img/1to2/2.png"",""time"":217},{""stimulus"":""img/1to2/3.png"",""time"":320},{""stimulus"":""img/1to2/4.png"",""time"":432},{""stimulus"":""img/1to2/5.png"",""time"":537},{""stimulus"":""img/1to2/6.png"",""time"":646},{""stimulus"":""img/1to2/7.png"",""time"":754},{""stimulus"":""img/1to2/8.png"",""time"":860},{""stimulus"":""img/1to2/9.png"",""time"":970},{""stimulus"":""img/1to2/10.png"",""time"":1080},{""stimulus"":""img/1to2/11.png"",""time"":1188},{""stimulus"":""img/1to2/12.png"",""time"":1294}]","[]"
"","","","choice","5e03f8517f08edece67a3137","bdp_cybrbll","Sat Mar 25 2023 17:05:44 GMT-0700 (Pacific Daylight Time)","521134","1","3","image-keyboard-response","39","97703","0.0-5.0-1.17","","406","","img/2to1/1.png","2","208","621","0.5","0.5","2","3","",""
"","","","","5e03f8517f08edece67a3137","bdp_cybrbll","Sat Mar 25 2023 17:05:44 GMT-0700 (Pacific Daylight Time)","521134","1","3","animation","40","99116","0.0-5.0-2.17","","","","","","208","","","","2","3","[{""stimulus"":""img/2to3/1.png"",""time"":113},{""stimulus"":""img/2to3/2.png"",""time"":221},{""stimulus"":""img/2to3/3.png"",""time"":328},{""stimulus"":""img/2to3/4.png"",""time"":438},{""stimulus"":""img/2to3/5.png"",""time"":545},{""stimulus"":""img/2to3/6.png"",""time"":658},{""stimulus"":""img/2to3/7.png"",""time"":768},{""stimulus"":""img/2to3/8.png"",""time"":875},{""stimulus"":""img/2to3/9.png"",""time"":982},{""stimulus"":""img/2to3/10.png"",""time"":1090},{""stimulus"":""img/2to3/11.png"",""time"":1198},{""stimulus"":""img/2to3/12.png"",""time"":1307}]","[]"
"","","","observe","5e03f8517f08edece67a3137","bdp_cybrbll","Sat Mar 25 2023 17:05:44 GMT-0700 (Pacific Daylight Time)","521134","1","3","image-keyboard-response","41","99560","0.0-5.0-1.18","","null","","img/3to2/1.png","null","207","444","0.5","0.5","3","1","",""
"","","","","5e03f8517f08edece67a3137","bdp_cybrbll","Sat Mar 25 2023 17:05:44 GMT-0700 (Pacific Daylight Time)","521134","1","3","animation","42","100967","0.0-5.0-2.18","","","","","","207","","","","3","1","[{""stimulus"":""img/3to1/1.png"",""time"":106},{""stimulus"":""img/3to1/2.png"",""time"":215},{""stimulus"":""img/3to1/3.png"",""time"":321},{""stimulus"":""img/3to1/4.png"",""time"":430},{""stimulus"":""img/3to1/5.png"",""time"":540},{""stimulus"":""img/3to1/6.png"",""time"":650},{""stimulus"":""img/3to1/7.png"",""time"":761},{""stimulus"":""img/3to1/8.png"",""time"":868},{""stimulus"":""img/3to1/9.png"",""time"":978},{""stimulus"":""img/3to1/10.png"",""time"":1091},{""stimulus"":""img/3to1/11.png"",""time"":1190},{""stimulus"":""img/3to1/12.png"",""time"":1300}]","[]"
"","","","observe","5e03f8517f08edece67a3137","bdp_cybrbll","Sat Mar 25 2023 17:05:44 GMT-0700 (Pacific Daylight Time)","521134","1","3","image-keyboard-response","43","101609","0.0-5.0-1.19","","null","","img/1to3/1.png","null","206","629","0.5","0.5","1","3","",""
"","","","","5e03f8517f08edece67a3137","bdp_cybrbll","Sat Mar 25 2023 17:05:44 GMT-0700 (Pacific Daylight Time)","521134","1","3","animation","44","103016","0.0-5.0-2.19","","","","","","206","","","","1","3","[{""stimulus"":""img/1to3/1.png"",""time"":110},{""stimulus"":""img/1to3/2.png"",""time"":220},{""stimulus"":""img/1to3/3.png"",""time"":326},{""stimulus"":""img/1to3/4.png"",""time"":435},{""stimulus"":""img/1to3/5.png"",""time"":542},{""stimulus"":""img/1to3/6.png"",""time"":648},{""stimulus"":""img/1to3/7.png"",""time"":758},{""stimulus"":""img/1to3/8.png"",""time"":868},{""stimulus"":""img/1to3/9.png"",""time"":975},{""stimulus"":""img/1to3/10.png"",""time"":1080},{""stimulus"":""img/1to3/11.png"",""time"":1191},{""stimulus"":""img/1to3/12.png"",""time"":1301}]","[]"
"","","","observe","5e03f8517f08edece67a3137","bdp_cybrbll","Sat Mar 25 2023 17:05:44 GMT-0700 (Pacific Daylight Time)","521134","1","3","image-keyboard-response","45","103935","0.0-5.0-1.20","","null","","img/3to2/1.png","null","205","911","0.5","0.5","3","1","",""
"","","","","5e03f8517f08edece67a3137","bdp_cybrbll","Sat Mar 25 2023 17:05:44 GMT-0700 (Pacific Daylight Time)","521134","1","3","animation","46","105351","0.0-5.0-2.20","","","","","","205","","","","3","1","[{""stimulus"":""img/3to1/1.png"",""time"":102},{""stimulus"":""img/3to1/2.png"",""time"":214},{""stimulus"":""img/3to1/3.png"",""time"":320},{""stimulus"":""img/3to1/4.png"",""time"":426},{""stimulus"":""img/3to1/5.png"",""time"":530},{""stimulus"":""img/3to1/6.png"",""time"":636},{""stimulus"":""img/3to1/7.png"",""time"":745},{""stimulus"":""img/3to1/8.png"",""time"":849},{""stimulus"":""img/3to1/9.png"",""time"":963},{""stimulus"":""img/3to1/10.png"",""time"":1075},{""stimulus"":""img/3to1/11.png"",""time"":1207},{""stimulus"":""img/3to1/12.png"",""time"":1306}]","[]"
"","","","observe","5e03f8517f08edece67a3137","bdp_cybrbll","Sat Mar 25 2023 17:05:44 GMT-0700 (Pacific Daylight Time)","521134","1","3","image-keyboard-response","47","105936","0.0-5.0-1.21","","null","","img/1to3/1.png","null","204","581","0.5","0.5","1","2","",""
"","","","","5e03f8517f08edece67a3137","bdp_cybrbll","Sat Mar 25 2023 17:05:44 GMT-0700 (Pacific Daylight Time)","521134","1","3","animation","48","107349","0.0-5.0-2.21","","","","","","204","","","","1","2","[{""stimulus"":""img/1to2/1.png"",""time"":111},{""stimulus"":""img/1to2/2.png"",""time"":220},{""stimulus"":""img/1to2/3.png"",""time"":327},{""stimulus"":""img/1to2/4.png"",""time"":440},{""stimulus"":""img/1to2/5.png"",""time"":545},{""stimulus"":""img/1to2/6.png"",""time"":652},{""stimulus"":""img/1to2/7.png"",""time"":763},{""stimulus"":""img/1to2/8.png"",""time"":868},{""stimulus"":""img/1to2/9.png"",""time"":981},{""stimulus"":""img/1to2/10.png"",""time"":1089},{""stimulus"":""img/1to2/11.png"",""time"":1197},{""stimulus"":""img/1to2/12.png"",""time"":1304}]","[]"
"","","","choice","5e03f8517f08edece67a3137","bdp_cybrbll","Sat Mar 25 2023 17:05:44 GMT-0700 (Pacific Daylight Time)","521134","1","3","image-keyboard-response","49","107693","0.0-5.0-1.22","","343","","img/2to1/1.png","1","203","181","0.5","0.5","2","1","",""
"","","","","5e03f8517f08edece67a3137","bdp_cybrbll","Sat Mar 25 2023 17:05:44 GMT-0700 (Pacific Daylight Time)","521134","1","3","animation","50","109096","0.0-5.0-2.22","","","","","","203","","","","2","1","[{""stimulus"":""img/2to1/1.png"",""time"":106},{""stimulus"":""img/2to1/2.png"",""time"":213},{""stimulus"":""img/2to1/3.png"",""time"":323},{""stimulus"":""img/2to1/4.png"",""time"":438},{""stimulus"":""img/2to1/5.png"",""time"":544},{""stimulus"":""img/2to1/6.png"",""time"":653},{""stimulus"":""img/2to1/7.png"",""time"":757},{""stimulus"":""img/2to1/8.png"",""time"":863},{""stimulus"":""img/2to1/9.png"",""time"":969},{""stimulus"":""img/2to1/10.png"",""time"":1077},{""stimulus"":""img/2to1/11.png"",""time"":1183},{""stimulus"":""img/2to1/12.png"",""time"":1294}]","[]"
"","","","observe","5e03f8517f08edece67a3137","bdp_cybrbll","Sat Mar 25 2023 17:05:44 GMT-0700 (Pacific Daylight Time)","521134","1","3","image-keyboard-response","51","109545","0.0-5.0-1.23","","null","","img/1to3/1.png","null","202","442","0.5","0.5","1","2","",""
"","","","","5e03f8517f08edece67a3137","bdp_cybrbll","Sat Mar 25 2023 17:05:44 GMT-0700 (Pacific Daylight Time)","521134","1","3","animation","52","110943","0.0-5.0-2.23","","","","","","202","","","","1","2","[{""stimulus"":""img/1to2/1.png"",""time"":110},{""stimulus"":""img/1to2/2.png"",""time"":220},{""stimulus"":""img/1to2/3.png"",""time"":333},{""stimulus"":""img/1to2/4.png"",""time"":441},{""stimulus"":""img/1to2/5.png"",""time"":544},{""stimulus"":""img/1to2/6.png"",""time"":650},{""stimulus"":""img/1to2/7.png"",""time"":757},{""stimulus"":""img/1to2/8.png"",""time"":870},{""stimulus"":""img/1to2/9.png"",""time"":976},{""stimulus"":""img/1to2/10.png"",""time"":1080},{""stimulus"":""img/1to2/11.png"",""time"":1185},{""stimulus"":""img/1to2/12.png"",""time"":1290}]","[]"
"","","","choice","5e03f8517f08edece67a3137","bdp_cybrbll","Sat Mar 25 2023 17:05:44 GMT-0700 (Pacific Daylight Time)","521134","1","3","image-keyboard-response","53","111766","0.0-5.0-1.24","","822","","img/2to1/1.png","2","201","254","0.5","0.5","2","3","",""
"","","","","5e03f8517f08edece67a3137","bdp_cybrbll","Sat Mar 25 2023 17:05:44 GMT-0700 (Pacific Daylight Time)","521134","1","3","animation","54","113169","0.0-5.0-2.24","","","","","","201","","","","2","3","[{""stimulus"":""img/2to3/1.png"",""time"":105},{""stimulus"":""img/2to3/2.png"",""time"":214},{""stimulus"":""img/2to3/3.png"",""time"":321},{""stimulus"":""img/2to3/4.png"",""time"":432},{""stimulus"":""img/2to3/5.png"",""time"":541},{""stimulus"":""img/2to3/6.png"",""time"":648},{""stimulus"":""img/2to3/7.png"",""time"":753},{""stimulus"":""img/2to3/8.png"",""time"":865},{""stimulus"":""img/2to3/9.png"",""time"":973},{""stimulus"":""img/2to3/10.png"",""time"":1083},{""stimulus"":""img/2to3/11.png"",""time"":1183},{""stimulus"":""img/2to3/12.png"",""time"":1296}]","[]"
"","","","observe","5e03f8517f08edece67a3137","bdp_cybrbll","Sat Mar 25 2023 17:05:44 GMT-0700 (Pacific Daylight Time)","521134","1","3","image-keyboard-response","55","113512","0.0-5.0-1.25","","null","","img/3to2/1.png","null","200","331","0.5","0.5","3","2","",""
"","","","","5e03f8517f08edece67a3137","bdp_cybrbll","Sat Mar 25 2023 17:05:44 GMT-0700 (Pacific Daylight Time)","521134","1","3","animation","56","114916","0.0-5.0-2.25","","","","","","200","","","","3","2","[{""stimulus"":""img/3to2/1.png"",""time"":109},{""stimulus"":""img/3to2/2.png"",""time"":210},{""stimulus"":""img/3to2/3.png"",""time"":324},{""stimulus"":""img/3to2/4.png"",""time"":431},{""stimulus"":""img/3to2/5.png"",""time"":534},{""stimulus"":""img/3to2/6.png"",""time"":645},{""stimulus"":""img/3to2/7.png"",""time"":752},{""stimulus"":""img/3to2/8.png"",""time"":858},{""stimulus"":""img/3to2/9.png"",""time"":971},{""stimulus"":""img/3to2/10.png"",""time"":1078},{""stimulus"":""img/3to2/11.png"",""time"":1188},{""stimulus"":""img/3to2/12.png"",""time"":1300}]","[]"
"","","","choice","5e03f8517f08edece67a3137","bdp_cybrbll","Sat Mar 25 2023 17:05:44 GMT-0700 (Pacific Daylight Time)","521134","1","3","image-keyboard-response","57","115131","0.0-5.0-1.26","","214","","img/2to1/1.png","2","199","421","0.5","0.5","2","3","",""
"","","","","5e03f8517f08edece67a3137","bdp_cybrbll","Sat Mar 25 2023 17:05:44 GMT-0700 (Pacific Daylight Time)","521134","1","3","animation","58","116516","0.0-5.0-2.26","","","","","","199","","","","2","3","[{""stimulus"":""img/2to3/1.png"",""time"":100},{""stimulus"":""img/2to3/2.png"",""time"":201},{""stimulus"":""img/2to3/3.png"",""time"":309},{""stimulus"":""img/2to3/4.png"",""time"":413},{""stimulus"":""img/2to3/5.png"",""time"":519},{""stimulus"":""img/2to3/6.png"",""time"":628},{""stimulus"":""img/2to3/7.png"",""time"":735},{""stimulus"":""img/2to3/8.png"",""time"":845},{""stimulus"":""img/2to3/9.png"",""time"":954},{""stimulus"":""img/2to3/10.png"",""time"":1060},{""stimulus"":""img/2to3/11.png"",""time"":1169},{""stimulus"":""img/2to3/12.png"",""time"":1273}]","[]"
"","","","observe","5e03f8517f08edece67a3137","bdp_cybrbll","Sat Mar 25 2023 17:05:44 GMT-0700 (Pacific Daylight Time)","521134","1","3","image-keyboard-response","59","116901","0.0-5.0-1.27","","null","","img/3to2/1.png","null","198","382","0.5","0.5","3","2","",""
"","","","","5e03f8517f08edece67a3137","bdp_cybrbll","Sat Mar 25 2023 17:05:44 GMT-0700 (Pacific Daylight Time)","521134","1","3","animation","60","118297","0.0-5.0-2.27","","","","","","198","","","","3","2","[{""stimulus"":""img/3to2/1.png"",""time"":107},{""stimulus"":""img/3to2/2.png"",""time"":212},{""stimulus"":""img/3to2/3.png"",""time"":324},{""stimulus"":""img/3to2/4.png"",""time"":431},{""stimulus"":""img/3to2/5.png"",""time"":536},{""stimulus"":""img/3to2/6.png"",""time"":643},{""stimulus"":""img/3to2/7.png"",""time"":748},{""stimulus"":""img/3to2/8.png"",""time"":856},{""stimulus"":""img/3to2/9.png"",""time"":963},{""stimulus"":""img/3to2/10.png"",""time"":1071},{""stimulus"":""img/3to2/11.png"",""time"":1178},{""stimulus"":""img/3to2/12.png"",""time"":1285}]","[]"
"","","","choice","5e03f8517f08edece67a3137","bdp_cybrbll","Sat Mar 25 2023 17:05:44 GMT-0700 (Pacific Daylight Time)","521134","1","3","image-keyboard-response","61","118748","0.0-5.0-1.28","","450","","img/2to1/1.png","1","197","253","0.5","0.5","2","1","",""
"","","","","5e03f8517f08edece67a3137","bdp_cybrbll","Sat Mar 25 2023 17:05:44 GMT-0700 (Pacific Daylight Time)","521134","1","3","animation","62","120208","0.0-5.0-2.28","","","","","","197","","","","2","1","[{""stimulus"":""img/2to1/1.png"",""time"":111},{""stimulus"":""img/2to1/2.png"",""time"":216},{""stimulus"":""img/2to1/3.png"",""time"":317},{""stimulus"":""img/2to1/4.png"",""time"":436},{""stimulus"":""img/2to1/5.png"",""time"":540},{""stimulus"":""img/2to1/6.png"",""time"":679},{""stimulus"":""img/2to1/7.png"",""time"":802},{""stimulus"":""img/2to1/8.png"",""time"":918},{""stimulus"":""img/2to1/9.png"",""time"":1029},{""stimulus"":""img/2to1/10.png"",""time"":1143},{""stimulus"":""img/2to1/11.png"",""time"":1248},{""stimulus"":""img/2to1/12.png"",""time"":1353}]","[]"
"","","","observe","5e03f8517f08edece67a3137","bdp_cybrbll","Sat Mar 25 2023 17:05:44 GMT-0700 (Pacific Daylight Time)","521134","1","3","image-keyboard-response","63","120776","0.0-5.0-1.29","","null","","img/1to3/1.png","null","196","556","0.5","0.5","1","2","",""
"","","","","5e03f8517f08edece67a3137","bdp_cybrbll","Sat Mar 25 2023 17:05:44 GMT-0700 (Pacific Daylight Time)","521134","1","3","animation","64","122179","0.0-5.0-2.29","","","","","","196","","","","1","2","[{""stimulus"":""img/1to2/1.png"",""time"":109},{""stimulus"":""img/1to2/2.png"",""time"":218},{""stimulus"":""img/1to2/3.png"",""time"":325},{""stimulus"":""img/1to2/4.png"",""time"":433},{""stimulus"":""img/1to2/5.png"",""time"":537},{""stimulus"":""img/1to2/6.png"",""time"":647},{""stimulus"":""img/1to2/7.png"",""time"":752},{""stimulus"":""img/1to2/8.png"",""time"":860},{""stimulus"":""img/1to2/9.png"",""time"":972},{""stimulus"":""img/1to2/10.png"",""time"":1081},{""stimulus"":""img/1to2/11.png"",""time"":1186},{""stimulus"":""img/1to2/12.png"",""time"":1291}]","[]"
"","","","choice","5e03f8517f08edece67a3137","bdp_cybrbll","Sat Mar 25 2023 17:05:44 GMT-0700 (Pacific Daylight Time)","521134","1","3","image-keyboard-response","65","122416","0.0-5.0-1.30","","237","","img/2to1/1.png","1","195","523","0.5","0.5","2","1","",""
"","","","","5e03f8517f08edece67a3137","bdp_cybrbll","Sat Mar 25 2023 17:05:44 GMT-0700 (Pacific Daylight Time)","521134","1","3","animation","66","123828","0.0-5.0-2.30","","","","","","195","","","","2","1","[{""stimulus"":""img/2to1/1.png"",""time"":103},{""stimulus"":""img/2to1/2.png"",""time"":210},{""stimulus"":""img/2to1/3.png"",""time"":316},{""stimulus"":""img/2to1/4.png"",""time"":421},{""stimulus"":""img/2to1/5.png"",""time"":527},{""stimulus"":""img/2to1/6.png"",""time"":636},{""stimulus"":""img/2to1/7.png"",""time"":746},{""stimulus"":""img/2to1/8.png"",""time"":854},{""stimulus"":""img/2to1/9.png"",""time"":965},{""stimulus"":""img/2to1/10.png"",""time"":1074},{""stimulus"":""img/2to1/11.png"",""time"":1188},{""stimulus"":""img/2to1/12.png"",""time"":1301}]","[]"
"","","","observe","5e03f8517f08edece67a3137","bdp_cybrbll","Sat Mar 25 2023 17:05:44 GMT-0700 (Pacific Daylight Time)","521134","1","3","image-keyboard-response","67","124415","0.0-5.0-1.31","","null","","img/1to3/1.png","null","194","585","0.5","0.5","1","2","",""
"","","","","5e03f8517f08edece67a3137","bdp_cybrbll","Sat Mar 25 2023 17:05:44 GMT-0700 (Pacific Daylight Time)","521134","1","3","animation","68","125825","0.0-5.0-2.31","","","","","","194","","","","1","2","[{""stimulus"":""img/1to2/1.png"",""time"":104},{""stimulus"":""img/1to2/2.png"",""time"":214},{""stimulus"":""img/1to2/3.png"",""time"":322},{""stimulus"":""img/1to2/4.png"",""time"":434},{""stimulus"":""img/1to2/5.png"",""time"":535},{""stimulus"":""img/1to2/6.png"",""time"":640},{""stimulus"":""img/1to2/7.png"",""time"":747},{""stimulus"":""img/1to2/8.png"",""time"":858},{""stimulus"":""img/1to2/9.png"",""time"":970},{""stimulus"":""img/1to2/10.png"",""time"":1083},{""stimulus"":""img/1to2/11.png"",""time"":1191},{""stimulus"":""img/1to2/12.png"",""time"":1303}]","[]"
"","","","choice","5e03f8517f08edece67a3137","bdp_cybrbll","Sat Mar 25 2023 17:05:44 GMT-0700 (Pacific Daylight Time)","521134","1","3","image-keyboard-response","69","125899","0.0-5.0-1.32","","73","","img/2to1/1.png","1","193","346","0.5","0.5","2","1","",""
"","","","","5e03f8517f08edece67a3137","bdp_cybrbll","Sat Mar 25 2023 17:05:44 GMT-0700 (Pacific Daylight Time)","521134","1","3","animation","70","127304","0.0-5.0-2.32","","","","","","193","","","","2","1","[{""stimulus"":""img/2to1/1.png"",""time"":114},{""stimulus"":""img/2to1/2.png"",""time"":216},{""stimulus"":""img/2to1/3.png"",""time"":324},{""stimulus"":""img/2to1/4.png"",""time"":431},{""stimulus"":""img/2to1/5.png"",""time"":538},{""stimulus"":""img/2to1/6.png"",""time"":648},{""stimulus"":""img/2to1/7.png"",""time"":753},{""stimulus"":""img/2to1/8.png"",""time"":865},{""stimulus"":""img/2to1/9.png"",""time"":973},{""stimulus"":""img/2to1/10.png"",""time"":1080},{""stimulus"":""img/2to1/11.png"",""time"":1193},{""stimulus"":""img/2to1/12.png"",""time"":1301}]","[]"
"","","","observe","5e03f8517f08edece67a3137","bdp_cybrbll","Sat Mar 25 2023 17:05:44 GMT-0700 (Pacific Daylight Time)","521134","1","3","image-keyboard-response","71","127845","0.0-5.0-1.33","","null","","img/1to3/1.png","null","192","530","0.5","0.5","1","2","",""
"","","","","5e03f8517f08edece67a3137","bdp_cybrbll","Sat Mar 25 2023 17:05:44 GMT-0700 (Pacific Daylight Time)","521134","1","3","animation","72","129233","0.0-5.0-2.33","","","","","","192","","","","1","2","[{""stimulus"":""img/1to2/1.png"",""time"":102},{""stimulus"":""img/1to2/2.png"",""time"":207},{""stimulus"":""img/1to2/3.png"",""time"":317},{""stimulus"":""img/1to2/4.png"",""time"":421},{""stimulus"":""img/1to2/5.png"",""time"":533},{""stimulus"":""img/1to2/6.png"",""time"":644},{""stimulus"":""img/1to2/7.png"",""time"":751},{""stimulus"":""img/1to2/8.png"",""time"":857},{""stimulus"":""img/1to2/9.png"",""time"":966},{""stimulus"":""img/1to2/10.png"",""time"":1071},{""stimulus"":""img/1to2/11.png"",""time"":1176},{""stimulus"":""img/1to2/12.png"",""time"":1281}]","[]"
"","","","choice","5e03f8517f08edece67a3137","bdp_cybrbll","Sat Mar 25 2023 17:05:44 GMT-0700 (Pacific Daylight Time)","521134","1","3","image-keyboard-response","73","129236","0.0-5.0-1.34","","2","","img/2to1/1.png","1","191","549","0.5","0.5","2","1","",""
"","","","","5e03f8517f08edece67a3137","bdp_cybrbll","Sat Mar 25 2023 17:05:44 GMT-0700 (Pacific Daylight Time)","521134","1","3","animation","74","130643","0.0-5.0-2.34","","","","","","191","","","","2","1","[{""stimulus"":""img/2to1/1.png"",""time"":111},{""stimulus"":""img/2to1/2.png"",""time"":222},{""stimulus"":""img/2to1/3.png"",""time"":329},{""stimulus"":""img/2to1/4.png"",""time"":437},{""stimulus"":""img/2to1/5.png"",""time"":545},{""stimulus"":""img/2to1/6.png"",""time"":650},{""stimulus"":""img/2to1/7.png"",""time"":757},{""stimulus"":""img/2to1/8.png"",""time"":868},{""stimulus"":""img/2to1/9.png"",""time"":975},{""stimulus"":""img/2to1/10.png"",""time"":1083},{""stimulus"":""img/2to1/11.png"",""time"":1190},{""stimulus"":""img/2to1/12.png"",""time"":1302}]","[]"
"","","","observe","5e03f8517f08edece67a3137","bdp_cybrbll","Sat Mar 25 2023 17:05:44 GMT-0700 (Pacific Daylight Time)","521134","1","3","image-keyboard-response","75","131154","0.0-5.0-1.35","","null","","img/1to3/1.png","null","190","503","0.5","0.5","1","3","",""
"","","","","5e03f8517f08edece67a3137","bdp_cybrbll","Sat Mar 25 2023 17:05:44 GMT-0700 (Pacific Daylight Time)","521134","1","3","animation","76","132539","0.0-5.0-2.35","","","","","","190","","","","1","3","[{""stimulus"":""img/1to3/1.png"",""time"":107},{""stimulus"":""img/1to3/2.png"",""time"":211},{""stimulus"":""img/1to3/3.png"",""time"":318},{""stimulus"":""img/1to3/4.png"",""time"":427},{""stimulus"":""img/1to3/5.png"",""time"":534},{""stimulus"":""img/1to3/6.png"",""time"":638},{""stimulus"":""img/1to3/7.png"",""time"":746},{""stimulus"":""img/1to3/8.png"",""time"":854},{""stimulus"":""img/1to3/9.png"",""time"":957},{""stimulus"":""img/1to3/10.png"",""time"":1066},{""stimulus"":""img/1to3/11.png"",""time"":1171},{""stimulus"":""img/1to3/12.png"",""time"":1281}]","[]"
"","","","observe","5e03f8517f08edece67a3137","bdp_cybrbll","Sat Mar 25 2023 17:05:44 GMT-0700 (Pacific Daylight Time)","521134","1","3","image-keyboard-response","77","132880","0.0-5.0-1.36","","null","","img/3to2/1.png","null","189","329","0.5","0.5","3","2","",""
"","","","","5e03f8517f08edece67a3137","bdp_cybrbll","Sat Mar 25 2023 17:05:44 GMT-0700 (Pacific Daylight Time)","521134","1","3","animation","78","134280","0.0-5.0-2.36","","","","","","189","","","","3","2","[{""stimulus"":""img/3to2/1.png"",""time"":108},{""stimulus"":""img/3to2/2.png"",""time"":212},{""stimulus"":""img/3to2/3.png"",""time"":320},{""stimulus"":""img/3to2/4.png"",""time"":428},{""stimulus"":""img/3to2/5.png"",""time"":534},{""stimulus"":""img/3to2/6.png"",""time"":641},{""stimulus"":""img/3to2/7.png"",""time"":750},{""stimulus"":""img/3to2/8.png"",""time"":859},{""stimulus"":""img/3to2/9.png"",""time"":968},{""stimulus"":""img/3to2/10.png"",""time"":1076},{""stimulus"":""img/3to2/11.png"",""time"":1184},{""stimulus"":""img/3to2/12.png"",""time"":1294}]","[]"
"","","","choice","5e03f8517f08edece67a3137","bdp_cybrbll","Sat Mar 25 2023 17:05:44 GMT-0700 (Pacific Daylight Time)","521134","1","3","image-keyboard-response","79","134767","0.0-5.0-1.37","","486","","img/2to1/1.png","1","188","167","0.5","0.5","2","1","",""
"","","","","5e03f8517f08edece67a3137","bdp_cybrbll","Sat Mar 25 2023 17:05:44 GMT-0700 (Pacific Daylight Time)","521134","1","3","animation","80","136166","0.0-5.0-2.37","","","","","","188","","","","2","1","[{""stimulus"":""img/2to1/1.png"",""time"":108},{""stimulus"":""img/2to1/2.png"",""time"":215},{""stimulus"":""img/2to1/3.png"",""time"":325},{""stimulus"":""img/2to1/4.png"",""time"":428},{""stimulus"":""img/2to1/5.png"",""time"":538},{""stimulus"":""img/2to1/6.png"",""time"":647},{""stimulus"":""img/2to1/7.png"",""time"":755},{""stimulus"":""img/2to1/8.png"",""time"":860},{""stimulus"":""img/2to1/9.png"",""time"":971},{""stimulus"":""img/2to1/10.png"",""time"":1078},{""stimulus"":""img/2to1/11.png"",""time"":1188},{""stimulus"":""img/2to1/12.png"",""time"":1294}]","[]"
"","","","observe","5e03f8517f08edece67a3137","bdp_cybrbll","Sat Mar 25 2023 17:05:44 GMT-0700 (Pacific Daylight Time)","521134","1","3","image-keyboard-response","81","137349","0.0-5.0-1.38","","null","","img/1to3/1.png","null","187","1175","0.5","0.5","1","2","",""
"","","","","5e03f8517f08edece67a3137","bdp_cybrbll","Sat Mar 25 2023 17:05:44 GMT-0700 (Pacific Daylight Time)","521134","1","3","animation","82","138756","0.0-5.0-2.38","","","","","","187","","","","1","2","[{""stimulus"":""img/1to2/1.png"",""time"":110},{""stimulus"":""img/1to2/2.png"",""time"":218},{""stimulus"":""img/1to2/3.png"",""time"":329},{""stimulus"":""img/1to2/4.png"",""time"":435},{""stimulus"":""img/1to2/5.png"",""time"":546},{""stimulus"":""img/1to2/6.png"",""time"":655},{""stimulus"":""img/1to2/7.png"",""time"":763},{""stimulus"":""img/1to2/8.png"",""time"":870},{""stimulus"":""img/1to2/9.png"",""time"":977},{""stimulus"":""img/1to2/10.png"",""time"":1078},{""stimulus"":""img/1to2/11.png"",""time"":1192},{""stimulus"":""img/1to2/12.png"",""time"":1296}]","[]"
"","","","choice","5e03f8517f08edece67a3137","bdp_cybrbll","Sat Mar 25 2023 17:05:44 GMT-0700 (Pacific Daylight Time)","521134","1","3","image-keyboard-response","83","138937","0.0-5.0-1.39","","147","","img/2to1/1.png","2","186","467","0.5","0.5","2","3","",""
"","","","","5e03f8517f08edece67a3137","bdp_cybrbll","Sat Mar 25 2023 17:05:44 GMT-0700 (Pacific Daylight Time)","521134","1","3","animation","84","140449","0.0-5.0-2.39","","","","","","186","","","","2","3","[{""stimulus"":""img/2to3/1.png"",""time"":122},{""stimulus"":""img/2to3/2.png"",""time"":314},{""stimulus"":""img/2to3/3.png"",""time"":430},{""stimulus"":""img/2to3/4.png"",""time"":534},{""stimulus"":""img/2to3/5.png"",""time"":645},{""stimulus"":""img/2to3/6.png"",""time"":745},{""stimulus"":""img/2to3/7.png"",""time"":860},{""stimulus"":""img/2to3/8.png"",""time"":964},{""stimulus"":""img/2to3/9.png"",""time"":1072},{""stimulus"":""img/2to3/10.png"",""time"":1182},{""stimulus"":""img/2to3/11.png"",""time"":1292},{""stimulus"":""img/2to3/12.png"",""time"":1402}]","[]"
"","","","observe","5e03f8517f08edece67a3137","bdp_cybrbll","Sat Mar 25 2023 17:05:44 GMT-0700 (Pacific Daylight Time)","521134","1","3","image-keyboard-response","85","140919","0.0-5.0-1.40","","null","","img/3to2/1.png","null","185","463","0.5","0.5","3","1","",""
"","","","","5e03f8517f08edece67a3137","bdp_cybrbll","Sat Mar 25 2023 17:05:44 GMT-0700 (Pacific Daylight Time)","521134","1","3","animation","86","142333","0.0-5.0-2.40","","","","","","185","","","","3","1","[{""stimulus"":""img/3to1/1.png"",""time"":110},{""stimulus"":""img/3to1/2.png"",""time"":218},{""stimulus"":""img/3to1/3.png"",""time"":325},{""stimulus"":""img/3to1/4.png"",""time"":437},{""stimulus"":""img/3to1/5.png"",""time"":543},{""stimulus"":""img/3to1/6.png"",""time"":650},{""stimulus"":""img/3to1/7.png"",""time"":759},{""stimulus"":""img/3to1/8.png"",""time"":866},{""stimulus"":""img/3to1/9.png"",""time"":976},{""stimulus"":""img/3to1/10.png"",""time"":1085},{""stimulus"":""img/3to1/11.png"",""time"":1193},{""stimulus"":""img/3to1/12.png"",""time"":1304}]","[]"
"","","","observe","5e03f8517f08edece67a3137","bdp_cybrbll","Sat Mar 25 2023 17:05:44 GMT-0700 (Pacific Daylight Time)","521134","1","3","image-keyboard-response","87","143226","0.0-5.0-1.41","","null","","img/1to3/1.png","null","184","877","0.5","0.5","1","3","",""
"","","","","5e03f8517f08edece67a3137","bdp_cybrbll","Sat Mar 25 2023 17:05:44 GMT-0700 (Pacific Daylight Time)","521134","1","3","animation","88","144634","0.0-5.0-2.41","","","","","","184","","","","1","3","[{""stimulus"":""img/1to3/1.png"",""time"":104},{""stimulus"":""img/1to3/2.png"",""time"":215},{""stimulus"":""img/1to3/3.png"",""time"":324},{""stimulus"":""img/1to3/4.png"",""time"":432},{""stimulus"":""img/1to3/5.png"",""time"":539},{""stimulus"":""img/1to3/6.png"",""time"":651},{""stimulus"":""img/1to3/7.png"",""time"":760},{""stimulus"":""img/1to3/8.png"",""time"":870},{""stimulus"":""img/1to3/9.png"",""time"":970},{""stimulus"":""img/1to3/10.png"",""time"":1085},{""stimulus"":""img/1to3/11.png"",""time"":1189},{""stimulus"":""img/1to3/12.png"",""time"":1297}]","[]"
"","","","observe","5e03f8517f08edece67a3137","bdp_cybrbll","Sat Mar 25 2023 17:05:44 GMT-0700 (Pacific Daylight Time)","521134","1","3","image-keyboard-response","89","145485","0.0-5.0-1.42","","null","","img/3to2/1.png","null","183","848","0.5","0.5","3","1","",""
"","","","","5e03f8517f08edece67a3137","bdp_cybrbll","Sat Mar 25 2023 17:05:44 GMT-0700 (Pacific Daylight Time)","521134","1","3","animation","90","146865","0.0-5.0-2.42","","","","","","183","","","","3","1","[{""stimulus"":""img/3to1/1.png"",""time"":113},{""stimulus"":""img/3to1/2.png"",""time"":213},{""stimulus"":""img/3to1/3.png"",""time"":320},{""stimulus"":""img/3to1/4.png"",""time"":420},{""stimulus"":""img/3to1/5.png"",""time"":528},{""stimulus"":""img/3to1/6.png"",""time"":640},{""stimulus"":""img/3to1/7.png"",""time"":740},{""stimulus"":""img/3to1/8.png"",""time"":847},{""stimulus"":""img/3to1/9.png"",""time"":953},{""stimulus"":""img/3to1/10.png"",""time"":1061},{""stimulus"":""img/3to1/11.png"",""time"":1165},{""stimulus"":""img/3to1/12.png"",""time"":1278}]","[]"
"","","","observe","5e03f8517f08edece67a3137","bdp_cybrbll","Sat Mar 25 2023 17:05:44 GMT-0700 (Pacific Daylight Time)","521134","1","3","image-keyboard-response","91","147115","0.0-5.0-1.43","","null","","img/1to3/1.png","null","182","246","0.5","0.5","1","3","",""
"","","","","5e03f8517f08edece67a3137","bdp_cybrbll","Sat Mar 25 2023 17:05:44 GMT-0700 (Pacific Daylight Time)","521134","1","3","animation","92","148515","0.0-5.0-2.43","","","","","","182","","","","1","3","[{""stimulus"":""img/1to3/1.png"",""time"":107},{""stimulus"":""img/1to3/2.png"",""time"":215},{""stimulus"":""img/1to3/3.png"",""time"":328},{""stimulus"":""img/1to3/4.png"",""time"":434},{""stimulus"":""img/1to3/5.png"",""time"":542},{""stimulus"":""img/1to3/6.png"",""time"":652},{""stimulus"":""img/1to3/7.png"",""time"":762},{""stimulus"":""img/1to3/8.png"",""time"":870},{""stimulus"":""img/1to3/9.png"",""time"":978},{""stimulus"":""img/1to3/10.png"",""time"":1083},{""stimulus"":""img/1to3/11.png"",""time"":1185},{""stimulus"":""img/1to3/12.png"",""time"":1295}]","[]"
"","","","observe","5e03f8517f08edece67a3137","bdp_cybrbll","Sat Mar 25 2023 17:05:44 GMT-0700 (Pacific Daylight Time)","521134","1","3","image-keyboard-response","93","149697","0.0-5.0-1.44","","null","","img/3to2/1.png","null","181","1177","0.5","0.5","3","2","",""
"","","","","5e03f8517f08edece67a3137","bdp_cybrbll","Sat Mar 25 2023 17:05:44 GMT-0700 (Pacific Daylight Time)","521134","1","3","animation","94","151122","0.0-5.0-2.44","","","","","","181","","","","3","2","[{""stimulus"":""img/3to2/1.png"",""time"":112},{""stimulus"":""img/3to2/2.png"",""time"":220},{""stimulus"":""img/3to2/3.png"",""time"":329},{""stimulus"":""img/3to2/4.png"",""time"":443},{""stimulus"":""img/3to2/5.png"",""time"":550},{""stimulus"":""img/3to2/6.png"",""time"":659},{""stimulus"":""img/3to2/7.png"",""time"":767},{""stimulus"":""img/3to2/8.png"",""time"":872},{""stimulus"":""img/3to2/9.png"",""time"":984},{""stimulus"":""img/3to2/10.png"",""time"":1097},{""stimulus"":""img/3to2/11.png"",""time"":1207},{""stimulus"":""img/3to2/12.png"",""time"":1316}]","[]"
"","","","choice","5e03f8517f08edece67a3137","bdp_cybrbll","Sat Mar 25 2023 17:05:44 GMT-0700 (Pacific Daylight Time)","521134","1","3","image-keyboard-response","95","151925","0.0-5.0-1.45","","802","","img/2to1/1.png","1","180","554","0.5","0.5","2","1","",""
"","","","","5e03f8517f08edece67a3137","bdp_cybrbll","Sat Mar 25 2023 17:05:44 GMT-0700 (Pacific Daylight Time)","521134","1","3","animation","96","153333","0.0-5.0-2.45","","","","","","180","","","","2","1","[{""stimulus"":""img/2to1/1.png"",""time"":105},{""stimulus"":""img/2to1/2.png"",""time"":212},{""stimulus"":""img/2to1/3.png"",""time"":320},{""stimulus"":""img/2to1/4.png"",""time"":420},{""stimulus"":""img/2to1/5.png"",""time"":530},{""stimulus"":""img/2to1/6.png"",""time"":645},{""stimulus"":""img/2to1/7.png"",""time"":755},{""stimulus"":""img/2to1/8.png"",""time"":864},{""stimulus"":""img/2to1/9.png"",""time"":972},{""stimulus"":""img/2to1/10.png"",""time"":1078},{""stimulus"":""img/2to1/11.png"",""time"":1186},{""stimulus"":""img/2to1/12.png"",""time"":1298}]","[]"
"","","","observe","5e03f8517f08edece67a3137","bdp_cybrbll","Sat Mar 25 2023 17:05:44 GMT-0700 (Pacific Daylight Time)","521134","1","3","image-keyboard-response","97","154043","0.0-5.0-1.46","","null","","img/1to3/1.png","null","179","686","0.5","0.5","1","2","",""
"","","","","5e03f8517f08edece67a3137","bdp_cybrbll","Sat Mar 25 2023 17:05:44 GMT-0700 (Pacific Daylight Time)","521134","1","3","animation","98","155455","0.0-5.0-2.46","","","","","","179","","","","1","2","[{""stimulus"":""img/1to2/1.png"",""time"":108},{""stimulus"":""img/1to2/2.png"",""time"":223},{""stimulus"":""img/1to2/3.png"",""time"":335},{""stimulus"":""img/1to2/4.png"",""time"":445},{""stimulus"":""img/1to2/5.png"",""time"":552},{""stimulus"":""img/1to2/6.png"",""time"":658},{""stimulus"":""img/1to2/7.png"",""time"":765},{""stimulus"":""img/1to2/8.png"",""time"":878},{""stimulus"":""img/1to2/9.png"",""time"":986},{""stimulus"":""img/1to2/10.png"",""time"":1091},{""stimulus"":""img/1to2/11.png"",""time"":1197},{""stimulus"":""img/1to2/12.png"",""time"":1303}]","[]"
"","","","choice","5e03f8517f08edece67a3137","bdp_cybrbll","Sat Mar 25 2023 17:05:44 GMT-0700 (Pacific Daylight Time)","521134","1","3","image-keyboard-response","99","156116","0.0-5.0-1.47","","659","","img/2to1/1.png","2","178","398","0.5","0.5","2","3","",""
"","","","","5e03f8517f08edece67a3137","bdp_cybrbll","Sat Mar 25 2023 17:05:44 GMT-0700 (Pacific Daylight Time)","521134","1","3","animation","100","157519","0.0-5.0-2.47","","","","","","178","","","","2","3","[{""stimulus"":""img/2to3/1.png"",""time"":99},{""stimulus"":""img/2to3/2.png"",""time"":204},{""stimulus"":""img/2to3/3.png"",""time"":313},{""stimulus"":""img/2to3/4.png"",""time"":418},{""stimulus"":""img/2to3/5.png"",""time"":530},{""stimulus"":""img/2to3/6.png"",""time"":644},{""stimulus"":""img/2to3/7.png"",""time"":753},{""stimulus"":""img/2to3/8.png"",""time"":862},{""stimulus"":""img/2to3/9.png"",""time"":972},{""stimulus"":""img/2to3/10.png"",""time"":1084},{""stimulus"":""img/2to3/11.png"",""time"":1184},{""stimulus"":""img/2to3/12.png"",""time"":1291}]","[]"
"","","","observe","5e03f8517f08edece67a3137","bdp_cybrbll","Sat Mar 25 2023 17:05:44 GMT-0700 (Pacific Daylight Time)","521134","1","3","image-keyboard-response","101","157769","0.0-5.0-1.48","","null","","img/3to2/1.png","null","177","239","0.5","0.5","3","1","",""
"","","","","5e03f8517f08edece67a3137","bdp_cybrbll","Sat Mar 25 2023 17:05:44 GMT-0700 (Pacific Daylight Time)","521134","1","3","animation","102","159194","0.0-5.0-2.48","","","","","","177","","","","3","1","[{""stimulus"":""img/3to1/1.png"",""time"":114},{""stimulus"":""img/3to1/2.png"",""time"":222},{""stimulus"":""img/3to1/3.png"",""time"":331},{""stimulus"":""img/3to1/4.png"",""time"":441},{""stimulus"":""img/3to1/5.png"",""time"":553},{""stimulus"":""img/3to1/6.png"",""time"":665},{""stimulus"":""img/3to1/7.png"",""time"":772},{""stimulus"":""img/3to1/8.png"",""time"":880},{""stimulus"":""img/3to1/9.png"",""time"":991},{""stimulus"":""img/3to1/10.png"",""time"":1090},{""stimulus"":""img/3to1/11.png"",""time"":1202},{""stimulus"":""img/3to1/12.png"",""time"":1315}]","[]"
"","","","observe","5e03f8517f08edece67a3137","bdp_cybrbll","Sat Mar 25 2023 17:05:44 GMT-0700 (Pacific Daylight Time)","521134","1","3","image-keyboard-response","103","159884","0.0-5.0-1.49","","null","","img/1to3/1.png","null","176","673","0.5","0.5","1","3","",""
"","","","","5e03f8517f08edece67a3137","bdp_cybrbll","Sat Mar 25 2023 17:05:44 GMT-0700 (Pacific Daylight Time)","521134","1","3","animation","104","161296","0.0-5.0-2.49","","","","","","176","","","","1","3","[{""stimulus"":""img/1to3/1.png"",""time"":113},{""stimulus"":""img/1to3/2.png"",""time"":220},{""stimulus"":""img/1to3/3.png"",""time"":320},{""stimulus"":""img/1to3/4.png"",""time"":433},{""stimulus"":""img/1to3/5.png"",""time"":535},{""stimulus"":""img/1to3/6.png"",""time"":643},{""stimulus"":""img/1to3/7.png"",""time"":752},{""stimulus"":""img/1to3/8.png"",""time"":862},{""stimulus"":""img/1to3/9.png"",""time"":976},{""stimulus"":""img/1to3/10.png"",""time"":1082},{""stimulus"":""img/1to3/11.png"",""time"":1191},{""stimulus"":""img/1to3/12.png"",""time"":1302}]","[]"
"","","","observe","5e03f8517f08edece67a3137","bdp_cybrbll","Sat Mar 25 2023 17:05:44 GMT-0700 (Pacific Daylight Time)","521134","1","3","image-keyboard-response","105","162460","0.0-5.0-1.50","","null","","img/3to2/1.png","null","175","1161","0.5","0.5","3","2","",""
"","","","","5e03f8517f08edece67a3137","bdp_cybrbll","Sat Mar 25 2023 17:05:44 GMT-0700 (Pacific Daylight Time)","521134","1","3","animation","106","163879","0.0-5.0-2.50","","","","","","175","","","","3","2","[{""stimulus"":""img/3to2/1.png"",""time"":109},{""stimulus"":""img/3to2/2.png"",""time"":220},{""stimulus"":""img/3to2/3.png"",""time"":327},{""stimulus"":""img/3to2/4.png"",""time"":436},{""stimulus"":""img/3to2/5.png"",""time"":544},{""stimulus"":""img/3to2/6.png"",""time"":654},{""stimulus"":""img/3to2/7.png"",""time"":763},{""stimulus"":""img/3to2/8.png"",""time"":873},{""stimulus"":""img/3to2/9.png"",""time"":985},{""stimulus"":""img/3to2/10.png"",""time"":1092},{""stimulus"":""img/3to2/11.png"",""time"":1201},{""stimulus"":""img/3to2/12.png"",""time"":1314}]","[]"
"","","","choice","5e03f8517f08edece67a3137","bdp_cybrbll","Sat Mar 25 2023 17:05:44 GMT-0700 (Pacific Daylight Time)","521134","1","3","image-keyboard-response","107","164141","0.0-5.0-1.51","","261","","img/2to1/1.png","1","174","357","0.5","0.5","2","1","",""
"","","","","5e03f8517f08edece67a3137","bdp_cybrbll","Sat Mar 25 2023 17:05:44 GMT-0700 (Pacific Daylight Time)","521134","1","3","animation","108","165561","0.0-5.0-2.51","","","","","","174","","","","2","1","[{""stimulus"":""img/2to1/1.png"",""time"":109},{""stimulus"":""img/2to1/2.png"",""time"":219},{""stimulus"":""img/2to1/3.png"",""time"":324},{""stimulus"":""img/2to1/4.png"",""time"":432},{""stimulus"":""img/2to1/5.png"",""time"":539},{""stimulus"":""img/2to1/6.png"",""time"":647},{""stimulus"":""img/2to1/7.png"",""time"":757},{""stimulus"":""img/2to1/8.png"",""time"":864},{""stimulus"":""img/2to1/9.png"",""time"":976},{""stimulus"":""img/2to1/10.png"",""time"":1085},{""stimulus"":""img/2to1/11.png"",""time"":1197},{""stimulus"":""img/2to1/12.png"",""time"":1307}]","[]"
"","","","observe","5e03f8517f08edece67a3137","bdp_cybrbll","Sat Mar 25 2023 17:05:44 GMT-0700 (Pacific Daylight Time)","521134","1","3","image-keyboard-response","109","165983","0.0-5.0-1.52","","null","","img/1to3/1.png","null","173","412","0.5","0.5","1","2","",""
"","","","","5e03f8517f08edece67a3137","bdp_cybrbll","Sat Mar 25 2023 17:05:44 GMT-0700 (Pacific Daylight Time)","521134","1","3","animation","110","167386","0.0-5.0-2.52","","","","","","173","","","","1","2","[{""stimulus"":""img/1to2/1.png"",""time"":108},{""stimulus"":""img/1to2/2.png"",""time"":215},{""stimulus"":""img/1to2/3.png"",""time"":323},{""stimulus"":""img/1to2/4.png"",""time"":436},{""stimulus"":""img/1to2/5.png"",""time"":544},{""stimulus"":""img/1to2/6.png"",""time"":648},{""stimulus"":""img/1to2/7.png"",""time"":759},{""stimulus"":""img/1to2/8.png"",""time"":863},{""stimulus"":""img/1to2/9.png"",""time"":973},{""stimulus"":""img/1to2/10.png"",""time"":1081},{""stimulus"":""img/1to2/11.png"",""time"":1194},{""stimulus"":""img/1to2/12.png"",""time"":1298}]","[]"
"","","","choice","5e03f8517f08edece67a3137","bdp_cybrbll","Sat Mar 25 2023 17:05:44 GMT-0700 (Pacific Daylight Time)","521134","1","3","image-keyboard-response","111","167591","0.0-5.0-1.53","","204","","img/2to1/1.png","2","172","1471","0.5","0.5","2","3","",""
"","","","","5e03f8517f08edece67a3137","bdp_cybrbll","Sat Mar 25 2023 17:05:44 GMT-0700 (Pacific Daylight Time)","521134","1","3","animation","112","169007","0.0-5.0-2.53","","","","","","172","","","","2","3","[{""stimulus"":""img/2to3/1.png"",""time"":110},{""stimulus"":""img/2to3/2.png"",""time"":210},{""stimulus"":""img/2to3/3.png"",""time"":320},{""stimulus"":""img/2to3/4.png"",""time"":428},{""stimulus"":""img/2to3/5.png"",""time"":537},{""stimulus"":""img/2to3/6.png"",""time"":650},{""stimulus"":""img/2to3/7.png"",""time"":760},{""stimulus"":""img/2to3/8.png"",""time"":864},{""stimulus"":""img/2to3/9.png"",""time"":972},{""stimulus"":""img/2to3/10.png"",""time"":1085},{""stimulus"":""img/2to3/11.png"",""time"":1194},{""stimulus"":""img/2to3/12.png"",""time"":1307}]","[]"
"","","","observe","5e03f8517f08edece67a3137","bdp_cybrbll","Sat Mar 25 2023 17:05:44 GMT-0700 (Pacific Daylight Time)","521134","1","3","image-keyboard-response","113","169262","0.0-5.0-1.54","","null","","img/3to2/1.png","null","171","241","0.5","0.5","3","1","",""
"","","","","5e03f8517f08edece67a3137","bdp_cybrbll","Sat Mar 25 2023 17:05:44 GMT-0700 (Pacific Daylight Time)","521134","1","3","animation","114","170681","0.0-5.0-2.54","","","","","","171","","","","3","1","[{""stimulus"":""img/3to1/1.png"",""time"":107},{""stimulus"":""img/3to1/2.png"",""time"":220},{""stimulus"":""img/3to1/3.png"",""time"":328},{""stimulus"":""img/3to1/4.png"",""time"":440},{""stimulus"":""img/3to1/5.png"",""time"":550},{""stimulus"":""img/3to1/6.png"",""time"":662},{""stimulus"":""img/3to1/7.png"",""time"":767},{""stimulus"":""img/3to1/8.png"",""time"":877},{""stimulus"":""img/3to1/9.png"",""time"":977},{""stimulus"":""img/3to1/10.png"",""time"":1090},{""stimulus"":""img/3to1/11.png"",""time"":1201},{""stimulus"":""img/3to1/12.png"",""time"":1307}]","[]"
"","","","observe","5e03f8517f08edece67a3137","bdp_cybrbll","Sat Mar 25 2023 17:05:44 GMT-0700 (Pacific Daylight Time)","521134","1","3","image-keyboard-response","115","170946","0.0-5.0-1.55","","null","","img/1to3/1.png","null","170","258","0.5","0.5","1","2","",""
"","","","","5e03f8517f08edece67a3137","bdp_cybrbll","Sat Mar 25 2023 17:05:44 GMT-0700 (Pacific Daylight Time)","521134","1","3","animation","116","172343","0.0-5.0-2.55","","","","","","170","","","","1","2","[{""stimulus"":""img/1to2/1.png"",""time"":114},{""stimulus"":""img/1to2/2.png"",""time"":221},{""stimulus"":""img/1to2/3.png"",""time"":334},{""stimulus"":""img/1to2/4.png"",""time"":435},{""stimulus"":""img/1to2/5.png"",""time"":541},{""stimulus"":""img/1to2/6.png"",""time"":648},{""stimulus"":""img/1to2/7.png"",""time"":754},{""stimulus"":""img/1to2/8.png"",""time"":858},{""stimulus"":""img/1to2/9.png"",""time"":968},{""stimulus"":""img/1to2/10.png"",""time"":1074},{""stimulus"":""img/1to2/11.png"",""time"":1185},{""stimulus"":""img/1to2/12.png"",""time"":1294}]","[]"
"","","","choice","5e03f8517f08edece67a3137","bdp_cybrbll","Sat Mar 25 2023 17:05:44 GMT-0700 (Pacific Daylight Time)","521134","1","3","image-keyboard-response","117","173756","0.0-5.0-1.56","","1412","","img/2to1/1.png","2","169","450","0.5","0.5","2","3","",""
"","","","","5e03f8517f08edece67a3137","bdp_cybrbll","Sat Mar 25 2023 17:05:44 GMT-0700 (Pacific Daylight Time)","521134","1","3","animation","118","175164","0.0-5.0-2.56","","","","","","169","","","","2","3","[{""stimulus"":""img/2to3/1.png"",""time"":103},{""stimulus"":""img/2to3/2.png"",""time"":212},{""stimulus"":""img/2to3/3.png"",""time"":321},{""stimulus"":""img/2to3/4.png"",""time"":431},{""stimulus"":""img/2to3/5.png"",""time"":541},{""stimulus"":""img/2to3/6.png"",""time"":650},{""stimulus"":""img/2to3/7.png"",""time"":758},{""stimulus"":""img/2to3/8.png"",""time"":867},{""stimulus"":""img/2to3/9.png"",""time"":975},{""stimulus"":""img/2to3/10.png"",""time"":1084},{""stimulus"":""img/2to3/11.png"",""time"":1194},{""stimulus"":""img/2to3/12.png"",""time"":1304}]","[]"
"","","","observe","5e03f8517f08edece67a3137","bdp_cybrbll","Sat Mar 25 2023 17:05:44 GMT-0700 (Pacific Daylight Time)","521134","1","3","image-keyboard-response","119","175526","0.0-5.0-1.57","","null","","img/3to2/1.png","null","168","350","0.5","0.5","3","1","",""
"","","","","5e03f8517f08edece67a3137","bdp_cybrbll","Sat Mar 25 2023 17:05:44 GMT-0700 (Pacific Daylight Time)","521134","1","3","animation","120","176921","0.0-5.0-2.57","","","","","","168","","","","3","1","[{""stimulus"":""img/3to1/1.png"",""time"":108},{""stimulus"":""img/3to1/2.png"",""time"":221},{""stimulus"":""img/3to1/3.png"",""time"":329},{""stimulus"":""img/3to1/4.png"",""time"":432},{""stimulus"":""img/3to1/5.png"",""time"":539},{""stimulus"":""img/3to1/6.png"",""time"":642},{""stimulus"":""img/3to1/7.png"",""time"":753},{""stimulus"":""img/3to1/8.png"",""time"":863},{""stimulus"":""img/3to1/9.png"",""time"":972},{""stimulus"":""img/3to1/10.png"",""time"":1074},{""stimulus"":""img/3to1/11.png"",""time"":1177},{""stimulus"":""img/3to1/12.png"",""time"":1286}]","[]"
"","","","observe","5e03f8517f08edece67a3137","bdp_cybrbll","Sat Mar 25 2023 17:05:44 GMT-0700 (Pacific Daylight Time)","521134","1","3","image-keyboard-response","121","177231","0.0-5.0-1.58","","null","","img/1to3/1.png","null","167","309","0.5","0.5","1","3","",""
"","","","","5e03f8517f08edece67a3137","bdp_cybrbll","Sat Mar 25 2023 17:05:44 GMT-0700 (Pacific Daylight Time)","521134","1","3","animation","122","178619","0.0-5.0-2.58","","","","","","167","","","","1","3","[{""stimulus"":""img/1to3/1.png"",""time"":107},{""stimulus"":""img/1to3/2.png"",""time"":212},{""stimulus"":""img/1to3/3.png"",""time"":317},{""stimulus"":""img/1to3/4.png"",""time"":419},{""stimulus"":""img/1to3/5.png"",""time"":523},{""stimulus"":""img/1to3/6.png"",""time"":633},{""stimulus"":""img/1to3/7.png"",""time"":742},{""stimulus"":""img/1to3/8.png"",""time"":851},{""stimulus"":""img/1to3/9.png"",""time"":959},{""stimulus"":""img/1to3/10.png"",""time"":1063},{""stimulus"":""img/1to3/11.png"",""time"":1172},{""stimulus"":""img/1to3/12.png"",""time"":1279}]","[]"
"","","","observe","5e03f8517f08edece67a3137","bdp_cybrbll","Sat Mar 25 2023 17:05:44 GMT-0700 (Pacific Daylight Time)","521134","1","3","image-keyboard-response","123","179263","0.0-5.0-1.59","","null","","img/3to2/1.png","null","166","628","0.5","0.5","3","2","",""
"","","","","5e03f8517f08edece67a3137","bdp_cybrbll","Sat Mar 25 2023 17:05:44 GMT-0700 (Pacific Daylight Time)","521134","1","3","animation","124","180672","0.0-5.0-2.59","","","","","","166","","","","3","2","[{""stimulus"":""img/3to2/1.png"",""time"":111},{""stimulus"":""img/3to2/2.png"",""time"":220},{""stimulus"":""img/3to2/3.png"",""time"":333},{""stimulus"":""img/3to2/4.png"",""time"":440},{""stimulus"":""img/3to2/5.png"",""time"":547},{""stimulus"":""img/3to2/6.png"",""time"":652},{""stimulus"":""img/3to2/7.png"",""time"":762},{""stimulus"":""img/3to2/8.png"",""time"":869},{""stimulus"":""img/3to2/9.png"",""time"":983},{""stimulus"":""img/3to2/10.png"",""time"":1091},{""stimulus"":""img/3to2/11.png"",""time"":1195},{""stimulus"":""img/3to2/12.png"",""time"":1301}]","[]"
"","","","choice","5e03f8517f08edece67a3137","bdp_cybrbll","Sat Mar 25 2023 17:05:44 GMT-0700 (Pacific Daylight Time)","521134","1","3","image-keyboard-response","125","180876","0.0-5.0-1.60","","202","","img/2to1/1.png","1","165","547","0.5","0.5","2","1","",""
"","","","","5e03f8517f08edece67a3137","bdp_cybrbll","Sat Mar 25 2023 17:05:44 GMT-0700 (Pacific Daylight Time)","521134","1","3","animation","126","182287","0.0-5.0-2.60","","","","","","165","","","","2","1","[{""stimulus"":""img/2to1/1.png"",""time"":106},{""stimulus"":""img/2to1/2.png"",""time"":212},{""stimulus"":""img/2to1/3.png"",""time"":322},{""stimulus"":""img/2to1/4.png"",""time"":433},{""stimulus"":""img/2to1/5.png"",""time"":538},{""stimulus"":""img/2to1/6.png"",""time"":650},{""stimulus"":""img/2to1/7.png"",""time"":756},{""stimulus"":""img/2to1/8.png"",""time"":868},{""stimulus"":""img/2to1/9.png"",""time"":978},{""stimulus"":""img/2to1/10.png"",""time"":1086},{""stimulus"":""img/2to1/11.png"",""time"":1193},{""stimulus"":""img/2to1/12.png"",""time"":1303}]","[]"
"","","","observe","5e03f8517f08edece67a3137","bdp_cybrbll","Sat Mar 25 2023 17:05:44 GMT-0700 (Pacific Daylight Time)","521134","1","3","image-keyboard-response","127","182552","0.0-5.0-1.61","","null","","img/1to3/1.png","null","164","263","0.5","0.5","1","2","",""
"","","","","5e03f8517f08edece67a3137","bdp_cybrbll","Sat Mar 25 2023 17:05:44 GMT-0700 (Pacific Daylight Time)","521134","1","3","animation","128","183948","0.0-5.0-2.61","","","","","","164","","","","1","2","[{""stimulus"":""img/1to2/1.png"",""time"":108},{""stimulus"":""img/1to2/2.png"",""time"":217},{""stimulus"":""img/1to2/3.png"",""time"":328},{""stimulus"":""img/1to2/4.png"",""time"":437},{""stimulus"":""img/1to2/5.png"",""time"":548},{""stimulus"":""img/1to2/6.png"",""time"":662},{""stimulus"":""img/1to2/7.png"",""time"":770},{""stimulus"":""img/1to2/8.png"",""time"":877},{""stimulus"":""img/1to2/9.png"",""time"":984},{""stimulus"":""img/1to2/10.png"",""time"":1089},{""stimulus"":""img/1to2/11.png"",""time"":1191},{""stimulus"":""img/1to2/12.png"",""time"":1297}]","[]"
"","","","choice","5e03f8517f08edece67a3137","bdp_cybrbll","Sat Mar 25 2023 17:05:44 GMT-0700 (Pacific Daylight Time)","521134","1","3","image-keyboard-response","129","184090","0.0-5.0-1.62","","141","","img/2to1/1.png","2","163","492","0.5","0.5","2","3","",""
"","","","","5e03f8517f08edece67a3137","bdp_cybrbll","Sat Mar 25 2023 17:05:44 GMT-0700 (Pacific Daylight Time)","521134","1","3","animation","130","185485","0.0-5.0-2.62","","","","","","163","","","","2","3","[{""stimulus"":""img/2to3/1.png"",""time"":101},{""stimulus"":""img/2to3/2.png"",""time"":209},{""stimulus"":""img/2to3/3.png"",""time"":320},{""stimulus"":""img/2to3/4.png"",""time"":426},{""stimulus"":""img/2to3/5.png"",""time"":535},{""stimulus"":""img/2to3/6.png"",""time"":641},{""stimulus"":""img/2to3/7.png"",""time"":749},{""stimulus"":""img/2to3/8.png"",""time"":857},{""stimulus"":""img/2to3/9.png"",""time"":964},{""stimulus"":""img/2to3/10.png"",""time"":1072},{""stimulus"":""img/2to3/11.png"",""time"":1176},{""stimulus"":""img/2to3/12.png"",""time"":1287}]","[]"
"","","","observe","5e03f8517f08edece67a3137","bdp_cybrbll","Sat Mar 25 2023 17:05:44 GMT-0700 (Pacific Daylight Time)","521134","1","3","image-keyboard-response","131","185656","0.0-5.0-1.63","","null","","img/3to2/1.png","null","162","163","0.5","0.5","3","1","",""
"","","","","5e03f8517f08edece67a3137","bdp_cybrbll","Sat Mar 25 2023 17:05:44 GMT-0700 (Pacific Daylight Time)","521134","1","3","animation","132","187062","0.0-5.0-2.63","","","","","","162","","","","3","1","[{""stimulus"":""img/3to1/1.png"",""time"":110},{""stimulus"":""img/3to1/2.png"",""time"":222},{""stimulus"":""img/3to1/3.png"",""time"":336},{""stimulus"":""img/3to1/4.png"",""time"":435},{""stimulus"":""img/3to1/5.png"",""time"":535},{""stimulus"":""img/3to1/6.png"",""time"":642},{""stimulus"":""img/3to1/7.png"",""time"":752},{""stimulus"":""img/3to1/8.png"",""time"":858},{""stimulus"":""img/3to1/9.png"",""time"":968},{""stimulus"":""img/3to1/10.png"",""time"":1080},{""stimulus"":""img/3to1/11.png"",""time"":1188},{""stimulus"":""img/3to1/12.png"",""time"":1292}]","[]"
"","","","observe","5e03f8517f08edece67a3137","bdp_cybrbll","Sat Mar 25 2023 17:05:44 GMT-0700 (Pacific Daylight Time)","521134","1","3","image-keyboard-response","133","187212","0.0-5.0-1.64","","null","","img/1to3/1.png","null","161","144","0.5","0.5","1","2","",""
"","","","","5e03f8517f08edece67a3137","bdp_cybrbll","Sat Mar 25 2023 17:05:44 GMT-0700 (Pacific Daylight Time)","521134","1","3","animation","134","188600","0.0-5.0-2.64","","","","","","161","","","","1","2","[{""stimulus"":""img/1to2/1.png"",""time"":103},{""stimulus"":""img/1to2/2.png"",""time"":213},{""stimulus"":""img/1to2/3.png"",""time"":325},{""stimulus"":""img/1to2/4.png"",""time"":425},{""stimulus"":""img/1to2/5.png"",""time"":530},{""stimulus"":""img/1to2/6.png"",""time"":631},{""stimulus"":""img/1to2/7.png"",""time"":740},{""stimulus"":""img/1to2/8.png"",""time"":850},{""stimulus"":""img/1to2/9.png"",""time"":959},{""stimulus"":""img/1to2/10.png"",""time"":1068},{""stimulus"":""img/1to2/11.png"",""time"":1175},{""stimulus"":""img/1to2/12.png"",""time"":1283}]","[]"
"","","","choice","5e03f8517f08edece67a3137","bdp_cybrbll","Sat Mar 25 2023 17:05:44 GMT-0700 (Pacific Daylight Time)","521134","1","3","image-keyboard-response","135","189063","0.0-5.0-1.65","","462","","img/2to1/1.png","2","160","291","0.5","0.5","2","3","",""
"","","","","5e03f8517f08edece67a3137","bdp_cybrbll","Sat Mar 25 2023 17:05:44 GMT-0700 (Pacific Daylight Time)","521134","1","3","animation","136","190475","0.0-5.0-2.65","","","","","","160","","","","2","3","[{""stimulus"":""img/2to3/1.png"",""time"":102},{""stimulus"":""img/2to3/2.png"",""time"":212},{""stimulus"":""img/2to3/3.png"",""time"":318},{""stimulus"":""img/2to3/4.png"",""time"":430},{""stimulus"":""img/2to3/5.png"",""time"":540},{""stimulus"":""img/2to3/6.png"",""time"":647},{""stimulus"":""img/2to3/7.png"",""time"":757},{""stimulus"":""img/2to3/8.png"",""time"":868},{""stimulus"":""img/2to3/9.png"",""time"":975},{""stimulus"":""img/2to3/10.png"",""time"":1085},{""stimulus"":""img/2to3/11.png"",""time"":1196},{""stimulus"":""img/2to3/12.png"",""time"":1302}]","[]"
"","","","observe","5e03f8517f08edece67a3137","bdp_cybrbll","Sat Mar 25 2023 17:05:44 GMT-0700 (Pacific Daylight Time)","521134","1","3","image-keyboard-response","137","191105","0.0-5.0-1.66","","null","","img/3to2/1.png","null","159","627","0.5","0.5","3","1","",""
"","","","","5e03f8517f08edece67a3137","bdp_cybrbll","Sat Mar 25 2023 17:05:44 GMT-0700 (Pacific Daylight Time)","521134","1","3","animation","138","192511","0.0-5.0-2.66","","","","","","159","","","","3","1","[{""stimulus"":""img/3to1/1.png"",""time"":105},{""stimulus"":""img/3to1/2.png"",""time"":214},{""stimulus"":""img/3to1/3.png"",""time"":321},{""stimulus"":""img/3to1/4.png"",""time"":430},{""stimulus"":""img/3to1/5.png"",""time"":557},{""stimulus"":""img/3to1/6.png"",""time"":657},{""stimulus"":""img/3to1/7.png"",""time"":765},{""stimulus"":""img/3to1/8.png"",""time"":871},{""stimulus"":""img/3to1/9.png"",""time"":977},{""stimulus"":""img/3to1/10.png"",""time"":1082},{""stimulus"":""img/3to1/11.png"",""time"":1189},{""stimulus"":""img/3to1/12.png"",""time"":1301}]","[]"
"","","","observe","5e03f8517f08edece67a3137","bdp_cybrbll","Sat Mar 25 2023 17:05:44 GMT-0700 (Pacific Daylight Time)","521134","1","3","image-keyboard-response","139","192862","0.0-5.0-1.67","","null","","img/1to3/1.png","null","158","343","0.5","0.5","1","2","",""
"","","","","5e03f8517f08edece67a3137","bdp_cybrbll","Sat Mar 25 2023 17:05:44 GMT-0700 (Pacific Daylight Time)","521134","1","3","animation","140","194272","0.0-5.0-2.67","","","","","","158","","","","1","2","[{""stimulus"":""img/1to2/1.png"",""time"":115},{""stimulus"":""img/1to2/2.png"",""time"":229},{""stimulus"":""img/1to2/3.png"",""time"":335},{""stimulus"":""img/1to2/4.png"",""time"":441},{""stimulus"":""img/1to2/5.png"",""time"":554},{""stimulus"":""img/1to2/6.png"",""time"":666},{""stimulus"":""img/1to2/7.png"",""time"":768},{""stimulus"":""img/1to2/8.png"",""time"":876},{""stimulus"":""img/1to2/9.png"",""time"":983},{""stimulus"":""img/1to2/10.png"",""time"":1089},{""stimulus"":""img/1to2/11.png"",""time"":1193},{""stimulus"":""img/1to2/12.png"",""time"":1303}]","[]"
"","","","choice","5e03f8517f08edece67a3137","bdp_cybrbll","Sat Mar 25 2023 17:05:44 GMT-0700 (Pacific Daylight Time)","521134","1","3","image-keyboard-response","141","194499","0.0-5.0-1.68","","226","","img/2to1/1.png","1","157","309","0.5","0.5","2","1","",""
"","","","","5e03f8517f08edece67a3137","bdp_cybrbll","Sat Mar 25 2023 17:05:44 GMT-0700 (Pacific Daylight Time)","521134","1","3","animation","142","195893","0.0-5.0-2.68","","","","","","157","","","","2","1","[{""stimulus"":""img/2to1/1.png"",""time"":107},{""stimulus"":""img/2to1/2.png"",""time"":207},{""stimulus"":""img/2to1/3.png"",""time"":319},{""stimulus"":""img/2to1/4.png"",""time"":427},{""stimulus"":""img/2to1/5.png"",""time"":532},{""stimulus"":""img/2to1/6.png"",""time"":642},{""stimulus"":""img/2to1/7.png"",""time"":749},{""stimulus"":""img/2to1/8.png"",""time"":849},{""stimulus"":""img/2to1/9.png"",""time"":956},{""stimulus"":""img/2to1/10.png"",""time"":1066},{""stimulus"":""img/2to1/11.png"",""time"":1179},{""stimulus"":""img/2to1/12.png"",""time"":1286}]","[]"
"","","","observe","5e03f8517f08edece67a3137","bdp_cybrbll","Sat Mar 25 2023 17:05:44 GMT-0700 (Pacific Daylight Time)","521134","1","3","image-keyboard-response","143","196442","0.0-5.0-1.69","","null","","img/1to3/1.png","null","156","542","0.5","0.5","1","2","",""
"","","","","5e03f8517f08edece67a3137","bdp_cybrbll","Sat Mar 25 2023 17:05:44 GMT-0700 (Pacific Daylight Time)","521134","1","3","animation","144","197847","0.0-5.0-2.69","","","","","","156","","","","1","2","[{""stimulus"":""img/1to2/1.png"",""time"":113},{""stimulus"":""img/1to2/2.png"",""time"":224},{""stimulus"":""img/1to2/3.png"",""time"":329},{""stimulus"":""img/1to2/4.png"",""time"":438},{""stimulus"":""img/1to2/5.png"",""time"":546},{""stimulus"":""img/1to2/6.png"",""time"":658},{""stimulus"":""img/1to2/7.png"",""time"":758},{""stimulus"":""img/1to2/8.png"",""time"":867},{""stimulus"":""img/1to2/9.png"",""time"":978},{""stimulus"":""img/1to2/10.png"",""time"":1084},{""stimulus"":""img/1to2/11.png"",""time"":1192},{""stimulus"":""img/1to2/12.png"",""time"":1292}]","[]"
"","","","choice","5e03f8517f08edece67a3137","bdp_cybrbll","Sat Mar 25 2023 17:05:44 GMT-0700 (Pacific Daylight Time)","521134","1","3","image-keyboard-response","145","198958","0.0-5.0-1.70","","1111","","img/2to1/1.png","1","155","679","0.5","0.5","2","1","",""
"","","","","5e03f8517f08edece67a3137","bdp_cybrbll","Sat Mar 25 2023 17:05:44 GMT-0700 (Pacific Daylight Time)","521134","1","3","animation","146","200379","0.0-5.0-2.70","","","","","","155","","","","2","1","[{""stimulus"":""img/2to1/1.png"",""time"":107},{""stimulus"":""img/2to1/2.png"",""time"":217},{""stimulus"":""img/2to1/3.png"",""time"":327},{""stimulus"":""img/2to1/4.png"",""time"":432},{""stimulus"":""img/2to1/5.png"",""time"":543},{""stimulus"":""img/2to1/6.png"",""time"":654},{""stimulus"":""img/2to1/7.png"",""time"":759},{""stimulus"":""img/2to1/8.png"",""time"":869},{""stimulus"":""img/2to1/9.png"",""time"":975},{""stimulus"":""img/2to1/10.png"",""time"":1084},{""stimulus"":""img/2to1/11.png"",""time"":1198},{""stimulus"":""img/2to1/12.png"",""time"":1306}]","[]"
"","","","observe","5e03f8517f08edece67a3137","bdp_cybrbll","Sat Mar 25 2023 17:05:44 GMT-0700 (Pacific Daylight Time)","521134","1","3","image-keyboard-response","147","201369","0.0-5.0-1.71","","null","","img/1to3/1.png","null","154","987","0.5","0.5","1","3","",""
"","","","","5e03f8517f08edece67a3137","bdp_cybrbll","Sat Mar 25 2023 17:05:44 GMT-0700 (Pacific Daylight Time)","521134","1","3","animation","148","202783","0.0-5.0-2.71","","","","","","154","","","","1","3","[{""stimulus"":""img/1to3/1.png"",""time"":105},{""stimulus"":""img/1to3/2.png"",""time"":210},{""stimulus"":""img/1to3/3.png"",""time"":322},{""stimulus"":""img/1to3/4.png"",""time"":432},{""stimulus"":""img/1to3/5.png"",""time"":539},{""stimulus"":""img/1to3/6.png"",""time"":648},{""stimulus"":""img/1to3/7.png"",""time"":756},{""stimulus"":""img/1to3/8.png"",""time"":866},{""stimulus"":""img/1to3/9.png"",""time"":976},{""stimulus"":""img/1to3/10.png"",""time"":1083},{""stimulus"":""img/1to3/11.png"",""time"":1193},{""stimulus"":""img/1to3/12.png"",""time"":1306}]","[]"
"","","","observe","5e03f8517f08edece67a3137","bdp_cybrbll","Sat Mar 25 2023 17:05:44 GMT-0700 (Pacific Daylight Time)","521134","1","3","image-keyboard-response","149","204658","0.0-5.0-1.72","","null","","img/3to2/1.png","null","153","1861","0.5","0.5","3","2","",""
"","","","","5e03f8517f08edece67a3137","bdp_cybrbll","Sat Mar 25 2023 17:05:44 GMT-0700 (Pacific Daylight Time)","521134","1","3","animation","150","206082","0.0-5.0-2.72","","","","","","153","","","","3","2","[{""stimulus"":""img/3to2/1.png"",""time"":114},{""stimulus"":""img/3to2/2.png"",""time"":225},{""stimulus"":""img/3to2/3.png"",""time"":334},{""stimulus"":""img/3to2/4.png"",""time"":445},{""stimulus"":""img/3to2/5.png"",""time"":555},{""stimulus"":""img/3to2/6.png"",""time"":665},{""stimulus"":""img/3to2/7.png"",""time"":777},{""stimulus"":""img/3to2/8.png"",""time"":885},{""stimulus"":""img/3to2/9.png"",""time"":997},{""stimulus"":""img/3to2/10.png"",""time"":1102},{""stimulus"":""img/3to2/11.png"",""time"":1212},{""stimulus"":""img/3to2/12.png"",""time"":1316}]","[]"
"","","","choice","5e03f8517f08edece67a3137","bdp_cybrbll","Sat Mar 25 2023 17:05:44 GMT-0700 (Pacific Daylight Time)","521134","1","3","image-keyboard-response","151","207323","0.0-5.0-1.73","","1241","","img/2to1/1.png","1","152","178","0.5","0.5","2","1","",""
"","","","","5e03f8517f08edece67a3137","bdp_cybrbll","Sat Mar 25 2023 17:05:44 GMT-0700 (Pacific Daylight Time)","521134","1","3","animation","152","208745","0.0-5.0-2.73","","","","","","152","","","","2","1","[{""stimulus"":""img/2to1/1.png"",""time"":112},{""stimulus"":""img/2to1/2.png"",""time"":219},{""stimulus"":""img/2to1/3.png"",""time"":332},{""stimulus"":""img/2to1/4.png"",""time"":442},{""stimulus"":""img/2to1/5.png"",""time"":554},{""stimulus"":""img/2to1/6.png"",""time"":664},{""stimulus"":""img/2to1/7.png"",""time"":774},{""stimulus"":""img/2to1/8.png"",""time"":882},{""stimulus"":""img/2to1/9.png"",""time"":994},{""stimulus"":""img/2to1/10.png"",""time"":1102},{""stimulus"":""img/2to1/11.png"",""time"":1206},{""stimulus"":""img/2to1/12.png"",""time"":1314}]","[]"
"","","","observe","5e03f8517f08edece67a3137","bdp_cybrbll","Sat Mar 25 2023 17:05:44 GMT-0700 (Pacific Daylight Time)","521134","1","3","image-keyboard-response","153","209345","0.0-5.0-1.74","","null","","img/1to3/1.png","null","151","585","0.5","0.5","1","2","",""
"","","","","5e03f8517f08edece67a3137","bdp_cybrbll","Sat Mar 25 2023 17:05:44 GMT-0700 (Pacific Daylight Time)","521134","1","3","animation","154","210757","0.0-5.0-2.74","","","","","","151","","","","1","2","[{""stimulus"":""img/1to2/1.png"",""time"":109},{""stimulus"":""img/1to2/2.png"",""time"":220},{""stimulus"":""img/1to2/3.png"",""time"":329},{""stimulus"":""img/1to2/4.png"",""time"":440},{""stimulus"":""img/1to2/5.png"",""time"":545},{""stimulus"":""img/1to2/6.png"",""time"":651},{""stimulus"":""img/1to2/7.png"",""time"":762},{""stimulus"":""img/1to2/8.png"",""time"":870},{""stimulus"":""img/1to2/9.png"",""time"":981},{""stimulus"":""img/1to2/10.png"",""time"":1084},{""stimulus"":""img/1to2/11.png"",""time"":1194},{""stimulus"":""img/1to2/12.png"",""time"":1303}]","[]"
"","","","choice","5e03f8517f08edece67a3137","bdp_cybrbll","Sat Mar 25 2023 17:05:44 GMT-0700 (Pacific Daylight Time)","521134","1","3","image-keyboard-response","155","212000","0.0-5.0-1.75","","1242","","img/2to1/1.png","1","150","579","0.5","0.5","2","1","",""
"","","","","5e03f8517f08edece67a3137","bdp_cybrbll","Sat Mar 25 2023 17:05:44 GMT-0700 (Pacific Daylight Time)","521134","1","3","animation","156","213417","0.0-5.0-2.75","","","","","","150","","","","2","1","[{""stimulus"":""img/2to1/1.png"",""time"":113},{""stimulus"":""img/2to1/2.png"",""time"":221},{""stimulus"":""img/2to1/3.png"",""time"":325},{""stimulus"":""img/2to1/4.png"",""time"":438},{""stimulus"":""img/2to1/5.png"",""time"":545},{""stimulus"":""img/2to1/6.png"",""time"":657},{""stimulus"":""img/2to1/7.png"",""time"":768},{""stimulus"":""img/2to1/8.png"",""time"":878},{""stimulus"":""img/2to1/9.png"",""time"":986},{""stimulus"":""img/2to1/10.png"",""time"":1095},{""stimulus"":""img/2to1/11.png"",""time"":1200},{""stimulus"":""img/2to1/12.png"",""time"":1312}]","[]"
"","","","observe","5e03f8517f08edece67a3137","bdp_cybrbll","Sat Mar 25 2023 17:05:44 GMT-0700 (Pacific Daylight Time)","521134","1","3","image-keyboard-response","157","214040","0.0-5.0-1.76","","null","","img/1to3/1.png","null","149","616","0.5","0.1","1","3","",""
"","","","","5e03f8517f08edece67a3137","bdp_cybrbll","Sat Mar 25 2023 17:05:44 GMT-0700 (Pacific Daylight Time)","521134","1","3","animation","158","215450","0.0-5.0-2.76","","","","","","149","","","","1","3","[{""stimulus"":""img/1to3/1.png"",""time"":112},{""stimulus"":""img/1to3/2.png"",""time"":220},{""stimulus"":""img/1to3/3.png"",""time"":325},{""stimulus"":""img/1to3/4.png"",""time"":435},{""stimulus"":""img/1to3/5.png"",""time"":542},{""stimulus"":""img/1to3/6.png"",""time"":651},{""stimulus"":""img/1to3/7.png"",""time"":759},{""stimulus"":""img/1to3/8.png"",""time"":872},{""stimulus"":""img/1to3/9.png"",""time"":979},{""stimulus"":""img/1to3/10.png"",""time"":1087},{""stimulus"":""img/1to3/11.png"",""time"":1197},{""stimulus"":""img/1to3/12.png"",""time"":1305}]","[]"
"","","","observe","5e03f8517f08edece67a3137","bdp_cybrbll","Sat Mar 25 2023 17:05:44 GMT-0700 (Pacific Daylight Time)","521134","1","3","image-keyboard-response","159","215776","0.0-5.0-1.77","","null","","img/3to2/1.png","null","148","317","0.5","0.1","3","1","",""
"","","","","5e03f8517f08edece67a3137","bdp_cybrbll","Sat Mar 25 2023 17:05:44 GMT-0700 (Pacific Daylight Time)","521134","1","3","animation","160","217176","0.0-5.0-2.77","","","","","","148","","","","3","1","[{""stimulus"":""img/3to1/1.png"",""time"":108},{""stimulus"":""img/3to1/2.png"",""time"":216},{""stimulus"":""img/3to1/3.png"",""time"":328},{""stimulus"":""img/3to1/4.png"",""time"":435},{""stimulus"":""img/3to1/5.png"",""time"":541},{""stimulus"":""img/3to1/6.png"",""time"":648},{""stimulus"":""img/3to1/7.png"",""time"":755},{""stimulus"":""img/3to1/8.png"",""time"":863},{""stimulus"":""img/3to1/9.png"",""time"":973},{""stimulus"":""img/3to1/10.png"",""time"":1082},{""stimulus"":""img/3to1/11.png"",""time"":1185},{""stimulus"":""img/3to1/12.png"",""time"":1290}]","[]"
"","","","observe","5e03f8517f08edece67a3137","bdp_cybrbll","Sat Mar 25 2023 17:05:44 GMT-0700 (Pacific Daylight Time)","521134","1","3","image-keyboard-response","161","217576","0.0-5.0-1.78","","null","","img/1to3/1.png","null","147","392","0.5","0.1","1","3","",""
"","","","","5e03f8517f08edece67a3137","bdp_cybrbll","Sat Mar 25 2023 17:05:44 GMT-0700 (Pacific Daylight Time)","521134","1","3","animation","162","218976","0.0-5.0-2.78","","","","","","147","","","","1","3","[{""stimulus"":""img/1to3/1.png"",""time"":110},{""stimulus"":""img/1to3/2.png"",""time"":217},{""stimulus"":""img/1to3/3.png"",""time"":323},{""stimulus"":""img/1to3/4.png"",""time"":432},{""stimulus"":""img/1to3/5.png"",""time"":535},{""stimulus"":""img/1to3/6.png"",""time"":644},{""stimulus"":""img/1to3/7.png"",""time"":751},{""stimulus"":""img/1to3/8.png"",""time"":860},{""stimulus"":""img/1to3/9.png"",""time"":969},{""stimulus"":""img/1to3/10.png"",""time"":1080},{""stimulus"":""img/1to3/11.png"",""time"":1179},{""stimulus"":""img/1to3/12.png"",""time"":1287}]","[]"
"","","","observe","5e03f8517f08edece67a3137","bdp_cybrbll","Sat Mar 25 2023 17:05:44 GMT-0700 (Pacific Daylight Time)","521134","1","3","image-keyboard-response","163","219486","0.0-5.0-1.79","","null","","img/3to2/1.png","null","146","503","0.5","0.1","3","1","",""
"","","","","5e03f8517f08edece67a3137","bdp_cybrbll","Sat Mar 25 2023 17:05:44 GMT-0700 (Pacific Daylight Time)","521134","1","3","animation","164","220878","0.0-5.0-2.79","","","","","","146","","","","3","1","[{""stimulus"":""img/3to1/1.png"",""time"":111},{""stimulus"":""img/3to1/2.png"",""time"":217},{""stimulus"":""img/3to1/3.png"",""time"":328},{""stimulus"":""img/3to1/4.png"",""time"":436},{""stimulus"":""img/3to1/5.png"",""time"":536},{""stimulus"":""img/3to1/6.png"",""time"":645},{""stimulus"":""img/3to1/7.png"",""time"":753},{""stimulus"":""img/3to1/8.png"",""time"":860},{""stimulus"":""img/3to1/9.png"",""time"":971},{""stimulus"":""img/3to1/10.png"",""time"":1071},{""stimulus"":""img/3to1/11.png"",""time"":1175},{""stimulus"":""img/3to1/12.png"",""time"":1280}]","[]"
"","","","observe","5e03f8517f08edece67a3137","bdp_cybrbll","Sat Mar 25 2023 17:05:44 GMT-0700 (Pacific Daylight Time)","521134","1","3","image-keyboard-response","165","221030","0.0-5.0-1.80","","null","","img/1to3/1.png","null","145","149","0.5","0.1","1","3","",""
"","","","","5e03f8517f08edece67a3137","bdp_cybrbll","Sat Mar 25 2023 17:05:44 GMT-0700 (Pacific Daylight Time)","521134","1","3","animation","166","222432","0.0-5.0-2.80","","","","","","145","","","","1","3","[{""stimulus"":""img/1to3/1.png"",""time"":106},{""stimulus"":""img/1to3/2.png"",""time"":215},{""stimulus"":""img/1to3/3.png"",""time"":321},{""stimulus"":""img/1to3/4.png"",""time"":431},{""stimulus"":""img/1to3/5.png"",""time"":540},{""stimulus"":""img/1to3/6.png"",""time"":647},{""stimulus"":""img/1to3/7.png"",""time"":755},{""stimulus"":""img/1to3/8.png"",""time"":860},{""stimulus"":""img/1to3/9.png"",""time"":971},{""stimulus"":""img/1to3/10.png"",""time"":1082},{""stimulus"":""img/1to3/11.png"",""time"":1190},{""stimulus"":""img/1to3/12.png"",""time"":1298}]","[]"
"","","","observe","5e03f8517f08edece67a3137","bdp_cybrbll","Sat Mar 25 2023 17:05:44 GMT-0700 (Pacific Daylight Time)","521134","1","3","image-keyboard-response","167","223633","0.0-5.0-1.81","","null","","img/3to2/1.png","null","144","1189","0.5","0.1","3","1","",""
"","","","","5e03f8517f08edece67a3137","bdp_cybrbll","Sat Mar 25 2023 17:05:44 GMT-0700 (Pacific Daylight Time)","521134","1","3","animation","168","225035","0.0-5.0-2.81","","","","","","144","","","","3","1","[{""stimulus"":""img/3to1/1.png"",""time"":109},{""stimulus"":""img/3to1/2.png"",""time"":217},{""stimulus"":""img/3to1/3.png"",""time"":321},{""stimulus"":""img/3to1/4.png"",""time"":427},{""stimulus"":""img/3to1/5.png"",""time"":536},{""stimulus"":""img/3to1/6.png"",""time"":646},{""stimulus"":""img/3to1/7.png"",""time"":757},{""stimulus"":""img/3to1/8.png"",""time"":863},{""stimulus"":""img/3to1/9.png"",""time"":975},{""stimulus"":""img/3to1/10.png"",""time"":1079},{""stimulus"":""img/3to1/11.png"",""time"":1188},{""stimulus"":""img/3to1/12.png"",""time"":1292}]","[]"
"","","","observe","5e03f8517f08edece67a3137","bdp_cybrbll","Sat Mar 25 2023 17:05:44 GMT-0700 (Pacific Daylight Time)","521134","1","3","image-keyboard-response","169","225455","0.0-5.0-1.82","","null","","img/1to3/1.png","null","143","408","0.5","0.1","1","2","",""
"","","","","5e03f8517f08edece67a3137","bdp_cybrbll","Sat Mar 25 2023 17:05:44 GMT-0700 (Pacific Daylight Time)","521134","1","3","animation","170","226843","0.0-5.0-2.82","","","","","","143","","","","1","2","[{""stimulus"":""img/1to2/1.png"",""time"":107},{""stimulus"":""img/1to2/2.png"",""time"":214},{""stimulus"":""img/1to2/3.png"",""time"":321},{""stimulus"":""img/1to2/4.png"",""time"":429},{""stimulus"":""img/1to2/5.png"",""time"":531},{""stimulus"":""img/1to2/6.png"",""time"":633},{""stimulus"":""img/1to2/7.png"",""time"":738},{""stimulus"":""img/1to2/8.png"",""time"":846},{""stimulus"":""img/1to2/9.png"",""time"":960},{""stimulus"":""img/1to2/10.png"",""time"":1063},{""stimulus"":""img/1to2/11.png"",""time"":1173},{""stimulus"":""img/1to2/12.png"",""time"":1276}]","[]"
"","","","choice","5e03f8517f08edece67a3137","bdp_cybrbll","Sat Mar 25 2023 17:05:44 GMT-0700 (Pacific Daylight Time)","521134","1","3","image-keyboard-response","171","228312","0.0-5.0-1.83","","1467","","img/2to1/1.png","2","142","747","0.5","0.1","2","3","",""
"","","","","5e03f8517f08edece67a3137","bdp_cybrbll","Sat Mar 25 2023 17:05:44 GMT-0700 (Pacific Daylight Time)","521134","1","3","animation","172","229692","0.0-5.0-2.83","","","","","","142","","","","2","3","[{""stimulus"":""img/2to3/1.png"",""time"":105},{""stimulus"":""img/2to3/2.png"",""time"":209},{""stimulus"":""img/2to3/3.png"",""time"":314},{""stimulus"":""img/2to3/4.png"",""time"":420},{""stimulus"":""img/2to3/5.png"",""time"":522},{""stimulus"":""img/2to3/6.png"",""time"":633},{""stimulus"":""img/2to3/7.png"",""time"":737},{""stimulus"":""img/2to3/8.png"",""time"":843},{""stimulus"":""img/2to3/9.png"",""time"":949},{""stimulus"":""img/2to3/10.png"",""time"":1053},{""stimulus"":""img/2to3/11.png"",""time"":1158},{""stimulus"":""img/2to3/12.png"",""time"":1268}]","[]"
"","","","observe","5e03f8517f08edece67a3137","bdp_cybrbll","Sat Mar 25 2023 17:05:44 GMT-0700 (Pacific Daylight Time)","521134","1","3","image-keyboard-response","173","230003","0.0-5.0-1.84","","null","","img/3to2/1.png","null","141","302","0.5","0.1","3","1","",""
"","","","","5e03f8517f08edece67a3137","bdp_cybrbll","Sat Mar 25 2023 17:05:44 GMT-0700 (Pacific Daylight Time)","521134","1","3","animation","174","231406","0.0-5.0-2.84","","","","","","141","","","","3","1","[{""stimulus"":""img/3to1/1.png"",""time"":109},{""stimulus"":""img/3to1/2.png"",""time"":211},{""stimulus"":""img/3to1/3.png"",""time"":322},{""stimulus"":""img/3to1/4.png"",""time"":430},{""stimulus"":""img/3to1/5.png"",""time"":535},{""stimulus"":""img/3to1/6.png"",""time"":641},{""stimulus"":""img/3to1/7.png"",""time"":754},{""stimulus"":""img/3to1/8.png"",""time"":861},{""stimulus"":""img/3to1/9.png"",""time"":968},{""stimulus"":""img/3to1/10.png"",""time"":1078},{""stimulus"":""img/3to1/11.png"",""time"":1190},{""stimulus"":""img/3to1/12.png"",""time"":1297}]","[]"
"","","","observe","5e03f8517f08edece67a3137","bdp_cybrbll","Sat Mar 25 2023 17:05:44 GMT-0700 (Pacific Daylight Time)","521134","1","3","image-keyboard-response","175","231544","0.0-5.0-1.85","","null","","img/1to3/1.png","null","140","131","0.5","0.1","1","3","",""
"","","","","5e03f8517f08edece67a3137","bdp_cybrbll","Sat Mar 25 2023 17:05:44 GMT-0700 (Pacific Daylight Time)","521134","1","3","animation","176","232951","0.0-5.0-2.85","","","","","","140","","","","1","3","[{""stimulus"":""img/1to3/1.png"",""time"":113},{""stimulus"":""img/1to3/2.png"",""time"":223},{""stimulus"":""img/1to3/3.png"",""time"":333},{""stimulus"":""img/1to3/4.png"",""time"":440},{""stimulus"":""img/1to3/5.png"",""time"":546},{""stimulus"":""img/1to3/6.png"",""time"":655},{""stimulus"":""img/1to3/7.png"",""time"":756},{""stimulus"":""img/1to3/8.png"",""time"":860},{""stimulus"":""img/1to3/9.png"",""time"":969},{""stimulus"":""img/1to3/10.png"",""time"":1078},{""stimulus"":""img/1to3/11.png"",""time"":1190},{""stimulus"":""img/1to3/12.png"",""time"":1299}]","[]"
"","","","observe","5e03f8517f08edece67a3137","bdp_cybrbll","Sat Mar 25 2023 17:05:44 GMT-0700 (Pacific Daylight Time)","521134","1","3","image-keyboard-response","177","233216","0.0-5.0-1.86","","null","","img/3to2/1.png","null","139","262","0.5","0.1","3","1","",""
"","","","","5e03f8517f08edece67a3137","bdp_cybrbll","Sat Mar 25 2023 17:05:44 GMT-0700 (Pacific Daylight Time)","521134","1","3","animation","178","234619","0.0-5.0-2.86","","","","","","139","","","","3","1","[{""stimulus"":""img/3to1/1.png"",""time"":107},{""stimulus"":""img/3to1/2.png"",""time"":213},{""stimulus"":""img/3to1/3.png"",""time"":323},{""stimulus"":""img/3to1/4.png"",""time"":423},{""stimulus"":""img/3to1/5.png"",""time"":533},{""stimulus"":""img/3to1/6.png"",""time"":643},{""stimulus"":""img/3to1/7.png"",""time"":750},{""stimulus"":""img/3to1/8.png"",""time"":856},{""stimulus"":""img/3to1/9.png"",""time"":966},{""stimulus"":""img/3to1/10.png"",""time"":1074},{""stimulus"":""img/3to1/11.png"",""time"":1183},{""stimulus"":""img/3to1/12.png"",""time"":1293}]","[]"
"","","","observe","5e03f8517f08edece67a3137","bdp_cybrbll","Sat Mar 25 2023 17:05:44 GMT-0700 (Pacific Daylight Time)","521134","1","3","image-keyboard-response","179","235277","0.0-5.0-1.87","","null","","img/1to3/1.png","null","138","644","0.5","0.1","1","3","",""
"","","","","5e03f8517f08edece67a3137","bdp_cybrbll","Sat Mar 25 2023 17:05:44 GMT-0700 (Pacific Daylight Time)","521134","1","3","animation","180","236660","0.0-5.0-2.87","","","","","","138","","","","1","3","[{""stimulus"":""img/1to3/1.png"",""time"":104},{""stimulus"":""img/1to3/2.png"",""time"":211},{""stimulus"":""img/1to3/3.png"",""time"":316},{""stimulus"":""img/1to3/4.png"",""time"":415},{""stimulus"":""img/1to3/5.png"",""time"":524},{""stimulus"":""img/1to3/6.png"",""time"":629},{""stimulus"":""img/1to3/7.png"",""time"":734},{""stimulus"":""img/1to3/8.png"",""time"":842},{""stimulus"":""img/1to3/9.png"",""time"":948},{""stimulus"":""img/1to3/10.png"",""time"":1058},{""stimulus"":""img/1to3/11.png"",""time"":1166},{""stimulus"":""img/1to3/12.png"",""time"":1279}]","[]"
"","","","observe","5e03f8517f08edece67a3137","bdp_cybrbll","Sat Mar 25 2023 17:05:44 GMT-0700 (Pacific Daylight Time)","521134","1","3","image-keyboard-response","181","237195","0.0-5.0-1.88","","null","","img/3to2/1.png","null","137","522","0.5","0.1","3","1","",""
"","","","","5e03f8517f08edece67a3137","bdp_cybrbll","Sat Mar 25 2023 17:05:44 GMT-0700 (Pacific Daylight Time)","521134","1","3","animation","182","238598","0.0-5.0-2.88","","","","","","137","","","","3","1","[{""stimulus"":""img/3to1/1.png"",""time"":111},{""stimulus"":""img/3to1/2.png"",""time"":215},{""stimulus"":""img/3to1/3.png"",""time"":320},{""stimulus"":""img/3to1/4.png"",""time"":426},{""stimulus"":""img/3to1/5.png"",""time"":531},{""stimulus"":""img/3to1/6.png"",""time"":643},{""stimulus"":""img/3to1/7.png"",""time"":750},{""stimulus"":""img/3to1/8.png"",""time"":861},{""stimulus"":""img/3to1/9.png"",""time"":968},{""stimulus"":""img/3to1/10.png"",""time"":1081},{""stimulus"":""img/3to1/11.png"",""time"":1187},{""stimulus"":""img/3to1/12.png"",""time"":1296}]","[]"
"","","","observe","5e03f8517f08edece67a3137","bdp_cybrbll","Sat Mar 25 2023 17:05:44 GMT-0700 (Pacific Daylight Time)","521134","1","3","image-keyboard-response","183","239231","0.0-5.0-1.89","","null","","img/1to3/1.png","null","136","620","0.5","0.1","1","2","",""
"","","","","5e03f8517f08edece67a3137","bdp_cybrbll","Sat Mar 25 2023 17:05:44 GMT-0700 (Pacific Daylight Time)","521134","1","3","animation","184","240640","0.0-5.0-2.89","","","","","","136","","","","1","2","[{""stimulus"":""img/1to2/1.png"",""time"":110},{""stimulus"":""img/1to2/2.png"",""time"":218},{""stimulus"":""img/1to2/3.png"",""time"":329},{""stimulus"":""img/1to2/4.png"",""time"":435},{""stimulus"":""img/1to2/5.png"",""time"":544},{""stimulus"":""img/1to2/6.png"",""time"":650},{""stimulus"":""img/1to2/7.png"",""time"":757},{""stimulus"":""img/1to2/8.png"",""time"":864},{""stimulus"":""img/1to2/9.png"",""time"":969},{""stimulus"":""img/1to2/10.png"",""time"":1079},{""stimulus"":""img/1to2/11.png"",""time"":1190},{""stimulus"":""img/1to2/12.png"",""time"":1299}]","[]"
"","","","choice","5e03f8517f08edece67a3137","bdp_cybrbll","Sat Mar 25 2023 17:05:44 GMT-0700 (Pacific Daylight Time)","521134","1","3","image-keyboard-response","185","240807","0.0-5.0-1.90","","164","","img/2to1/1.png","2","135","388","0.5","0.1","2","3","",""
"","","","","5e03f8517f08edece67a3137","bdp_cybrbll","Sat Mar 25 2023 17:05:44 GMT-0700 (Pacific Daylight Time)","521134","1","3","animation","186","242205","0.0-5.0-2.90","","","","","","135","","","","2","3","[{""stimulus"":""img/2to3/1.png"",""time"":111},{""stimulus"":""img/2to3/2.png"",""time"":218},{""stimulus"":""img/2to3/3.png"",""time"":329},{""stimulus"":""img/2to3/4.png"",""time"":436},{""stimulus"":""img/2to3/5.png"",""time"":543},{""stimulus"":""img/2to3/6.png"",""time"":651},{""stimulus"":""img/2to3/7.png"",""time"":761},{""stimulus"":""img/2to3/8.png"",""time"":866},{""stimulus"":""img/2to3/9.png"",""time"":972},{""stimulus"":""img/2to3/10.png"",""time"":1079},{""stimulus"":""img/2to3/11.png"",""time"":1188},{""stimulus"":""img/2to3/12.png"",""time"":1294}]","[]"
"","","","observe","5e03f8517f08edece67a3137","bdp_cybrbll","Sat Mar 25 2023 17:05:44 GMT-0700 (Pacific Daylight Time)","521134","1","3","image-keyboard-response","187","242485","0.0-5.0-1.91","","null","","img/3to2/1.png","null","134","274","0.5","0.1","3","1","",""
"","","","","5e03f8517f08edece67a3137","bdp_cybrbll","Sat Mar 25 2023 17:05:44 GMT-0700 (Pacific Daylight Time)","521134","1","3","animation","188","243895","0.0-5.0-2.91","","","","","","134","","","","3","1","[{""stimulus"":""img/3to1/1.png"",""time"":108},{""stimulus"":""img/3to1/2.png"",""time"":216},{""stimulus"":""img/3to1/3.png"",""time"":325},{""stimulus"":""img/3to1/4.png"",""time"":436},{""stimulus"":""img/3to1/5.png"",""time"":546},{""stimulus"":""img/3to1/6.png"",""time"":650},{""stimulus"":""img/3to1/7.png"",""time"":756},{""stimulus"":""img/3to1/8.png"",""time"":867},{""stimulus"":""img/3to1/9.png"",""time"":976},{""stimulus"":""img/3to1/10.png"",""time"":1087},{""stimulus"":""img/3to1/11.png"",""time"":1195},{""stimulus"":""img/3to1/12.png"",""time"":1304}]","[]"
"","","","observe","5e03f8517f08edece67a3137","bdp_cybrbll","Sat Mar 25 2023 17:05:44 GMT-0700 (Pacific Daylight Time)","521134","1","3","image-keyboard-response","189","244105","0.0-5.0-1.92","","null","","img/1to3/1.png","null","133","199","0.5","0.1","1","2","",""
"","","","","5e03f8517f08edece67a3137","bdp_cybrbll","Sat Mar 25 2023 17:05:44 GMT-0700 (Pacific Daylight Time)","521134","1","3","animation","190","245522","0.0-5.0-2.92","","","","","","133","","","","1","2","[{""stimulus"":""img/1to2/1.png"",""time"":104},{""stimulus"":""img/1to2/2.png"",""time"":214},{""stimulus"":""img/1to2/3.png"",""time"":324},{""stimulus"":""img/1to2/4.png"",""time"":430},{""stimulus"":""img/1to2/5.png"",""time"":534},{""stimulus"":""img/1to2/6.png"",""time"":647},{""stimulus"":""img/1to2/7.png"",""time"":757},{""stimulus"":""img/1to2/8.png"",""time"":869},{""stimulus"":""img/1to2/9.png"",""time"":982},{""stimulus"":""img/1to2/10.png"",""time"":1092},{""stimulus"":""img/1to2/11.png"",""time"":1199},{""stimulus"":""img/1to2/12.png"",""time"":1306}]","[]"
