"trial_type","trial_index","time_elapsed","internal_node_id","subject_id","task","startTime","totalTime","fairPartner","unfairPartner","view_history","rt","event","trial","time","trialtype","success","stimulus","key_press","throwsLeft","rtDur","pFair","pUnfair","holder","receiver","animation_sequence","responses"
"pavlovia","0","2","0.0-0.0","64057cd2806cfdca58f0de34","bdp_cybrbll","Sat Mar 25 2023 19:38:44 GMT-0700 (Pacific Daylight Time)","440152","3","1","","","","","","","","","","","","","","","","",""
"instructions","1","11785","0.0-1.0","64057cd2806cfdca58f0de34","bdp_cybrbll","Sat Mar 25 2023 19:38:44 GMT-0700 (Pacific Daylight Time)","440152","3","1","[{""page_index"":0,""viewing_time"":11783}]","11783","","","","","","","","","","","","","","",""
"","","","","64057cd2806cfdca58f0de34","bdp_cybrbll","Sat Mar 25 2023 19:38:44 GMT-0700 (Pacific Daylight Time)","440152","3","1","","","fullscreenenter","2","13415","fullscreenenter","","","","","","","","","","",""
"fullscreen","2","14397","0.0-2.0","64057cd2806cfdca58f0de34","bdp_cybrbll","Sat Mar 25 2023 19:38:44 GMT-0700 (Pacific Daylight Time)","440152","3","1","","","","","","","true","","","","","","","","","",""
"instructions","3","41244","0.0-4.0","64057cd2806cfdca58f0de34","bdp_cybrbll","Sat Mar 25 2023 19:38:44 GMT-0700 (Pacific Daylight Time)","440152","3","1","[{""page_index"":0,""viewing_time"":26846}]","26846","","","","","","","","","","","","","","",""
"image-keyboard-response","4","42729","0.0-5.0-1.0","64057cd2806cfdca58f0de34","bdp_cybrbll","Sat Mar 25 2023 19:38:44 GMT-0700 (Pacific Daylight Time)","440152","3","1","","1484","","","","choice","","img/2to1/1.png","2","225","496","0.5","0.5","2","3","",""
"animation","5","44017","0.0-5.0-2.0","64057cd2806cfdca58f0de34","bdp_cybrbll","Sat Mar 25 2023 19:38:44 GMT-0700 (Pacific Daylight Time)","440152","3","1","","","","","","","","","","225","","","","2","3","[{""stimulus"":""img/2to3/1.png"",""time"":100},{""stimulus"":""img/2to3/2.png"",""time"":199},{""stimulus"":""img/2to3/3.png"",""time"":298},{""stimulus"":""img/2to3/4.png"",""time"":397},{""stimulus"":""img/2to3/5.png"",""time"":496},{""stimulus"":""img/2to3/6.png"",""time"":594},{""stimulus"":""img/2to3/7.png"",""time"":694},{""stimulus"":""img/2to3/8.png"",""time"":793},{""stimulus"":""img/2to3/9.png"",""time"":891},{""stimulus"":""img/2to3/10.png"",""time"":990},{""stimulus"":""img/2to3/11.png"",""time"":1090},{""stimulus"":""img/2to3/12.png"",""time"":1188}]","[]"
"image-keyboard-response","6","44603","0.0-5.0-1.1","64057cd2806cfdca58f0de34","bdp_cybrbll","Sat Mar 25 2023 19:38:44 GMT-0700 (Pacific Daylight Time)","440152","3","1","","null","","","","observe","","img/3to2/1.png","null","224","584","0.5","0.5","3","1","",""
"animation","7","45890","0.0-5.0-2.1","64057cd2806cfdca58f0de34","bdp_cybrbll","Sat Mar 25 2023 19:38:44 GMT-0700 (Pacific Daylight Time)","440152","3","1","","","","","","","","","","224","","","","3","1","[{""stimulus"":""img/3to1/1.png"",""time"":101},{""stimulus"":""img/3to1/2.png"",""time"":200},{""stimulus"":""img/3to1/3.png"",""time"":297},{""stimulus"":""img/3to1/4.png"",""time"":397},{""stimulus"":""img/3to1/5.png"",""time"":497},{""stimulus"":""img/3to1/6.png"",""time"":595},{""stimulus"":""img/3to1/7.png"",""time"":702},{""stimulus"":""img/3to1/8.png"",""time"":793},{""stimulus"":""img/3to1/9.png"",""time"":892},{""stimulus"":""img/3to1/10.png"",""time"":991},{""stimulus"":""img/3to1/11.png"",""time"":1091},{""stimulus"":""img/3to1/12.png"",""time"":1189}]","[]"
"image-keyboard-response","8","46418","0.0-5.0-1.2","64057cd2806cfdca58f0de34","bdp_cybrbll","Sat Mar 25 2023 19:38:44 GMT-0700 (Pacific Daylight Time)","440152","3","1","","null","","","","observe","","img/1to3/1.png","null","223","526","0.5","0.5","1","2","",""
"animation","9","47706","0.0-5.0-2.2","64057cd2806cfdca58f0de34","bdp_cybrbll","Sat Mar 25 2023 19:38:44 GMT-0700 (Pacific Daylight Time)","440152","3","1","","","","","","","","","","223","","","","1","2","[{""stimulus"":""img/1to2/1.png"",""time"":99},{""stimulus"":""img/1to2/2.png"",""time"":199},{""stimulus"":""img/1to2/3.png"",""time"":298},{""stimulus"":""img/1to2/4.png"",""time"":397},{""stimulus"":""img/1to2/5.png"",""time"":496},{""stimulus"":""img/1to2/6.png"",""time"":595},{""stimulus"":""img/1to2/7.png"",""time"":694},{""stimulus"":""img/1to2/8.png"",""time"":793},{""stimulus"":""img/1to2/9.png"",""time"":892},{""stimulus"":""img/1to2/10.png"",""time"":991},{""stimulus"":""img/1to2/11.png"",""time"":1089},{""stimulus"":""img/1to2/12.png"",""time"":1188}]","[]"
"image-keyboard-response","10","48050","0.0-5.0-1.3","64057cd2806cfdca58f0de34","bdp_cybrbll","Sat Mar 25 2023 19:38:44 GMT-0700 (Pacific Daylight Time)","440152","3","1","","344","","","","choice","","img/2to1/1.png","2","222","285","0.5","0.5","2","3","",""
"animation","11","49338","0.0-5.0-2.3","64057cd2806cfdca58f0de34","bdp_cybrbll","Sat Mar 25 2023 19:38:44 GMT-0700 (Pacific Daylight Time)","440152","3","1","","","","","","","","","","222","","","","2","3","[{""stimulus"":""img/2to3/1.png"",""time"":99},{""stimulus"":""img/2to3/2.png"",""time"":200},{""stimulus"":""img/2to3/3.png"",""time"":298},{""stimulus"":""img/2to3/4.png"",""time"":396},{""stimulus"":""img/2to3/5.png"",""time"":497},{""stimulus"":""img/2to3/6.png"",""time"":594},{""stimulus"":""img/2to3/7.png"",""time"":694},{""stimulus"":""img/2to3/8.png"",""time"":793},{""stimulus"":""img/2to3/9.png"",""time"":891},{""stimulus"":""img/2to3/10.png"",""time"":990},{""stimulus"":""img/2to3/11.png"",""time"":1090},{""stimulus"":""img/2to3/12.png"",""time"":1189}]","[]"
"image-keyboard-response","12","49946","0.0-5.0-1.4","64057cd2806cfdca58f0de34","bdp_cybrbll","Sat Mar 25 2023 19:38:44 GMT-0700 (Pacific Daylight Time)","440152","3","1","","null","","","","observe","","img/3to2/1.png","null","221","607","0.5","0.5","3","1","",""
"animation","13","51234","0.0-5.0-2.4","64057cd2806cfdca58f0de34","bdp_cybrbll","Sat Mar 25 2023 19:38:44 GMT-0700 (Pacific Daylight Time)","440152","3","1","","","","","","","","","","221","","","","3","1","[{""stimulus"":""img/3to1/1.png"",""time"":100},{""stimulus"":""img/3to1/2.png"",""time"":198},{""stimulus"":""img/3to1/3.png"",""time"":297},{""stimulus"":""img/3to1/4.png"",""time"":396},{""stimulus"":""img/3to1/5.png"",""time"":496},{""stimulus"":""img/3to1/6.png"",""time"":595},{""stimulus"":""img/3to1/7.png"",""time"":693},{""stimulus"":""img/3to1/8.png"",""time"":793},{""stimulus"":""img/3to1/9.png"",""time"":891},{""stimulus"":""img/3to1/10.png"",""time"":992},{""stimulus"":""img/3to1/11.png"",""time"":1089},{""stimulus"":""img/3to1/12.png"",""time"":1189}]","[]"
"image-keyboard-response","14","52019","0.0-5.0-1.5","64057cd2806cfdca58f0de34","bdp_cybrbll","Sat Mar 25 2023 19:38:44 GMT-0700 (Pacific Daylight Time)","440152","3","1","","null","","","","observe","","img/1to3/1.png","null","220","785","0.5","0.5","1","3","",""
"animation","15","53308","0.0-5.0-2.5","64057cd2806cfdca58f0de34","bdp_cybrbll","Sat Mar 25 2023 19:38:44 GMT-0700 (Pacific Daylight Time)","440152","3","1","","","","","","","","","","220","","","","1","3","[{""stimulus"":""img/1to3/1.png"",""time"":100},{""stimulus"":""img/1to3/2.png"",""time"":199},{""stimulus"":""img/1to3/3.png"",""time"":298},{""stimulus"":""img/1to3/4.png"",""time"":398},{""stimulus"":""img/1to3/5.png"",""time"":496},{""stimulus"":""img/1to3/6.png"",""time"":595},{""stimulus"":""img/1to3/7.png"",""time"":694},{""stimulus"":""img/1to3/8.png"",""time"":795},{""stimulus"":""img/1to3/9.png"",""time"":892},{""stimulus"":""img/1to3/10.png"",""time"":992},{""stimulus"":""img/1to3/11.png"",""time"":1091},{""stimulus"":""img/1to3/12.png"",""time"":1189}]","[]"
"image-keyboard-response","16","54057","0.0-5.0-1.6","64057cd2806cfdca58f0de34","bdp_cybrbll","Sat Mar 25 2023 19:38:44 GMT-0700 (Pacific Daylight Time)","440152","3","1","","null","","","","observe","","img/3to2/1.png","null","219","748","0.5","0.5","3","1","",""
"animation","17","55345","0.0-5.0-2.6","64057cd2806cfdca58f0de34","bdp_cybrbll","Sat Mar 25 2023 19:38:44 GMT-0700 (Pacific Daylight Time)","440152","3","1","","","","","","","","","","219","","","","3","1","[{""stimulus"":""img/3to1/1.png"",""time"":100},{""stimulus"":""img/3to1/2.png"",""time"":199},{""stimulus"":""img/3to1/3.png"",""time"":298},{""stimulus"":""img/3to1/4.png"",""time"":397},{""stimulus"":""img/3to1/5.png"",""time"":496},{""stimulus"":""img/3to1/6.png"",""time"":595},{""stimulus"":""img/3to1/7.png"",""time"":694},{""stimulus"":""img/3to1/8.png"",""time"":793},{""stimulus"":""img/3to1/9.png"",""time"":893},{""stimulus"":""img/3to1/10.png"",""time"":991},{""stimulus"":""img/3to1/11.png"",""time"":1090},{""stimulus"":""img/3to1/12.png"",""time"":1189}]","[]"
"image-keyboard-response","18","55718","0.0-5.0-1.7","64057cd2806cfdca58f0de34","bdp_cybrbll","Sat Mar 25 2023 19:38:44 GMT-0700 (Pacific Daylight Time)","440152","3","1","","null","","","","observe","","img/1to3/1.png","null","218","371","0.5","0.5","1","3","",""
"animation","19","57005","0.0-5.0-2.7","64057cd2806cfdca58f0de34","bdp_cybrbll","Sat Mar 25 2023 19:38:44 GMT-0700 (Pacific Daylight Time)","440152","3","1","","","","","","","","","","218","","","","1","3","[{""stimulus"":""img/1to3/1.png"",""time"":100},{""stimulus"":""img/1to3/2.png"",""time"":198},{""stimulus"":""img/1to3/3.png"",""time"":298},{""stimulus"":""img/1to3/4.png"",""time"":397},{""stimulus"":""img/1to3/5.png"",""time"":495},{""stimulus"":""img/1to3/6.png"",""time"":595},{""stimulus"":""img/1to3/7.png"",""time"":695},{""stimulus"":""img/1to3/8.png"",""time"":793},{""stimulus"":""img/1to3/9.png"",""time"":892},{""stimulus"":""img/1to3/10.png"",""time"":990},{""stimulus"":""img/1to3/11.png"",""time"":1089},{""stimulus"":""img/1to3/12.png"",""time"":1188}]","[]"
"image-keyboard-response","20","57725","0.0-5.0-1.8","64057cd2806cfdca58f0de34","bdp_cybrbll","Sat Mar 25 2023 19:38:44 GMT-0700 (Pacific Daylight Time)","440152","3","1","","null","","","","observe","","img/3to2/1.png","null","217","719","0.5","0.5","3","1","",""
"animation","21","59012","0.0-5.0-2.8","64057cd2806cfdca58f0de34","bdp_cybrbll","Sat Mar 25 2023 19:38:44 GMT-0700 (Pacific Daylight Time)","440152","3","1","","","","","","","","","","217","","","","3","1","[{""stimulus"":""img/3to1/1.png"",""time"":99},{""stimulus"":""img/3to1/2.png"",""time"":198},{""stimulus"":""img/3to1/3.png"",""time"":298},{""stimulus"":""img/3to1/4.png"",""time"":397},{""stimulus"":""img/3to1/5.png"",""time"":496},{""stimulus"":""img/3to1/6.png"",""time"":595},{""stimulus"":""img/3to1/7.png"",""time"":695},{""stimulus"":""img/3to1/8.png"",""time"":793},{""stimulus"":""img/3to1/9.png"",""time"":891},{""stimulus"":""img/3to1/10.png"",""time"":991},{""stimulus"":""img/3to1/11.png"",""time"":1090},{""stimulus"":""img/3to1/12.png"",""time"":1188}]","[]"
"image-keyboard-response","22","59386","0.0-5.0-1.9","64057cd2806cfdca58f0de34","bdp_cybrbll","Sat Mar 25 2023 19:38:44 GMT-0700 (Pacific Daylight Time)","440152","3","1","","null","","","","observe","","img/1to3/1.png","null","216","372","0.5","0.5","1","2","",""
"animation","23","60673","0.0-5.0-2.9","64057cd2806cfdca58f0de34","bdp_cybrbll","Sat Mar 25 2023 19:38:44 GMT-0700 (Pacific Daylight Time)","440152","3","1","","","","","","","","","","216","","","","1","2","[{""stimulus"":""img/1to2/1.png"",""time"":100},{""stimulus"":""img/1to2/2.png"",""time"":198},{""stimulus"":""img/1to2/3.png"",""time"":297},{""stimulus"":""img/1to2/4.png"",""time"":396},{""stimulus"":""img/1to2/5.png"",""time"":495},{""stimulus"":""img/1to2/6.png"",""time"":594},{""stimulus"":""img/1to2/7.png"",""time"":693},{""stimulus"":""img/1to2/8.png"",""time"":793},{""stimulus"":""img/1to2/9.png"",""time"":892},{""stimulus"":""img/1to2/10.png"",""time"":991},{""stimulus"":""img/1to2/11.png"",""time"":1091},{""stimulus"":""img/1to2/12.png"",""time"":1189}]","[]"
"image-keyboard-response","24","61223","0.0-5.0-1.10","64057cd2806cfdca58f0de34","bdp_cybrbll","Sat Mar 25 2023 19:38:44 GMT-0700 (Pacific Daylight Time)","440152","3","1","","550","","","","choice","","img/2to1/1.png","1","215","554","0.5","0.5","2","1","",""
"animation","25","62511","0.0-5.0-2.10","64057cd2806cfdca58f0de34","bdp_cybrbll","Sat Mar 25 2023 19:38:44 GMT-0700 (Pacific Daylight Time)","440152","3","1","","","","","","","","","","215","","","","2","1","[{""stimulus"":""img/2to1/1.png"",""time"":100},{""stimulus"":""img/2to1/2.png"",""time"":198},{""stimulus"":""img/2to1/3.png"",""time"":298},{""stimulus"":""img/2to1/4.png"",""time"":396},{""stimulus"":""img/2to1/5.png"",""time"":495},{""stimulus"":""img/2to1/6.png"",""time"":595},{""stimulus"":""img/2to1/7.png"",""time"":693},{""stimulus"":""img/2to1/8.png"",""time"":793},{""stimulus"":""img/2to1/9.png"",""time"":892},{""stimulus"":""img/2to1/10.png"",""time"":990},{""stimulus"":""img/2to1/11.png"",""time"":1091},{""stimulus"":""img/2to1/12.png"",""time"":1189}]","[]"
"image-keyboard-response","26","62864","0.0-5.0-1.11","64057cd2806cfdca58f0de34","bdp_cybrbll","Sat Mar 25 2023 19:38:44 GMT-0700 (Pacific Daylight Time)","440152","3","1","","null","","","","observe","","img/1to3/1.png","null","214","352","0.5","0.5","1","2","",""
"animation","27","64151","0.0-5.0-2.11","64057cd2806cfdca58f0de34","bdp_cybrbll","Sat Mar 25 2023 19:38:44 GMT-0700 (Pacific Daylight Time)","440152","3","1","","","","","","","","","","214","","","","1","2","[{""stimulus"":""img/1to2/1.png"",""time"":100},{""stimulus"":""img/1to2/2.png"",""time"":198},{""stimulus"":""img/1to2/3.png"",""time"":298},{""stimulus"":""img/1to2/4.png"",""time"":397},{""stimulus"":""img/1to2/5.png"",""time"":497},{""stimulus"":""img/1to2/6.png"",""time"":594},{""stimulus"":""img/1to2/7.png"",""time"":693},{""stimulus"":""img/1to2/8.png"",""time"":793},{""stimulus"":""img/1to2/9.png"",""time"":892},{""stimulus"":""img/1to2/10.png"",""time"":991},{""stimulus"":""img/1to2/11.png"",""time"":1089},{""stimulus"":""img/1to2/12.png"",""time"":1190}]","[]"
"image-keyboard-response","28","64549","0.0-5.0-1.12","64057cd2806cfdca58f0de34","bdp_cybrbll","Sat Mar 25 2023 19:38:44 GMT-0700 (Pacific Daylight Time)","440152","3","1","","398","","","","choice","","img/2to1/1.png","2","213","535","0.5","0.5","2","3","",""
"animation","29","65837","0.0-5.0-2.12","64057cd2806cfdca58f0de34","bdp_cybrbll","Sat Mar 25 2023 19:38:44 GMT-0700 (Pacific Daylight Time)","440152","3","1","","","","","","","","","","213","","","","2","3","[{""stimulus"":""img/2to3/1.png"",""time"":100},{""stimulus"":""img/2to3/2.png"",""time"":199},{""stimulus"":""img/2to3/3.png"",""time"":298},{""stimulus"":""img/2to3/4.png"",""time"":397},{""stimulus"":""img/2to3/5.png"",""time"":496},{""stimulus"":""img/2to3/6.png"",""time"":595},{""stimulus"":""img/2to3/7.png"",""time"":694},{""stimulus"":""img/2to3/8.png"",""time"":793},{""stimulus"":""img/2to3/9.png"",""time"":892},{""stimulus"":""img/2to3/10.png"",""time"":991},{""stimulus"":""img/2to3/11.png"",""time"":1090},{""stimulus"":""img/2to3/12.png"",""time"":1189}]","[]"
"image-keyboard-response","30","66427","0.0-5.0-1.13","64057cd2806cfdca58f0de34","bdp_cybrbll","Sat Mar 25 2023 19:38:44 GMT-0700 (Pacific Daylight Time)","440152","3","1","","null","","","","observe","","img/3to2/1.png","null","212","589","0.5","0.5","3","1","",""
"animation","31","67715","0.0-5.0-2.13","64057cd2806cfdca58f0de34","bdp_cybrbll","Sat Mar 25 2023 19:38:44 GMT-0700 (Pacific Daylight Time)","440152","3","1","","","","","","","","","","212","","","","3","1","[{""stimulus"":""img/3to1/1.png"",""time"":100},{""stimulus"":""img/3to1/2.png"",""time"":199},{""stimulus"":""img/3to1/3.png"",""time"":298},{""stimulus"":""img/3to1/4.png"",""time"":397},{""stimulus"":""img/3to1/5.png"",""time"":496},{""stimulus"":""img/3to1/6.png"",""time"":595},{""stimulus"":""img/3to1/7.png"",""time"":694},{""stimulus"":""img/3to1/8.png"",""time"":793},{""stimulus"":""img/3to1/9.png"",""time"":901},{""stimulus"":""img/3to1/10.png"",""time"":991},{""stimulus"":""img/3to1/11.png"",""time"":1090},{""stimulus"":""img/3to1/12.png"",""time"":1189}]","[]"
"image-keyboard-response","32","67860","0.0-5.0-1.14","64057cd2806cfdca58f0de34","bdp_cybrbll","Sat Mar 25 2023 19:38:44 GMT-0700 (Pacific Daylight Time)","440152","3","1","","null","","","","observe","","img/1to3/1.png","null","211","144","0.5","0.5","1","2","",""
"animation","33","69148","0.0-5.0-2.14","64057cd2806cfdca58f0de34","bdp_cybrbll","Sat Mar 25 2023 19:38:44 GMT-0700 (Pacific Daylight Time)","440152","3","1","","","","","","","","","","211","","","","1","2","[{""stimulus"":""img/1to2/1.png"",""time"":100},{""stimulus"":""img/1to2/2.png"",""time"":198},{""stimulus"":""img/1to2/3.png"",""time"":297},{""stimulus"":""img/1to2/4.png"",""time"":397},{""stimulus"":""img/1to2/5.png"",""time"":495},{""stimulus"":""img/1to2/6.png"",""time"":595},{""stimulus"":""img/1to2/7.png"",""time"":693},{""stimulus"":""img/1to2/8.png"",""time"":793},{""stimulus"":""img/1to2/9.png"",""time"":891},{""stimulus"":""img/1to2/10.png"",""time"":990},{""stimulus"":""img/1to2/11.png"",""time"":1089},{""stimulus"":""img/1to2/12.png"",""time"":1189}]","[]"
"image-keyboard-response","34","69397","0.0-5.0-1.15","64057cd2806cfdca58f0de34","bdp_cybrbll","Sat Mar 25 2023 19:38:44 GMT-0700 (Pacific Daylight Time)","440152","3","1","","249","","","","choice","","img/2to1/1.png","2","210","394","0.5","0.5","2","3","",""
"animation","35","70684","0.0-5.0-2.15","64057cd2806cfdca58f0de34","bdp_cybrbll","Sat Mar 25 2023 19:38:44 GMT-0700 (Pacific Daylight Time)","440152","3","1","","","","","","","","","","210","","","","2","3","[{""stimulus"":""img/2to3/1.png"",""time"":99},{""stimulus"":""img/2to3/2.png"",""time"":199},{""stimulus"":""img/2to3/3.png"",""time"":298},{""stimulus"":""img/2to3/4.png"",""time"":396},{""stimulus"":""img/2to3/5.png"",""time"":495},{""stimulus"":""img/2to3/6.png"",""time"":594},{""stimulus"":""img/2to3/7.png"",""time"":693},{""stimulus"":""img/2to3/8.png"",""time"":793},{""stimulus"":""img/2to3/9.png"",""time"":893},{""stimulus"":""img/2to3/10.png"",""time"":991},{""stimulus"":""img/2to3/11.png"",""time"":1089},{""stimulus"":""img/2to3/12.png"",""time"":1188}]","[]"
"image-keyboard-response","36","70872","0.0-5.0-1.16","64057cd2806cfdca58f0de34","bdp_cybrbll","Sat Mar 25 2023 19:38:44 GMT-0700 (Pacific Daylight Time)","440152","3","1","","null","","","","observe","","img/3to2/1.png","null","209","187","0.5","0.5","3","2","",""
"animation","37","72160","0.0-5.0-2.16","64057cd2806cfdca58f0de34","bdp_cybrbll","Sat Mar 25 2023 19:38:44 GMT-0700 (Pacific Daylight Time)","440152","3","1","","","","","","","","","","209","","","","3","2","[{""stimulus"":""img/3to2/1.png"",""time"":100},{""stimulus"":""img/3to2/2.png"",""time"":198},{""stimulus"":""img/3to2/3.png"",""time"":298},{""stimulus"":""img/3to2/4.png"",""time"":396},{""stimulus"":""img/3to2/5.png"",""time"":495},{""stimulus"":""img/3to2/6.png"",""time"":595},{""stimulus"":""img/3to2/7.png"",""time"":694},{""stimulus"":""img/3to2/8.png"",""time"":793},{""stimulus"":""img/3to2/9.png"",""time"":891},{""stimulus"":""img/3to2/10.png"",""time"":991},{""stimulus"":""img/3to2/11.png"",""time"":1090},{""stimulus"":""img/3to2/12.png"",""time"":1189}]","[]"
"image-keyboard-response","38","72543","0.0-5.0-1.17","64057cd2806cfdca58f0de34","bdp_cybrbll","Sat Mar 25 2023 19:38:44 GMT-0700 (Pacific Daylight Time)","440152","3","1","","383","","","","choice","","img/2to1/1.png","1","208","350","0.5","0.5","2","1","",""
"animation","39","73831","0.0-5.0-2.17","64057cd2806cfdca58f0de34","bdp_cybrbll","Sat Mar 25 2023 19:38:44 GMT-0700 (Pacific Daylight Time)","440152","3","1","","","","","","","","","","208","","","","2","1","[{""stimulus"":""img/2to1/1.png"",""time"":100},{""stimulus"":""img/2to1/2.png"",""time"":199},{""stimulus"":""img/2to1/3.png"",""time"":298},{""stimulus"":""img/2to1/4.png"",""time"":396},{""stimulus"":""img/2to1/5.png"",""time"":496},{""stimulus"":""img/2to1/6.png"",""time"":595},{""stimulus"":""img/2to1/7.png"",""time"":694},{""stimulus"":""img/2to1/8.png"",""time"":794},{""stimulus"":""img/2to1/9.png"",""time"":892},{""stimulus"":""img/2to1/10.png"",""time"":992},{""stimulus"":""img/2to1/11.png"",""time"":1090},{""stimulus"":""img/2to1/12.png"",""time"":1188}]","[]"
"image-keyboard-response","40","74391","0.0-5.0-1.18","64057cd2806cfdca58f0de34","bdp_cybrbll","Sat Mar 25 2023 19:38:44 GMT-0700 (Pacific Daylight Time)","440152","3","1","","null","","","","observe","","img/1to3/1.png","null","207","559","0.5","0.5","1","3","",""
"animation","41","75679","0.0-5.0-2.18","64057cd2806cfdca58f0de34","bdp_cybrbll","Sat Mar 25 2023 19:38:44 GMT-0700 (Pacific Daylight Time)","440152","3","1","","","","","","","","","","207","","","","1","3","[{""stimulus"":""img/1to3/1.png"",""time"":100},{""stimulus"":""img/1to3/2.png"",""time"":199},{""stimulus"":""img/1to3/3.png"",""time"":298},{""stimulus"":""img/1to3/4.png"",""time"":397},{""stimulus"":""img/1to3/5.png"",""time"":496},{""stimulus"":""img/1to3/6.png"",""time"":596},{""stimulus"":""img/1to3/7.png"",""time"":694},{""stimulus"":""img/1to3/8.png"",""time"":793},{""stimulus"":""img/1to3/9.png"",""time"":892},{""stimulus"":""img/1to3/10.png"",""time"":991},{""stimulus"":""img/1to3/11.png"",""time"":1090},{""stimulus"":""img/1to3/12.png"",""time"":1189}]","[]"
"image-keyboard-response","42","76407","0.0-5.0-1.19","64057cd2806cfdca58f0de34","bdp_cybrbll","Sat Mar 25 2023 19:38:44 GMT-0700 (Pacific Daylight Time)","440152","3","1","","null","","","","observe","","img/3to2/1.png","null","206","727","0.5","0.5","3","2","",""
"animation","43","77695","0.0-5.0-2.19","64057cd2806cfdca58f0de34","bdp_cybrbll","Sat Mar 25 2023 19:38:44 GMT-0700 (Pacific Daylight Time)","440152","3","1","","","","","","","","","","206","","","","3","2","[{""stimulus"":""img/3to2/1.png"",""time"":99},{""stimulus"":""img/3to2/2.png"",""time"":199},{""stimulus"":""img/3to2/3.png"",""time"":299},{""stimulus"":""img/3to2/4.png"",""time"":396},{""stimulus"":""img/3to2/5.png"",""time"":496},{""stimulus"":""img/3to2/6.png"",""time"":595},{""stimulus"":""img/3to2/7.png"",""time"":694},{""stimulus"":""img/3to2/8.png"",""time"":793},{""stimulus"":""img/3to2/9.png"",""time"":892},{""stimulus"":""img/3to2/10.png"",""time"":992},{""stimulus"":""img/3to2/11.png"",""time"":1090},{""stimulus"":""img/3to2/12.png"",""time"":1189}]","[]"
"image-keyboard-response","44","78017","0.0-5.0-1.20","64057cd2806cfdca58f0de34","bdp_cybrbll","Sat Mar 25 2023 19:38:44 GMT-0700 (Pacific Daylight Time)","440152","3","1","","321","","","","choice","","img/2to1/1.png","1","205","222","0.5","0.5","2","1","",""
"animation","45","79305","0.0-5.0-2.20","64057cd2806cfdca58f0de34","bdp_cybrbll","Sat Mar 25 2023 19:38:44 GMT-0700 (Pacific Daylight Time)","440152","3","1","","","","","","","","","","205","","","","2","1","[{""stimulus"":""img/2to1/1.png"",""time"":100},{""stimulus"":""img/2to1/2.png"",""time"":199},{""stimulus"":""img/2to1/3.png"",""time"":298},{""stimulus"":""img/2to1/4.png"",""time"":397},{""stimulus"":""img/2to1/5.png"",""time"":496},{""stimulus"":""img/2to1/6.png"",""time"":595},{""stimulus"":""img/2to1/7.png"",""time"":694},{""stimulus"":""img/2to1/8.png"",""time"":792},{""stimulus"":""img/2to1/9.png"",""time"":891},{""stimulus"":""img/2to1/10.png"",""time"":991},{""stimulus"":""img/2to1/11.png"",""time"":1090},{""stimulus"":""img/2to1/12.png"",""time"":1189}]","[]"
"image-keyboard-response","46","80218","0.0-5.0-1.21","64057cd2806cfdca58f0de34","bdp_cybrbll","Sat Mar 25 2023 19:38:44 GMT-0700 (Pacific Daylight Time)","440152","3","1","","null","","","","observe","","img/1to3/1.png","null","204","911","0.5","0.5","1","2","",""
"animation","47","81506","0.0-5.0-2.21","64057cd2806cfdca58f0de34","bdp_cybrbll","Sat Mar 25 2023 19:38:44 GMT-0700 (Pacific Daylight Time)","440152","3","1","","","","","","","","","","204","","","","1","2","[{""stimulus"":""img/1to2/1.png"",""time"":100},{""stimulus"":""img/1to2/2.png"",""time"":199},{""stimulus"":""img/1to2/3.png"",""time"":298},{""stimulus"":""img/1to2/4.png"",""time"":397},{""stimulus"":""img/1to2/5.png"",""time"":496},{""stimulus"":""img/1to2/6.png"",""time"":595},{""stimulus"":""img/1to2/7.png"",""time"":694},{""stimulus"":""img/1to2/8.png"",""time"":793},{""stimulus"":""img/1to2/9.png"",""time"":892},{""stimulus"":""img/1to2/10.png"",""time"":991},{""stimulus"":""img/1to2/11.png"",""time"":1090},{""stimulus"":""img/1to2/12.png"",""time"":1189}]","[]"
"image-keyboard-response","48","81961","0.0-5.0-1.22","64057cd2806cfdca58f0de34","bdp_cybrbll","Sat Mar 25 2023 19:38:44 GMT-0700 (Pacific Daylight Time)","440152","3","1","","455","","","","choice","","img/2to1/1.png","2","203","589","0.5","0.5","2","3","",""
"animation","49","83249","0.0-5.0-2.22","64057cd2806cfdca58f0de34","bdp_cybrbll","Sat Mar 25 2023 19:38:44 GMT-0700 (Pacific Daylight Time)","440152","3","1","","","","","","","","","","203","","","","2","3","[{""stimulus"":""img/2to3/1.png"",""time"":100},{""stimulus"":""img/2to3/2.png"",""time"":199},{""stimulus"":""img/2to3/3.png"",""time"":304},{""stimulus"":""img/2to3/4.png"",""time"":397},{""stimulus"":""img/2to3/5.png"",""time"":496},{""stimulus"":""img/2to3/6.png"",""time"":595},{""stimulus"":""img/2to3/7.png"",""time"":694},{""stimulus"":""img/2to3/8.png"",""time"":793},{""stimulus"":""img/2to3/9.png"",""time"":893},{""stimulus"":""img/2to3/10.png"",""time"":991},{""stimulus"":""img/2to3/11.png"",""time"":1090},{""stimulus"":""img/2to3/12.png"",""time"":1189}]","[]"
"image-keyboard-response","50","84088","0.0-5.0-1.23","64057cd2806cfdca58f0de34","bdp_cybrbll","Sat Mar 25 2023 19:38:44 GMT-0700 (Pacific Daylight Time)","440152","3","1","","null","","","","observe","","img/3to2/1.png","null","202","837","0.5","0.5","3","2","",""
"animation","51","85376","0.0-5.0-2.23","64057cd2806cfdca58f0de34","bdp_cybrbll","Sat Mar 25 2023 19:38:44 GMT-0700 (Pacific Daylight Time)","440152","3","1","","","","","","","","","","202","","","","3","2","[{""stimulus"":""img/3to2/1.png"",""time"":99},{""stimulus"":""img/3to2/2.png"",""time"":198},{""stimulus"":""img/3to2/3.png"",""time"":298},{""stimulus"":""img/3to2/4.png"",""time"":397},{""stimulus"":""img/3to2/5.png"",""time"":495},{""stimulus"":""img/3to2/6.png"",""time"":594},{""stimulus"":""img/3to2/7.png"",""time"":693},{""stimulus"":""img/3to2/8.png"",""time"":793},{""stimulus"":""img/3to2/9.png"",""time"":892},{""stimulus"":""img/3to2/10.png"",""time"":991},{""stimulus"":""img/3to2/11.png"",""time"":1090},{""stimulus"":""img/3to2/12.png"",""time"":1188}]","[]"
"image-keyboard-response","52","86007","0.0-5.0-1.24","64057cd2806cfdca58f0de34","bdp_cybrbll","Sat Mar 25 2023 19:38:44 GMT-0700 (Pacific Daylight Time)","440152","3","1","","631","","","","choice","","img/2to1/1.png","1","201","175","0.5","0.5","2","1","",""
"animation","53","87295","0.0-5.0-2.24","64057cd2806cfdca58f0de34","bdp_cybrbll","Sat Mar 25 2023 19:38:44 GMT-0700 (Pacific Daylight Time)","440152","3","1","","","","","","","","","","201","","","","2","1","[{""stimulus"":""img/2to1/1.png"",""time"":100},{""stimulus"":""img/2to1/2.png"",""time"":199},{""stimulus"":""img/2to1/3.png"",""time"":298},{""stimulus"":""img/2to1/4.png"",""time"":397},{""stimulus"":""img/2to1/5.png"",""time"":496},{""stimulus"":""img/2to1/6.png"",""time"":595},{""stimulus"":""img/2to1/7.png"",""time"":694},{""stimulus"":""img/2to1/8.png"",""time"":803},{""stimulus"":""img/2to1/9.png"",""time"":891},{""stimulus"":""img/2to1/10.png"",""time"":991},{""stimulus"":""img/2to1/11.png"",""time"":1090},{""stimulus"":""img/2to1/12.png"",""time"":1189}]","[]"
"image-keyboard-response","54","87764","0.0-5.0-1.25","64057cd2806cfdca58f0de34","bdp_cybrbll","Sat Mar 25 2023 19:38:44 GMT-0700 (Pacific Daylight Time)","440152","3","1","","null","","","","observe","","img/1to3/1.png","null","200","468","0.5","0.5","1","2","",""
"animation","55","89052","0.0-5.0-2.25","64057cd2806cfdca58f0de34","bdp_cybrbll","Sat Mar 25 2023 19:38:44 GMT-0700 (Pacific Daylight Time)","440152","3","1","","","","","","","","","","200","","","","1","2","[{""stimulus"":""img/1to2/1.png"",""time"":101},{""stimulus"":""img/1to2/2.png"",""time"":199},{""stimulus"":""img/1to2/3.png"",""time"":298},{""stimulus"":""img/1to2/4.png"",""time"":398},{""stimulus"":""img/1to2/5.png"",""time"":496},{""stimulus"":""img/1to2/6.png"",""time"":606},{""stimulus"":""img/1to2/7.png"",""time"":694},{""stimulus"":""img/1to2/8.png"",""time"":793},{""stimulus"":""img/1to2/9.png"",""time"":891},{""stimulus"":""img/1to2/10.png"",""time"":991},{""stimulus"":""img/1to2/11.png"",""time"":1089},{""stimulus"":""img/1to2/12.png"",""time"":1189}]","[]"
"image-keyboard-response","56","89391","0.0-5.0-1.26","64057cd2806cfdca58f0de34","bdp_cybrbll","Sat Mar 25 2023 19:38:44 GMT-0700 (Pacific Daylight Time)","440152","3","1","","339","","","","choice","","img/2to1/1.png","2","199","480","0.5","0.5","2","3","",""
"animation","57","90679","0.0-5.0-2.26","64057cd2806cfdca58f0de34","bdp_cybrbll","Sat Mar 25 2023 19:38:44 GMT-0700 (Pacific Daylight Time)","440152","3","1","","","","","","","","","","199","","","","2","3","[{""stimulus"":""img/2to3/1.png"",""time"":100},{""stimulus"":""img/2to3/2.png"",""time"":199},{""stimulus"":""img/2to3/3.png"",""time"":298},{""stimulus"":""img/2to3/4.png"",""time"":397},{""stimulus"":""img/2to3/5.png"",""time"":495},{""stimulus"":""img/2to3/6.png"",""time"":595},{""stimulus"":""img/2to3/7.png"",""time"":694},{""stimulus"":""img/2to3/8.png"",""time"":793},{""stimulus"":""img/2to3/9.png"",""time"":892},{""stimulus"":""img/2to3/10.png"",""time"":990},{""stimulus"":""img/2to3/11.png"",""time"":1090},{""stimulus"":""img/2to3/12.png"",""time"":1189}]","[]"
"image-keyboard-response","58","90847","0.0-5.0-1.27","64057cd2806cfdca58f0de34","bdp_cybrbll","Sat Mar 25 2023 19:38:44 GMT-0700 (Pacific Daylight Time)","440152","3","1","","null","","","","observe","","img/3to2/1.png","null","198","167","0.5","0.5","3","2","",""
"animation","59","92134","0.0-5.0-2.27","64057cd2806cfdca58f0de34","bdp_cybrbll","Sat Mar 25 2023 19:38:44 GMT-0700 (Pacific Daylight Time)","440152","3","1","","","","","","","","","","198","","","","3","2","[{""stimulus"":""img/3to2/1.png"",""time"":100},{""stimulus"":""img/3to2/2.png"",""time"":199},{""stimulus"":""img/3to2/3.png"",""time"":297},{""stimulus"":""img/3to2/4.png"",""time"":396},{""stimulus"":""img/3to2/5.png"",""time"":496},{""stimulus"":""img/3to2/6.png"",""time"":595},{""stimulus"":""img/3to2/7.png"",""time"":694},{""stimulus"":""img/3to2/8.png"",""time"":793},{""stimulus"":""img/3to2/9.png"",""time"":892},{""stimulus"":""img/3to2/10.png"",""time"":991},{""stimulus"":""img/3to2/11.png"",""time"":1089},{""stimulus"":""img/3to2/12.png"",""time"":1188}]","[]"
"image-keyboard-response","60","92496","0.0-5.0-1.28","64057cd2806cfdca58f0de34","bdp_cybrbll","Sat Mar 25 2023 19:38:44 GMT-0700 (Pacific Daylight Time)","440152","3","1","","361","","","","choice","","img/2to1/1.png","1","197","307","0.5","0.5","2","1","",""
"animation","61","93784","0.0-5.0-2.28","64057cd2806cfdca58f0de34","bdp_cybrbll","Sat Mar 25 2023 19:38:44 GMT-0700 (Pacific Daylight Time)","440152","3","1","","","","","","","","","","197","","","","2","1","[{""stimulus"":""img/2to1/1.png"",""time"":100},{""stimulus"":""img/2to1/2.png"",""time"":199},{""stimulus"":""img/2to1/3.png"",""time"":298},{""stimulus"":""img/2to1/4.png"",""time"":397},{""stimulus"":""img/2to1/5.png"",""time"":496},{""stimulus"":""img/2to1/6.png"",""time"":594},{""stimulus"":""img/2to1/7.png"",""time"":694},{""stimulus"":""img/2to1/8.png"",""time"":794},{""stimulus"":""img/2to1/9.png"",""time"":891},{""stimulus"":""img/2to1/10.png"",""time"":991},{""stimulus"":""img/2to1/11.png"",""time"":1090},{""stimulus"":""img/2to1/12.png"",""time"":1189}]","[]"
"image-keyboard-response","62","94367","0.0-5.0-1.29","64057cd2806cfdca58f0de34","bdp_cybrbll","Sat Mar 25 2023 19:38:44 GMT-0700 (Pacific Daylight Time)","440152","3","1","","null","","","","observe","","img/1to3/1.png","null","196","581","0.5","0.5","1","2","",""
"animation","63","95654","0.0-5.0-2.29","64057cd2806cfdca58f0de34","bdp_cybrbll","Sat Mar 25 2023 19:38:44 GMT-0700 (Pacific Daylight Time)","440152","3","1","","","","","","","","","","196","","","","1","2","[{""stimulus"":""img/1to2/1.png"",""time"":99},{""stimulus"":""img/1to2/2.png"",""time"":198},{""stimulus"":""img/1to2/3.png"",""time"":298},{""stimulus"":""img/1to2/4.png"",""time"":397},{""stimulus"":""img/1to2/5.png"",""time"":496},{""stimulus"":""img/1to2/6.png"",""time"":595},{""stimulus"":""img/1to2/7.png"",""time"":694},{""stimulus"":""img/1to2/8.png"",""time"":793},{""stimulus"":""img/1to2/9.png"",""time"":891},{""stimulus"":""img/1to2/10.png"",""time"":992},{""stimulus"":""img/1to2/11.png"",""time"":1089},{""stimulus"":""img/1to2/12.png"",""time"":1190}]","[]"
"image-keyboard-response","64","96063","0.0-5.0-1.30","64057cd2806cfdca58f0de34","bdp_cybrbll","Sat Mar 25 2023 19:38:44 GMT-0700 (Pacific Daylight Time)","440152","3","1","","409","","","","choice","","img/2to1/1.png","2","195","662","0.5","0.5","2","3","",""
"animation","65","97352","0.0-5.0-2.30","64057cd2806cfdca58f0de34","bdp_cybrbll","Sat Mar 25 2023 19:38:44 GMT-0700 (Pacific Daylight Time)","440152","3","1","","","","","","","","","","195","","","","2","3","[{""stimulus"":""img/2to3/1.png"",""time"":100},{""stimulus"":""img/2to3/2.png"",""time"":198},{""stimulus"":""img/2to3/3.png"",""time"":299},{""stimulus"":""img/2to3/4.png"",""time"":397},{""stimulus"":""img/2to3/5.png"",""time"":497},{""stimulus"":""img/2to3/6.png"",""time"":595},{""stimulus"":""img/2to3/7.png"",""time"":694},{""stimulus"":""img/2to3/8.png"",""time"":793},{""stimulus"":""img/2to3/9.png"",""time"":891},{""stimulus"":""img/2to3/10.png"",""time"":991},{""stimulus"":""img/2to3/11.png"",""time"":1090},{""stimulus"":""img/2to3/12.png"",""time"":1189}]","[]"
"image-keyboard-response","66","97619","0.0-5.0-1.31","64057cd2806cfdca58f0de34","bdp_cybrbll","Sat Mar 25 2023 19:38:44 GMT-0700 (Pacific Daylight Time)","440152","3","1","","null","","","","observe","","img/3to2/1.png","null","194","265","0.5","0.5","3","1","",""
"animation","67","98906","0.0-5.0-2.31","64057cd2806cfdca58f0de34","bdp_cybrbll","Sat Mar 25 2023 19:38:44 GMT-0700 (Pacific Daylight Time)","440152","3","1","","","","","","","","","","194","","","","3","1","[{""stimulus"":""img/3to1/1.png"",""time"":99},{""stimulus"":""img/3to1/2.png"",""time"":198},{""stimulus"":""img/3to1/3.png"",""time"":297},{""stimulus"":""img/3to1/4.png"",""time"":396},{""stimulus"":""img/3to1/5.png"",""time"":495},{""stimulus"":""img/3to1/6.png"",""time"":594},{""stimulus"":""img/3to1/7.png"",""time"":694},{""stimulus"":""img/3to1/8.png"",""time"":793},{""stimulus"":""img/3to1/9.png"",""time"":893},{""stimulus"":""img/3to1/10.png"",""time"":990},{""stimulus"":""img/3to1/11.png"",""time"":1089},{""stimulus"":""img/3to1/12.png"",""time"":1188}]","[]"
"image-keyboard-response","68","99803","0.0-5.0-1.32","64057cd2806cfdca58f0de34","bdp_cybrbll","Sat Mar 25 2023 19:38:44 GMT-0700 (Pacific Daylight Time)","440152","3","1","","null","","","","observe","","img/1to3/1.png","null","193","896","0.5","0.5","1","2","",""
"animation","69","101091","0.0-5.0-2.32","64057cd2806cfdca58f0de34","bdp_cybrbll","Sat Mar 25 2023 19:38:44 GMT-0700 (Pacific Daylight Time)","440152","3","1","","","","","","","","","","193","","","","1","2","[{""stimulus"":""img/1to2/1.png"",""time"":101},{""stimulus"":""img/1to2/2.png"",""time"":198},{""stimulus"":""img/1to2/3.png"",""time"":297},{""stimulus"":""img/1to2/4.png"",""time"":397},{""stimulus"":""img/1to2/5.png"",""time"":496},{""stimulus"":""img/1to2/6.png"",""time"":594},{""stimulus"":""img/1to2/7.png"",""time"":694},{""stimulus"":""img/1to2/8.png"",""time"":792},{""stimulus"":""img/1to2/9.png"",""time"":891},{""stimulus"":""img/1to2/10.png"",""time"":990},{""stimulus"":""img/1to2/11.png"",""time"":1089},{""stimulus"":""img/1to2/12.png"",""time"":1188}]","[]"
"image-keyboard-response","70","101557","0.0-5.0-1.33","64057cd2806cfdca58f0de34","bdp_cybrbll","Sat Mar 25 2023 19:38:44 GMT-0700 (Pacific Daylight Time)","440152","3","1","","465","","","","choice","","img/2to1/1.png","2","192","391","0.5","0.5","2","3","",""
"animation","71","102844","0.0-5.0-2.33","64057cd2806cfdca58f0de34","bdp_cybrbll","Sat Mar 25 2023 19:38:44 GMT-0700 (Pacific Daylight Time)","440152","3","1","","","","","","","","","","192","","","","2","3","[{""stimulus"":""img/2to3/1.png"",""time"":100},{""stimulus"":""img/2to3/2.png"",""time"":199},{""stimulus"":""img/2to3/3.png"",""time"":297},{""stimulus"":""img/2to3/4.png"",""time"":397},{""stimulus"":""img/2to3/5.png"",""time"":496},{""stimulus"":""img/2to3/6.png"",""time"":595},{""stimulus"":""img/2to3/7.png"",""time"":694},{""stimulus"":""img/2to3/8.png"",""time"":793},{""stimulus"":""img/2to3/9.png"",""time"":892},{""stimulus"":""img/2to3/10.png"",""time"":991},{""stimulus"":""img/2to3/11.png"",""time"":1090},{""stimulus"":""img/2to3/12.png"",""time"":1189}]","[]"
"image-keyboard-response","72","103112","0.0-5.0-1.34","64057cd2806cfdca58f0de34","bdp_cybrbll","Sat Mar 25 2023 19:38:44 GMT-0700 (Pacific Daylight Time)","440152","3","1","","null","","","","observe","","img/3to2/1.png","null","191","267","0.5","0.5","3","2","",""
"animation","73","104498","0.0-5.0-2.34","64057cd2806cfdca58f0de34","bdp_cybrbll","Sat Mar 25 2023 19:38:44 GMT-0700 (Pacific Daylight Time)","440152","3","1","","","","","","","","","","191","","","","3","2","[{""stimulus"":""img/3to2/1.png"",""time"":99},{""stimulus"":""img/3to2/2.png"",""time"":199},{""stimulus"":""img/3to2/3.png"",""time"":298},{""stimulus"":""img/3to2/4.png"",""time"":397},{""stimulus"":""img/3to2/5.png"",""time"":495},{""stimulus"":""img/3to2/6.png"",""time"":594},{""stimulus"":""img/3to2/7.png"",""time"":695},{""stimulus"":""img/3to2/8.png"",""time"":792},{""stimulus"":""img/3to2/9.png"",""time"":892},{""stimulus"":""img/3to2/10.png"",""time"":990},{""stimulus"":""img/3to2/11.png"",""time"":1089},{""stimulus"":""img/3to2/12.png"",""time"":1189}]","[]"
"image-keyboard-response","74","104741","0.0-5.0-1.35","64057cd2806cfdca58f0de34","bdp_cybrbll","Sat Mar 25 2023 19:38:44 GMT-0700 (Pacific Daylight Time)","440152","3","1","","242","","","","choice","","img/2to1/1.png","1","190","198","0.5","0.5","2","1","",""
"animation","75","106029","0.0-5.0-2.35","64057cd2806cfdca58f0de34","bdp_cybrbll","Sat Mar 25 2023 19:38:44 GMT-0700 (Pacific Daylight Time)","440152","3","1","","","","","","","","","","190","","","","2","1","[{""stimulus"":""img/2to1/1.png"",""time"":99},{""stimulus"":""img/2to1/2.png"",""time"":198},{""stimulus"":""img/2to1/3.png"",""time"":299},{""stimulus"":""img/2to1/4.png"",""time"":398},{""stimulus"":""img/2to1/5.png"",""time"":495},{""stimulus"":""img/2to1/6.png"",""time"":595},{""stimulus"":""img/2to1/7.png"",""time"":693},{""stimulus"":""img/2to1/8.png"",""time"":792},{""stimulus"":""img/2to1/9.png"",""time"":892},{""stimulus"":""img/2to1/10.png"",""time"":990},{""stimulus"":""img/2to1/11.png"",""time"":1090},{""stimulus"":""img/2to1/12.png"",""time"":1188}]","[]"
"image-keyboard-response","76","106391","0.0-5.0-1.36","64057cd2806cfdca58f0de34","bdp_cybrbll","Sat Mar 25 2023 19:38:44 GMT-0700 (Pacific Daylight Time)","440152","3","1","","null","","","","observe","","img/1to3/1.png","null","189","362","0.5","0.5","1","2","",""
"animation","77","107678","0.0-5.0-2.36","64057cd2806cfdca58f0de34","bdp_cybrbll","Sat Mar 25 2023 19:38:44 GMT-0700 (Pacific Daylight Time)","440152","3","1","","","","","","","","","","189","","","","1","2","[{""stimulus"":""img/1to2/1.png"",""time"":100},{""stimulus"":""img/1to2/2.png"",""time"":199},{""stimulus"":""img/1to2/3.png"",""time"":299},{""stimulus"":""img/1to2/4.png"",""time"":397},{""stimulus"":""img/1to2/5.png"",""time"":496},{""stimulus"":""img/1to2/6.png"",""time"":595},{""stimulus"":""img/1to2/7.png"",""time"":694},{""stimulus"":""img/1to2/8.png"",""time"":793},{""stimulus"":""img/1to2/9.png"",""time"":892},{""stimulus"":""img/1to2/10.png"",""time"":992},{""stimulus"":""img/1to2/11.png"",""time"":1090},{""stimulus"":""img/1to2/12.png"",""time"":1188}]","[]"
"image-keyboard-response","78","108067","0.0-5.0-1.37","64057cd2806cfdca58f0de34","bdp_cybrbll","Sat Mar 25 2023 19:38:44 GMT-0700 (Pacific Daylight Time)","440152","3","1","","389","","","","choice","","img/2to1/1.png","2","188","715","0.5","0.5","2","3","",""
"animation","79","109355","0.0-5.0-2.37","64057cd2806cfdca58f0de34","bdp_cybrbll","Sat Mar 25 2023 19:38:44 GMT-0700 (Pacific Daylight Time)","440152","3","1","","","","","","","","","","188","","","","2","3","[{""stimulus"":""img/2to3/1.png"",""time"":100},{""stimulus"":""img/2to3/2.png"",""time"":199},{""stimulus"":""img/2to3/3.png"",""time"":299},{""stimulus"":""img/2to3/4.png"",""time"":397},{""stimulus"":""img/2to3/5.png"",""time"":496},{""stimulus"":""img/2to3/6.png"",""time"":594},{""stimulus"":""img/2to3/7.png"",""time"":694},{""stimulus"":""img/2to3/8.png"",""time"":792},{""stimulus"":""img/2to3/9.png"",""time"":891},{""stimulus"":""img/2to3/10.png"",""time"":991},{""stimulus"":""img/2to3/11.png"",""time"":1089},{""stimulus"":""img/2to3/12.png"",""time"":1189}]","[]"
"image-keyboard-response","80","110226","0.0-5.0-1.38","64057cd2806cfdca58f0de34","bdp_cybrbll","Sat Mar 25 2023 19:38:44 GMT-0700 (Pacific Daylight Time)","440152","3","1","","null","","","","observe","","img/3to2/1.png","null","187","871","0.5","0.5","3","1","",""
"animation","81","111514","0.0-5.0-2.38","64057cd2806cfdca58f0de34","bdp_cybrbll","Sat Mar 25 2023 19:38:44 GMT-0700 (Pacific Daylight Time)","440152","3","1","","","","","","","","","","187","","","","3","1","[{""stimulus"":""img/3to1/1.png"",""time"":101},{""stimulus"":""img/3to1/2.png"",""time"":199},{""stimulus"":""img/3to1/3.png"",""time"":298},{""stimulus"":""img/3to1/4.png"",""time"":397},{""stimulus"":""img/3to1/5.png"",""time"":496},{""stimulus"":""img/3to1/6.png"",""time"":596},{""stimulus"":""img/3to1/7.png"",""time"":695},{""stimulus"":""img/3to1/8.png"",""time"":794},{""stimulus"":""img/3to1/9.png"",""time"":893},{""stimulus"":""img/3to1/10.png"",""time"":992},{""stimulus"":""img/3to1/11.png"",""time"":1091},{""stimulus"":""img/3to1/12.png"",""time"":1189}]","[]"
"image-keyboard-response","82","111765","0.0-5.0-1.39","64057cd2806cfdca58f0de34","bdp_cybrbll","Sat Mar 25 2023 19:38:44 GMT-0700 (Pacific Daylight Time)","440152","3","1","","null","","","","observe","","img/1to3/1.png","null","186","250","0.5","0.5","1","2","",""
"animation","83","113053","0.0-5.0-2.39","64057cd2806cfdca58f0de34","bdp_cybrbll","Sat Mar 25 2023 19:38:44 GMT-0700 (Pacific Daylight Time)","440152","3","1","","","","","","","","","","186","","","","1","2","[{""stimulus"":""img/1to2/1.png"",""time"":100},{""stimulus"":""img/1to2/2.png"",""time"":199},{""stimulus"":""img/1to2/3.png"",""time"":298},{""stimulus"":""img/1to2/4.png"",""time"":398},{""stimulus"":""img/1to2/5.png"",""time"":497},{""stimulus"":""img/1to2/6.png"",""time"":597},{""stimulus"":""img/1to2/7.png"",""time"":694},{""stimulus"":""img/1to2/8.png"",""time"":795},{""stimulus"":""img/1to2/9.png"",""time"":893},{""stimulus"":""img/1to2/10.png"",""time"":991},{""stimulus"":""img/1to2/11.png"",""time"":1090},{""stimulus"":""img/1to2/12.png"",""time"":1191}]","[]"
"image-keyboard-response","84","113437","0.0-5.0-1.40","64057cd2806cfdca58f0de34","bdp_cybrbll","Sat Mar 25 2023 19:38:44 GMT-0700 (Pacific Daylight Time)","440152","3","1","","384","","","","choice","","img/2to1/1.png","2","185","276","0.5","0.5","2","3","",""
"animation","85","114724","0.0-5.0-2.40","64057cd2806cfdca58f0de34","bdp_cybrbll","Sat Mar 25 2023 19:38:44 GMT-0700 (Pacific Daylight Time)","440152","3","1","","","","","","","","","","185","","","","2","3","[{""stimulus"":""img/2to3/1.png"",""time"":99},{""stimulus"":""img/2to3/2.png"",""time"":198},{""stimulus"":""img/2to3/3.png"",""time"":310},{""stimulus"":""img/2to3/4.png"",""time"":397},{""stimulus"":""img/2to3/5.png"",""time"":496},{""stimulus"":""img/2to3/6.png"",""time"":596},{""stimulus"":""img/2to3/7.png"",""time"":693},{""stimulus"":""img/2to3/8.png"",""time"":792},{""stimulus"":""img/2to3/9.png"",""time"":891},{""stimulus"":""img/2to3/10.png"",""time"":990},{""stimulus"":""img/2to3/11.png"",""time"":1089},{""stimulus"":""img/2to3/12.png"",""time"":1189}]","[]"
"image-keyboard-response","86","115490","0.0-5.0-1.41","64057cd2806cfdca58f0de34","bdp_cybrbll","Sat Mar 25 2023 19:38:44 GMT-0700 (Pacific Daylight Time)","440152","3","1","","null","","","","observe","","img/3to2/1.png","null","184","765","0.5","0.5","3","2","",""
"animation","87","116779","0.0-5.0-2.41","64057cd2806cfdca58f0de34","bdp_cybrbll","Sat Mar 25 2023 19:38:44 GMT-0700 (Pacific Daylight Time)","440152","3","1","","","","","","","","","","184","","","","3","2","[{""stimulus"":""img/3to2/1.png"",""time"":100},{""stimulus"":""img/3to2/2.png"",""time"":199},{""stimulus"":""img/3to2/3.png"",""time"":297},{""stimulus"":""img/3to2/4.png"",""time"":396},{""stimulus"":""img/3to2/5.png"",""time"":497},{""stimulus"":""img/3to2/6.png"",""time"":594},{""stimulus"":""img/3to2/7.png"",""time"":694},{""stimulus"":""img/3to2/8.png"",""time"":793},{""stimulus"":""img/3to2/9.png"",""time"":891},{""stimulus"":""img/3to2/10.png"",""time"":991},{""stimulus"":""img/3to2/11.png"",""time"":1090},{""stimulus"":""img/3to2/12.png"",""time"":1189}]","[]"
"image-keyboard-response","88","116918","0.0-5.0-1.42","64057cd2806cfdca58f0de34","bdp_cybrbll","Sat Mar 25 2023 19:38:44 GMT-0700 (Pacific Daylight Time)","440152","3","1","","139","","","","choice","","img/2to1/1.png","1","183","235","0.5","0.5","2","1","",""
"animation","89","118206","0.0-5.0-2.42","64057cd2806cfdca58f0de34","bdp_cybrbll","Sat Mar 25 2023 19:38:44 GMT-0700 (Pacific Daylight Time)","440152","3","1","","","","","","","","","","183","","","","2","1","[{""stimulus"":""img/2to1/1.png"",""time"":99},{""stimulus"":""img/2to1/2.png"",""time"":198},{""stimulus"":""img/2to1/3.png"",""time"":297},{""stimulus"":""img/2to1/4.png"",""time"":397},{""stimulus"":""img/2to1/5.png"",""time"":495},{""stimulus"":""img/2to1/6.png"",""time"":594},{""stimulus"":""img/2to1/7.png"",""time"":694},{""stimulus"":""img/2to1/8.png"",""time"":793},{""stimulus"":""img/2to1/9.png"",""time"":891},{""stimulus"":""img/2to1/10.png"",""time"":991},{""stimulus"":""img/2to1/11.png"",""time"":1090},{""stimulus"":""img/2to1/12.png"",""time"":1189}]","[]"
"image-keyboard-response","90","119678","0.0-5.0-1.43","64057cd2806cfdca58f0de34","bdp_cybrbll","Sat Mar 25 2023 19:38:44 GMT-0700 (Pacific Daylight Time)","440152","3","1","","null","","","","observe","","img/1to3/1.png","null","182","1471","0.5","0.5","1","3","",""
"animation","91","120967","0.0-5.0-2.43","64057cd2806cfdca58f0de34","bdp_cybrbll","Sat Mar 25 2023 19:38:44 GMT-0700 (Pacific Daylight Time)","440152","3","1","","","","","","","","","","182","","","","1","3","[{""stimulus"":""img/1to3/1.png"",""time"":100},{""stimulus"":""img/1to3/2.png"",""time"":199},{""stimulus"":""img/1to3/3.png"",""time"":298},{""stimulus"":""img/1to3/4.png"",""time"":398},{""stimulus"":""img/1to3/5.png"",""time"":496},{""stimulus"":""img/1to3/6.png"",""time"":595},{""stimulus"":""img/1to3/7.png"",""time"":695},{""stimulus"":""img/1to3/8.png"",""time"":793},{""stimulus"":""img/1to3/9.png"",""time"":892},{""stimulus"":""img/1to3/10.png"",""time"":991},{""stimulus"":""img/1to3/11.png"",""time"":1090},{""stimulus"":""img/1to3/12.png"",""time"":1189}]","[]"
"image-keyboard-response","92","121431","0.0-5.0-1.44","64057cd2806cfdca58f0de34","bdp_cybrbll","Sat Mar 25 2023 19:38:44 GMT-0700 (Pacific Daylight Time)","440152","3","1","","null","","","","observe","","img/3to2/1.png","null","181","462","0.5","0.5","3","1","",""
"animation","93","122718","0.0-5.0-2.44","64057cd2806cfdca58f0de34","bdp_cybrbll","Sat Mar 25 2023 19:38:44 GMT-0700 (Pacific Daylight Time)","440152","3","1","","","","","","","","","","181","","","","3","1","[{""stimulus"":""img/3to1/1.png"",""time"":99},{""stimulus"":""img/3to1/2.png"",""time"":199},{""stimulus"":""img/3to1/3.png"",""time"":297},{""stimulus"":""img/3to1/4.png"",""time"":397},{""stimulus"":""img/3to1/5.png"",""time"":497},{""stimulus"":""img/3to1/6.png"",""time"":595},{""stimulus"":""img/3to1/7.png"",""time"":694},{""stimulus"":""img/3to1/8.png"",""time"":793},{""stimulus"":""img/3to1/9.png"",""time"":892},{""stimulus"":""img/3to1/10.png"",""time"":991},{""stimulus"":""img/3to1/11.png"",""time"":1089},{""stimulus"":""img/3to1/12.png"",""time"":1189}]","[]"
"image-keyboard-response","94","123560","0.0-5.0-1.45","64057cd2806cfdca58f0de34","bdp_cybrbll","Sat Mar 25 2023 19:38:44 GMT-0700 (Pacific Daylight Time)","440152","3","1","","null","","","","observe","","img/1to3/1.png","null","180","839","0.5","0.5","1","3","",""
"animation","95","124847","0.0-5.0-2.45","64057cd2806cfdca58f0de34","bdp_cybrbll","Sat Mar 25 2023 19:38:44 GMT-0700 (Pacific Daylight Time)","440152","3","1","","","","","","","","","","180","","","","1","3","[{""stimulus"":""img/1to3/1.png"",""time"":99},{""stimulus"":""img/1to3/2.png"",""time"":199},{""stimulus"":""img/1to3/3.png"",""time"":299},{""stimulus"":""img/1to3/4.png"",""time"":397},{""stimulus"":""img/1to3/5.png"",""time"":495},{""stimulus"":""img/1to3/6.png"",""time"":594},{""stimulus"":""img/1to3/7.png"",""time"":694},{""stimulus"":""img/1to3/8.png"",""time"":793},{""stimulus"":""img/1to3/9.png"",""time"":892},{""stimulus"":""img/1to3/10.png"",""time"":991},{""stimulus"":""img/1to3/11.png"",""time"":1090},{""stimulus"":""img/1to3/12.png"",""time"":1189}]","[]"
"image-keyboard-response","96","125557","0.0-5.0-1.46","64057cd2806cfdca58f0de34","bdp_cybrbll","Sat Mar 25 2023 19:38:44 GMT-0700 (Pacific Daylight Time)","440152","3","1","","null","","","","observe","","img/3to2/1.png","null","179","709","0.5","0.5","3","1","",""
"animation","97","126845","0.0-5.0-2.46","64057cd2806cfdca58f0de34","bdp_cybrbll","Sat Mar 25 2023 19:38:44 GMT-0700 (Pacific Daylight Time)","440152","3","1","","","","","","","","","","179","","","","3","1","[{""stimulus"":""img/3to1/1.png"",""time"":100},{""stimulus"":""img/3to1/2.png"",""time"":199},{""stimulus"":""img/3to1/3.png"",""time"":299},{""stimulus"":""img/3to1/4.png"",""time"":397},{""stimulus"":""img/3to1/5.png"",""time"":496},{""stimulus"":""img/3to1/6.png"",""time"":595},{""stimulus"":""img/3to1/7.png"",""time"":694},{""stimulus"":""img/3to1/8.png"",""time"":794},{""stimulus"":""img/3to1/9.png"",""time"":891},{""stimulus"":""img/3to1/10.png"",""time"":990},{""stimulus"":""img/3to1/11.png"",""time"":1090},{""stimulus"":""img/3to1/12.png"",""time"":1190}]","[]"
"image-keyboard-response","98","127121","0.0-5.0-1.47","64057cd2806cfdca58f0de34","bdp_cybrbll","Sat Mar 25 2023 19:38:44 GMT-0700 (Pacific Daylight Time)","440152","3","1","","null","","","","observe","","img/1to3/1.png","null","178","276","0.5","0.5","1","3","",""
"animation","99","128409","0.0-5.0-2.47","64057cd2806cfdca58f0de34","bdp_cybrbll","Sat Mar 25 2023 19:38:44 GMT-0700 (Pacific Daylight Time)","440152","3","1","","","","","","","","","","178","","","","1","3","[{""stimulus"":""img/1to3/1.png"",""time"":101},{""stimulus"":""img/1to3/2.png"",""time"":200},{""stimulus"":""img/1to3/3.png"",""time"":299},{""stimulus"":""img/1to3/4.png"",""time"":397},{""stimulus"":""img/1to3/5.png"",""time"":496},{""stimulus"":""img/1to3/6.png"",""time"":595},{""stimulus"":""img/1to3/7.png"",""time"":695},{""stimulus"":""img/1to3/8.png"",""time"":793},{""stimulus"":""img/1to3/9.png"",""time"":893},{""stimulus"":""img/1to3/10.png"",""time"":992},{""stimulus"":""img/1to3/11.png"",""time"":1090},{""stimulus"":""img/1to3/12.png"",""time"":1190}]","[]"
"image-keyboard-response","100","128608","0.0-5.0-1.48","64057cd2806cfdca58f0de34","bdp_cybrbll","Sat Mar 25 2023 19:38:44 GMT-0700 (Pacific Daylight Time)","440152","3","1","","null","","","","observe","","img/3to2/1.png","null","177","197","0.5","0.5","3","1","",""
"animation","101","129896","0.0-5.0-2.48","64057cd2806cfdca58f0de34","bdp_cybrbll","Sat Mar 25 2023 19:38:44 GMT-0700 (Pacific Daylight Time)","440152","3","1","","","","","","","","","","177","","","","3","1","[{""stimulus"":""img/3to1/1.png"",""time"":100},{""stimulus"":""img/3to1/2.png"",""time"":200},{""stimulus"":""img/3to1/3.png"",""time"":299},{""stimulus"":""img/3to1/4.png"",""time"":396},{""stimulus"":""img/3to1/5.png"",""time"":496},{""stimulus"":""img/3to1/6.png"",""time"":594},{""stimulus"":""img/3to1/7.png"",""time"":695},{""stimulus"":""img/3to1/8.png"",""time"":793},{""stimulus"":""img/3to1/9.png"",""time"":891},{""stimulus"":""img/3to1/10.png"",""time"":990},{""stimulus"":""img/3to1/11.png"",""time"":1090},{""stimulus"":""img/3to1/12.png"",""time"":1190}]","[]"
"image-keyboard-response","102","130154","0.0-5.0-1.49","64057cd2806cfdca58f0de34","bdp_cybrbll","Sat Mar 25 2023 19:38:44 GMT-0700 (Pacific Daylight Time)","440152","3","1","","null","","","","observe","","img/1to3/1.png","null","176","258","0.5","0.5","1","3","",""
"animation","103","131442","0.0-5.0-2.49","64057cd2806cfdca58f0de34","bdp_cybrbll","Sat Mar 25 2023 19:38:44 GMT-0700 (Pacific Daylight Time)","440152","3","1","","","","","","","","","","176","","","","1","3","[{""stimulus"":""img/1to3/1.png"",""time"":100},{""stimulus"":""img/1to3/2.png"",""time"":199},{""stimulus"":""img/1to3/3.png"",""time"":298},{""stimulus"":""img/1to3/4.png"",""time"":398},{""stimulus"":""img/1to3/5.png"",""time"":496},{""stimulus"":""img/1to3/6.png"",""time"":595},{""stimulus"":""img/1to3/7.png"",""time"":695},{""stimulus"":""img/1to3/8.png"",""time"":794},{""stimulus"":""img/1to3/9.png"",""time"":892},{""stimulus"":""img/1to3/10.png"",""time"":991},{""stimulus"":""img/1to3/11.png"",""time"":1091},{""stimulus"":""img/1to3/12.png"",""time"":1189}]","[]"
"image-keyboard-response","104","131832","0.0-5.0-1.50","64057cd2806cfdca58f0de34","bdp_cybrbll","Sat Mar 25 2023 19:38:44 GMT-0700 (Pacific Daylight Time)","440152","3","1","","null","","","","observe","","img/3to2/1.png","null","175","388","0.5","0.5","3","2","",""
"animation","105","133119","0.0-5.0-2.50","64057cd2806cfdca58f0de34","bdp_cybrbll","Sat Mar 25 2023 19:38:44 GMT-0700 (Pacific Daylight Time)","440152","3","1","","","","","","","","","","175","","","","3","2","[{""stimulus"":""img/3to2/1.png"",""time"":100},{""stimulus"":""img/3to2/2.png"",""time"":200},{""stimulus"":""img/3to2/3.png"",""time"":299},{""stimulus"":""img/3to2/4.png"",""time"":397},{""stimulus"":""img/3to2/5.png"",""time"":496},{""stimulus"":""img/3to2/6.png"",""time"":595},{""stimulus"":""img/3to2/7.png"",""time"":694},{""stimulus"":""img/3to2/8.png"",""time"":793},{""stimulus"":""img/3to2/9.png"",""time"":892},{""stimulus"":""img/3to2/10.png"",""time"":991},{""stimulus"":""img/3to2/11.png"",""time"":1090},{""stimulus"":""img/3to2/12.png"",""time"":1190}]","[]"
"image-keyboard-response","106","133541","0.0-5.0-1.51","64057cd2806cfdca58f0de34","bdp_cybrbll","Sat Mar 25 2023 19:38:44 GMT-0700 (Pacific Daylight Time)","440152","3","1","","421","","","","choice","","img/2to1/1.png","1","174","1130","0.5","0.5","2","1","",""
"animation","107","134829","0.0-5.0-2.51","64057cd2806cfdca58f0de34","bdp_cybrbll","Sat Mar 25 2023 19:38:44 GMT-0700 (Pacific Daylight Time)","440152","3","1","","","","","","","","","","174","","","","2","1","[{""stimulus"":""img/2to1/1.png"",""time"":100},{""stimulus"":""img/2to1/2.png"",""time"":199},{""stimulus"":""img/2to1/3.png"",""time"":298},{""stimulus"":""img/2to1/4.png"",""time"":398},{""stimulus"":""img/2to1/5.png"",""time"":497},{""stimulus"":""img/2to1/6.png"",""time"":595},{""stimulus"":""img/2to1/7.png"",""time"":693},{""stimulus"":""img/2to1/8.png"",""time"":793},{""stimulus"":""img/2to1/9.png"",""time"":892},{""stimulus"":""img/2to1/10.png"",""time"":992},{""stimulus"":""img/2to1/11.png"",""time"":1091},{""stimulus"":""img/2to1/12.png"",""time"":1189}]","[]"
"image-keyboard-response","108","135185","0.0-5.0-1.52","64057cd2806cfdca58f0de34","bdp_cybrbll","Sat Mar 25 2023 19:38:44 GMT-0700 (Pacific Daylight Time)","440152","3","1","","null","","","","observe","","img/1to3/1.png","null","173","354","0.5","0.5","1","2","",""
"animation","109","136472","0.0-5.0-2.52","64057cd2806cfdca58f0de34","bdp_cybrbll","Sat Mar 25 2023 19:38:44 GMT-0700 (Pacific Daylight Time)","440152","3","1","","","","","","","","","","173","","","","1","2","[{""stimulus"":""img/1to2/1.png"",""time"":100},{""stimulus"":""img/1to2/2.png"",""time"":199},{""stimulus"":""img/1to2/3.png"",""time"":297},{""stimulus"":""img/1to2/4.png"",""time"":396},{""stimulus"":""img/1to2/5.png"",""time"":495},{""stimulus"":""img/1to2/6.png"",""time"":595},{""stimulus"":""img/1to2/7.png"",""time"":693},{""stimulus"":""img/1to2/8.png"",""time"":792},{""stimulus"":""img/1to2/9.png"",""time"":891},{""stimulus"":""img/1to2/10.png"",""time"":990},{""stimulus"":""img/1to2/11.png"",""time"":1090},{""stimulus"":""img/1to2/12.png"",""time"":1190}]","[]"
"image-keyboard-response","110","136891","0.0-5.0-1.53","64057cd2806cfdca58f0de34","bdp_cybrbll","Sat Mar 25 2023 19:38:44 GMT-0700 (Pacific Daylight Time)","440152","3","1","","419","","","","choice","","img/2to1/1.png","2","172","579","0.5","0.5","2","3","",""
"animation","111","138178","0.0-5.0-2.53","64057cd2806cfdca58f0de34","bdp_cybrbll","Sat Mar 25 2023 19:38:44 GMT-0700 (Pacific Daylight Time)","440152","3","1","","","","","","","","","","172","","","","2","3","[{""stimulus"":""img/2to3/1.png"",""time"":100},{""stimulus"":""img/2to3/2.png"",""time"":200},{""stimulus"":""img/2to3/3.png"",""time"":298},{""stimulus"":""img/2to3/4.png"",""time"":397},{""stimulus"":""img/2to3/5.png"",""time"":496},{""stimulus"":""img/2to3/6.png"",""time"":594},{""stimulus"":""img/2to3/7.png"",""time"":694},{""stimulus"":""img/2to3/8.png"",""time"":793},{""stimulus"":""img/2to3/9.png"",""time"":893},{""stimulus"":""img/2to3/10.png"",""time"":991},{""stimulus"":""img/2to3/11.png"",""time"":1090},{""stimulus"":""img/2to3/12.png"",""time"":1188}]","[]"
"image-keyboard-response","112","138692","0.0-5.0-1.54","64057cd2806cfdca58f0de34","bdp_cybrbll","Sat Mar 25 2023 19:38:44 GMT-0700 (Pacific Daylight Time)","440152","3","1","","null","","","","observe","","img/3to2/1.png","null","171","513","0.5","0.5","3","2","",""
"animation","113","139980","0.0-5.0-2.54","64057cd2806cfdca58f0de34","bdp_cybrbll","Sat Mar 25 2023 19:38:44 GMT-0700 (Pacific Daylight Time)","440152","3","1","","","","","","","","","","171","","","","3","2","[{""stimulus"":""img/3to2/1.png"",""time"":100},{""stimulus"":""img/3to2/2.png"",""time"":199},{""stimulus"":""img/3to2/3.png"",""time"":298},{""stimulus"":""img/3to2/4.png"",""time"":397},{""stimulus"":""img/3to2/5.png"",""time"":496},{""stimulus"":""img/3to2/6.png"",""time"":595},{""stimulus"":""img/3to2/7.png"",""time"":694},{""stimulus"":""img/3to2/8.png"",""time"":793},{""stimulus"":""img/3to2/9.png"",""time"":892},{""stimulus"":""img/3to2/10.png"",""time"":991},{""stimulus"":""img/3to2/11.png"",""time"":1091},{""stimulus"":""img/3to2/12.png"",""time"":1189}]","[]"
"image-keyboard-response","114","140290","0.0-5.0-1.55","64057cd2806cfdca58f0de34","bdp_cybrbll","Sat Mar 25 2023 19:38:44 GMT-0700 (Pacific Daylight Time)","440152","3","1","","309","","","","choice","","img/2to1/1.png","1","170","526","0.5","0.5","2","1","",""
"animation","115","141577","0.0-5.0-2.55","64057cd2806cfdca58f0de34","bdp_cybrbll","Sat Mar 25 2023 19:38:44 GMT-0700 (Pacific Daylight Time)","440152","3","1","","","","","","","","","","170","","","","2","1","[{""stimulus"":""img/2to1/1.png"",""time"":99},{""stimulus"":""img/2to1/2.png"",""time"":198},{""stimulus"":""img/2to1/3.png"",""time"":298},{""stimulus"":""img/2to1/4.png"",""time"":396},{""stimulus"":""img/2to1/5.png"",""time"":495},{""stimulus"":""img/2to1/6.png"",""time"":594},{""stimulus"":""img/2to1/7.png"",""time"":693},{""stimulus"":""img/2to1/8.png"",""time"":792},{""stimulus"":""img/2to1/9.png"",""time"":892},{""stimulus"":""img/2to1/10.png"",""time"":991},{""stimulus"":""img/2to1/11.png"",""time"":1090},{""stimulus"":""img/2to1/12.png"",""time"":1188}]","[]"
"image-keyboard-response","116","141789","0.0-5.0-1.56","64057cd2806cfdca58f0de34","bdp_cybrbll","Sat Mar 25 2023 19:38:44 GMT-0700 (Pacific Daylight Time)","440152","3","1","","null","","","","observe","","img/1to3/1.png","null","169","212","0.5","0.5","1","3","",""
"animation","117","143078","0.0-5.0-2.56","64057cd2806cfdca58f0de34","bdp_cybrbll","Sat Mar 25 2023 19:38:44 GMT-0700 (Pacific Daylight Time)","440152","3","1","","","","","","","","","","169","","","","1","3","[{""stimulus"":""img/1to3/1.png"",""time"":102},{""stimulus"":""img/1to3/2.png"",""time"":199},{""stimulus"":""img/1to3/3.png"",""time"":298},{""stimulus"":""img/1to3/4.png"",""time"":397},{""stimulus"":""img/1to3/5.png"",""time"":496},{""stimulus"":""img/1to3/6.png"",""time"":595},{""stimulus"":""img/1to3/7.png"",""time"":694},{""stimulus"":""img/1to3/8.png"",""time"":793},{""stimulus"":""img/1to3/9.png"",""time"":893},{""stimulus"":""img/1to3/10.png"",""time"":992},{""stimulus"":""img/1to3/11.png"",""time"":1091},{""stimulus"":""img/1to3/12.png"",""time"":1189}]","[]"
"image-keyboard-response","118","143747","0.0-5.0-1.57","64057cd2806cfdca58f0de34","bdp_cybrbll","Sat Mar 25 2023 19:38:44 GMT-0700 (Pacific Daylight Time)","440152","3","1","","null","","","","observe","","img/3to2/1.png","null","168","666","0.5","0.5","3","2","",""
"animation","119","145034","0.0-5.0-2.57","64057cd2806cfdca58f0de34","bdp_cybrbll","Sat Mar 25 2023 19:38:44 GMT-0700 (Pacific Daylight Time)","440152","3","1","","","","","","","","","","168","","","","3","2","[{""stimulus"":""img/3to2/1.png"",""time"":100},{""stimulus"":""img/3to2/2.png"",""time"":198},{""stimulus"":""img/3to2/3.png"",""time"":297},{""stimulus"":""img/3to2/4.png"",""time"":397},{""stimulus"":""img/3to2/5.png"",""time"":495},{""stimulus"":""img/3to2/6.png"",""time"":595},{""stimulus"":""img/3to2/7.png"",""time"":694},{""stimulus"":""img/3to2/8.png"",""time"":793},{""stimulus"":""img/3to2/9.png"",""time"":893},{""stimulus"":""img/3to2/10.png"",""time"":990},{""stimulus"":""img/3to2/11.png"",""time"":1090},{""stimulus"":""img/3to2/12.png"",""time"":1188}]","[]"
"image-keyboard-response","120","145468","0.0-5.0-1.58","64057cd2806cfdca58f0de34","bdp_cybrbll","Sat Mar 25 2023 19:38:44 GMT-0700 (Pacific Daylight Time)","440152","3","1","","433","","","","choice","","img/2to1/1.png","1","167","180","0.5","0.5","2","1","",""
"animation","121","146756","0.0-5.0-2.58","64057cd2806cfdca58f0de34","bdp_cybrbll","Sat Mar 25 2023 19:38:44 GMT-0700 (Pacific Daylight Time)","440152","3","1","","","","","","","","","","167","","","","2","1","[{""stimulus"":""img/2to1/1.png"",""time"":100},{""stimulus"":""img/2to1/2.png"",""time"":198},{""stimulus"":""img/2to1/3.png"",""time"":298},{""stimulus"":""img/2to1/4.png"",""time"":401},{""stimulus"":""img/2to1/5.png"",""time"":496},{""stimulus"":""img/2to1/6.png"",""time"":594},{""stimulus"":""img/2to1/7.png"",""time"":693},{""stimulus"":""img/2to1/8.png"",""time"":793},{""stimulus"":""img/2to1/9.png"",""time"":892},{""stimulus"":""img/2to1/10.png"",""time"":990},{""stimulus"":""img/2to1/11.png"",""time"":1090},{""stimulus"":""img/2to1/12.png"",""time"":1189}]","[]"
"image-keyboard-response","122","147004","0.0-5.0-1.59","64057cd2806cfdca58f0de34","bdp_cybrbll","Sat Mar 25 2023 19:38:44 GMT-0700 (Pacific Daylight Time)","440152","3","1","","null","","","","observe","","img/1to3/1.png","null","166","247","0.5","0.5","1","2","",""
"animation","123","148292","0.0-5.0-2.59","64057cd2806cfdca58f0de34","bdp_cybrbll","Sat Mar 25 2023 19:38:44 GMT-0700 (Pacific Daylight Time)","440152","3","1","","","","","","","","","","166","","","","1","2","[{""stimulus"":""img/1to2/1.png"",""time"":99},{""stimulus"":""img/1to2/2.png"",""time"":199},{""stimulus"":""img/1to2/3.png"",""time"":297},{""stimulus"":""img/1to2/4.png"",""time"":397},{""stimulus"":""img/1to2/5.png"",""time"":496},{""stimulus"":""img/1to2/6.png"",""time"":595},{""stimulus"":""img/1to2/7.png"",""time"":703},{""stimulus"":""img/1to2/8.png"",""time"":792},{""stimulus"":""img/1to2/9.png"",""time"":891},{""stimulus"":""img/1to2/10.png"",""time"":990},{""stimulus"":""img/1to2/11.png"",""time"":1090},{""stimulus"":""img/1to2/12.png"",""time"":1188}]","[]"
"image-keyboard-response","124","148678","0.0-5.0-1.60","64057cd2806cfdca58f0de34","bdp_cybrbll","Sat Mar 25 2023 19:38:44 GMT-0700 (Pacific Daylight Time)","440152","3","1","","385","","","","choice","","img/2to1/1.png","2","165","529","0.5","0.5","2","3","",""
"animation","125","149966","0.0-5.0-2.60","64057cd2806cfdca58f0de34","bdp_cybrbll","Sat Mar 25 2023 19:38:44 GMT-0700 (Pacific Daylight Time)","440152","3","1","","","","","","","","","","165","","","","2","3","[{""stimulus"":""img/2to3/1.png"",""time"":101},{""stimulus"":""img/2to3/2.png"",""time"":198},{""stimulus"":""img/2to3/3.png"",""time"":297},{""stimulus"":""img/2to3/4.png"",""time"":397},{""stimulus"":""img/2to3/5.png"",""time"":495},{""stimulus"":""img/2to3/6.png"",""time"":595},{""stimulus"":""img/2to3/7.png"",""time"":694},{""stimulus"":""img/2to3/8.png"",""time"":793},{""stimulus"":""img/2to3/9.png"",""time"":892},{""stimulus"":""img/2to3/10.png"",""time"":992},{""stimulus"":""img/2to3/11.png"",""time"":1090},{""stimulus"":""img/2to3/12.png"",""time"":1190}]","[]"
"image-keyboard-response","126","150706","0.0-5.0-1.61","64057cd2806cfdca58f0de34","bdp_cybrbll","Sat Mar 25 2023 19:38:44 GMT-0700 (Pacific Daylight Time)","440152","3","1","","null","","","","observe","","img/3to2/1.png","null","164","739","0.5","0.5","3","1","",""
"animation","127","151994","0.0-5.0-2.61","64057cd2806cfdca58f0de34","bdp_cybrbll","Sat Mar 25 2023 19:38:44 GMT-0700 (Pacific Daylight Time)","440152","3","1","","","","","","","","","","164","","","","3","1","[{""stimulus"":""img/3to1/1.png"",""time"":100},{""stimulus"":""img/3to1/2.png"",""time"":199},{""stimulus"":""img/3to1/3.png"",""time"":298},{""stimulus"":""img/3to1/4.png"",""time"":397},{""stimulus"":""img/3to1/5.png"",""time"":496},{""stimulus"":""img/3to1/6.png"",""time"":595},{""stimulus"":""img/3to1/7.png"",""time"":694},{""stimulus"":""img/3to1/8.png"",""time"":793},{""stimulus"":""img/3to1/9.png"",""time"":892},{""stimulus"":""img/3to1/10.png"",""time"":991},{""stimulus"":""img/3to1/11.png"",""time"":1090},{""stimulus"":""img/3to1/12.png"",""time"":1190}]","[]"
"image-keyboard-response","128","152470","0.0-5.0-1.62","64057cd2806cfdca58f0de34","bdp_cybrbll","Sat Mar 25 2023 19:38:44 GMT-0700 (Pacific Daylight Time)","440152","3","1","","null","","","","observe","","img/1to3/1.png","null","163","475","0.5","0.5","1","2","",""
"animation","129","153758","0.0-5.0-2.62","64057cd2806cfdca58f0de34","bdp_cybrbll","Sat Mar 25 2023 19:38:44 GMT-0700 (Pacific Daylight Time)","440152","3","1","","","","","","","","","","163","","","","1","2","[{""stimulus"":""img/1to2/1.png"",""time"":101},{""stimulus"":""img/1to2/2.png"",""time"":200},{""stimulus"":""img/1to2/3.png"",""time"":298},{""stimulus"":""img/1to2/4.png"",""time"":398},{""stimulus"":""img/1to2/5.png"",""time"":497},{""stimulus"":""img/1to2/6.png"",""time"":596},{""stimulus"":""img/1to2/7.png"",""time"":694},{""stimulus"":""img/1to2/8.png"",""time"":793},{""stimulus"":""img/1to2/9.png"",""time"":893},{""stimulus"":""img/1to2/10.png"",""time"":992},{""stimulus"":""img/1to2/11.png"",""time"":1090},{""stimulus"":""img/1to2/12.png"",""time"":1189}]","[]"
"image-keyboard-response","130","154122","0.0-5.0-1.63","64057cd2806cfdca58f0de34","bdp_cybrbll","Sat Mar 25 2023 19:38:44 GMT-0700 (Pacific Daylight Time)","440152","3","1","","363","","","","choice","","img/2to1/1.png","2","162","311","0.5","0.5","2","3","",""
"animation","131","155409","0.0-5.0-2.63","64057cd2806cfdca58f0de34","bdp_cybrbll","Sat Mar 25 2023 19:38:44 GMT-0700 (Pacific Daylight Time)","440152","3","1","","","","","","","","","","162","","","","2","3","[{""stimulus"":""img/2to3/1.png"",""time"":100},{""stimulus"":""img/2to3/2.png"",""time"":199},{""stimulus"":""img/2to3/3.png"",""time"":297},{""stimulus"":""img/2to3/4.png"",""time"":398},{""stimulus"":""img/2to3/5.png"",""time"":498},{""stimulus"":""img/2to3/6.png"",""time"":595},{""stimulus"":""img/2to3/7.png"",""time"":694},{""stimulus"":""img/2to3/8.png"",""time"":792},{""stimulus"":""img/2to3/9.png"",""time"":891},{""stimulus"":""img/2to3/10.png"",""time"":993},{""stimulus"":""img/2to3/11.png"",""time"":1090},{""stimulus"":""img/2to3/12.png"",""time"":1189}]","[]"
"image-keyboard-response","132","155671","0.0-5.0-1.64","64057cd2806cfdca58f0de34","bdp_cybrbll","Sat Mar 25 2023 19:38:44 GMT-0700 (Pacific Daylight Time)","440152","3","1","","null","","","","observe","","img/3to2/1.png","null","161","261","0.5","0.5","3","1","",""
"animation","133","156959","0.0-5.0-2.64","64057cd2806cfdca58f0de34","bdp_cybrbll","Sat Mar 25 2023 19:38:44 GMT-0700 (Pacific Daylight Time)","440152","3","1","","","","","","","","","","161","","","","3","1","[{""stimulus"":""img/3to1/1.png"",""time"":100},{""stimulus"":""img/3to1/2.png"",""time"":200},{""stimulus"":""img/3to1/3.png"",""time"":297},{""stimulus"":""img/3to1/4.png"",""time"":397},{""stimulus"":""img/3to1/5.png"",""time"":497},{""stimulus"":""img/3to1/6.png"",""time"":595},{""stimulus"":""img/3to1/7.png"",""time"":694},{""stimulus"":""img/3to1/8.png"",""time"":793},{""stimulus"":""img/3to1/9.png"",""time"":892},{""stimulus"":""img/3to1/10.png"",""time"":991},{""stimulus"":""img/3to1/11.png"",""time"":1090},{""stimulus"":""img/3to1/12.png"",""time"":1190}]","[]"
"image-keyboard-response","134","157280","0.0-5.0-1.65","64057cd2806cfdca58f0de34","bdp_cybrbll","Sat Mar 25 2023 19:38:44 GMT-0700 (Pacific Daylight Time)","440152","3","1","","null","","","","observe","","img/1to3/1.png","null","160","319","0.5","0.5","1","3","",""
"animation","135","158567","0.0-5.0-2.65","64057cd2806cfdca58f0de34","bdp_cybrbll","Sat Mar 25 2023 19:38:44 GMT-0700 (Pacific Daylight Time)","440152","3","1","","","","","","","","","","160","","","","1","3","[{""stimulus"":""img/1to3/1.png"",""time"":100},{""stimulus"":""img/1to3/2.png"",""time"":198},{""stimulus"":""img/1to3/3.png"",""time"":298},{""stimulus"":""img/1to3/4.png"",""time"":398},{""stimulus"":""img/1to3/5.png"",""time"":497},{""stimulus"":""img/1to3/6.png"",""time"":596},{""stimulus"":""img/1to3/7.png"",""time"":694},{""stimulus"":""img/1to3/8.png"",""time"":792},{""stimulus"":""img/1to3/9.png"",""time"":892},{""stimulus"":""img/1to3/10.png"",""time"":990},{""stimulus"":""img/1to3/11.png"",""time"":1090},{""stimulus"":""img/1to3/12.png"",""time"":1189}]","[]"
"image-keyboard-response","136","158957","0.0-5.0-1.66","64057cd2806cfdca58f0de34","bdp_cybrbll","Sat Mar 25 2023 19:38:44 GMT-0700 (Pacific Daylight Time)","440152","3","1","","null","","","","observe","","img/3to2/1.png","null","159","388","0.5","0.5","3","2","",""
"animation","137","160245","0.0-5.0-2.66","64057cd2806cfdca58f0de34","bdp_cybrbll","Sat Mar 25 2023 19:38:44 GMT-0700 (Pacific Daylight Time)","440152","3","1","","","","","","","","","","159","","","","3","2","[{""stimulus"":""img/3to2/1.png"",""time"":100},{""stimulus"":""img/3to2/2.png"",""time"":199},{""stimulus"":""img/3to2/3.png"",""time"":297},{""stimulus"":""img/3to2/4.png"",""time"":397},{""stimulus"":""img/3to2/5.png"",""time"":496},{""stimulus"":""img/3to2/6.png"",""time"":595},{""stimulus"":""img/3to2/7.png"",""time"":694},{""stimulus"":""img/3to2/8.png"",""time"":793},{""stimulus"":""img/3to2/9.png"",""time"":893},{""stimulus"":""img/3to2/10.png"",""time"":991},{""stimulus"":""img/3to2/11.png"",""time"":1090},{""stimulus"":""img/3to2/12.png"",""time"":1188}]","[]"
"image-keyboard-response","138","160594","0.0-5.0-1.67","64057cd2806cfdca58f0de34","bdp_cybrbll","Sat Mar 25 2023 19:38:44 GMT-0700 (Pacific Daylight Time)","440152","3","1","","349","","","","choice","","img/2to1/1.png","1","158","579","0.5","0.5","2","1","",""
"animation","139","161882","0.0-5.0-2.67","64057cd2806cfdca58f0de34","bdp_cybrbll","Sat Mar 25 2023 19:38:44 GMT-0700 (Pacific Daylight Time)","440152","3","1","","","","","","","","","","158","","","","2","1","[{""stimulus"":""img/2to1/1.png"",""time"":100},{""stimulus"":""img/2to1/2.png"",""time"":200},{""stimulus"":""img/2to1/3.png"",""time"":298},{""stimulus"":""img/2to1/4.png"",""time"":397},{""stimulus"":""img/2to1/5.png"",""time"":496},{""stimulus"":""img/2to1/6.png"",""time"":596},{""stimulus"":""img/2to1/7.png"",""time"":693},{""stimulus"":""img/2to1/8.png"",""time"":793},{""stimulus"":""img/2to1/9.png"",""time"":892},{""stimulus"":""img/2to1/10.png"",""time"":991},{""stimulus"":""img/2to1/11.png"",""time"":1090},{""stimulus"":""img/2to1/12.png"",""time"":1189}]","[]"
"image-keyboard-response","140","162460","0.0-5.0-1.68","64057cd2806cfdca58f0de34","bdp_cybrbll","Sat Mar 25 2023 19:38:44 GMT-0700 (Pacific Daylight Time)","440152","3","1","","null","","","","observe","","img/1to3/1.png","null","157","577","0.5","0.5","1","3","",""
"animation","141","163748","0.0-5.0-2.68","64057cd2806cfdca58f0de34","bdp_cybrbll","Sat Mar 25 2023 19:38:44 GMT-0700 (Pacific Daylight Time)","440152","3","1","","","","","","","","","","157","","","","1","3","[{""stimulus"":""img/1to3/1.png"",""time"":100},{""stimulus"":""img/1to3/2.png"",""time"":198},{""stimulus"":""img/1to3/3.png"",""time"":297},{""stimulus"":""img/1to3/4.png"",""time"":397},{""stimulus"":""img/1to3/5.png"",""time"":496},{""stimulus"":""img/1to3/6.png"",""time"":594},{""stimulus"":""img/1to3/7.png"",""time"":694},{""stimulus"":""img/1to3/8.png"",""time"":793},{""stimulus"":""img/1to3/9.png"",""time"":898},{""stimulus"":""img/1to3/10.png"",""time"":991},{""stimulus"":""img/1to3/11.png"",""time"":1090},{""stimulus"":""img/1to3/12.png"",""time"":1189}]","[]"
"image-keyboard-response","142","164157","0.0-5.0-1.69","64057cd2806cfdca58f0de34","bdp_cybrbll","Sat Mar 25 2023 19:38:44 GMT-0700 (Pacific Daylight Time)","440152","3","1","","null","","","","observe","","img/3to2/1.png","null","156","408","0.5","0.5","3","1","",""
"animation","143","165444","0.0-5.0-2.69","64057cd2806cfdca58f0de34","bdp_cybrbll","Sat Mar 25 2023 19:38:44 GMT-0700 (Pacific Daylight Time)","440152","3","1","","","","","","","","","","156","","","","3","1","[{""stimulus"":""img/3to1/1.png"",""time"":99},{""stimulus"":""img/3to1/2.png"",""time"":199},{""stimulus"":""img/3to1/3.png"",""time"":297},{""stimulus"":""img/3to1/4.png"",""time"":397},{""stimulus"":""img/3to1/5.png"",""time"":495},{""stimulus"":""img/3to1/6.png"",""time"":595},{""stimulus"":""img/3to1/7.png"",""time"":693},{""stimulus"":""img/3to1/8.png"",""time"":793},{""stimulus"":""img/3to1/9.png"",""time"":892},{""stimulus"":""img/3to1/10.png"",""time"":991},{""stimulus"":""img/3to1/11.png"",""time"":1090},{""stimulus"":""img/3to1/12.png"",""time"":1189}]","[]"
"image-keyboard-response","144","166124","0.0-5.0-1.70","64057cd2806cfdca58f0de34","bdp_cybrbll","Sat Mar 25 2023 19:38:44 GMT-0700 (Pacific Daylight Time)","440152","3","1","","null","","","","observe","","img/1to3/1.png","null","155","679","0.5","0.5","1","3","",""
"animation","145","167412","0.0-5.0-2.70","64057cd2806cfdca58f0de34","bdp_cybrbll","Sat Mar 25 2023 19:38:44 GMT-0700 (Pacific Daylight Time)","440152","3","1","","","","","","","","","","155","","","","1","3","[{""stimulus"":""img/1to3/1.png"",""time"":100},{""stimulus"":""img/1to3/2.png"",""time"":199},{""stimulus"":""img/1to3/3.png"",""time"":298},{""stimulus"":""img/1to3/4.png"",""time"":397},{""stimulus"":""img/1to3/5.png"",""time"":496},{""stimulus"":""img/1to3/6.png"",""time"":595},{""stimulus"":""img/1to3/7.png"",""time"":694},{""stimulus"":""img/1to3/8.png"",""time"":793},{""stimulus"":""img/1to3/9.png"",""time"":892},{""stimulus"":""img/1to3/10.png"",""time"":991},{""stimulus"":""img/1to3/11.png"",""time"":1090},{""stimulus"":""img/1to3/12.png"",""time"":1189}]","[]"
"image-keyboard-response","146","167991","0.0-5.0-1.71","64057cd2806cfdca58f0de34","bdp_cybrbll","Sat Mar 25 2023 19:38:44 GMT-0700 (Pacific Daylight Time)","440152","3","1","","null","","","","observe","","img/3to2/1.png","null","154","578","0.5","0.5","3","1","",""
"animation","147","169278","0.0-5.0-2.71","64057cd2806cfdca58f0de34","bdp_cybrbll","Sat Mar 25 2023 19:38:44 GMT-0700 (Pacific Daylight Time)","440152","3","1","","","","","","","","","","154","","","","3","1","[{""stimulus"":""img/3to1/1.png"",""time"":100},{""stimulus"":""img/3to1/2.png"",""time"":200},{""stimulus"":""img/3to1/3.png"",""time"":299},{""stimulus"":""img/3to1/4.png"",""time"":397},{""stimulus"":""img/3to1/5.png"",""time"":496},{""stimulus"":""img/3to1/6.png"",""time"":595},{""stimulus"":""img/3to1/7.png"",""time"":694},{""stimulus"":""img/3to1/8.png"",""time"":793},{""stimulus"":""img/3to1/9.png"",""time"":893},{""stimulus"":""img/3to1/10.png"",""time"":992},{""stimulus"":""img/3to1/11.png"",""time"":1091},{""stimulus"":""img/3to1/12.png"",""time"":1189}]","[]"
"image-keyboard-response","148","169610","0.0-5.0-1.72","64057cd2806cfdca58f0de34","bdp_cybrbll","Sat Mar 25 2023 19:38:44 GMT-0700 (Pacific Daylight Time)","440152","3","1","","null","","","","observe","","img/1to3/1.png","null","153","330","0.5","0.5","1","2","",""
"animation","149","170897","0.0-5.0-2.72","64057cd2806cfdca58f0de34","bdp_cybrbll","Sat Mar 25 2023 19:38:44 GMT-0700 (Pacific Daylight Time)","440152","3","1","","","","","","","","","","153","","","","1","2","[{""stimulus"":""img/1to2/1.png"",""time"":100},{""stimulus"":""img/1to2/2.png"",""time"":199},{""stimulus"":""img/1to2/3.png"",""time"":298},{""stimulus"":""img/1to2/4.png"",""time"":396},{""stimulus"":""img/1to2/5.png"",""time"":496},{""stimulus"":""img/1to2/6.png"",""time"":594},{""stimulus"":""img/1to2/7.png"",""time"":694},{""stimulus"":""img/1to2/8.png"",""time"":792},{""stimulus"":""img/1to2/9.png"",""time"":892},{""stimulus"":""img/1to2/10.png"",""time"":990},{""stimulus"":""img/1to2/11.png"",""time"":1090},{""stimulus"":""img/1to2/12.png"",""time"":1189}]","[]"
"image-keyboard-response","150","171249","0.0-5.0-1.73","64057cd2806cfdca58f0de34","bdp_cybrbll","Sat Mar 25 2023 19:38:44 GMT-0700 (Pacific Daylight Time)","440152","3","1","","351","","","","choice","","img/2to1/1.png","2","152","957","0.5","0.5","2","3","",""
"animation","151","172538","0.0-5.0-2.73","64057cd2806cfdca58f0de34","bdp_cybrbll","Sat Mar 25 2023 19:38:44 GMT-0700 (Pacific Daylight Time)","440152","3","1","","","","","","","","","","152","","","","2","3","[{""stimulus"":""img/2to3/1.png"",""time"":101},{""stimulus"":""img/2to3/2.png"",""time"":199},{""stimulus"":""img/2to3/3.png"",""time"":298},{""stimulus"":""img/2to3/4.png"",""time"":398},{""stimulus"":""img/2to3/5.png"",""time"":496},{""stimulus"":""img/2to3/6.png"",""time"":595},{""stimulus"":""img/2to3/7.png"",""time"":694},{""stimulus"":""img/2to3/8.png"",""time"":793},{""stimulus"":""img/2to3/9.png"",""time"":892},{""stimulus"":""img/2to3/10.png"",""time"":991},{""stimulus"":""img/2to3/11.png"",""time"":1090},{""stimulus"":""img/2to3/12.png"",""time"":1190}]","[]"
"image-keyboard-response","152","172755","0.0-5.0-1.74","64057cd2806cfdca58f0de34","bdp_cybrbll","Sat Mar 25 2023 19:38:44 GMT-0700 (Pacific Daylight Time)","440152","3","1","","null","","","","observe","","img/3to2/1.png","null","151","216","0.5","0.5","3","1","",""
"animation","153","174042","0.0-5.0-2.74","64057cd2806cfdca58f0de34","bdp_cybrbll","Sat Mar 25 2023 19:38:44 GMT-0700 (Pacific Daylight Time)","440152","3","1","","","","","","","","","","151","","","","3","1","[{""stimulus"":""img/3to1/1.png"",""time"":100},{""stimulus"":""img/3to1/2.png"",""time"":200},{""stimulus"":""img/3to1/3.png"",""time"":298},{""stimulus"":""img/3to1/4.png"",""time"":397},{""stimulus"":""img/3to1/5.png"",""time"":496},{""stimulus"":""img/3to1/6.png"",""time"":596},{""stimulus"":""img/3to1/7.png"",""time"":695},{""stimulus"":""img/3to1/8.png"",""time"":793},{""stimulus"":""img/3to1/9.png"",""time"":892},{""stimulus"":""img/3to1/10.png"",""time"":991},{""stimulus"":""img/3to1/11.png"",""time"":1089},{""stimulus"":""img/3to1/12.png"",""time"":1189}]","[]"
"image-keyboard-response","154","174565","0.0-5.0-1.75","64057cd2806cfdca58f0de34","bdp_cybrbll","Sat Mar 25 2023 19:38:44 GMT-0700 (Pacific Daylight Time)","440152","3","1","","null","","","","observe","","img/1to3/1.png","null","150","521","0.5","0.5","1","2","",""
"animation","155","175853","0.0-5.0-2.75","64057cd2806cfdca58f0de34","bdp_cybrbll","Sat Mar 25 2023 19:38:44 GMT-0700 (Pacific Daylight Time)","440152","3","1","","","","","","","","","","150","","","","1","2","[{""stimulus"":""img/1to2/1.png"",""time"":99},{""stimulus"":""img/1to2/2.png"",""time"":198},{""stimulus"":""img/1to2/3.png"",""time"":297},{""stimulus"":""img/1to2/4.png"",""time"":398},{""stimulus"":""img/1to2/5.png"",""time"":495},{""stimulus"":""img/1to2/6.png"",""time"":595},{""stimulus"":""img/1to2/7.png"",""time"":695},{""stimulus"":""img/1to2/8.png"",""time"":793},{""stimulus"":""img/1to2/9.png"",""time"":892},{""stimulus"":""img/1to2/10.png"",""time"":990},{""stimulus"":""img/1to2/11.png"",""time"":1089},{""stimulus"":""img/1to2/12.png"",""time"":1189}]","[]"
"image-keyboard-response","156","176461","0.0-5.0-1.76","64057cd2806cfdca58f0de34","bdp_cybrbll","Sat Mar 25 2023 19:38:44 GMT-0700 (Pacific Daylight Time)","440152","3","1","","608","","","","choice","","img/2to1/1.png","2","149","236","0.5","0.1","2","3","",""
"animation","157","177749","0.0-5.0-2.76","64057cd2806cfdca58f0de34","bdp_cybrbll","Sat Mar 25 2023 19:38:44 GMT-0700 (Pacific Daylight Time)","440152","3","1","","","","","","","","","","149","","","","2","3","[{""stimulus"":""img/2to3/1.png"",""time"":100},{""stimulus"":""img/2to3/2.png"",""time"":198},{""stimulus"":""img/2to3/3.png"",""time"":299},{""stimulus"":""img/2to3/4.png"",""time"":397},{""stimulus"":""img/2to3/5.png"",""time"":495},{""stimulus"":""img/2to3/6.png"",""time"":595},{""stimulus"":""img/2to3/7.png"",""time"":693},{""stimulus"":""img/2to3/8.png"",""time"":794},{""stimulus"":""img/2to3/9.png"",""time"":891},{""stimulus"":""img/2to3/10.png"",""time"":991},{""stimulus"":""img/2to3/11.png"",""time"":1090},{""stimulus"":""img/2to3/12.png"",""time"":1189}]","[]"
"image-keyboard-response","158","177947","0.0-5.0-1.77","64057cd2806cfdca58f0de34","bdp_cybrbll","Sat Mar 25 2023 19:38:44 GMT-0700 (Pacific Daylight Time)","440152","3","1","","null","","","","observe","","img/3to2/1.png","null","148","197","0.5","0.1","3","2","",""
"animation","159","179235","0.0-5.0-2.77","64057cd2806cfdca58f0de34","bdp_cybrbll","Sat Mar 25 2023 19:38:44 GMT-0700 (Pacific Daylight Time)","440152","3","1","","","","","","","","","","148","","","","3","2","[{""stimulus"":""img/3to2/1.png"",""time"":100},{""stimulus"":""img/3to2/2.png"",""time"":199},{""stimulus"":""img/3to2/3.png"",""time"":298},{""stimulus"":""img/3to2/4.png"",""time"":397},{""stimulus"":""img/3to2/5.png"",""time"":496},{""stimulus"":""img/3to2/6.png"",""time"":596},{""stimulus"":""img/3to2/7.png"",""time"":695},{""stimulus"":""img/3to2/8.png"",""time"":793},{""stimulus"":""img/3to2/9.png"",""time"":893},{""stimulus"":""img/3to2/10.png"",""time"":991},{""stimulus"":""img/3to2/11.png"",""time"":1092},{""stimulus"":""img/3to2/12.png"",""time"":1189}]","[]"
"image-keyboard-response","160","179469","0.0-5.0-1.78","64057cd2806cfdca58f0de34","bdp_cybrbll","Sat Mar 25 2023 19:38:44 GMT-0700 (Pacific Daylight Time)","440152","3","1","","233","","","","choice","","img/2to1/1.png","1","147","1158","0.5","0.1","2","1","",""
"animation","161","180757","0.0-5.0-2.78","64057cd2806cfdca58f0de34","bdp_cybrbll","Sat Mar 25 2023 19:38:44 GMT-0700 (Pacific Daylight Time)","440152","3","1","","","","","","","","","","147","","","","2","1","[{""stimulus"":""img/2to1/1.png"",""time"":99},{""stimulus"":""img/2to1/2.png"",""time"":198},{""stimulus"":""img/2to1/3.png"",""time"":298},{""stimulus"":""img/2to1/4.png"",""time"":397},{""stimulus"":""img/2to1/5.png"",""time"":495},{""stimulus"":""img/2to1/6.png"",""time"":594},{""stimulus"":""img/2to1/7.png"",""time"":694},{""stimulus"":""img/2to1/8.png"",""time"":792},{""stimulus"":""img/2to1/9.png"",""time"":892},{""stimulus"":""img/2to1/10.png"",""time"":991},{""stimulus"":""img/2to1/11.png"",""time"":1090},{""stimulus"":""img/2to1/12.png"",""time"":1190}]","[]"
"image-keyboard-response","162","181020","0.0-5.0-1.79","64057cd2806cfdca58f0de34","bdp_cybrbll","Sat Mar 25 2023 19:38:44 GMT-0700 (Pacific Daylight Time)","440152","3","1","","null","","","","observe","","img/1to3/1.png","null","146","262","0.5","0.1","1","3","",""
"animation","163","182308","0.0-5.0-2.79","64057cd2806cfdca58f0de34","bdp_cybrbll","Sat Mar 25 2023 19:38:44 GMT-0700 (Pacific Daylight Time)","440152","3","1","","","","","","","","","","146","","","","1","3","[{""stimulus"":""img/1to3/1.png"",""time"":100},{""stimulus"":""img/1to3/2.png"",""time"":199},{""stimulus"":""img/1to3/3.png"",""time"":299},{""stimulus"":""img/1to3/4.png"",""time"":396},{""stimulus"":""img/1to3/5.png"",""time"":495},{""stimulus"":""img/1to3/6.png"",""time"":595},{""stimulus"":""img/1to3/7.png"",""time"":694},{""stimulus"":""img/1to3/8.png"",""time"":792},{""stimulus"":""img/1to3/9.png"",""time"":899},{""stimulus"":""img/1to3/10.png"",""time"":991},{""stimulus"":""img/1to3/11.png"",""time"":1090},{""stimulus"":""img/1to3/12.png"",""time"":1189}]","[]"
"image-keyboard-response","164","182893","0.0-5.0-1.80","64057cd2806cfdca58f0de34","bdp_cybrbll","Sat Mar 25 2023 19:38:44 GMT-0700 (Pacific Daylight Time)","440152","3","1","","null","","","","observe","","img/3to2/1.png","null","145","584","0.5","0.1","3","1","",""
"animation","165","184181","0.0-5.0-2.80","64057cd2806cfdca58f0de34","bdp_cybrbll","Sat Mar 25 2023 19:38:44 GMT-0700 (Pacific Daylight Time)","440152","3","1","","","","","","","","","","145","","","","3","1","[{""stimulus"":""img/3to1/1.png"",""time"":100},{""stimulus"":""img/3to1/2.png"",""time"":198},{""stimulus"":""img/3to1/3.png"",""time"":298},{""stimulus"":""img/3to1/4.png"",""time"":397},{""stimulus"":""img/3to1/5.png"",""time"":497},{""stimulus"":""img/3to1/6.png"",""time"":596},{""stimulus"":""img/3to1/7.png"",""time"":694},{""stimulus"":""img/3to1/8.png"",""time"":793},{""stimulus"":""img/3to1/9.png"",""time"":893},{""stimulus"":""img/3to1/10.png"",""time"":990},{""stimulus"":""img/3to1/11.png"",""time"":1090},{""stimulus"":""img/3to1/12.png"",""time"":1189}]","[]"
"image-keyboard-response","166","184854","0.0-5.0-1.81","64057cd2806cfdca58f0de34","bdp_cybrbll","Sat Mar 25 2023 19:38:44 GMT-0700 (Pacific Daylight Time)","440152","3","1","","null","","","","observe","","img/1to3/1.png","null","144","672","0.5","0.1","1","3","",""
"animation","167","186142","0.0-5.0-2.81","64057cd2806cfdca58f0de34","bdp_cybrbll","Sat Mar 25 2023 19:38:44 GMT-0700 (Pacific Daylight Time)","440152","3","1","","","","","","","","","","144","","","","1","3","[{""stimulus"":""img/1to3/1.png"",""time"":100},{""stimulus"":""img/1to3/2.png"",""time"":199},{""stimulus"":""img/1to3/3.png"",""time"":298},{""stimulus"":""img/1to3/4.png"",""time"":397},{""stimulus"":""img/1to3/5.png"",""time"":496},{""stimulus"":""img/1to3/6.png"",""time"":595},{""stimulus"":""img/1to3/7.png"",""time"":694},{""stimulus"":""img/1to3/8.png"",""time"":793},{""stimulus"":""img/1to3/9.png"",""time"":893},{""stimulus"":""img/1to3/10.png"",""time"":991},{""stimulus"":""img/1to3/11.png"",""time"":1090},{""stimulus"":""img/1to3/12.png"",""time"":1189}]","[]"
"image-keyboard-response","168","186464","0.0-5.0-1.82","64057cd2806cfdca58f0de34","bdp_cybrbll","Sat Mar 25 2023 19:38:44 GMT-0700 (Pacific Daylight Time)","440152","3","1","","null","","","","observe","","img/3to2/1.png","null","143","321","0.5","0.1","3","2","",""
"animation","169","187752","0.0-5.0-2.82","64057cd2806cfdca58f0de34","bdp_cybrbll","Sat Mar 25 2023 19:38:44 GMT-0700 (Pacific Daylight Time)","440152","3","1","","","","","","","","","","143","","","","3","2","[{""stimulus"":""img/3to2/1.png"",""time"":100},{""stimulus"":""img/3to2/2.png"",""time"":199},{""stimulus"":""img/3to2/3.png"",""time"":298},{""stimulus"":""img/3to2/4.png"",""time"":397},{""stimulus"":""img/3to2/5.png"",""time"":497},{""stimulus"":""img/3to2/6.png"",""time"":596},{""stimulus"":""img/3to2/7.png"",""time"":694},{""stimulus"":""img/3to2/8.png"",""time"":793},{""stimulus"":""img/3to2/9.png"",""time"":893},{""stimulus"":""img/3to2/10.png"",""time"":991},{""stimulus"":""img/3to2/11.png"",""time"":1090},{""stimulus"":""img/3to2/12.png"",""time"":1191}]","[]"
"image-keyboard-response","170","188148","0.0-5.0-1.83","64057cd2806cfdca58f0de34","bdp_cybrbll","Sat Mar 25 2023 19:38:44 GMT-0700 (Pacific Daylight Time)","440152","3","1","","396","","","","choice","","img/2to1/1.png","1","142","149","0.5","0.1","2","1","",""
"animation","171","189435","0.0-5.0-2.83","64057cd2806cfdca58f0de34","bdp_cybrbll","Sat Mar 25 2023 19:38:44 GMT-0700 (Pacific Daylight Time)","440152","3","1","","","","","","","","","","142","","","","2","1","[{""stimulus"":""img/2to1/1.png"",""time"":100},{""stimulus"":""img/2to1/2.png"",""time"":198},{""stimulus"":""img/2to1/3.png"",""time"":298},{""stimulus"":""img/2to1/4.png"",""time"":397},{""stimulus"":""img/2to1/5.png"",""time"":497},{""stimulus"":""img/2to1/6.png"",""time"":595},{""stimulus"":""img/2to1/7.png"",""time"":695},{""stimulus"":""img/2to1/8.png"",""time"":793},{""stimulus"":""img/2to1/9.png"",""time"":892},{""stimulus"":""img/2to1/10.png"",""time"":991},{""stimulus"":""img/2to1/11.png"",""time"":1089},{""stimulus"":""img/2to1/12.png"",""time"":1188}]","[]"
"image-keyboard-response","172","190598","0.0-5.0-1.84","64057cd2806cfdca58f0de34","bdp_cybrbll","Sat Mar 25 2023 19:38:44 GMT-0700 (Pacific Daylight Time)","440152","3","1","","null","","","","observe","","img/1to3/1.png","null","141","1161","0.5","0.1","1","2","",""
"animation","173","191886","0.0-5.0-2.84","64057cd2806cfdca58f0de34","bdp_cybrbll","Sat Mar 25 2023 19:38:44 GMT-0700 (Pacific Daylight Time)","440152","3","1","","","","","","","","","","141","","","","1","2","[{""stimulus"":""img/1to2/1.png"",""time"":100},{""stimulus"":""img/1to2/2.png"",""time"":199},{""stimulus"":""img/1to2/3.png"",""time"":298},{""stimulus"":""img/1to2/4.png"",""time"":397},{""stimulus"":""img/1to2/5.png"",""time"":496},{""stimulus"":""img/1to2/6.png"",""time"":595},{""stimulus"":""img/1to2/7.png"",""time"":695},{""stimulus"":""img/1to2/8.png"",""time"":793},{""stimulus"":""img/1to2/9.png"",""time"":892},{""stimulus"":""img/1to2/10.png"",""time"":990},{""stimulus"":""img/1to2/11.png"",""time"":1089},{""stimulus"":""img/1to2/12.png"",""time"":1189}]","[]"
"image-keyboard-response","174","192279","0.0-5.0-1.85","64057cd2806cfdca58f0de34","bdp_cybrbll","Sat Mar 25 2023 19:38:44 GMT-0700 (Pacific Daylight Time)","440152","3","1","","393","","","","choice","","img/2to1/1.png","2","140","693","0.5","0.1","2","3","",""
"animation","175","193566","0.0-5.0-2.85","64057cd2806cfdca58f0de34","bdp_cybrbll","Sat Mar 25 2023 19:38:44 GMT-0700 (Pacific Daylight Time)","440152","3","1","","","","","","","","","","140","","","","2","3","[{""stimulus"":""img/2to3/1.png"",""time"":99},{""stimulus"":""img/2to3/2.png"",""time"":198},{""stimulus"":""img/2to3/3.png"",""time"":298},{""stimulus"":""img/2to3/4.png"",""time"":397},{""stimulus"":""img/2to3/5.png"",""time"":496},{""stimulus"":""img/2to3/6.png"",""time"":595},{""stimulus"":""img/2to3/7.png"",""time"":694},{""stimulus"":""img/2to3/8.png"",""time"":792},{""stimulus"":""img/2to3/9.png"",""time"":892},{""stimulus"":""img/2to3/10.png"",""time"":991},{""stimulus"":""img/2to3/11.png"",""time"":1095},{""stimulus"":""img/2to3/12.png"",""time"":1189}]","[]"
"image-keyboard-response","176","194546","0.0-5.0-1.86","64057cd2806cfdca58f0de34","bdp_cybrbll","Sat Mar 25 2023 19:38:44 GMT-0700 (Pacific Daylight Time)","440152","3","1","","null","","","","observe","","img/3to2/1.png","null","139","979","0.5","0.1","3","2","",""
"animation","177","195834","0.0-5.0-2.86","64057cd2806cfdca58f0de34","bdp_cybrbll","Sat Mar 25 2023 19:38:44 GMT-0700 (Pacific Daylight Time)","440152","3","1","","","","","","","","","","139","","","","3","2","[{""stimulus"":""img/3to2/1.png"",""time"":100},{""stimulus"":""img/3to2/2.png"",""time"":199},{""stimulus"":""img/3to2/3.png"",""time"":298},{""stimulus"":""img/3to2/4.png"",""time"":398},{""stimulus"":""img/3to2/5.png"",""time"":497},{""stimulus"":""img/3to2/6.png"",""time"":595},{""stimulus"":""img/3to2/7.png"",""time"":694},{""stimulus"":""img/3to2/8.png"",""time"":793},{""stimulus"":""img/3to2/9.png"",""time"":892},{""stimulus"":""img/3to2/10.png"",""time"":991},{""stimulus"":""img/3to2/11.png"",""time"":1090},{""stimulus"":""img/3to2/12.png"",""time"":1189}]","[]"
"image-keyboard-response","178","195919","0.0-5.0-1.87","64057cd2806cfdca58f0de34","bdp_cybrbll","Sat Mar 25 2023 19:38:44 GMT-0700 (Pacific Daylight Time)","440152","3","1","","85","","","","choice","","img/2to1/1.png","1","138","413","0.5","0.1","2","1","",""
"animation","179","197207","0.0-5.0-2.87","64057cd2806cfdca58f0de34","bdp_cybrbll","Sat Mar 25 2023 19:38:44 GMT-0700 (Pacific Daylight Time)","440152","3","1","","","","","","","","","","138","","","","2","1","[{""stimulus"":""img/2to1/1.png"",""time"":100},{""stimulus"":""img/2to1/2.png"",""time"":199},{""stimulus"":""img/2to1/3.png"",""time"":299},{""stimulus"":""img/2to1/4.png"",""time"":397},{""stimulus"":""img/2to1/5.png"",""time"":495},{""stimulus"":""img/2to1/6.png"",""time"":595},{""stimulus"":""img/2to1/7.png"",""time"":694},{""stimulus"":""img/2to1/8.png"",""time"":793},{""stimulus"":""img/2to1/9.png"",""time"":892},{""stimulus"":""img/2to1/10.png"",""time"":992},{""stimulus"":""img/2to1/11.png"",""time"":1089},{""stimulus"":""img/2to1/12.png"",""time"":1189}]","[]"
"image-keyboard-response","180","197622","0.0-5.0-1.88","64057cd2806cfdca58f0de34","bdp_cybrbll","Sat Mar 25 2023 19:38:44 GMT-0700 (Pacific Daylight Time)","440152","3","1","","null","","","","observe","","img/1to3/1.png","null","137","414","0.5","0.1","1","3","",""
"animation","181","198914","0.0-5.0-2.88","64057cd2806cfdca58f0de34","bdp_cybrbll","Sat Mar 25 2023 19:38:44 GMT-0700 (Pacific Daylight Time)","440152","3","1","","","","","","","","","","137","","","","1","3","[{""stimulus"":""img/1to3/1.png"",""time"":100},{""stimulus"":""img/1to3/2.png"",""time"":199},{""stimulus"":""img/1to3/3.png"",""time"":298},{""stimulus"":""img/1to3/4.png"",""time"":398},{""stimulus"":""img/1to3/5.png"",""time"":496},{""stimulus"":""img/1to3/6.png"",""time"":595},{""stimulus"":""img/1to3/7.png"",""time"":694},{""stimulus"":""img/1to3/8.png"",""time"":792},{""stimulus"":""img/1to3/9.png"",""time"":893},{""stimulus"":""img/1to3/10.png"",""time"":991},{""stimulus"":""img/1to3/11.png"",""time"":1090},{""stimulus"":""img/1to3/12.png"",""time"":1189}]","[]"
"image-keyboard-response","182","199361","0.0-5.0-1.89","64057cd2806cfdca58f0de34","bdp_cybrbll","Sat Mar 25 2023 19:38:44 GMT-0700 (Pacific Daylight Time)","440152","3","1","","null","","","","observe","","img/3to2/1.png","null","136","446","0.5","0.1","3","2","",""
"animation","183","200649","0.0-5.0-2.89","64057cd2806cfdca58f0de34","bdp_cybrbll","Sat Mar 25 2023 19:38:44 GMT-0700 (Pacific Daylight Time)","440152","3","1","","","","","","","","","","136","","","","3","2","[{""stimulus"":""img/3to2/1.png"",""time"":100},{""stimulus"":""img/3to2/2.png"",""time"":199},{""stimulus"":""img/3to2/3.png"",""time"":298},{""stimulus"":""img/3to2/4.png"",""time"":400},{""stimulus"":""img/3to2/5.png"",""time"":497},{""stimulus"":""img/3to2/6.png"",""time"":595},{""stimulus"":""img/3to2/7.png"",""time"":694},{""stimulus"":""img/3to2/8.png"",""time"":793},{""stimulus"":""img/3to2/9.png"",""time"":892},{""stimulus"":""img/3to2/10.png"",""time"":991},{""stimulus"":""img/3to2/11.png"",""time"":1090},{""stimulus"":""img/3to2/12.png"",""time"":1189}]","[]"
"image-keyboard-response","184","200995","0.0-5.0-1.90","64057cd2806cfdca58f0de34","bdp_cybrbll","Sat Mar 25 2023 19:38:44 GMT-0700 (Pacific Daylight Time)","440152","3","1","","345","","","","choice","","img/2to1/1.png","1","135","1564","0.5","0.1","2","1","",""
"animation","185","202284","0.0-5.0-2.90","64057cd2806cfdca58f0de34","bdp_cybrbll","Sat Mar 25 2023 19:38:44 GMT-0700 (Pacific Daylight Time)","440152","3","1","","","","","","","","","","135","","","","2","1","[{""stimulus"":""img/2to1/1.png"",""time"":100},{""stimulus"":""img/2to1/2.png"",""time"":199},{""stimulus"":""img/2to1/3.png"",""time"":298},{""stimulus"":""img/2to1/4.png"",""time"":397},{""stimulus"":""img/2to1/5.png"",""time"":496},{""stimulus"":""img/2to1/6.png"",""time"":595},{""stimulus"":""img/2to1/7.png"",""time"":695},{""stimulus"":""img/2to1/8.png"",""time"":794},{""stimulus"":""img/2to1/9.png"",""time"":892},{""stimulus"":""img/2to1/10.png"",""time"":991},{""stimulus"":""img/2to1/11.png"",""time"":1090},{""stimulus"":""img/2to1/12.png"",""time"":1188}]","[]"
"image-keyboard-response","186","202707","0.0-5.0-1.91","64057cd2806cfdca58f0de34","bdp_cybrbll","Sat Mar 25 2023 19:38:44 GMT-0700 (Pacific Daylight Time)","440152","3","1","","null","","","","observe","","img/1to3/1.png","null","134","422","0.5","0.1","1","3","",""
"animation","187","203995","0.0-5.0-2.91","64057cd2806cfdca58f0de34","bdp_cybrbll","Sat Mar 25 2023 19:38:44 GMT-0700 (Pacific Daylight Time)","440152","3","1","","","","","","","","","","134","","","","1","3","[{""stimulus"":""img/1to3/1.png"",""time"":100},{""stimulus"":""img/1to3/2.png"",""time"":199},{""stimulus"":""img/1to3/3.png"",""time"":298},{""stimulus"":""img/1to3/4.png"",""time"":397},{""stimulus"":""img/1to3/5.png"",""time"":495},{""stimulus"":""img/1to3/6.png"",""time"":595},{""stimulus"":""img/1to3/7.png"",""time"":694},{""stimulus"":""img/1to3/8.png"",""time"":793},{""stimulus"":""img/1to3/9.png"",""time"":892},{""stimulus"":""img/1to3/10.png"",""time"":991},{""stimulus"":""img/1to3/11.png"",""time"":1090},{""stimulus"":""img/1to3/12.png"",""time"":1190}]","[]"
"image-keyboard-response","188","204348","0.0-5.0-1.92","64057cd2806cfdca58f0de34","bdp_cybrbll","Sat Mar 25 2023 19:38:44 GMT-0700 (Pacific Daylight Time)","440152","3","1","","null","","","","observe","","img/3to2/1.png","null","133","353","0.5","0.1","3","2","",""
"animation","189","205637","0.0-5.0-2.92","64057cd2806cfdca58f0de34","bdp_cybrbll","Sat Mar 25 2023 19:38:44 GMT-0700 (Pacific Daylight Time)","440152","3","1","","","","","","","","","","133","","","","3","2","[{""stimulus"":""img/3to2/1.png"",""time"":99},{""stimulus"":""img/3to2/2.png"",""time"":198},{""stimulus"":""img/3to2/3.png"",""time"":298},{""stimulus"":""img/3to2/4.png"",""time"":397},{""stimulus"":""img/3to2/5.png"",""time"":495},{""stimulus"":""img/3to2/6.png"",""time"":595},{""stimulus"":""img/3to2/7.png"",""time"":693},{""stimulus"":""img/3to2/8.png"",""time"":793},{""stimulus"":""img/3to2/9.png"",""time"":892},{""stimulus"":""img/3to2/10.png"",""time"":991},{""stimulus"":""img/3to2/11.png"",""time"":1089},{""stimulus"":""img/3to2/12.png"",""time"":1189}]","[]"
"image-keyboard-response","190","205905","0.0-5.0-1.93","64057cd2806cfdca58f0de34","bdp_cybrbll","Sat Mar 25 2023 19:38:44 GMT-0700 (Pacific Daylight Time)","440152","3","1","","268","","","","choice","","img/2to1/1.png","1","132","618","0.5","0.1","2","1","",""
