"trial_type","trial_index","time_elapsed","internal_node_id","view_history","rt","event","trial","time","trialtype","success","stimulus","key_press","throwsLeft","rtDur","pFair","pUnfair","holder","receiver","animation_sequence","responses","numBlurs"
"pavlovia","0","1","0.0-0.0","","","","","","","","","","","","","","","","","",""
"instructions","1","860","0.0-1.0","[{""page_index"":0,""viewing_time"":858}]","858","","","","","","","","","","","","","","","",""
"","","","","","","fullscreenenter","2","2944","fullscreenenter","","","","","","","","","","","",""
"fullscreen","2","3947","0.0-2.0","","","","","","","true","","","","","","","","","","",""
"","","","","","","fullscreenexit","3","4121","fullscreenexit","","","","","","","","","","","",""
"instructions","3","5234","0.0-4.0","[{""page_index"":0,""viewing_time"":1286}]","1286","","","","","","","","","","","","","","","",""
"image-keyboard-response","4","10626","0.0-5.0-1.0","","5391","","","","","","img/2to1/1.png","2","225","750","0.6","0.6","2","3","","",""
"animation","5","11936","0.0-5.0-2.0","","","","","","","","","","225","750","","","2","3","[{""stimulus"":""img/2to3/1.png"",""time"":103},{""stimulus"":""img/2to3/2.png"",""time"":208},{""stimulus"":""img/2to3/3.png"",""time"":308},{""stimulus"":""img/2to3/4.png"",""time"":408},{""stimulus"":""img/2to3/5.png"",""time"":504},{""stimulus"":""img/2to3/6.png"",""time"":608},{""stimulus"":""img/2to3/7.png"",""time"":711},{""stimulus"":""img/2to3/8.png"",""time"":808},{""stimulus"":""img/2to3/9.png"",""time"":908},{""stimulus"":""img/2to3/10.png"",""time"":1008},{""stimulus"":""img/2to3/11.png"",""time"":1109},{""stimulus"":""img/2to3/12.png"",""time"":1208}]","[]",""
"image-keyboard-response","6","12696","0.0-5.0-1.1","","null","","","","","","img/3to2/1.png","null","224","750","0.6","0.6","3","1","","",""
"animation","7","14002","0.0-5.0-2.1","","","","","","","","","","224","750","","","3","1","[{""stimulus"":""img/3to1/1.png"",""time"":106},{""stimulus"":""img/3to1/2.png"",""time"":208},{""stimulus"":""img/3to1/3.png"",""time"":306},{""stimulus"":""img/3to1/4.png"",""time"":410},{""stimulus"":""img/3to1/5.png"",""time"":506},{""stimulus"":""img/3to1/6.png"",""time"":608},{""stimulus"":""img/3to1/7.png"",""time"":705},{""stimulus"":""img/3to1/8.png"",""time"":809},{""stimulus"":""img/3to1/9.png"",""time"":905},{""stimulus"":""img/3to1/10.png"",""time"":1008},{""stimulus"":""img/3to1/11.png"",""time"":1105},{""stimulus"":""img/3to1/12.png"",""time"":1209}]","[]",""
"image-keyboard-response","8","14763","0.0-5.0-1.2","","null","","","","","","img/1to3/1.png","null","223","750","0.6","0.6","1","2","","",""
"animation","9","16073","0.0-5.0-2.2","","","","","","","","","","223","750","","","1","2","[{""stimulus"":""img/1to2/1.png"",""time"":110},{""stimulus"":""img/1to2/2.png"",""time"":208},{""stimulus"":""img/1to2/3.png"",""time"":310},{""stimulus"":""img/1to2/4.png"",""time"":405},{""stimulus"":""img/1to2/5.png"",""time"":509},{""stimulus"":""img/1to2/6.png"",""time"":605},{""stimulus"":""img/1to2/7.png"",""time"":709},{""stimulus"":""img/1to2/8.png"",""time"":808},{""stimulus"":""img/1to2/9.png"",""time"":910},{""stimulus"":""img/1to2/10.png"",""time"":1005},{""stimulus"":""img/1to2/11.png"",""time"":1112},{""stimulus"":""img/1to2/12.png"",""time"":1207}]","[]",""
"image-keyboard-response","10","17434","0.0-5.0-1.3","","1361","","","","","","img/2to1/1.png","2","222","750","0.6","0.6","2","3","","",""
"animation","11","18743","0.0-5.0-2.3","","","","","","","","","","222","750","","","2","3","[{""stimulus"":""img/2to3/1.png"",""time"":101},{""stimulus"":""img/2to3/2.png"",""time"":209},{""stimulus"":""img/2to3/3.png"",""time"":309},{""stimulus"":""img/2to3/4.png"",""time"":409},{""stimulus"":""img/2to3/5.png"",""time"":501},{""stimulus"":""img/2to3/6.png"",""time"":609},{""stimulus"":""img/2to3/7.png"",""time"":709},{""stimulus"":""img/2to3/8.png"",""time"":809},{""stimulus"":""img/2to3/9.png"",""time"":913},{""stimulus"":""img/2to3/10.png"",""time"":1009},{""stimulus"":""img/2to3/11.png"",""time"":1113},{""stimulus"":""img/2to3/12.png"",""time"":1209}]","[]",""
"image-keyboard-response","12","19496","0.0-5.0-1.4","","null","","","","","","img/3to2/1.png","null","221","750","0.6","0.6","3","1","","",""
"animation","13","20802","0.0-5.0-2.4","","","","","","","","","","221","750","","","3","1","[{""stimulus"":""img/3to1/1.png"",""time"":106},{""stimulus"":""img/3to1/2.png"",""time"":211},{""stimulus"":""img/3to1/3.png"",""time"":305},{""stimulus"":""img/3to1/4.png"",""time"":408},{""stimulus"":""img/3to1/5.png"",""time"":505},{""stimulus"":""img/3to1/6.png"",""time"":609},{""stimulus"":""img/3to1/7.png"",""time"":706},{""stimulus"":""img/3to1/8.png"",""time"":808},{""stimulus"":""img/3to1/9.png"",""time"":904},{""stimulus"":""img/3to1/10.png"",""time"":1006},{""stimulus"":""img/3to1/11.png"",""time"":1106},{""stimulus"":""img/3to1/12.png"",""time"":1209}]","[]",""
"image-keyboard-response","14","21562","0.0-5.0-1.5","","null","","","","","","img/1to3/1.png","null","220","750","0.6","0.6","1","2","","",""
"animation","15","22873","0.0-5.0-2.5","","","","","","","","","","220","750","","","1","2","[{""stimulus"":""img/1to2/1.png"",""time"":112},{""stimulus"":""img/1to2/2.png"",""time"":206},{""stimulus"":""img/1to2/3.png"",""time"":311},{""stimulus"":""img/1to2/4.png"",""time"":406},{""stimulus"":""img/1to2/5.png"",""time"":510},{""stimulus"":""img/1to2/6.png"",""time"":606},{""stimulus"":""img/1to2/7.png"",""time"":713},{""stimulus"":""img/1to2/8.png"",""time"":808},{""stimulus"":""img/1to2/9.png"",""time"":910},{""stimulus"":""img/1to2/10.png"",""time"":1006},{""stimulus"":""img/1to2/11.png"",""time"":1110},{""stimulus"":""img/1to2/12.png"",""time"":1206}]","[]",""
"","","","","","","blur","16","24734","blurevent","","","","","","","","","","","","1"
"","","","","","","focus","16","29272","focusevent","","","","","","","","","","","",""
"image-keyboard-response","16","31907","0.0-5.0-1.6","","9033","blur","16","24734","","","img/2to1/1.png","2","219","750","0.6","0.6","2","3","","","1"
"animation","17","33218","0.0-5.0-2.6","","","blur","16","24734","","","","","219","750","","","2","3","[{""stimulus"":""img/2to3/1.png"",""time"":111},{""stimulus"":""img/2to3/2.png"",""time"":205},{""stimulus"":""img/2to3/3.png"",""time"":311},{""stimulus"":""img/2to3/4.png"",""time"":409},{""stimulus"":""img/2to3/5.png"",""time"":511},{""stimulus"":""img/2to3/6.png"",""time"":607},{""stimulus"":""img/2to3/7.png"",""time"":711},{""stimulus"":""img/2to3/8.png"",""time"":805},{""stimulus"":""img/2to3/9.png"",""time"":911},{""stimulus"":""img/2to3/10.png"",""time"":1008},{""stimulus"":""img/2to3/11.png"",""time"":1111},{""stimulus"":""img/2to3/12.png"",""time"":1205}]","[]","1"
"image-keyboard-response","18","35149","0.0-5.0-0.7-0.7","","1930","","","","blurwarn","","","49","","","","","","","","","1"
"image-keyboard-response","19","36170","0.0-5.0-1.7","","null","","","","","","img/3to2/1.png","null","218","750","0.6","0.6","3","2","","",""
"animation","20","37479","0.0-5.0-2.7","","","","","","","","","","218","750","","","3","2","[{""stimulus"":""img/3to2/1.png"",""time"":111},{""stimulus"":""img/3to2/2.png"",""time"":206},{""stimulus"":""img/3to2/3.png"",""time"":311},{""stimulus"":""img/3to2/4.png"",""time"":406},{""stimulus"":""img/3to2/5.png"",""time"":511},{""stimulus"":""img/3to2/6.png"",""time"":606},{""stimulus"":""img/3to2/7.png"",""time"":709},{""stimulus"":""img/3to2/8.png"",""time"":805},{""stimulus"":""img/3to2/9.png"",""time"":911},{""stimulus"":""img/3to2/10.png"",""time"":1005},{""stimulus"":""img/3to2/11.png"",""time"":1108},{""stimulus"":""img/3to2/12.png"",""time"":1207}]","[]",""
"image-keyboard-response","21","37994","0.0-5.0-1.8","","515","","","","","","img/2to1/1.png","1","217","750","0.6","0.6","2","1","","",""
"animation","22","39296","0.0-5.0-2.8","","","","","","","","","","217","750","","","2","1","[{""stimulus"":""img/2to1/1.png"",""time"":104},{""stimulus"":""img/2to1/2.png"",""time"":208},{""stimulus"":""img/2to1/3.png"",""time"":302},{""stimulus"":""img/2to1/4.png"",""time"":407},{""stimulus"":""img/2to1/5.png"",""time"":503},{""stimulus"":""img/2to1/6.png"",""time"":607},{""stimulus"":""img/2to1/7.png"",""time"":705},{""stimulus"":""img/2to1/8.png"",""time"":807},{""stimulus"":""img/2to1/9.png"",""time"":901},{""stimulus"":""img/2to1/10.png"",""time"":1009},{""stimulus"":""img/2to1/11.png"",""time"":1101},{""stimulus"":""img/2to1/12.png"",""time"":1208}]","[]",""
"image-keyboard-response","23","40051","0.0-5.0-1.9","","null","","","","","","img/1to3/1.png","null","216","750","0.6","0.6","1","2","","",""
"animation","24","41360","0.0-5.0-2.9","","","","","","","","","","216","750","","","1","2","[{""stimulus"":""img/1to2/1.png"",""time"":112},{""stimulus"":""img/1to2/2.png"",""time"":209},{""stimulus"":""img/1to2/3.png"",""time"":309},{""stimulus"":""img/1to2/4.png"",""time"":404},{""stimulus"":""img/1to2/5.png"",""time"":509},{""stimulus"":""img/1to2/6.png"",""time"":609},{""stimulus"":""img/1to2/7.png"",""time"":711},{""stimulus"":""img/1to2/8.png"",""time"":809},{""stimulus"":""img/1to2/9.png"",""time"":910},{""stimulus"":""img/1to2/10.png"",""time"":1009},{""stimulus"":""img/1to2/11.png"",""time"":1111},{""stimulus"":""img/1to2/12.png"",""time"":1209}]","[]",""
"image-keyboard-response","25","41843","0.0-5.0-1.10","","483","","","","","","img/2to1/1.png","2","215","750","0.6","0.6","2","3","","",""
"animation","26","43151","0.0-5.0-2.10","","","","","","","","","","215","750","","","2","3","[{""stimulus"":""img/2to3/1.png"",""time"":110},{""stimulus"":""img/2to3/2.png"",""time"":208},{""stimulus"":""img/2to3/3.png"",""time"":312},{""stimulus"":""img/2to3/4.png"",""time"":408},{""stimulus"":""img/2to3/5.png"",""time"":510},{""stimulus"":""img/2to3/6.png"",""time"":608},{""stimulus"":""img/2to3/7.png"",""time"":709},{""stimulus"":""img/2to3/8.png"",""time"":808},{""stimulus"":""img/2to3/9.png"",""time"":911},{""stimulus"":""img/2to3/10.png"",""time"":1008},{""stimulus"":""img/2to3/11.png"",""time"":1109},{""stimulus"":""img/2to3/12.png"",""time"":1208}]","[]",""
"image-keyboard-response","27","43902","0.0-5.0-1.11","","null","","","","","","img/3to2/1.png","null","214","750","0.6","0.6","3","2","","",""
"animation","28","45209","0.0-5.0-2.11","","","","","","","","","","214","750","","","3","2","[{""stimulus"":""img/3to2/1.png"",""time"":107},{""stimulus"":""img/3to2/2.png"",""time"":210},{""stimulus"":""img/3to2/3.png"",""time"":307},{""stimulus"":""img/3to2/4.png"",""time"":409},{""stimulus"":""img/3to2/5.png"",""time"":507},{""stimulus"":""img/3to2/6.png"",""time"":612},{""stimulus"":""img/3to2/7.png"",""time"":707},{""stimulus"":""img/3to2/8.png"",""time"":812},{""stimulus"":""img/3to2/9.png"",""time"":907},{""stimulus"":""img/3to2/10.png"",""time"":1009},{""stimulus"":""img/3to2/11.png"",""time"":1107},{""stimulus"":""img/3to2/12.png"",""time"":1212}]","[]",""
"image-keyboard-response","29","46525","0.0-5.0-1.12","","1315","","","","","","img/2to1/1.png","1","213","750","0.6","0.6","2","1","","",""
"animation","30","47834","0.0-5.0-2.12","","","","","","","","","","213","750","","","2","1","[{""stimulus"":""img/2to1/1.png"",""time"":110},{""stimulus"":""img/2to1/2.png"",""time"":203},{""stimulus"":""img/2to1/3.png"",""time"":310},{""stimulus"":""img/2to1/4.png"",""time"":407},{""stimulus"":""img/2to1/5.png"",""time"":510},{""stimulus"":""img/2to1/6.png"",""time"":602},{""stimulus"":""img/2to1/7.png"",""time"":710},{""stimulus"":""img/2to1/8.png"",""time"":804},{""stimulus"":""img/2to1/9.png"",""time"":910},{""stimulus"":""img/2to1/10.png"",""time"":1002},{""stimulus"":""img/2to1/11.png"",""time"":1110},{""stimulus"":""img/2to1/12.png"",""time"":1205}]","[]",""
"image-keyboard-response","31","48594","0.0-5.0-1.13","","null","","","","","","img/1to3/1.png","null","212","750","0.6","0.6","1","3","","",""
"animation","32","49906","0.0-5.0-2.13","","","","","","","","","","212","750","","","1","3","[{""stimulus"":""img/1to3/1.png"",""time"":111},{""stimulus"":""img/1to3/2.png"",""time"":208},{""stimulus"":""img/1to3/3.png"",""time"":309},{""stimulus"":""img/1to3/4.png"",""time"":407},{""stimulus"":""img/1to3/5.png"",""time"":511},{""stimulus"":""img/1to3/6.png"",""time"":607},{""stimulus"":""img/1to3/7.png"",""time"":711},{""stimulus"":""img/1to3/8.png"",""time"":809},{""stimulus"":""img/1to3/9.png"",""time"":909},{""stimulus"":""img/1to3/10.png"",""time"":1008},{""stimulus"":""img/1to3/11.png"",""time"":1109},{""stimulus"":""img/1to3/12.png"",""time"":1206}]","[]",""
"image-keyboard-response","33","50659","0.0-5.0-1.14","","null","","","","","","img/3to2/1.png","null","211","750","0.6","0.6","3","2","","",""
"animation","34","51968","0.0-5.0-2.14","","","","","","","","","","211","750","","","3","2","[{""stimulus"":""img/3to2/1.png"",""time"":108},{""stimulus"":""img/3to2/2.png"",""time"":205},{""stimulus"":""img/3to2/3.png"",""time"":311},{""stimulus"":""img/3to2/4.png"",""time"":404},{""stimulus"":""img/3to2/5.png"",""time"":508},{""stimulus"":""img/3to2/6.png"",""time"":607},{""stimulus"":""img/3to2/7.png"",""time"":708},{""stimulus"":""img/3to2/8.png"",""time"":804},{""stimulus"":""img/3to2/9.png"",""time"":910},{""stimulus"":""img/3to2/10.png"",""time"":1008},{""stimulus"":""img/3to2/11.png"",""time"":1108},{""stimulus"":""img/3to2/12.png"",""time"":1204}]","[]",""
"image-keyboard-response","35","52499","0.0-5.0-1.15","","530","","","","","","img/2to1/1.png","1","210","750","0.6","0.6","2","1","","",""
"animation","36","53810","0.0-5.0-2.15","","","","","","","","","","210","750","","","2","1","[{""stimulus"":""img/2to1/1.png"",""time"":111},{""stimulus"":""img/2to1/2.png"",""time"":205},{""stimulus"":""img/2to1/3.png"",""time"":311},{""stimulus"":""img/2to1/4.png"",""time"":406},{""stimulus"":""img/2to1/5.png"",""time"":511},{""stimulus"":""img/2to1/6.png"",""time"":605},{""stimulus"":""img/2to1/7.png"",""time"":711},{""stimulus"":""img/2to1/8.png"",""time"":805},{""stimulus"":""img/2to1/9.png"",""time"":911},{""stimulus"":""img/2to1/10.png"",""time"":1005},{""stimulus"":""img/2to1/11.png"",""time"":1111},{""stimulus"":""img/2to1/12.png"",""time"":1205}]","[]",""
"","","","","","","blur","37","54145","blurevent","","","","","","","","","","","","2"
"image-keyboard-response","37","54570","0.0-5.0-1.16","","null","blur","37","54145","","","img/1to3/1.png","null","209","750","0.6","0.6","1","2","","","2"
"animation","38","55881","0.0-5.0-2.16","","","blur","37","54145","","","","","209","750","","","1","2","[{""stimulus"":""img/1to2/1.png"",""time"":110},{""stimulus"":""img/1to2/2.png"",""time"":206},{""stimulus"":""img/1to2/3.png"",""time"":311},{""stimulus"":""img/1to2/4.png"",""time"":407},{""stimulus"":""img/1to2/5.png"",""time"":511},{""stimulus"":""img/1to2/6.png"",""time"":607},{""stimulus"":""img/1to2/7.png"",""time"":709},{""stimulus"":""img/1to2/8.png"",""time"":807},{""stimulus"":""img/1to2/9.png"",""time"":913},{""stimulus"":""img/1to2/10.png"",""time"":1007},{""stimulus"":""img/1to2/11.png"",""time"":1110},{""stimulus"":""img/1to2/12.png"",""time"":1207}]","[]","2"
"","","","","","","focus","39","69497","focusevent","","","","","","","","","","","",""
"image-keyboard-response","39","70948","0.0-5.0-0.17-0.17","","15066","","","","blurwarn","","","49","","","","","","","","","2"
"image-keyboard-response","40","71682","0.0-5.0-1.17","","480","","","","","","img/2to1/1.png","1","208","750","0.6","0.6","2","1","","",""
"animation","41","72987","0.0-5.0-2.17","","","","","","","","","","208","750","","","2","1","[{""stimulus"":""img/2to1/1.png"",""time"":105},{""stimulus"":""img/2to1/2.png"",""time"":206},{""stimulus"":""img/2to1/3.png"",""time"":303},{""stimulus"":""img/2to1/4.png"",""time"":408},{""stimulus"":""img/2to1/5.png"",""time"":505},{""stimulus"":""img/2to1/6.png"",""time"":607},{""stimulus"":""img/2to1/7.png"",""time"":705},{""stimulus"":""img/2to1/8.png"",""time"":808},{""stimulus"":""img/2to1/9.png"",""time"":905},{""stimulus"":""img/2to1/10.png"",""time"":1006},{""stimulus"":""img/2to1/11.png"",""time"":1103},{""stimulus"":""img/2to1/12.png"",""time"":1206}]","[]",""
"image-keyboard-response","42","73746","0.0-5.0-1.18","","null","","","","","","img/1to3/1.png","null","207","750","0.6","0.6","1","2","","",""
"animation","43","75059","0.0-5.0-2.18","","","","","","","","","","207","750","","","1","2","[{""stimulus"":""img/1to2/1.png"",""time"":113},{""stimulus"":""img/1to2/2.png"",""time"":208},{""stimulus"":""img/1to2/3.png"",""time"":313},{""stimulus"":""img/1to2/4.png"",""time"":405},{""stimulus"":""img/1to2/5.png"",""time"":513},{""stimulus"":""img/1to2/6.png"",""time"":606},{""stimulus"":""img/1to2/7.png"",""time"":713},{""stimulus"":""img/1to2/8.png"",""time"":804},{""stimulus"":""img/1to2/9.png"",""time"":913},{""stimulus"":""img/1to2/10.png"",""time"":1006},{""stimulus"":""img/1to2/11.png"",""time"":1113},{""stimulus"":""img/1to2/12.png"",""time"":1205}]","[]",""
"image-keyboard-response","44","75564","0.0-5.0-1.19","","504","","","","","","img/2to1/1.png","2","206","750","0.6","0.6","2","3","","",""
"animation","45","76872","0.0-5.0-2.19","","","","","","","","","","206","750","","","2","3","[{""stimulus"":""img/2to3/1.png"",""time"":111},{""stimulus"":""img/2to3/2.png"",""time"":204},{""stimulus"":""img/2to3/3.png"",""time"":309},{""stimulus"":""img/2to3/4.png"",""time"":407},{""stimulus"":""img/2to3/5.png"",""time"":509},{""stimulus"":""img/2to3/6.png"",""time"":604},{""stimulus"":""img/2to3/7.png"",""time"":710},{""stimulus"":""img/2to3/8.png"",""time"":805},{""stimulus"":""img/2to3/9.png"",""time"":909},{""stimulus"":""img/2to3/10.png"",""time"":1004},{""stimulus"":""img/2to3/11.png"",""time"":1109},{""stimulus"":""img/2to3/12.png"",""time"":1204}]","[]",""
"image-keyboard-response","46","77635","0.0-5.0-1.20","","null","","","","","","img/3to2/1.png","null","205","750","0.6","0.6","3","2","","",""
"animation","47","78943","0.0-5.0-2.20","","","","","","","","","","205","750","","","3","2","[{""stimulus"":""img/3to2/1.png"",""time"":112},{""stimulus"":""img/3to2/2.png"",""time"":208},{""stimulus"":""img/3to2/3.png"",""time"":308},{""stimulus"":""img/3to2/4.png"",""time"":408},{""stimulus"":""img/3to2/5.png"",""time"":510},{""stimulus"":""img/3to2/6.png"",""time"":600},{""stimulus"":""img/3to2/7.png"",""time"":708},{""stimulus"":""img/3to2/8.png"",""time"":808},{""stimulus"":""img/3to2/9.png"",""time"":908},{""stimulus"":""img/3to2/10.png"",""time"":1008},{""stimulus"":""img/3to2/11.png"",""time"":1110},{""stimulus"":""img/3to2/12.png"",""time"":1208}]","[]",""
"image-keyboard-response","48","79374","0.0-5.0-1.21","","430","","","","","","img/2to1/1.png","1","204","750","0.6","0.6","2","1","","",""
"animation","49","80682","0.0-5.0-2.21","","","","","","","","","","204","750","","","2","1","[{""stimulus"":""img/2to1/1.png"",""time"":105},{""stimulus"":""img/2to1/2.png"",""time"":212},{""stimulus"":""img/2to1/3.png"",""time"":305},{""stimulus"":""img/2to1/4.png"",""time"":412},{""stimulus"":""img/2to1/5.png"",""time"":505},{""stimulus"":""img/2to1/6.png"",""time"":610},{""stimulus"":""img/2to1/7.png"",""time"":705},{""stimulus"":""img/2to1/8.png"",""time"":812},{""stimulus"":""img/2to1/9.png"",""time"":907},{""stimulus"":""img/2to1/10.png"",""time"":1010},{""stimulus"":""img/2to1/11.png"",""time"":1106},{""stimulus"":""img/2to1/12.png"",""time"":1210}]","[]",""
"image-keyboard-response","50","81443","0.0-5.0-1.22","","null","","","","","","img/1to3/1.png","null","203","750","0.6","0.6","1","2","","",""
"animation","51","82751","0.0-5.0-2.22","","","","","","","","","","203","750","","","1","2","[{""stimulus"":""img/1to2/1.png"",""time"":113},{""stimulus"":""img/1to2/2.png"",""time"":208},{""stimulus"":""img/1to2/3.png"",""time"":309},{""stimulus"":""img/1to2/4.png"",""time"":408},{""stimulus"":""img/1to2/5.png"",""time"":512},{""stimulus"":""img/1to2/6.png"",""time"":608},{""stimulus"":""img/1to2/7.png"",""time"":709},{""stimulus"":""img/1to2/8.png"",""time"":808},{""stimulus"":""img/1to2/9.png"",""time"":908},{""stimulus"":""img/1to2/10.png"",""time"":1008},{""stimulus"":""img/1to2/11.png"",""time"":1111},{""stimulus"":""img/1to2/12.png"",""time"":1208}]","[]",""
"image-keyboard-response","52","83213","0.0-5.0-1.23","","461","","","","","","img/2to1/1.png","2","202","750","0.6","0.6","2","3","","",""
"animation","53","84523","0.0-5.0-2.23","","","","","","","","","","202","750","","","2","3","[{""stimulus"":""img/2to3/1.png"",""time"":106},{""stimulus"":""img/2to3/2.png"",""time"":205},{""stimulus"":""img/2to3/3.png"",""time"":307},{""stimulus"":""img/2to3/4.png"",""time"":405},{""stimulus"":""img/2to3/5.png"",""time"":511},{""stimulus"":""img/2to3/6.png"",""time"":605},{""stimulus"":""img/2to3/7.png"",""time"":708},{""stimulus"":""img/2to3/8.png"",""time"":805},{""stimulus"":""img/2to3/9.png"",""time"":909},{""stimulus"":""img/2to3/10.png"",""time"":1005},{""stimulus"":""img/2to3/11.png"",""time"":1107},{""stimulus"":""img/2to3/12.png"",""time"":1205}]","[]",""
"image-keyboard-response","54","85279","0.0-5.0-1.24","","null","","","","","","img/3to2/1.png","null","201","750","0.6","0.6","3","2","","",""
"animation","55","86586","0.0-5.0-2.24","","","","","","","","","","201","750","","","3","2","[{""stimulus"":""img/3to2/1.png"",""time"":108},{""stimulus"":""img/3to2/2.png"",""time"":209},{""stimulus"":""img/3to2/3.png"",""time"":306},{""stimulus"":""img/3to2/4.png"",""time"":409},{""stimulus"":""img/3to2/5.png"",""time"":506},{""stimulus"":""img/3to2/6.png"",""time"":611},{""stimulus"":""img/3to2/7.png"",""time"":708},{""stimulus"":""img/3to2/8.png"",""time"":808},{""stimulus"":""img/3to2/9.png"",""time"":906},{""stimulus"":""img/3to2/10.png"",""time"":1009},{""stimulus"":""img/3to2/11.png"",""time"":1108},{""stimulus"":""img/3to2/12.png"",""time"":1208}]","[]",""
"image-keyboard-response","56","87125","0.0-5.0-1.25","","538","","","","","","img/2to1/1.png","1","200","750","0.6","0.6","2","1","","",""
"animation","57","88435","0.0-5.0-2.25","","","","","","","","","","200","750","","","2","1","[{""stimulus"":""img/2to1/1.png"",""time"":110},{""stimulus"":""img/2to1/2.png"",""time"":203},{""stimulus"":""img/2to1/3.png"",""time"":310},{""stimulus"":""img/2to1/4.png"",""time"":404},{""stimulus"":""img/2to1/5.png"",""time"":510},{""stimulus"":""img/2to1/6.png"",""time"":602},{""stimulus"":""img/2to1/7.png"",""time"":710},{""stimulus"":""img/2to1/8.png"",""time"":806},{""stimulus"":""img/2to1/9.png"",""time"":910},{""stimulus"":""img/2to1/10.png"",""time"":1003},{""stimulus"":""img/2to1/11.png"",""time"":1110},{""stimulus"":""img/2to1/12.png"",""time"":1205}]","[]",""
"image-keyboard-response","58","89193","0.0-5.0-1.26","","null","","","","","","img/1to3/1.png","null","199","750","0.6","0.6","1","2","","",""
"animation","59","90496","0.0-5.0-2.26","","","","","","","","","","199","750","","","1","2","[{""stimulus"":""img/1to2/1.png"",""time"":103},{""stimulus"":""img/1to2/2.png"",""time"":210},{""stimulus"":""img/1to2/3.png"",""time"":304},{""stimulus"":""img/1to2/4.png"",""time"":409},{""stimulus"":""img/1to2/5.png"",""time"":503},{""stimulus"":""img/1to2/6.png"",""time"":609},{""stimulus"":""img/1to2/7.png"",""time"":704},{""stimulus"":""img/1to2/8.png"",""time"":809},{""stimulus"":""img/1to2/9.png"",""time"":906},{""stimulus"":""img/1to2/10.png"",""time"":1008},{""stimulus"":""img/1to2/11.png"",""time"":1104},{""stimulus"":""img/1to2/12.png"",""time"":1213}]","[]",""
"image-keyboard-response","60","90883","0.0-5.0-1.27","","386","","","","","","img/2to1/1.png","2","198","750","0.6","0.6","2","3","","",""
"animation","61","92194","0.0-5.0-2.27","","","","","","","","","","198","750","","","2","3","[{""stimulus"":""img/2to3/1.png"",""time"":111},{""stimulus"":""img/2to3/2.png"",""time"":205},{""stimulus"":""img/2to3/3.png"",""time"":311},{""stimulus"":""img/2to3/4.png"",""time"":405},{""stimulus"":""img/2to3/5.png"",""time"":511},{""stimulus"":""img/2to3/6.png"",""time"":605},{""stimulus"":""img/2to3/7.png"",""time"":710},{""stimulus"":""img/2to3/8.png"",""time"":805},{""stimulus"":""img/2to3/9.png"",""time"":910},{""stimulus"":""img/2to3/10.png"",""time"":1005},{""stimulus"":""img/2to3/11.png"",""time"":1109},{""stimulus"":""img/2to3/12.png"",""time"":1204}]","[]",""
"image-keyboard-response","62","92948","0.0-5.0-1.28","","null","","","","","","img/3to2/1.png","null","197","750","0.6","0.6","3","2","","",""
"animation","63","94253","0.0-5.0-2.28","","","","","","","","","","197","750","","","3","2","[{""stimulus"":""img/3to2/1.png"",""time"":107},{""stimulus"":""img/3to2/2.png"",""time"":207},{""stimulus"":""img/3to2/3.png"",""time"":306},{""stimulus"":""img/3to2/4.png"",""time"":406},{""stimulus"":""img/3to2/5.png"",""time"":506},{""stimulus"":""img/3to2/6.png"",""time"":607},{""stimulus"":""img/3to2/7.png"",""time"":706},{""stimulus"":""img/3to2/8.png"",""time"":808},{""stimulus"":""img/3to2/9.png"",""time"":905},{""stimulus"":""img/3to2/10.png"",""time"":1005},{""stimulus"":""img/3to2/11.png"",""time"":1104},{""stimulus"":""img/3to2/12.png"",""time"":1205}]","[]",""
"image-keyboard-response","64","95062","0.0-5.0-1.29","","809","","","","","","img/2to1/1.png","1","196","750","0.6","0.6","2","1","","",""
"animation","65","96365","0.0-5.0-2.29","","","","","","","","","","196","750","","","2","1","[{""stimulus"":""img/2to1/1.png"",""time"":107},{""stimulus"":""img/2to1/2.png"",""time"":208},{""stimulus"":""img/2to1/3.png"",""time"":306},{""stimulus"":""img/2to1/4.png"",""time"":409},{""stimulus"":""img/2to1/5.png"",""time"":505},{""stimulus"":""img/2to1/6.png"",""time"":610},{""stimulus"":""img/2to1/7.png"",""time"":706},{""stimulus"":""img/2to1/8.png"",""time"":809},{""stimulus"":""img/2to1/9.png"",""time"":904},{""stimulus"":""img/2to1/10.png"",""time"":1007},{""stimulus"":""img/2to1/11.png"",""time"":1104},{""stimulus"":""img/2to1/12.png"",""time"":1206}]","[]",""
"image-keyboard-response","66","97122","0.0-5.0-1.30","","null","","","","","","img/1to3/1.png","null","195","750","0.6","0.6","1","2","","",""
"animation","67","98427","0.0-5.0-2.30","","","","","","","","","","195","750","","","1","2","[{""stimulus"":""img/1to2/1.png"",""time"":108},{""stimulus"":""img/1to2/2.png"",""time"":208},{""stimulus"":""img/1to2/3.png"",""time"":308},{""stimulus"":""img/1to2/4.png"",""time"":408},{""stimulus"":""img/1to2/5.png"",""time"":507},{""stimulus"":""img/1to2/6.png"",""time"":607},{""stimulus"":""img/1to2/7.png"",""time"":707},{""stimulus"":""img/1to2/8.png"",""time"":810},{""stimulus"":""img/1to2/9.png"",""time"":906},{""stimulus"":""img/1to2/10.png"",""time"":1006},{""stimulus"":""img/1to2/11.png"",""time"":1106},{""stimulus"":""img/1to2/12.png"",""time"":1209}]","[]",""
"image-keyboard-response","68","99827","0.0-5.0-1.31","","1399","","","","","","img/2to1/1.png","2","194","750","0.6","0.6","2","3","","",""
"animation","69","101133","0.0-5.0-2.31","","","","","","","","","","194","750","","","2","3","[{""stimulus"":""img/2to3/1.png"",""time"":105},{""stimulus"":""img/2to3/2.png"",""time"":205},{""stimulus"":""img/2to3/3.png"",""time"":305},{""stimulus"":""img/2to3/4.png"",""time"":404},{""stimulus"":""img/2to3/5.png"",""time"":505},{""stimulus"":""img/2to3/6.png"",""time"":604},{""stimulus"":""img/2to3/7.png"",""time"":704},{""stimulus"":""img/2to3/8.png"",""time"":804},{""stimulus"":""img/2to3/9.png"",""time"":907},{""stimulus"":""img/2to3/10.png"",""time"":1003},{""stimulus"":""img/2to3/11.png"",""time"":1104},{""stimulus"":""img/2to3/12.png"",""time"":1203}]","[]",""
"image-keyboard-response","70","101893","0.0-5.0-1.32","","null","","","","","","img/3to2/1.png","null","193","750","0.6","0.6","3","2","","",""
"animation","71","103203","0.0-5.0-2.32","","","","","","","","","","193","750","","","3","2","[{""stimulus"":""img/3to2/1.png"",""time"":112},{""stimulus"":""img/3to2/2.png"",""time"":209},{""stimulus"":""img/3to2/3.png"",""time"":312},{""stimulus"":""img/3to2/4.png"",""time"":405},{""stimulus"":""img/3to2/5.png"",""time"":508},{""stimulus"":""img/3to2/6.png"",""time"":603},{""stimulus"":""img/3to2/7.png"",""time"":711},{""stimulus"":""img/3to2/8.png"",""time"":804},{""stimulus"":""img/3to2/9.png"",""time"":910},{""stimulus"":""img/3to2/10.png"",""time"":1004},{""stimulus"":""img/3to2/11.png"",""time"":1110},{""stimulus"":""img/3to2/12.png"",""time"":1207}]","[]",""
"","","","","","","blur","72","103529","blurevent","","","","","","","","","","","","3"
"","","","","","","focus","72","1607362","focusevent","","","","","","","","","","","",""
"","","","","","","blur","72","1611310","blurevent","","","","","","","","","","","",""
"","","","","","","focus","72","1621949","focusevent","","","","","","","","","","","",""
"","","","","","","blur","72","1623901","blurevent","","","","","","","","","","","",""
"","","","","","","focus","72","1630732","focusevent","","","","","","","","","","","",""
"","","","","","","blur","72","1634388","blurevent","","","","","","","","","","","",""
"","","","","","","focus","72","1634389","focusevent","","","","","","","","","","","",""
