"trial_type","trial_index","time_elapsed","internal_node_id","subject_id","task","startTime","totalTime","fairPartner","unfairPartner","view_history","rt","event","trial","time","trialtype","success","stimulus","key_press","throwsLeft","rtDur","pFair","pUnfair","holder","receiver","animation_sequence","responses"
"pavlovia","0","4","0.0-0.0","6105338a15c74e8435e95c71","bdp_cybrbll","Tue Mar 28 2023 15:02:52 GMT-0400 (Eastern Daylight Time)","435873","1","3","","","","","","","","","","","","","","","","",""
"instructions","1","3433","0.0-1.0","6105338a15c74e8435e95c71","bdp_cybrbll","Tue Mar 28 2023 15:02:52 GMT-0400 (Eastern Daylight Time)","435873","1","3","[{""page_index"":0,""viewing_time"":3428}]","3428","","","","","","","","","","","","","","",""
"","","","","6105338a15c74e8435e95c71","bdp_cybrbll","Tue Mar 28 2023 15:02:52 GMT-0400 (Eastern Daylight Time)","435873","1","3","","","fullscreenenter","2","5710","fullscreenenter","","","","","","","","","","",""
"fullscreen","2","6711","0.0-2.0","6105338a15c74e8435e95c71","bdp_cybrbll","Tue Mar 28 2023 15:02:52 GMT-0400 (Eastern Daylight Time)","435873","1","3","","","","","","","true","","","","","","","","","",""
"instructions","3","39379","0.0-4.0","6105338a15c74e8435e95c71","bdp_cybrbll","Tue Mar 28 2023 15:02:52 GMT-0400 (Eastern Daylight Time)","435873","1","3","[{""page_index"":0,""viewing_time"":32667}]","32667","","","","","","","","","","","","","","",""
"image-keyboard-response","4","43479","0.0-5.0-1.0","6105338a15c74e8435e95c71","bdp_cybrbll","Tue Mar 28 2023 15:02:52 GMT-0400 (Eastern Daylight Time)","435873","1","3","","4097","","","","choice","","img/2to1/1.png","2","225","871","0.5","0.5","2","3","",""
"animation","5","44775","0.0-5.0-2.0","6105338a15c74e8435e95c71","bdp_cybrbll","Tue Mar 28 2023 15:02:52 GMT-0400 (Eastern Daylight Time)","435873","1","3","","","","","","","","","","225","","","","2","3","[{""stimulus"":""img/2to3/1.png"",""time"":107},{""stimulus"":""img/2to3/2.png"",""time"":208},{""stimulus"":""img/2to3/3.png"",""time"":303},{""stimulus"":""img/2to3/4.png"",""time"":407},{""stimulus"":""img/2to3/5.png"",""time"":503},{""stimulus"":""img/2to3/6.png"",""time"":607},{""stimulus"":""img/2to3/7.png"",""time"":703},{""stimulus"":""img/2to3/8.png"",""time"":797},{""stimulus"":""img/2to3/9.png"",""time"":903},{""stimulus"":""img/2to3/10.png"",""time"":996},{""stimulus"":""img/2to3/11.png"",""time"":1095},{""stimulus"":""img/2to3/12.png"",""time"":1196}]","[]"
"image-keyboard-response","6","45067","0.0-5.0-1.1","6105338a15c74e8435e95c71","bdp_cybrbll","Tue Mar 28 2023 15:02:52 GMT-0400 (Eastern Daylight Time)","435873","1","3","","null","","","","observe","","img/3to2/1.png","null","224","285","0.5","0.5","3","2","",""
"animation","7","46367","0.0-5.0-2.1","6105338a15c74e8435e95c71","bdp_cybrbll","Tue Mar 28 2023 15:02:52 GMT-0400 (Eastern Daylight Time)","435873","1","3","","","","","","","","","","224","","","","3","2","[{""stimulus"":""img/3to2/1.png"",""time"":108},{""stimulus"":""img/3to2/2.png"",""time"":201},{""stimulus"":""img/3to2/3.png"",""time"":307},{""stimulus"":""img/3to2/4.png"",""time"":403},{""stimulus"":""img/3to2/5.png"",""time"":500},{""stimulus"":""img/3to2/6.png"",""time"":599},{""stimulus"":""img/3to2/7.png"",""time"":699},{""stimulus"":""img/3to2/8.png"",""time"":803},{""stimulus"":""img/3to2/9.png"",""time"":899},{""stimulus"":""img/3to2/10.png"",""time"":1003},{""stimulus"":""img/3to2/11.png"",""time"":1096},{""stimulus"":""img/3to2/12.png"",""time"":1195}]","[]"
"image-keyboard-response","8","47704","0.0-5.0-1.2","6105338a15c74e8435e95c71","bdp_cybrbll","Tue Mar 28 2023 15:02:52 GMT-0400 (Eastern Daylight Time)","435873","1","3","","1336","","","","choice","","img/2to1/1.png","1","223","791","0.5","0.5","2","1","",""
"animation","9","48995","0.0-5.0-2.2","6105338a15c74e8435e95c71","bdp_cybrbll","Tue Mar 28 2023 15:02:52 GMT-0400 (Eastern Daylight Time)","435873","1","3","","","","","","","","","","223","","","","2","1","[{""stimulus"":""img/2to1/1.png"",""time"":111},{""stimulus"":""img/2to1/2.png"",""time"":205},{""stimulus"":""img/2to1/3.png"",""time"":306},{""stimulus"":""img/2to1/4.png"",""time"":405},{""stimulus"":""img/2to1/5.png"",""time"":502},{""stimulus"":""img/2to1/6.png"",""time"":606},{""stimulus"":""img/2to1/7.png"",""time"":702},{""stimulus"":""img/2to1/8.png"",""time"":798},{""stimulus"":""img/2to1/9.png"",""time"":902},{""stimulus"":""img/2to1/10.png"",""time"":995},{""stimulus"":""img/2to1/11.png"",""time"":1102},{""stimulus"":""img/2to1/12.png"",""time"":1198}]","[]"
"image-keyboard-response","10","49887","0.0-5.0-1.3","6105338a15c74e8435e95c71","bdp_cybrbll","Tue Mar 28 2023 15:02:52 GMT-0400 (Eastern Daylight Time)","435873","1","3","","null","","","","observe","","img/1to3/1.png","null","222","881","0.5","0.5","1","3","",""
"animation","11","51179","0.0-5.0-2.3","6105338a15c74e8435e95c71","bdp_cybrbll","Tue Mar 28 2023 15:02:52 GMT-0400 (Eastern Daylight Time)","435873","1","3","","","","","","","","","","222","","","","1","3","[{""stimulus"":""img/1to3/1.png"",""time"":109},{""stimulus"":""img/1to3/2.png"",""time"":205},{""stimulus"":""img/1to3/3.png"",""time"":301},{""stimulus"":""img/1to3/4.png"",""time"":404},{""stimulus"":""img/1to3/5.png"",""time"":504},{""stimulus"":""img/1to3/6.png"",""time"":600},{""stimulus"":""img/1to3/7.png"",""time"":704},{""stimulus"":""img/1to3/8.png"",""time"":800},{""stimulus"":""img/1to3/9.png"",""time"":900},{""stimulus"":""img/1to3/10.png"",""time"":997},{""stimulus"":""img/1to3/11.png"",""time"":1093},{""stimulus"":""img/1to3/12.png"",""time"":1200}]","[]"
"image-keyboard-response","12","51461","0.0-5.0-1.4","6105338a15c74e8435e95c71","bdp_cybrbll","Tue Mar 28 2023 15:02:52 GMT-0400 (Eastern Daylight Time)","435873","1","3","","null","","","","observe","","img/3to2/1.png","null","221","270","0.5","0.5","3","1","",""
"animation","13","52756","0.0-5.0-2.4","6105338a15c74e8435e95c71","bdp_cybrbll","Tue Mar 28 2023 15:02:52 GMT-0400 (Eastern Daylight Time)","435873","1","3","","","","","","","","","","221","","","","3","1","[{""stimulus"":""img/3to1/1.png"",""time"":102},{""stimulus"":""img/3to1/2.png"",""time"":209},{""stimulus"":""img/3to1/3.png"",""time"":305},{""stimulus"":""img/3to1/4.png"",""time"":405},{""stimulus"":""img/3to1/5.png"",""time"":501},{""stimulus"":""img/3to1/6.png"",""time"":599},{""stimulus"":""img/3to1/7.png"",""time"":705},{""stimulus"":""img/3to1/8.png"",""time"":797},{""stimulus"":""img/3to1/9.png"",""time"":892},{""stimulus"":""img/3to1/10.png"",""time"":1000},{""stimulus"":""img/3to1/11.png"",""time"":1097},{""stimulus"":""img/3to1/12.png"",""time"":1197}]","[]"
"image-keyboard-response","14","53027","0.0-5.0-1.5","6105338a15c74e8435e95c71","bdp_cybrbll","Tue Mar 28 2023 15:02:52 GMT-0400 (Eastern Daylight Time)","435873","1","3","","null","","","","observe","","img/1to3/1.png","null","220","265","0.5","0.5","1","2","",""
"animation","15","54325","0.0-5.0-2.5","6105338a15c74e8435e95c71","bdp_cybrbll","Tue Mar 28 2023 15:02:52 GMT-0400 (Eastern Daylight Time)","435873","1","3","","","","","","","","","","220","","","","1","2","[{""stimulus"":""img/1to2/1.png"",""time"":104},{""stimulus"":""img/1to2/2.png"",""time"":202},{""stimulus"":""img/1to2/3.png"",""time"":307},{""stimulus"":""img/1to2/4.png"",""time"":403},{""stimulus"":""img/1to2/5.png"",""time"":508},{""stimulus"":""img/1to2/6.png"",""time"":600},{""stimulus"":""img/1to2/7.png"",""time"":697},{""stimulus"":""img/1to2/8.png"",""time"":804},{""stimulus"":""img/1to2/9.png"",""time"":901},{""stimulus"":""img/1to2/10.png"",""time"":996},{""stimulus"":""img/1to2/11.png"",""time"":1100},{""stimulus"":""img/1to2/12.png"",""time"":1196}]","[]"
"image-keyboard-response","16","54717","0.0-5.0-1.6","6105338a15c74e8435e95c71","bdp_cybrbll","Tue Mar 28 2023 15:02:52 GMT-0400 (Eastern Daylight Time)","435873","1","3","","390","","","","choice","","img/2to1/1.png","2","219","380","0.5","0.5","2","3","",""
"animation","17","56015","0.0-5.0-2.6","6105338a15c74e8435e95c71","bdp_cybrbll","Tue Mar 28 2023 15:02:52 GMT-0400 (Eastern Daylight Time)","435873","1","3","","","","","","","","","","219","","","","2","3","[{""stimulus"":""img/2to3/1.png"",""time"":102},{""stimulus"":""img/2to3/2.png"",""time"":206},{""stimulus"":""img/2to3/3.png"",""time"":306},{""stimulus"":""img/2to3/4.png"",""time"":397},{""stimulus"":""img/2to3/5.png"",""time"":506},{""stimulus"":""img/2to3/6.png"",""time"":598},{""stimulus"":""img/2to3/7.png"",""time"":702},{""stimulus"":""img/2to3/8.png"",""time"":802},{""stimulus"":""img/2to3/9.png"",""time"":896},{""stimulus"":""img/2to3/10.png"",""time"":1002},{""stimulus"":""img/2to3/11.png"",""time"":1098},{""stimulus"":""img/2to3/12.png"",""time"":1189}]","[]"
"image-keyboard-response","18","56823","0.0-5.0-1.7","6105338a15c74e8435e95c71","bdp_cybrbll","Tue Mar 28 2023 15:02:52 GMT-0400 (Eastern Daylight Time)","435873","1","3","","null","","","","observe","","img/3to2/1.png","null","218","800","0.5","0.5","3","2","",""
"animation","19","58119","0.0-5.0-2.7","6105338a15c74e8435e95c71","bdp_cybrbll","Tue Mar 28 2023 15:02:52 GMT-0400 (Eastern Daylight Time)","435873","1","3","","","","","","","","","","218","","","","3","2","[{""stimulus"":""img/3to2/1.png"",""time"":113},{""stimulus"":""img/3to2/2.png"",""time"":206},{""stimulus"":""img/3to2/3.png"",""time"":304},{""stimulus"":""img/3to2/4.png"",""time"":407},{""stimulus"":""img/3to2/5.png"",""time"":504},{""stimulus"":""img/3to2/6.png"",""time"":596},{""stimulus"":""img/3to2/7.png"",""time"":700},{""stimulus"":""img/3to2/8.png"",""time"":800},{""stimulus"":""img/3to2/9.png"",""time"":900},{""stimulus"":""img/3to2/10.png"",""time"":1000},{""stimulus"":""img/3to2/11.png"",""time"":1094},{""stimulus"":""img/3to2/12.png"",""time"":1199}]","[]"
"image-keyboard-response","20","59068","0.0-5.0-1.8","6105338a15c74e8435e95c71","bdp_cybrbll","Tue Mar 28 2023 15:02:52 GMT-0400 (Eastern Daylight Time)","435873","1","3","","948","","","","choice","","img/2to1/1.png","1","217","337","0.5","0.5","2","1","",""
"animation","21","60367","0.0-5.0-2.8","6105338a15c74e8435e95c71","bdp_cybrbll","Tue Mar 28 2023 15:02:52 GMT-0400 (Eastern Daylight Time)","435873","1","3","","","","","","","","","","217","","","","2","1","[{""stimulus"":""img/2to1/1.png"",""time"":104},{""stimulus"":""img/2to1/2.png"",""time"":210},{""stimulus"":""img/2to1/3.png"",""time"":302},{""stimulus"":""img/2to1/4.png"",""time"":402},{""stimulus"":""img/2to1/5.png"",""time"":506},{""stimulus"":""img/2to1/6.png"",""time"":597},{""stimulus"":""img/2to1/7.png"",""time"":702},{""stimulus"":""img/2to1/8.png"",""time"":802},{""stimulus"":""img/2to1/9.png"",""time"":898},{""stimulus"":""img/2to1/10.png"",""time"":997},{""stimulus"":""img/2to1/11.png"",""time"":1096},{""stimulus"":""img/2to1/12.png"",""time"":1194}]","[]"
"image-keyboard-response","22","60783","0.0-5.0-1.9","6105338a15c74e8435e95c71","bdp_cybrbll","Tue Mar 28 2023 15:02:52 GMT-0400 (Eastern Daylight Time)","435873","1","3","","null","","","","observe","","img/1to3/1.png","null","216","408","0.5","0.5","1","3","",""
"animation","23","62077","0.0-5.0-2.9","6105338a15c74e8435e95c71","bdp_cybrbll","Tue Mar 28 2023 15:02:52 GMT-0400 (Eastern Daylight Time)","435873","1","3","","","","","","","","","","216","","","","1","3","[{""stimulus"":""img/1to3/1.png"",""time"":112},{""stimulus"":""img/1to3/2.png"",""time"":204},{""stimulus"":""img/1to3/3.png"",""time"":303},{""stimulus"":""img/1to3/4.png"",""time"":406},{""stimulus"":""img/1to3/5.png"",""time"":504},{""stimulus"":""img/1to3/6.png"",""time"":600},{""stimulus"":""img/1to3/7.png"",""time"":700},{""stimulus"":""img/1to3/8.png"",""time"":800},{""stimulus"":""img/1to3/9.png"",""time"":904},{""stimulus"":""img/1to3/10.png"",""time"":1000},{""stimulus"":""img/1to3/11.png"",""time"":1093},{""stimulus"":""img/1to3/12.png"",""time"":1198}]","[]"
"image-keyboard-response","24","62407","0.0-5.0-1.10","6105338a15c74e8435e95c71","bdp_cybrbll","Tue Mar 28 2023 15:02:52 GMT-0400 (Eastern Daylight Time)","435873","1","3","","null","","","","observe","","img/3to2/1.png","null","215","319","0.5","0.5","3","1","",""
"animation","25","63698","0.0-5.0-2.10","6105338a15c74e8435e95c71","bdp_cybrbll","Tue Mar 28 2023 15:02:52 GMT-0400 (Eastern Daylight Time)","435873","1","3","","","","","","","","","","215","","","","3","1","[{""stimulus"":""img/3to1/1.png"",""time"":112},{""stimulus"":""img/3to1/2.png"",""time"":208},{""stimulus"":""img/3to1/3.png"",""time"":304},{""stimulus"":""img/3to1/4.png"",""time"":405},{""stimulus"":""img/3to1/5.png"",""time"":504},{""stimulus"":""img/3to1/6.png"",""time"":600},{""stimulus"":""img/3to1/7.png"",""time"":701},{""stimulus"":""img/3to1/8.png"",""time"":800},{""stimulus"":""img/3to1/9.png"",""time"":902},{""stimulus"":""img/3to1/10.png"",""time"":996},{""stimulus"":""img/3to1/11.png"",""time"":1096},{""stimulus"":""img/3to1/12.png"",""time"":1200}]","[]"
"image-keyboard-response","26","64263","0.0-5.0-1.11","6105338a15c74e8435e95c71","bdp_cybrbll","Tue Mar 28 2023 15:02:52 GMT-0400 (Eastern Daylight Time)","435873","1","3","","null","","","","observe","","img/1to3/1.png","null","214","552","0.5","0.5","1","3","",""
"animation","27","65554","0.0-5.0-2.11","6105338a15c74e8435e95c71","bdp_cybrbll","Tue Mar 28 2023 15:02:52 GMT-0400 (Eastern Daylight Time)","435873","1","3","","","","","","","","","","214","","","","1","3","[{""stimulus"":""img/1to3/1.png"",""time"":112},{""stimulus"":""img/1to3/2.png"",""time"":206},{""stimulus"":""img/1to3/3.png"",""time"":304},{""stimulus"":""img/1to3/4.png"",""time"":408},{""stimulus"":""img/1to3/5.png"",""time"":500},{""stimulus"":""img/1to3/6.png"",""time"":600},{""stimulus"":""img/1to3/7.png"",""time"":696},{""stimulus"":""img/1to3/8.png"",""time"":796},{""stimulus"":""img/1to3/9.png"",""time"":896},{""stimulus"":""img/1to3/10.png"",""time"":1000},{""stimulus"":""img/1to3/11.png"",""time"":1096},{""stimulus"":""img/1to3/12.png"",""time"":1200}]","[]"
"image-keyboard-response","28","66487","0.0-5.0-1.12","6105338a15c74e8435e95c71","bdp_cybrbll","Tue Mar 28 2023 15:02:52 GMT-0400 (Eastern Daylight Time)","435873","1","3","","null","","","","observe","","img/3to2/1.png","null","213","921","0.5","0.5","3","1","",""
"animation","29","67782","0.0-5.0-2.12","6105338a15c74e8435e95c71","bdp_cybrbll","Tue Mar 28 2023 15:02:52 GMT-0400 (Eastern Daylight Time)","435873","1","3","","","","","","","","","","213","","","","3","1","[{""stimulus"":""img/3to1/1.png"",""time"":108},{""stimulus"":""img/3to1/2.png"",""time"":208},{""stimulus"":""img/3to1/3.png"",""time"":299},{""stimulus"":""img/3to1/4.png"",""time"":406},{""stimulus"":""img/3to1/5.png"",""time"":501},{""stimulus"":""img/3to1/6.png"",""time"":608},{""stimulus"":""img/3to1/7.png"",""time"":700},{""stimulus"":""img/3to1/8.png"",""time"":798},{""stimulus"":""img/3to1/9.png"",""time"":904},{""stimulus"":""img/3to1/10.png"",""time"":996},{""stimulus"":""img/3to1/11.png"",""time"":1096},{""stimulus"":""img/3to1/12.png"",""time"":1199}]","[]"
"image-keyboard-response","30","67974","0.0-5.0-1.13","6105338a15c74e8435e95c71","bdp_cybrbll","Tue Mar 28 2023 15:02:52 GMT-0400 (Eastern Daylight Time)","435873","1","3","","null","","","","observe","","img/1to3/1.png","null","212","180","0.5","0.5","1","3","",""
"animation","31","69270","0.0-5.0-2.13","6105338a15c74e8435e95c71","bdp_cybrbll","Tue Mar 28 2023 15:02:52 GMT-0400 (Eastern Daylight Time)","435873","1","3","","","","","","","","","","212","","","","1","3","[{""stimulus"":""img/1to3/1.png"",""time"":112},{""stimulus"":""img/1to3/2.png"",""time"":203},{""stimulus"":""img/1to3/3.png"",""time"":304},{""stimulus"":""img/1to3/4.png"",""time"":406},{""stimulus"":""img/1to3/5.png"",""time"":500},{""stimulus"":""img/1to3/6.png"",""time"":596},{""stimulus"":""img/1to3/7.png"",""time"":699},{""stimulus"":""img/1to3/8.png"",""time"":800},{""stimulus"":""img/1to3/9.png"",""time"":904},{""stimulus"":""img/1to3/10.png"",""time"":1000},{""stimulus"":""img/1to3/11.png"",""time"":1096},{""stimulus"":""img/1to3/12.png"",""time"":1200}]","[]"
"image-keyboard-response","32","69574","0.0-5.0-1.14","6105338a15c74e8435e95c71","bdp_cybrbll","Tue Mar 28 2023 15:02:52 GMT-0400 (Eastern Daylight Time)","435873","1","3","","null","","","","observe","","img/3to2/1.png","null","211","292","0.5","0.5","3","1","",""
"animation","33","70869","0.0-5.0-2.14","6105338a15c74e8435e95c71","bdp_cybrbll","Tue Mar 28 2023 15:02:52 GMT-0400 (Eastern Daylight Time)","435873","1","3","","","","","","","","","","211","","","","3","1","[{""stimulus"":""img/3to1/1.png"",""time"":112},{""stimulus"":""img/3to1/2.png"",""time"":204},{""stimulus"":""img/3to1/3.png"",""time"":304},{""stimulus"":""img/3to1/4.png"",""time"":408},{""stimulus"":""img/3to1/5.png"",""time"":499},{""stimulus"":""img/3to1/6.png"",""time"":600},{""stimulus"":""img/3to1/7.png"",""time"":704},{""stimulus"":""img/3to1/8.png"",""time"":800},{""stimulus"":""img/3to1/9.png"",""time"":904},{""stimulus"":""img/3to1/10.png"",""time"":996},{""stimulus"":""img/3to1/11.png"",""time"":1096},{""stimulus"":""img/3to1/12.png"",""time"":1196}]","[]"
"image-keyboard-response","34","71278","0.0-5.0-1.15","6105338a15c74e8435e95c71","bdp_cybrbll","Tue Mar 28 2023 15:02:52 GMT-0400 (Eastern Daylight Time)","435873","1","3","","null","","","","observe","","img/1to3/1.png","null","210","402","0.5","0.5","1","3","",""
"animation","35","72570","0.0-5.0-2.15","6105338a15c74e8435e95c71","bdp_cybrbll","Tue Mar 28 2023 15:02:52 GMT-0400 (Eastern Daylight Time)","435873","1","3","","","","","","","","","","210","","","","1","3","[{""stimulus"":""img/1to3/1.png"",""time"":112},{""stimulus"":""img/1to3/2.png"",""time"":206},{""stimulus"":""img/1to3/3.png"",""time"":300},{""stimulus"":""img/1to3/4.png"",""time"":405},{""stimulus"":""img/1to3/5.png"",""time"":503},{""stimulus"":""img/1to3/6.png"",""time"":600},{""stimulus"":""img/1to3/7.png"",""time"":704},{""stimulus"":""img/1to3/8.png"",""time"":800},{""stimulus"":""img/1to3/9.png"",""time"":904},{""stimulus"":""img/1to3/10.png"",""time"":996},{""stimulus"":""img/1to3/11.png"",""time"":1096},{""stimulus"":""img/1to3/12.png"",""time"":1200}]","[]"
"image-keyboard-response","36","73013","0.0-5.0-1.16","6105338a15c74e8435e95c71","bdp_cybrbll","Tue Mar 28 2023 15:02:52 GMT-0400 (Eastern Daylight Time)","435873","1","3","","null","","","","observe","","img/3to2/1.png","null","209","434","0.5","0.5","3","2","",""
"animation","37","74306","0.0-5.0-2.16","6105338a15c74e8435e95c71","bdp_cybrbll","Tue Mar 28 2023 15:02:52 GMT-0400 (Eastern Daylight Time)","435873","1","3","","","","","","","","","","209","","","","3","2","[{""stimulus"":""img/3to2/1.png"",""time"":103},{""stimulus"":""img/3to2/2.png"",""time"":210},{""stimulus"":""img/3to2/3.png"",""time"":302},{""stimulus"":""img/3to2/4.png"",""time"":410},{""stimulus"":""img/3to2/5.png"",""time"":501},{""stimulus"":""img/3to2/6.png"",""time"":602},{""stimulus"":""img/3to2/7.png"",""time"":702},{""stimulus"":""img/3to2/8.png"",""time"":801},{""stimulus"":""img/3to2/9.png"",""time"":898},{""stimulus"":""img/3to2/10.png"",""time"":998},{""stimulus"":""img/3to2/11.png"",""time"":1094},{""stimulus"":""img/3to2/12.png"",""time"":1202}]","[]"
"image-keyboard-response","38","74853","0.0-5.0-1.17","6105338a15c74e8435e95c71","bdp_cybrbll","Tue Mar 28 2023 15:02:52 GMT-0400 (Eastern Daylight Time)","435873","1","3","","546","","","","choice","","img/2to1/1.png","2","208","488","0.5","0.5","2","3","",""
"animation","39","76146","0.0-5.0-2.17","6105338a15c74e8435e95c71","bdp_cybrbll","Tue Mar 28 2023 15:02:52 GMT-0400 (Eastern Daylight Time)","435873","1","3","","","","","","","","","","208","","","","2","3","[{""stimulus"":""img/2to3/1.png"",""time"":106},{""stimulus"":""img/2to3/2.png"",""time"":210},{""stimulus"":""img/2to3/3.png"",""time"":306},{""stimulus"":""img/2to3/4.png"",""time"":410},{""stimulus"":""img/2to3/5.png"",""time"":501},{""stimulus"":""img/2to3/6.png"",""time"":602},{""stimulus"":""img/2to3/7.png"",""time"":702},{""stimulus"":""img/2to3/8.png"",""time"":798},{""stimulus"":""img/2to3/9.png"",""time"":893},{""stimulus"":""img/2to3/10.png"",""time"":997},{""stimulus"":""img/2to3/11.png"",""time"":1098},{""stimulus"":""img/2to3/12.png"",""time"":1202}]","[]"
"image-keyboard-response","40","76478","0.0-5.0-1.18","6105338a15c74e8435e95c71","bdp_cybrbll","Tue Mar 28 2023 15:02:52 GMT-0400 (Eastern Daylight Time)","435873","1","3","","null","","","","observe","","img/3to2/1.png","null","207","321","0.5","0.5","3","2","",""
"animation","41","77769","0.0-5.0-2.18","6105338a15c74e8435e95c71","bdp_cybrbll","Tue Mar 28 2023 15:02:52 GMT-0400 (Eastern Daylight Time)","435873","1","3","","","","","","","","","","207","","","","3","2","[{""stimulus"":""img/3to2/1.png"",""time"":108},{""stimulus"":""img/3to2/2.png"",""time"":208},{""stimulus"":""img/3to2/3.png"",""time"":299},{""stimulus"":""img/3to2/4.png"",""time"":405},{""stimulus"":""img/3to2/5.png"",""time"":504},{""stimulus"":""img/3to2/6.png"",""time"":600},{""stimulus"":""img/3to2/7.png"",""time"":700},{""stimulus"":""img/3to2/8.png"",""time"":796},{""stimulus"":""img/3to2/9.png"",""time"":904},{""stimulus"":""img/3to2/10.png"",""time"":999},{""stimulus"":""img/3to2/11.png"",""time"":1095},{""stimulus"":""img/3to2/12.png"",""time"":1200}]","[]"
"image-keyboard-response","42","78116","0.0-5.0-1.19","6105338a15c74e8435e95c71","bdp_cybrbll","Tue Mar 28 2023 15:02:52 GMT-0400 (Eastern Daylight Time)","435873","1","3","","345","","","","choice","","img/2to1/1.png","2","206","1180","0.5","0.5","2","3","",""
"animation","43","79409","0.0-5.0-2.19","6105338a15c74e8435e95c71","bdp_cybrbll","Tue Mar 28 2023 15:02:52 GMT-0400 (Eastern Daylight Time)","435873","1","3","","","","","","","","","","206","","","","2","3","[{""stimulus"":""img/2to3/1.png"",""time"":103},{""stimulus"":""img/2to3/2.png"",""time"":211},{""stimulus"":""img/2to3/3.png"",""time"":302},{""stimulus"":""img/2to3/4.png"",""time"":403},{""stimulus"":""img/2to3/5.png"",""time"":507},{""stimulus"":""img/2to3/6.png"",""time"":599},{""stimulus"":""img/2to3/7.png"",""time"":707},{""stimulus"":""img/2to3/8.png"",""time"":798},{""stimulus"":""img/2to3/9.png"",""time"":898},{""stimulus"":""img/2to3/10.png"",""time"":1002},{""stimulus"":""img/2to3/11.png"",""time"":1094},{""stimulus"":""img/2to3/12.png"",""time"":1192}]","[]"
"image-keyboard-response","44","80299","0.0-5.0-1.20","6105338a15c74e8435e95c71","bdp_cybrbll","Tue Mar 28 2023 15:02:52 GMT-0400 (Eastern Daylight Time)","435873","1","3","","null","","","","observe","","img/3to2/1.png","null","205","885","0.5","0.5","3","1","",""
"animation","45","81598","0.0-5.0-2.20","6105338a15c74e8435e95c71","bdp_cybrbll","Tue Mar 28 2023 15:02:52 GMT-0400 (Eastern Daylight Time)","435873","1","3","","","","","","","","","","205","","","","3","1","[{""stimulus"":""img/3to1/1.png"",""time"":107},{""stimulus"":""img/3to1/2.png"",""time"":211},{""stimulus"":""img/3to1/3.png"",""time"":303},{""stimulus"":""img/3to1/4.png"",""time"":403},{""stimulus"":""img/3to1/5.png"",""time"":504},{""stimulus"":""img/3to1/6.png"",""time"":598},{""stimulus"":""img/3to1/7.png"",""time"":699},{""stimulus"":""img/3to1/8.png"",""time"":803},{""stimulus"":""img/3to1/9.png"",""time"":895},{""stimulus"":""img/3to1/10.png"",""time"":1003},{""stimulus"":""img/3to1/11.png"",""time"":1094},{""stimulus"":""img/3to1/12.png"",""time"":1190}]","[]"
"image-keyboard-response","46","81870","0.0-5.0-1.21","6105338a15c74e8435e95c71","bdp_cybrbll","Tue Mar 28 2023 15:02:52 GMT-0400 (Eastern Daylight Time)","435873","1","3","","null","","","","observe","","img/1to3/1.png","null","204","261","0.5","0.5","1","2","",""
"animation","47","83166","0.0-5.0-2.21","6105338a15c74e8435e95c71","bdp_cybrbll","Tue Mar 28 2023 15:02:52 GMT-0400 (Eastern Daylight Time)","435873","1","3","","","","","","","","","","204","","","","1","2","[{""stimulus"":""img/1to2/1.png"",""time"":113},{""stimulus"":""img/1to2/2.png"",""time"":201},{""stimulus"":""img/1to2/3.png"",""time"":305},{""stimulus"":""img/1to2/4.png"",""time"":406},{""stimulus"":""img/1to2/5.png"",""time"":504},{""stimulus"":""img/1to2/6.png"",""time"":597},{""stimulus"":""img/1to2/7.png"",""time"":701},{""stimulus"":""img/1to2/8.png"",""time"":800},{""stimulus"":""img/1to2/9.png"",""time"":901},{""stimulus"":""img/1to2/10.png"",""time"":1000},{""stimulus"":""img/1to2/11.png"",""time"":1093},{""stimulus"":""img/1to2/12.png"",""time"":1200}]","[]"
"image-keyboard-response","48","83578","0.0-5.0-1.22","6105338a15c74e8435e95c71","bdp_cybrbll","Tue Mar 28 2023 15:02:52 GMT-0400 (Eastern Daylight Time)","435873","1","3","","410","","","","choice","","img/2to1/1.png","2","203","534","0.5","0.5","2","3","",""
"animation","49","84874","0.0-5.0-2.22","6105338a15c74e8435e95c71","bdp_cybrbll","Tue Mar 28 2023 15:02:52 GMT-0400 (Eastern Daylight Time)","435873","1","3","","","","","","","","","","203","","","","2","3","[{""stimulus"":""img/2to3/1.png"",""time"":108},{""stimulus"":""img/2to3/2.png"",""time"":201},{""stimulus"":""img/2to3/3.png"",""time"":307},{""stimulus"":""img/2to3/4.png"",""time"":404},{""stimulus"":""img/2to3/5.png"",""time"":504},{""stimulus"":""img/2to3/6.png"",""time"":600},{""stimulus"":""img/2to3/7.png"",""time"":699},{""stimulus"":""img/2to3/8.png"",""time"":803},{""stimulus"":""img/2to3/9.png"",""time"":895},{""stimulus"":""img/2to3/10.png"",""time"":995},{""stimulus"":""img/2to3/11.png"",""time"":1099},{""stimulus"":""img/2to3/12.png"",""time"":1191}]","[]"
"image-keyboard-response","50","85252","0.0-5.0-1.23","6105338a15c74e8435e95c71","bdp_cybrbll","Tue Mar 28 2023 15:02:52 GMT-0400 (Eastern Daylight Time)","435873","1","3","","null","","","","observe","","img/3to2/1.png","null","202","372","0.5","0.5","3","1","",""
"animation","51","86550","0.0-5.0-2.23","6105338a15c74e8435e95c71","bdp_cybrbll","Tue Mar 28 2023 15:02:52 GMT-0400 (Eastern Daylight Time)","435873","1","3","","","","","","","","","","202","","","","3","1","[{""stimulus"":""img/3to1/1.png"",""time"":107},{""stimulus"":""img/3to1/2.png"",""time"":211},{""stimulus"":""img/3to1/3.png"",""time"":306},{""stimulus"":""img/3to1/4.png"",""time"":398},{""stimulus"":""img/3to1/5.png"",""time"":505},{""stimulus"":""img/3to1/6.png"",""time"":597},{""stimulus"":""img/3to1/7.png"",""time"":707},{""stimulus"":""img/3to1/8.png"",""time"":799},{""stimulus"":""img/3to1/9.png"",""time"":896},{""stimulus"":""img/3to1/10.png"",""time"":1000},{""stimulus"":""img/3to1/11.png"",""time"":1099},{""stimulus"":""img/3to1/12.png"",""time"":1190}]","[]"
"image-keyboard-response","52","87260","0.0-5.0-1.24","6105338a15c74e8435e95c71","bdp_cybrbll","Tue Mar 28 2023 15:02:52 GMT-0400 (Eastern Daylight Time)","435873","1","3","","null","","","","observe","","img/1to3/1.png","null","201","701","0.5","0.5","1","3","",""
"animation","53","88555","0.0-5.0-2.24","6105338a15c74e8435e95c71","bdp_cybrbll","Tue Mar 28 2023 15:02:52 GMT-0400 (Eastern Daylight Time)","435873","1","3","","","","","","","","","","201","","","","1","3","[{""stimulus"":""img/1to3/1.png"",""time"":106},{""stimulus"":""img/1to3/2.png"",""time"":208},{""stimulus"":""img/1to3/3.png"",""time"":303},{""stimulus"":""img/1to3/4.png"",""time"":399},{""stimulus"":""img/1to3/5.png"",""time"":506},{""stimulus"":""img/1to3/6.png"",""time"":598},{""stimulus"":""img/1to3/7.png"",""time"":706},{""stimulus"":""img/1to3/8.png"",""time"":798},{""stimulus"":""img/1to3/9.png"",""time"":898},{""stimulus"":""img/1to3/10.png"",""time"":1003},{""stimulus"":""img/1to3/11.png"",""time"":1093},{""stimulus"":""img/1to3/12.png"",""time"":1194}]","[]"
"image-keyboard-response","54","88915","0.0-5.0-1.25","6105338a15c74e8435e95c71","bdp_cybrbll","Tue Mar 28 2023 15:02:52 GMT-0400 (Eastern Daylight Time)","435873","1","3","","null","","","","observe","","img/3to2/1.png","null","200","356","0.5","0.5","3","2","",""
"animation","55","90210","0.0-5.0-2.25","6105338a15c74e8435e95c71","bdp_cybrbll","Tue Mar 28 2023 15:02:52 GMT-0400 (Eastern Daylight Time)","435873","1","3","","","","","","","","","","200","","","","3","2","[{""stimulus"":""img/3to2/1.png"",""time"":103},{""stimulus"":""img/3to2/2.png"",""time"":202},{""stimulus"":""img/3to2/3.png"",""time"":304},{""stimulus"":""img/3to2/4.png"",""time"":403},{""stimulus"":""img/3to2/5.png"",""time"":507},{""stimulus"":""img/3to2/6.png"",""time"":598},{""stimulus"":""img/3to2/7.png"",""time"":699},{""stimulus"":""img/3to2/8.png"",""time"":803},{""stimulus"":""img/3to2/9.png"",""time"":899},{""stimulus"":""img/3to2/10.png"",""time"":1000},{""stimulus"":""img/3to2/11.png"",""time"":1099},{""stimulus"":""img/3to2/12.png"",""time"":1191}]","[]"
"image-keyboard-response","56","91234","0.0-5.0-1.26","6105338a15c74e8435e95c71","bdp_cybrbll","Tue Mar 28 2023 15:02:52 GMT-0400 (Eastern Daylight Time)","435873","1","3","","1022","","","","choice","","img/2to1/1.png","1","199","238","0.5","0.5","2","1","",""
"animation","57","92534","0.0-5.0-2.26","6105338a15c74e8435e95c71","bdp_cybrbll","Tue Mar 28 2023 15:02:52 GMT-0400 (Eastern Daylight Time)","435873","1","3","","","","","","","","","","199","","","","2","1","[{""stimulus"":""img/2to1/1.png"",""time"":109},{""stimulus"":""img/2to1/2.png"",""time"":203},{""stimulus"":""img/2to1/3.png"",""time"":304},{""stimulus"":""img/2to1/4.png"",""time"":404},{""stimulus"":""img/2to1/5.png"",""time"":505},{""stimulus"":""img/2to1/6.png"",""time"":604},{""stimulus"":""img/2to1/7.png"",""time"":700},{""stimulus"":""img/2to1/8.png"",""time"":800},{""stimulus"":""img/2to1/9.png"",""time"":898},{""stimulus"":""img/2to1/10.png"",""time"":992},{""stimulus"":""img/2to1/11.png"",""time"":1100},{""stimulus"":""img/2to1/12.png"",""time"":1196}]","[]"
"image-keyboard-response","58","92963","0.0-5.0-1.27","6105338a15c74e8435e95c71","bdp_cybrbll","Tue Mar 28 2023 15:02:52 GMT-0400 (Eastern Daylight Time)","435873","1","3","","null","","","","observe","","img/1to3/1.png","null","198","423","0.5","0.5","1","2","",""
"animation","59","94262","0.0-5.0-2.27","6105338a15c74e8435e95c71","bdp_cybrbll","Tue Mar 28 2023 15:02:52 GMT-0400 (Eastern Daylight Time)","435873","1","3","","","","","","","","","","198","","","","1","2","[{""stimulus"":""img/1to2/1.png"",""time"":104},{""stimulus"":""img/1to2/2.png"",""time"":211},{""stimulus"":""img/1to2/3.png"",""time"":303},{""stimulus"":""img/1to2/4.png"",""time"":403},{""stimulus"":""img/1to2/5.png"",""time"":507},{""stimulus"":""img/1to2/6.png"",""time"":598},{""stimulus"":""img/1to2/7.png"",""time"":699},{""stimulus"":""img/1to2/8.png"",""time"":803},{""stimulus"":""img/1to2/9.png"",""time"":899},{""stimulus"":""img/1to2/10.png"",""time"":1000},{""stimulus"":""img/1to2/11.png"",""time"":1095},{""stimulus"":""img/1to2/12.png"",""time"":1191}]","[]"
"image-keyboard-response","60","94536","0.0-5.0-1.28","6105338a15c74e8435e95c71","bdp_cybrbll","Tue Mar 28 2023 15:02:52 GMT-0400 (Eastern Daylight Time)","435873","1","3","","272","","","","choice","","img/2to1/1.png","2","197","703","0.5","0.5","2","3","",""
"animation","61","95826","0.0-5.0-2.28","6105338a15c74e8435e95c71","bdp_cybrbll","Tue Mar 28 2023 15:02:52 GMT-0400 (Eastern Daylight Time)","435873","1","3","","","","","","","","","","197","","","","2","3","[{""stimulus"":""img/2to3/1.png"",""time"":108},{""stimulus"":""img/2to3/2.png"",""time"":203},{""stimulus"":""img/2to3/3.png"",""time"":310},{""stimulus"":""img/2to3/4.png"",""time"":406},{""stimulus"":""img/2to3/5.png"",""time"":501},{""stimulus"":""img/2to3/6.png"",""time"":606},{""stimulus"":""img/2to3/7.png"",""time"":698},{""stimulus"":""img/2to3/8.png"",""time"":798},{""stimulus"":""img/2to3/9.png"",""time"":902},{""stimulus"":""img/2to3/10.png"",""time"":994},{""stimulus"":""img/2to3/11.png"",""time"":1102},{""stimulus"":""img/2to3/12.png"",""time"":1198}]","[]"
"image-keyboard-response","62","96158","0.0-5.0-1.29","6105338a15c74e8435e95c71","bdp_cybrbll","Tue Mar 28 2023 15:02:52 GMT-0400 (Eastern Daylight Time)","435873","1","3","","null","","","","observe","","img/3to2/1.png","null","196","325","0.5","0.5","3","2","",""
"animation","63","97451","0.0-5.0-2.29","6105338a15c74e8435e95c71","bdp_cybrbll","Tue Mar 28 2023 15:02:52 GMT-0400 (Eastern Daylight Time)","435873","1","3","","","","","","","","","","196","","","","3","2","[{""stimulus"":""img/3to2/1.png"",""time"":113},{""stimulus"":""img/3to2/2.png"",""time"":206},{""stimulus"":""img/3to2/3.png"",""time"":300},{""stimulus"":""img/3to2/4.png"",""time"":408},{""stimulus"":""img/3to2/5.png"",""time"":502},{""stimulus"":""img/3to2/6.png"",""time"":600},{""stimulus"":""img/3to2/7.png"",""time"":704},{""stimulus"":""img/3to2/8.png"",""time"":799},{""stimulus"":""img/3to2/9.png"",""time"":901},{""stimulus"":""img/3to2/10.png"",""time"":996},{""stimulus"":""img/3to2/11.png"",""time"":1096},{""stimulus"":""img/3to2/12.png"",""time"":1200}]","[]"
"image-keyboard-response","64","98040","0.0-5.0-1.30","6105338a15c74e8435e95c71","bdp_cybrbll","Tue Mar 28 2023 15:02:52 GMT-0400 (Eastern Daylight Time)","435873","1","3","","588","","","","choice","","img/2to1/1.png","1","195","573","0.5","0.5","2","1","",""
"animation","65","99329","0.0-5.0-2.30","6105338a15c74e8435e95c71","bdp_cybrbll","Tue Mar 28 2023 15:02:52 GMT-0400 (Eastern Daylight Time)","435873","1","3","","","","","","","","","","195","","","","2","1","[{""stimulus"":""img/2to1/1.png"",""time"":111},{""stimulus"":""img/2to1/2.png"",""time"":203},{""stimulus"":""img/2to1/3.png"",""time"":306},{""stimulus"":""img/2to1/4.png"",""time"":405},{""stimulus"":""img/2to1/5.png"",""time"":502},{""stimulus"":""img/2to1/6.png"",""time"":601},{""stimulus"":""img/2to1/7.png"",""time"":698},{""stimulus"":""img/2to1/8.png"",""time"":798},{""stimulus"":""img/2to1/9.png"",""time"":898},{""stimulus"":""img/2to1/10.png"",""time"":998},{""stimulus"":""img/2to1/11.png"",""time"":1102},{""stimulus"":""img/2to1/12.png"",""time"":1198}]","[]"
"image-keyboard-response","66","99878","0.0-5.0-1.31","6105338a15c74e8435e95c71","bdp_cybrbll","Tue Mar 28 2023 15:02:52 GMT-0400 (Eastern Daylight Time)","435873","1","3","","null","","","","observe","","img/1to3/1.png","null","194","540","0.5","0.5","1","2","",""
"animation","67","101173","0.0-5.0-2.31","6105338a15c74e8435e95c71","bdp_cybrbll","Tue Mar 28 2023 15:02:52 GMT-0400 (Eastern Daylight Time)","435873","1","3","","","","","","","","","","194","","","","1","2","[{""stimulus"":""img/1to2/1.png"",""time"":109},{""stimulus"":""img/1to2/2.png"",""time"":203},{""stimulus"":""img/1to2/3.png"",""time"":304},{""stimulus"":""img/1to2/4.png"",""time"":408},{""stimulus"":""img/1to2/5.png"",""time"":500},{""stimulus"":""img/1to2/6.png"",""time"":596},{""stimulus"":""img/1to2/7.png"",""time"":699},{""stimulus"":""img/1to2/8.png"",""time"":800},{""stimulus"":""img/1to2/9.png"",""time"":904},{""stimulus"":""img/1to2/10.png"",""time"":1000},{""stimulus"":""img/1to2/11.png"",""time"":1092},{""stimulus"":""img/1to2/12.png"",""time"":1197}]","[]"
"image-keyboard-response","68","101606","0.0-5.0-1.32","6105338a15c74e8435e95c71","bdp_cybrbll","Tue Mar 28 2023 15:02:52 GMT-0400 (Eastern Daylight Time)","435873","1","3","","431","","","","choice","","img/2to1/1.png","2","193","289","0.5","0.5","2","3","",""
"animation","69","102898","0.0-5.0-2.32","6105338a15c74e8435e95c71","bdp_cybrbll","Tue Mar 28 2023 15:02:52 GMT-0400 (Eastern Daylight Time)","435873","1","3","","","","","","","","","","193","","","","2","3","[{""stimulus"":""img/2to3/1.png"",""time"":102},{""stimulus"":""img/2to3/2.png"",""time"":205},{""stimulus"":""img/2to3/3.png"",""time"":304},{""stimulus"":""img/2to3/4.png"",""time"":404},{""stimulus"":""img/2to3/5.png"",""time"":504},{""stimulus"":""img/2to3/6.png"",""time"":599},{""stimulus"":""img/2to3/7.png"",""time"":700},{""stimulus"":""img/2to3/8.png"",""time"":800},{""stimulus"":""img/2to3/9.png"",""time"":904},{""stimulus"":""img/2to3/10.png"",""time"":1000},{""stimulus"":""img/2to3/11.png"",""time"":1092},{""stimulus"":""img/2to3/12.png"",""time"":1200}]","[]"
"image-keyboard-response","70","103430","0.0-5.0-1.33","6105338a15c74e8435e95c71","bdp_cybrbll","Tue Mar 28 2023 15:02:52 GMT-0400 (Eastern Daylight Time)","435873","1","3","","null","","","","observe","","img/3to2/1.png","null","192","520","0.5","0.5","3","1","",""
"animation","71","104721","0.0-5.0-2.33","6105338a15c74e8435e95c71","bdp_cybrbll","Tue Mar 28 2023 15:02:52 GMT-0400 (Eastern Daylight Time)","435873","1","3","","","","","","","","","","192","","","","3","1","[{""stimulus"":""img/3to1/1.png"",""time"":112},{""stimulus"":""img/3to1/2.png"",""time"":207},{""stimulus"":""img/3to1/3.png"",""time"":300},{""stimulus"":""img/3to1/4.png"",""time"":404},{""stimulus"":""img/3to1/5.png"",""time"":500},{""stimulus"":""img/3to1/6.png"",""time"":600},{""stimulus"":""img/3to1/7.png"",""time"":704},{""stimulus"":""img/3to1/8.png"",""time"":800},{""stimulus"":""img/3to1/9.png"",""time"":904},{""stimulus"":""img/3to1/10.png"",""time"":1000},{""stimulus"":""img/3to1/11.png"",""time"":1096},{""stimulus"":""img/3to1/12.png"",""time"":1200}]","[]"
"image-keyboard-response","72","105308","0.0-5.0-1.34","6105338a15c74e8435e95c71","bdp_cybrbll","Tue Mar 28 2023 15:02:52 GMT-0400 (Eastern Daylight Time)","435873","1","3","","null","","","","observe","","img/1to3/1.png","null","191","576","0.5","0.5","1","3","",""
"animation","73","106606","0.0-5.0-2.34","6105338a15c74e8435e95c71","bdp_cybrbll","Tue Mar 28 2023 15:02:52 GMT-0400 (Eastern Daylight Time)","435873","1","3","","","","","","","","","","191","","","","1","3","[{""stimulus"":""img/1to3/1.png"",""time"":102},{""stimulus"":""img/1to3/2.png"",""time"":205},{""stimulus"":""img/1to3/3.png"",""time"":305},{""stimulus"":""img/1to3/4.png"",""time"":409},{""stimulus"":""img/1to3/5.png"",""time"":501},{""stimulus"":""img/1to3/6.png"",""time"":597},{""stimulus"":""img/1to3/7.png"",""time"":705},{""stimulus"":""img/1to3/8.png"",""time"":797},{""stimulus"":""img/1to3/9.png"",""time"":897},{""stimulus"":""img/1to3/10.png"",""time"":999},{""stimulus"":""img/1to3/11.png"",""time"":1097},{""stimulus"":""img/1to3/12.png"",""time"":1201}]","[]"
"image-keyboard-response","74","107118","0.0-5.0-1.35","6105338a15c74e8435e95c71","bdp_cybrbll","Tue Mar 28 2023 15:02:52 GMT-0400 (Eastern Daylight Time)","435873","1","3","","null","","","","observe","","img/3to2/1.png","null","190","500","0.5","0.5","3","2","",""
"animation","75","108410","0.0-5.0-2.35","6105338a15c74e8435e95c71","bdp_cybrbll","Tue Mar 28 2023 15:02:52 GMT-0400 (Eastern Daylight Time)","435873","1","3","","","","","","","","","","190","","","","3","2","[{""stimulus"":""img/3to2/1.png"",""time"":104},{""stimulus"":""img/3to2/2.png"",""time"":207},{""stimulus"":""img/3to2/3.png"",""time"":299},{""stimulus"":""img/3to2/4.png"",""time"":407},{""stimulus"":""img/3to2/5.png"",""time"":499},{""stimulus"":""img/3to2/6.png"",""time"":599},{""stimulus"":""img/3to2/7.png"",""time"":699},{""stimulus"":""img/3to2/8.png"",""time"":797},{""stimulus"":""img/3to2/9.png"",""time"":903},{""stimulus"":""img/3to2/10.png"",""time"":999},{""stimulus"":""img/3to2/11.png"",""time"":1095},{""stimulus"":""img/3to2/12.png"",""time"":1199}]","[]"
"image-keyboard-response","76","108753","0.0-5.0-1.36","6105338a15c74e8435e95c71","bdp_cybrbll","Tue Mar 28 2023 15:02:52 GMT-0400 (Eastern Daylight Time)","435873","1","3","","342","","","","choice","","img/2to1/1.png","1","189","314","0.5","0.5","2","1","",""
"animation","77","110046","0.0-5.0-2.36","6105338a15c74e8435e95c71","bdp_cybrbll","Tue Mar 28 2023 15:02:52 GMT-0400 (Eastern Daylight Time)","435873","1","3","","","","","","","","","","189","","","","2","1","[{""stimulus"":""img/2to1/1.png"",""time"":101},{""stimulus"":""img/2to1/2.png"",""time"":205},{""stimulus"":""img/2to1/3.png"",""time"":306},{""stimulus"":""img/2to1/4.png"",""time"":405},{""stimulus"":""img/2to1/5.png"",""time"":499},{""stimulus"":""img/2to1/6.png"",""time"":601},{""stimulus"":""img/2to1/7.png"",""time"":697},{""stimulus"":""img/2to1/8.png"",""time"":801},{""stimulus"":""img/2to1/9.png"",""time"":899},{""stimulus"":""img/2to1/10.png"",""time"":997},{""stimulus"":""img/2to1/11.png"",""time"":1101},{""stimulus"":""img/2to1/12.png"",""time"":1193}]","[]"
"image-keyboard-response","78","110334","0.0-5.0-1.37","6105338a15c74e8435e95c71","bdp_cybrbll","Tue Mar 28 2023 15:02:52 GMT-0400 (Eastern Daylight Time)","435873","1","3","","null","","","","observe","","img/1to3/1.png","null","188","278","0.5","0.5","1","3","",""
"animation","79","111630","0.0-5.0-2.37","6105338a15c74e8435e95c71","bdp_cybrbll","Tue Mar 28 2023 15:02:52 GMT-0400 (Eastern Daylight Time)","435873","1","3","","","","","","","","","","188","","","","1","3","[{""stimulus"":""img/1to3/1.png"",""time"":112},{""stimulus"":""img/1to3/2.png"",""time"":205},{""stimulus"":""img/1to3/3.png"",""time"":300},{""stimulus"":""img/1to3/4.png"",""time"":406},{""stimulus"":""img/1to3/5.png"",""time"":504},{""stimulus"":""img/1to3/6.png"",""time"":600},{""stimulus"":""img/1to3/7.png"",""time"":701},{""stimulus"":""img/1to3/8.png"",""time"":800},{""stimulus"":""img/1to3/9.png"",""time"":904},{""stimulus"":""img/1to3/10.png"",""time"":996},{""stimulus"":""img/1to3/11.png"",""time"":1092},{""stimulus"":""img/1to3/12.png"",""time"":1198}]","[]"
"image-keyboard-response","80","111798","0.0-5.0-1.38","6105338a15c74e8435e95c71","bdp_cybrbll","Tue Mar 28 2023 15:02:52 GMT-0400 (Eastern Daylight Time)","435873","1","3","","null","","","","observe","","img/3to2/1.png","null","187","157","0.5","0.5","3","2","",""
"animation","81","113094","0.0-5.0-2.38","6105338a15c74e8435e95c71","bdp_cybrbll","Tue Mar 28 2023 15:02:52 GMT-0400 (Eastern Daylight Time)","435873","1","3","","","","","","","","","","187","","","","3","2","[{""stimulus"":""img/3to2/1.png"",""time"":112},{""stimulus"":""img/3to2/2.png"",""time"":203},{""stimulus"":""img/3to2/3.png"",""time"":303},{""stimulus"":""img/3to2/4.png"",""time"":407},{""stimulus"":""img/3to2/5.png"",""time"":504},{""stimulus"":""img/3to2/6.png"",""time"":598},{""stimulus"":""img/3to2/7.png"",""time"":701},{""stimulus"":""img/3to2/8.png"",""time"":800},{""stimulus"":""img/3to2/9.png"",""time"":904},{""stimulus"":""img/3to2/10.png"",""time"":995},{""stimulus"":""img/3to2/11.png"",""time"":1092},{""stimulus"":""img/3to2/12.png"",""time"":1196}]","[]"
"image-keyboard-response","82","115164","0.0-5.0-1.39","6105338a15c74e8435e95c71","bdp_cybrbll","Tue Mar 28 2023 15:02:52 GMT-0400 (Eastern Daylight Time)","435873","1","3","","2069","","","","choice","","img/2to1/1.png","2","186","674","0.5","0.5","2","3","",""
"animation","83","116457","0.0-5.0-2.39","6105338a15c74e8435e95c71","bdp_cybrbll","Tue Mar 28 2023 15:02:52 GMT-0400 (Eastern Daylight Time)","435873","1","3","","","","","","","","","","186","","","","2","3","[{""stimulus"":""img/2to3/1.png"",""time"":106},{""stimulus"":""img/2to3/2.png"",""time"":207},{""stimulus"":""img/2to3/3.png"",""time"":303},{""stimulus"":""img/2to3/4.png"",""time"":405},{""stimulus"":""img/2to3/5.png"",""time"":505},{""stimulus"":""img/2to3/6.png"",""time"":596},{""stimulus"":""img/2to3/7.png"",""time"":705},{""stimulus"":""img/2to3/8.png"",""time"":797},{""stimulus"":""img/2to3/9.png"",""time"":896},{""stimulus"":""img/2to3/10.png"",""time"":1001},{""stimulus"":""img/2to3/11.png"",""time"":1097},{""stimulus"":""img/2to3/12.png"",""time"":1201}]","[]"
"image-keyboard-response","84","117086","0.0-5.0-1.40","6105338a15c74e8435e95c71","bdp_cybrbll","Tue Mar 28 2023 15:02:52 GMT-0400 (Eastern Daylight Time)","435873","1","3","","null","","","","observe","","img/3to2/1.png","null","185","616","0.5","0.5","3","1","",""
"animation","85","118382","0.0-5.0-2.40","6105338a15c74e8435e95c71","bdp_cybrbll","Tue Mar 28 2023 15:02:52 GMT-0400 (Eastern Daylight Time)","435873","1","3","","","","","","","","","","185","","","","3","1","[{""stimulus"":""img/3to1/1.png"",""time"":113},{""stimulus"":""img/3to1/2.png"",""time"":200},{""stimulus"":""img/3to1/3.png"",""time"":299},{""stimulus"":""img/3to1/4.png"",""time"":408},{""stimulus"":""img/3to1/5.png"",""time"":504},{""stimulus"":""img/3to1/6.png"",""time"":600},{""stimulus"":""img/3to1/7.png"",""time"":704},{""stimulus"":""img/3to1/8.png"",""time"":795},{""stimulus"":""img/3to1/9.png"",""time"":899},{""stimulus"":""img/3to1/10.png"",""time"":1000},{""stimulus"":""img/3to1/11.png"",""time"":1096},{""stimulus"":""img/3to1/12.png"",""time"":1200}]","[]"
"image-keyboard-response","86","119254","0.0-5.0-1.41","6105338a15c74e8435e95c71","bdp_cybrbll","Tue Mar 28 2023 15:02:52 GMT-0400 (Eastern Daylight Time)","435873","1","3","","null","","","","observe","","img/1to3/1.png","null","184","862","0.5","0.5","1","3","",""
"animation","87","120545","0.0-5.0-2.41","6105338a15c74e8435e95c71","bdp_cybrbll","Tue Mar 28 2023 15:02:52 GMT-0400 (Eastern Daylight Time)","435873","1","3","","","","","","","","","","184","","","","1","3","[{""stimulus"":""img/1to3/1.png"",""time"":111},{""stimulus"":""img/1to3/2.png"",""time"":208},{""stimulus"":""img/1to3/3.png"",""time"":300},{""stimulus"":""img/1to3/4.png"",""time"":408},{""stimulus"":""img/1to3/5.png"",""time"":500},{""stimulus"":""img/1to3/6.png"",""time"":596},{""stimulus"":""img/1to3/7.png"",""time"":704},{""stimulus"":""img/1to3/8.png"",""time"":795},{""stimulus"":""img/1to3/9.png"",""time"":904},{""stimulus"":""img/1to3/10.png"",""time"":995},{""stimulus"":""img/1to3/11.png"",""time"":1091},{""stimulus"":""img/1to3/12.png"",""time"":1200}]","[]"
"image-keyboard-response","88","121386","0.0-5.0-1.42","6105338a15c74e8435e95c71","bdp_cybrbll","Tue Mar 28 2023 15:02:52 GMT-0400 (Eastern Daylight Time)","435873","1","3","","null","","","","observe","","img/3to2/1.png","null","183","835","0.5","0.5","3","2","",""
"animation","89","122686","0.0-5.0-2.42","6105338a15c74e8435e95c71","bdp_cybrbll","Tue Mar 28 2023 15:02:52 GMT-0400 (Eastern Daylight Time)","435873","1","3","","","","","","","","","","183","","","","3","2","[{""stimulus"":""img/3to2/1.png"",""time"":109},{""stimulus"":""img/3to2/2.png"",""time"":202},{""stimulus"":""img/3to2/3.png"",""time"":308},{""stimulus"":""img/3to2/4.png"",""time"":404},{""stimulus"":""img/3to2/5.png"",""time"":508},{""stimulus"":""img/3to2/6.png"",""time"":600},{""stimulus"":""img/3to2/7.png"",""time"":700},{""stimulus"":""img/3to2/8.png"",""time"":804},{""stimulus"":""img/3to2/9.png"",""time"":898},{""stimulus"":""img/3to2/10.png"",""time"":996},{""stimulus"":""img/3to2/11.png"",""time"":1096},{""stimulus"":""img/3to2/12.png"",""time"":1196}]","[]"
"image-keyboard-response","90","123193","0.0-5.0-1.43","6105338a15c74e8435e95c71","bdp_cybrbll","Tue Mar 28 2023 15:02:52 GMT-0400 (Eastern Daylight Time)","435873","1","3","","506","","","","choice","","img/2to1/1.png","1","182","614","0.5","0.5","2","1","",""
"animation","91","124489","0.0-5.0-2.43","6105338a15c74e8435e95c71","bdp_cybrbll","Tue Mar 28 2023 15:02:52 GMT-0400 (Eastern Daylight Time)","435873","1","3","","","","","","","","","","182","","","","2","1","[{""stimulus"":""img/2to1/1.png"",""time"":102},{""stimulus"":""img/2to1/2.png"",""time"":200},{""stimulus"":""img/2to1/3.png"",""time"":304},{""stimulus"":""img/2to1/4.png"",""time"":404},{""stimulus"":""img/2to1/5.png"",""time"":505},{""stimulus"":""img/2to1/6.png"",""time"":604},{""stimulus"":""img/2to1/7.png"",""time"":695},{""stimulus"":""img/2to1/8.png"",""time"":804},{""stimulus"":""img/2to1/9.png"",""time"":900},{""stimulus"":""img/2to1/10.png"",""time"":996},{""stimulus"":""img/2to1/11.png"",""time"":1096},{""stimulus"":""img/2to1/12.png"",""time"":1192}]","[]"
"image-keyboard-response","92","124914","0.0-5.0-1.44","6105338a15c74e8435e95c71","bdp_cybrbll","Tue Mar 28 2023 15:02:52 GMT-0400 (Eastern Daylight Time)","435873","1","3","","null","","","","observe","","img/1to3/1.png","null","181","420","0.5","0.5","1","3","",""
"animation","93","126210","0.0-5.0-2.44","6105338a15c74e8435e95c71","bdp_cybrbll","Tue Mar 28 2023 15:02:52 GMT-0400 (Eastern Daylight Time)","435873","1","3","","","","","","","","","","181","","","","1","3","[{""stimulus"":""img/1to3/1.png"",""time"":108},{""stimulus"":""img/1to3/2.png"",""time"":212},{""stimulus"":""img/1to3/3.png"",""time"":308},{""stimulus"":""img/1to3/4.png"",""time"":400},{""stimulus"":""img/1to3/5.png"",""time"":508},{""stimulus"":""img/1to3/6.png"",""time"":601},{""stimulus"":""img/1to3/7.png"",""time"":698},{""stimulus"":""img/1to3/8.png"",""time"":800},{""stimulus"":""img/1to3/9.png"",""time"":900},{""stimulus"":""img/1to3/10.png"",""time"":1000},{""stimulus"":""img/1to3/11.png"",""time"":1100},{""stimulus"":""img/1to3/12.png"",""time"":1192}]","[]"
"image-keyboard-response","94","126513","0.0-5.0-1.45","6105338a15c74e8435e95c71","bdp_cybrbll","Tue Mar 28 2023 15:02:52 GMT-0400 (Eastern Daylight Time)","435873","1","3","","null","","","","observe","","img/3to2/1.png","null","180","300","0.5","0.5","3","2","",""
"animation","95","127810","0.0-5.0-2.45","6105338a15c74e8435e95c71","bdp_cybrbll","Tue Mar 28 2023 15:02:52 GMT-0400 (Eastern Daylight Time)","435873","1","3","","","","","","","","","","180","","","","3","2","[{""stimulus"":""img/3to2/1.png"",""time"":108},{""stimulus"":""img/3to2/2.png"",""time"":204},{""stimulus"":""img/3to2/3.png"",""time"":307},{""stimulus"":""img/3to2/4.png"",""time"":403},{""stimulus"":""img/3to2/5.png"",""time"":506},{""stimulus"":""img/3to2/6.png"",""time"":604},{""stimulus"":""img/3to2/7.png"",""time"":700},{""stimulus"":""img/3to2/8.png"",""time"":802},{""stimulus"":""img/3to2/9.png"",""time"":898},{""stimulus"":""img/3to2/10.png"",""time"":996},{""stimulus"":""img/3to2/11.png"",""time"":1096},{""stimulus"":""img/3to2/12.png"",""time"":1196}]","[]"
"image-keyboard-response","96","128269","0.0-5.0-1.46","6105338a15c74e8435e95c71","bdp_cybrbll","Tue Mar 28 2023 15:02:52 GMT-0400 (Eastern Daylight Time)","435873","1","3","","458","","","","choice","","img/2to1/1.png","1","179","446","0.5","0.5","2","1","",""
"animation","97","129561","0.0-5.0-2.46","6105338a15c74e8435e95c71","bdp_cybrbll","Tue Mar 28 2023 15:02:52 GMT-0400 (Eastern Daylight Time)","435873","1","3","","","","","","","","","","179","","","","2","1","[{""stimulus"":""img/2to1/1.png"",""time"":110},{""stimulus"":""img/2to1/2.png"",""time"":208},{""stimulus"":""img/2to1/3.png"",""time"":299},{""stimulus"":""img/2to1/4.png"",""time"":408},{""stimulus"":""img/2to1/5.png"",""time"":504},{""stimulus"":""img/2to1/6.png"",""time"":600},{""stimulus"":""img/2to1/7.png"",""time"":704},{""stimulus"":""img/2to1/8.png"",""time"":797},{""stimulus"":""img/2to1/9.png"",""time"":904},{""stimulus"":""img/2to1/10.png"",""time"":1000},{""stimulus"":""img/2to1/11.png"",""time"":1094},{""stimulus"":""img/2to1/12.png"",""time"":1198}]","[]"
"image-keyboard-response","98","130702","0.0-5.0-1.47","6105338a15c74e8435e95c71","bdp_cybrbll","Tue Mar 28 2023 15:02:52 GMT-0400 (Eastern Daylight Time)","435873","1","3","","null","","","","observe","","img/1to3/1.png","null","178","1131","0.5","0.5","1","2","",""
"animation","99","131993","0.0-5.0-2.47","6105338a15c74e8435e95c71","bdp_cybrbll","Tue Mar 28 2023 15:02:52 GMT-0400 (Eastern Daylight Time)","435873","1","3","","","","","","","","","","178","","","","1","2","[{""stimulus"":""img/1to2/1.png"",""time"":109},{""stimulus"":""img/1to2/2.png"",""time"":208},{""stimulus"":""img/1to2/3.png"",""time"":299},{""stimulus"":""img/1to2/4.png"",""time"":404},{""stimulus"":""img/1to2/5.png"",""time"":500},{""stimulus"":""img/1to2/6.png"",""time"":596},{""stimulus"":""img/1to2/7.png"",""time"":702},{""stimulus"":""img/1to2/8.png"",""time"":798},{""stimulus"":""img/1to2/9.png"",""time"":899},{""stimulus"":""img/1to2/10.png"",""time"":997},{""stimulus"":""img/1to2/11.png"",""time"":1096},{""stimulus"":""img/1to2/12.png"",""time"":1200}]","[]"
"image-keyboard-response","100","132336","0.0-5.0-1.48","6105338a15c74e8435e95c71","bdp_cybrbll","Tue Mar 28 2023 15:02:52 GMT-0400 (Eastern Daylight Time)","435873","1","3","","341","","","","choice","","img/2to1/1.png","2","177","628","0.5","0.5","2","3","",""
"animation","101","133629","0.0-5.0-2.48","6105338a15c74e8435e95c71","bdp_cybrbll","Tue Mar 28 2023 15:02:52 GMT-0400 (Eastern Daylight Time)","435873","1","3","","","","","","","","","","177","","","","2","3","[{""stimulus"":""img/2to3/1.png"",""time"":106},{""stimulus"":""img/2to3/2.png"",""time"":202},{""stimulus"":""img/2to3/3.png"",""time"":306},{""stimulus"":""img/2to3/4.png"",""time"":402},{""stimulus"":""img/2to3/5.png"",""time"":499},{""stimulus"":""img/2to3/6.png"",""time"":606},{""stimulus"":""img/2to3/7.png"",""time"":702},{""stimulus"":""img/2to3/8.png"",""time"":805},{""stimulus"":""img/2to3/9.png"",""time"":902},{""stimulus"":""img/2to3/10.png"",""time"":998},{""stimulus"":""img/2to3/11.png"",""time"":1102},{""stimulus"":""img/2to3/12.png"",""time"":1194}]","[]"
"image-keyboard-response","102","133917","0.0-5.0-1.49","6105338a15c74e8435e95c71","bdp_cybrbll","Tue Mar 28 2023 15:02:52 GMT-0400 (Eastern Daylight Time)","435873","1","3","","null","","","","observe","","img/3to2/1.png","null","176","280","0.5","0.5","3","2","",""
"animation","103","135210","0.0-5.0-2.49","6105338a15c74e8435e95c71","bdp_cybrbll","Tue Mar 28 2023 15:02:52 GMT-0400 (Eastern Daylight Time)","435873","1","3","","","","","","","","","","176","","","","3","2","[{""stimulus"":""img/3to2/1.png"",""time"":110},{""stimulus"":""img/3to2/2.png"",""time"":203},{""stimulus"":""img/3to2/3.png"",""time"":300},{""stimulus"":""img/3to2/4.png"",""time"":404},{""stimulus"":""img/3to2/5.png"",""time"":500},{""stimulus"":""img/3to2/6.png"",""time"":596},{""stimulus"":""img/3to2/7.png"",""time"":702},{""stimulus"":""img/3to2/8.png"",""time"":798},{""stimulus"":""img/3to2/9.png"",""time"":899},{""stimulus"":""img/3to2/10.png"",""time"":996},{""stimulus"":""img/3to2/11.png"",""time"":1093},{""stimulus"":""img/3to2/12.png"",""time"":1196}]","[]"
"image-keyboard-response","104","135387","0.0-5.0-1.50","6105338a15c74e8435e95c71","bdp_cybrbll","Tue Mar 28 2023 15:02:52 GMT-0400 (Eastern Daylight Time)","435873","1","3","","176","","","","choice","","img/2to1/1.png","1","175","298","0.5","0.5","2","1","",""
"animation","105","136685","0.0-5.0-2.50","6105338a15c74e8435e95c71","bdp_cybrbll","Tue Mar 28 2023 15:02:52 GMT-0400 (Eastern Daylight Time)","435873","1","3","","","","","","","","","","175","","","","2","1","[{""stimulus"":""img/2to1/1.png"",""time"":106},{""stimulus"":""img/2to1/2.png"",""time"":210},{""stimulus"":""img/2to1/3.png"",""time"":302},{""stimulus"":""img/2to1/4.png"",""time"":402},{""stimulus"":""img/2to1/5.png"",""time"":506},{""stimulus"":""img/2to1/6.png"",""time"":597},{""stimulus"":""img/2to1/7.png"",""time"":702},{""stimulus"":""img/2to1/8.png"",""time"":802},{""stimulus"":""img/2to1/9.png"",""time"":898},{""stimulus"":""img/2to1/10.png"",""time"":1001},{""stimulus"":""img/2to1/11.png"",""time"":1093},{""stimulus"":""img/2to1/12.png"",""time"":1190}]","[]"
"image-keyboard-response","106","137129","0.0-5.0-1.51","6105338a15c74e8435e95c71","bdp_cybrbll","Tue Mar 28 2023 15:02:52 GMT-0400 (Eastern Daylight Time)","435873","1","3","","null","","","","observe","","img/1to3/1.png","null","174","436","0.5","0.5","1","2","",""
"animation","107","138429","0.0-5.0-2.51","6105338a15c74e8435e95c71","bdp_cybrbll","Tue Mar 28 2023 15:02:52 GMT-0400 (Eastern Daylight Time)","435873","1","3","","","","","","","","","","174","","","","1","2","[{""stimulus"":""img/1to2/1.png"",""time"":104},{""stimulus"":""img/1to2/2.png"",""time"":204},{""stimulus"":""img/1to2/3.png"",""time"":305},{""stimulus"":""img/1to2/4.png"",""time"":404},{""stimulus"":""img/1to2/5.png"",""time"":508},{""stimulus"":""img/1to2/6.png"",""time"":604},{""stimulus"":""img/1to2/7.png"",""time"":700},{""stimulus"":""img/1to2/8.png"",""time"":804},{""stimulus"":""img/1to2/9.png"",""time"":898},{""stimulus"":""img/1to2/10.png"",""time"":996},{""stimulus"":""img/1to2/11.png"",""time"":1100},{""stimulus"":""img/1to2/12.png"",""time"":1196}]","[]"
"image-keyboard-response","108","138658","0.0-5.0-1.52","6105338a15c74e8435e95c71","bdp_cybrbll","Tue Mar 28 2023 15:02:52 GMT-0400 (Eastern Daylight Time)","435873","1","3","","228","","","","choice","","img/2to1/1.png","2","173","411","0.5","0.5","2","3","",""
"animation","109","139957","0.0-5.0-2.52","6105338a15c74e8435e95c71","bdp_cybrbll","Tue Mar 28 2023 15:02:52 GMT-0400 (Eastern Daylight Time)","435873","1","3","","","","","","","","","","173","","","","2","3","[{""stimulus"":""img/2to3/1.png"",""time"":105},{""stimulus"":""img/2to3/2.png"",""time"":211},{""stimulus"":""img/2to3/3.png"",""time"":303},{""stimulus"":""img/2to3/4.png"",""time"":403},{""stimulus"":""img/2to3/5.png"",""time"":507},{""stimulus"":""img/2to3/6.png"",""time"":599},{""stimulus"":""img/2to3/7.png"",""time"":699},{""stimulus"":""img/2to3/8.png"",""time"":803},{""stimulus"":""img/2to3/9.png"",""time"":895},{""stimulus"":""img/2to3/10.png"",""time"":1001},{""stimulus"":""img/2to3/11.png"",""time"":1099},{""stimulus"":""img/2to3/12.png"",""time"":1195}]","[]"
"image-keyboard-response","110","140381","0.0-5.0-1.53","6105338a15c74e8435e95c71","bdp_cybrbll","Tue Mar 28 2023 15:02:52 GMT-0400 (Eastern Daylight Time)","435873","1","3","","null","","","","observe","","img/3to2/1.png","null","172","410","0.5","0.5","3","1","",""
"animation","111","141677","0.0-5.0-2.53","6105338a15c74e8435e95c71","bdp_cybrbll","Tue Mar 28 2023 15:02:52 GMT-0400 (Eastern Daylight Time)","435873","1","3","","","","","","","","","","172","","","","3","1","[{""stimulus"":""img/3to1/1.png"",""time"":113},{""stimulus"":""img/3to1/2.png"",""time"":208},{""stimulus"":""img/3to1/3.png"",""time"":302},{""stimulus"":""img/3to1/4.png"",""time"":409},{""stimulus"":""img/3to1/5.png"",""time"":500},{""stimulus"":""img/3to1/6.png"",""time"":597},{""stimulus"":""img/3to1/7.png"",""time"":701},{""stimulus"":""img/3to1/8.png"",""time"":800},{""stimulus"":""img/3to1/9.png"",""time"":905},{""stimulus"":""img/3to1/10.png"",""time"":1001},{""stimulus"":""img/3to1/11.png"",""time"":1097},{""stimulus"":""img/3to1/12.png"",""time"":1196}]","[]"
"image-keyboard-response","112","142835","0.0-5.0-1.54","6105338a15c74e8435e95c71","bdp_cybrbll","Tue Mar 28 2023 15:02:52 GMT-0400 (Eastern Daylight Time)","435873","1","3","","null","","","","observe","","img/1to3/1.png","null","171","1150","0.5","0.5","1","2","",""
"animation","113","144133","0.0-5.0-2.54","6105338a15c74e8435e95c71","bdp_cybrbll","Tue Mar 28 2023 15:02:52 GMT-0400 (Eastern Daylight Time)","435873","1","3","","","","","","","","","","171","","","","1","2","[{""stimulus"":""img/1to2/1.png"",""time"":106},{""stimulus"":""img/1to2/2.png"",""time"":210},{""stimulus"":""img/1to2/3.png"",""time"":301},{""stimulus"":""img/1to2/4.png"",""time"":402},{""stimulus"":""img/1to2/5.png"",""time"":506},{""stimulus"":""img/1to2/6.png"",""time"":602},{""stimulus"":""img/1to2/7.png"",""time"":702},{""stimulus"":""img/1to2/8.png"",""time"":802},{""stimulus"":""img/1to2/9.png"",""time"":898},{""stimulus"":""img/1to2/10.png"",""time"":1001},{""stimulus"":""img/1to2/11.png"",""time"":1093},{""stimulus"":""img/1to2/12.png"",""time"":1189}]","[]"
"image-keyboard-response","114","144495","0.0-5.0-1.55","6105338a15c74e8435e95c71","bdp_cybrbll","Tue Mar 28 2023 15:02:52 GMT-0400 (Eastern Daylight Time)","435873","1","3","","359","","","","choice","","img/2to1/1.png","2","170","412","0.5","0.5","2","3","",""
"animation","115","145789","0.0-5.0-2.55","6105338a15c74e8435e95c71","bdp_cybrbll","Tue Mar 28 2023 15:02:52 GMT-0400 (Eastern Daylight Time)","435873","1","3","","","","","","","","","","170","","","","2","3","[{""stimulus"":""img/2to3/1.png"",""time"":107},{""stimulus"":""img/2to3/2.png"",""time"":207},{""stimulus"":""img/2to3/3.png"",""time"":311},{""stimulus"":""img/2to3/4.png"",""time"":402},{""stimulus"":""img/2to3/5.png"",""time"":503},{""stimulus"":""img/2to3/6.png"",""time"":607},{""stimulus"":""img/2to3/7.png"",""time"":699},{""stimulus"":""img/2to3/8.png"",""time"":795},{""stimulus"":""img/2to3/9.png"",""time"":903},{""stimulus"":""img/2to3/10.png"",""time"":994},{""stimulus"":""img/2to3/11.png"",""time"":1100},{""stimulus"":""img/2to3/12.png"",""time"":1199}]","[]"
"image-keyboard-response","116","146277","0.0-5.0-1.56","6105338a15c74e8435e95c71","bdp_cybrbll","Tue Mar 28 2023 15:02:52 GMT-0400 (Eastern Daylight Time)","435873","1","3","","null","","","","observe","","img/3to2/1.png","null","169","474","0.5","0.5","3","1","",""
"animation","117","147573","0.0-5.0-2.56","6105338a15c74e8435e95c71","bdp_cybrbll","Tue Mar 28 2023 15:02:52 GMT-0400 (Eastern Daylight Time)","435873","1","3","","","","","","","","","","169","","","","3","1","[{""stimulus"":""img/3to1/1.png"",""time"":109},{""stimulus"":""img/3to1/2.png"",""time"":206},{""stimulus"":""img/3to1/3.png"",""time"":302},{""stimulus"":""img/3to1/4.png"",""time"":406},{""stimulus"":""img/3to1/5.png"",""time"":502},{""stimulus"":""img/3to1/6.png"",""time"":600},{""stimulus"":""img/3to1/7.png"",""time"":700},{""stimulus"":""img/3to1/8.png"",""time"":801},{""stimulus"":""img/3to1/9.png"",""time"":905},{""stimulus"":""img/3to1/10.png"",""time"":1001},{""stimulus"":""img/3to1/11.png"",""time"":1096},{""stimulus"":""img/3to1/12.png"",""time"":1200}]","[]"
"image-keyboard-response","118","147997","0.0-5.0-1.57","6105338a15c74e8435e95c71","bdp_cybrbll","Tue Mar 28 2023 15:02:52 GMT-0400 (Eastern Daylight Time)","435873","1","3","","null","","","","observe","","img/1to3/1.png","null","168","414","0.5","0.5","1","3","",""
"animation","119","149291","0.0-5.0-2.57","6105338a15c74e8435e95c71","bdp_cybrbll","Tue Mar 28 2023 15:02:52 GMT-0400 (Eastern Daylight Time)","435873","1","3","","","","","","","","","","168","","","","1","3","[{""stimulus"":""img/1to3/1.png"",""time"":109},{""stimulus"":""img/1to3/2.png"",""time"":208},{""stimulus"":""img/1to3/3.png"",""time"":305},{""stimulus"":""img/1to3/4.png"",""time"":409},{""stimulus"":""img/1to3/5.png"",""time"":505},{""stimulus"":""img/1to3/6.png"",""time"":597},{""stimulus"":""img/1to3/7.png"",""time"":705},{""stimulus"":""img/1to3/8.png"",""time"":796},{""stimulus"":""img/1to3/9.png"",""time"":902},{""stimulus"":""img/1to3/10.png"",""time"":1000},{""stimulus"":""img/1to3/11.png"",""time"":1093},{""stimulus"":""img/1to3/12.png"",""time"":1197}]","[]"
"image-keyboard-response","120","149461","0.0-5.0-1.58","6105338a15c74e8435e95c71","bdp_cybrbll","Tue Mar 28 2023 15:02:52 GMT-0400 (Eastern Daylight Time)","435873","1","3","","null","","","","observe","","img/3to2/1.png","null","167","159","0.5","0.5","3","2","",""
"animation","121","150753","0.0-5.0-2.58","6105338a15c74e8435e95c71","bdp_cybrbll","Tue Mar 28 2023 15:02:52 GMT-0400 (Eastern Daylight Time)","435873","1","3","","","","","","","","","","167","","","","3","2","[{""stimulus"":""img/3to2/1.png"",""time"":111},{""stimulus"":""img/3to2/2.png"",""time"":204},{""stimulus"":""img/3to2/3.png"",""time"":304},{""stimulus"":""img/3to2/4.png"",""time"":408},{""stimulus"":""img/3to2/5.png"",""time"":501},{""stimulus"":""img/3to2/6.png"",""time"":600},{""stimulus"":""img/3to2/7.png"",""time"":705},{""stimulus"":""img/3to2/8.png"",""time"":796},{""stimulus"":""img/3to2/9.png"",""time"":905},{""stimulus"":""img/3to2/10.png"",""time"":996},{""stimulus"":""img/3to2/11.png"",""time"":1093},{""stimulus"":""img/3to2/12.png"",""time"":1200}]","[]"
"image-keyboard-response","122","151094","0.0-5.0-1.59","6105338a15c74e8435e95c71","bdp_cybrbll","Tue Mar 28 2023 15:02:52 GMT-0400 (Eastern Daylight Time)","435873","1","3","","340","","","","choice","","img/2to1/1.png","1","166","878","0.5","0.5","2","1","",""
"animation","123","152386","0.0-5.0-2.59","6105338a15c74e8435e95c71","bdp_cybrbll","Tue Mar 28 2023 15:02:52 GMT-0400 (Eastern Daylight Time)","435873","1","3","","","","","","","","","","166","","","","2","1","[{""stimulus"":""img/2to1/1.png"",""time"":112},{""stimulus"":""img/2to1/2.png"",""time"":205},{""stimulus"":""img/2to1/3.png"",""time"":300},{""stimulus"":""img/2to1/4.png"",""time"":405},{""stimulus"":""img/2to1/5.png"",""time"":500},{""stimulus"":""img/2to1/6.png"",""time"":607},{""stimulus"":""img/2to1/7.png"",""time"":699},{""stimulus"":""img/2to1/8.png"",""time"":800},{""stimulus"":""img/2to1/9.png"",""time"":903},{""stimulus"":""img/2to1/10.png"",""time"":996},{""stimulus"":""img/2to1/11.png"",""time"":1092},{""stimulus"":""img/2to1/12.png"",""time"":1197}]","[]"
"image-keyboard-response","124","153501","0.0-5.0-1.60","6105338a15c74e8435e95c71","bdp_cybrbll","Tue Mar 28 2023 15:02:52 GMT-0400 (Eastern Daylight Time)","435873","1","3","","null","","","","observe","","img/1to3/1.png","null","165","1108","0.5","0.5","1","2","",""
"animation","125","154793","0.0-5.0-2.60","6105338a15c74e8435e95c71","bdp_cybrbll","Tue Mar 28 2023 15:02:52 GMT-0400 (Eastern Daylight Time)","435873","1","3","","","","","","","","","","165","","","","1","2","[{""stimulus"":""img/1to2/1.png"",""time"":113},{""stimulus"":""img/1to2/2.png"",""time"":208},{""stimulus"":""img/1to2/3.png"",""time"":300},{""stimulus"":""img/1to2/4.png"",""time"":408},{""stimulus"":""img/1to2/5.png"",""time"":500},{""stimulus"":""img/1to2/6.png"",""time"":596},{""stimulus"":""img/1to2/7.png"",""time"":700},{""stimulus"":""img/1to2/8.png"",""time"":798},{""stimulus"":""img/1to2/9.png"",""time"":901},{""stimulus"":""img/1to2/10.png"",""time"":1000},{""stimulus"":""img/1to2/11.png"",""time"":1093},{""stimulus"":""img/1to2/12.png"",""time"":1200}]","[]"
"image-keyboard-response","126","154916","0.0-5.0-1.61","6105338a15c74e8435e95c71","bdp_cybrbll","Tue Mar 28 2023 15:02:52 GMT-0400 (Eastern Daylight Time)","435873","1","3","","122","","","","choice","","img/2to1/1.png","2","164","591","0.5","0.5","2","3","",""
"animation","127","156208","0.0-5.0-2.61","6105338a15c74e8435e95c71","bdp_cybrbll","Tue Mar 28 2023 15:02:52 GMT-0400 (Eastern Daylight Time)","435873","1","3","","","","","","","","","","164","","","","2","3","[{""stimulus"":""img/2to3/1.png"",""time"":106},{""stimulus"":""img/2to3/2.png"",""time"":210},{""stimulus"":""img/2to3/3.png"",""time"":302},{""stimulus"":""img/2to3/4.png"",""time"":410},{""stimulus"":""img/2to3/5.png"",""time"":506},{""stimulus"":""img/2to3/6.png"",""time"":598},{""stimulus"":""img/2to3/7.png"",""time"":706},{""stimulus"":""img/2to3/8.png"",""time"":797},{""stimulus"":""img/2to3/9.png"",""time"":897},{""stimulus"":""img/2to3/10.png"",""time"":1001},{""stimulus"":""img/2to3/11.png"",""time"":1097},{""stimulus"":""img/2to3/12.png"",""time"":1201}]","[]"
"image-keyboard-response","128","156890","0.0-5.0-1.62","6105338a15c74e8435e95c71","bdp_cybrbll","Tue Mar 28 2023 15:02:52 GMT-0400 (Eastern Daylight Time)","435873","1","3","","null","","","","observe","","img/3to2/1.png","null","163","671","0.5","0.5","3","2","",""
"animation","129","158189","0.0-5.0-2.62","6105338a15c74e8435e95c71","bdp_cybrbll","Tue Mar 28 2023 15:02:52 GMT-0400 (Eastern Daylight Time)","435873","1","3","","","","","","","","","","163","","","","3","2","[{""stimulus"":""img/3to2/1.png"",""time"":104},{""stimulus"":""img/3to2/2.png"",""time"":211},{""stimulus"":""img/3to2/3.png"",""time"":306},{""stimulus"":""img/3to2/4.png"",""time"":401},{""stimulus"":""img/3to2/5.png"",""time"":508},{""stimulus"":""img/3to2/6.png"",""time"":600},{""stimulus"":""img/3to2/7.png"",""time"":695},{""stimulus"":""img/3to2/8.png"",""time"":801},{""stimulus"":""img/3to2/9.png"",""time"":895},{""stimulus"":""img/3to2/10.png"",""time"":1000},{""stimulus"":""img/3to2/11.png"",""time"":1095},{""stimulus"":""img/3to2/12.png"",""time"":1194}]","[]"
"image-keyboard-response","130","158387","0.0-5.0-1.63","6105338a15c74e8435e95c71","bdp_cybrbll","Tue Mar 28 2023 15:02:52 GMT-0400 (Eastern Daylight Time)","435873","1","3","","197","","","","choice","","img/2to1/1.png","1","162","709","0.5","0.5","2","1","",""
"animation","131","159683","0.0-5.0-2.63","6105338a15c74e8435e95c71","bdp_cybrbll","Tue Mar 28 2023 15:02:52 GMT-0400 (Eastern Daylight Time)","435873","1","3","","","","","","","","","","162","","","","2","1","[{""stimulus"":""img/2to1/1.png"",""time"":103},{""stimulus"":""img/2to1/2.png"",""time"":206},{""stimulus"":""img/2to1/3.png"",""time"":302},{""stimulus"":""img/2to1/4.png"",""time"":401},{""stimulus"":""img/2to1/5.png"",""time"":502},{""stimulus"":""img/2to1/6.png"",""time"":598},{""stimulus"":""img/2to1/7.png"",""time"":701},{""stimulus"":""img/2to1/8.png"",""time"":797},{""stimulus"":""img/2to1/9.png"",""time"":897},{""stimulus"":""img/2to1/10.png"",""time"":998},{""stimulus"":""img/2to1/11.png"",""time"":1097},{""stimulus"":""img/2to1/12.png"",""time"":1191}]","[]"
"image-keyboard-response","132","159933","0.0-5.0-1.64","6105338a15c74e8435e95c71","bdp_cybrbll","Tue Mar 28 2023 15:02:52 GMT-0400 (Eastern Daylight Time)","435873","1","3","","null","","","","observe","","img/1to3/1.png","null","161","236","0.5","0.5","1","3","",""
"animation","133","161225","0.0-5.0-2.64","6105338a15c74e8435e95c71","bdp_cybrbll","Tue Mar 28 2023 15:02:52 GMT-0400 (Eastern Daylight Time)","435873","1","3","","","","","","","","","","161","","","","1","3","[{""stimulus"":""img/1to3/1.png"",""time"":113},{""stimulus"":""img/1to3/2.png"",""time"":204},{""stimulus"":""img/1to3/3.png"",""time"":300},{""stimulus"":""img/1to3/4.png"",""time"":406},{""stimulus"":""img/1to3/5.png"",""time"":501},{""stimulus"":""img/1to3/6.png"",""time"":600},{""stimulus"":""img/1to3/7.png"",""time"":704},{""stimulus"":""img/1to3/8.png"",""time"":800},{""stimulus"":""img/1to3/9.png"",""time"":904},{""stimulus"":""img/1to3/10.png"",""time"":1000},{""stimulus"":""img/1to3/11.png"",""time"":1096},{""stimulus"":""img/1to3/12.png"",""time"":1201}]","[]"
"image-keyboard-response","134","161681","0.0-5.0-1.65","6105338a15c74e8435e95c71","bdp_cybrbll","Tue Mar 28 2023 15:02:52 GMT-0400 (Eastern Daylight Time)","435873","1","3","","null","","","","observe","","img/3to2/1.png","null","160","453","0.5","0.5","3","2","",""
"animation","135","162978","0.0-5.0-2.65","6105338a15c74e8435e95c71","bdp_cybrbll","Tue Mar 28 2023 15:02:52 GMT-0400 (Eastern Daylight Time)","435873","1","3","","","","","","","","","","160","","","","3","2","[{""stimulus"":""img/3to2/1.png"",""time"":104},{""stimulus"":""img/3to2/2.png"",""time"":203},{""stimulus"":""img/3to2/3.png"",""time"":303},{""stimulus"":""img/3to2/4.png"",""time"":403},{""stimulus"":""img/3to2/5.png"",""time"":504},{""stimulus"":""img/3to2/6.png"",""time"":599},{""stimulus"":""img/3to2/7.png"",""time"":699},{""stimulus"":""img/3to2/8.png"",""time"":803},{""stimulus"":""img/3to2/9.png"",""time"":894},{""stimulus"":""img/3to2/10.png"",""time"":992},{""stimulus"":""img/3to2/11.png"",""time"":1099},{""stimulus"":""img/3to2/12.png"",""time"":1195}]","[]"
"image-keyboard-response","136","163281","0.0-5.0-1.66","6105338a15c74e8435e95c71","bdp_cybrbll","Tue Mar 28 2023 15:02:52 GMT-0400 (Eastern Daylight Time)","435873","1","3","","302","","","","choice","","img/2to1/1.png","1","159","530","0.5","0.5","2","1","",""
"animation","137","164581","0.0-5.0-2.66","6105338a15c74e8435e95c71","bdp_cybrbll","Tue Mar 28 2023 15:02:52 GMT-0400 (Eastern Daylight Time)","435873","1","3","","","","","","","","","","159","","","","2","1","[{""stimulus"":""img/2to1/1.png"",""time"":105},{""stimulus"":""img/2to1/2.png"",""time"":204},{""stimulus"":""img/2to1/3.png"",""time"":308},{""stimulus"":""img/2to1/4.png"",""time"":402},{""stimulus"":""img/2to1/5.png"",""time"":504},{""stimulus"":""img/2to1/6.png"",""time"":604},{""stimulus"":""img/2to1/7.png"",""time"":695},{""stimulus"":""img/2to1/8.png"",""time"":804},{""stimulus"":""img/2to1/9.png"",""time"":896},{""stimulus"":""img/2to1/10.png"",""time"":993},{""stimulus"":""img/2to1/11.png"",""time"":1096},{""stimulus"":""img/2to1/12.png"",""time"":1196}]","[]"
"image-keyboard-response","138","165141","0.0-5.0-1.67","6105338a15c74e8435e95c71","bdp_cybrbll","Tue Mar 28 2023 15:02:52 GMT-0400 (Eastern Daylight Time)","435873","1","3","","null","","","","observe","","img/1to3/1.png","null","158","551","0.5","0.5","1","3","",""
"animation","139","166437","0.0-5.0-2.67","6105338a15c74e8435e95c71","bdp_cybrbll","Tue Mar 28 2023 15:02:52 GMT-0400 (Eastern Daylight Time)","435873","1","3","","","","","","","","","","158","","","","1","3","[{""stimulus"":""img/1to3/1.png"",""time"":113},{""stimulus"":""img/1to3/2.png"",""time"":205},{""stimulus"":""img/1to3/3.png"",""time"":304},{""stimulus"":""img/1to3/4.png"",""time"":407},{""stimulus"":""img/1to3/5.png"",""time"":500},{""stimulus"":""img/1to3/6.png"",""time"":598},{""stimulus"":""img/1to3/7.png"",""time"":704},{""stimulus"":""img/1to3/8.png"",""time"":798},{""stimulus"":""img/1to3/9.png"",""time"":904},{""stimulus"":""img/1to3/10.png"",""time"":999},{""stimulus"":""img/1to3/11.png"",""time"":1092},{""stimulus"":""img/1to3/12.png"",""time"":1200}]","[]"
"image-keyboard-response","140","167042","0.0-5.0-1.68","6105338a15c74e8435e95c71","bdp_cybrbll","Tue Mar 28 2023 15:02:52 GMT-0400 (Eastern Daylight Time)","435873","1","3","","null","","","","observe","","img/3to2/1.png","null","157","599","0.5","0.5","3","2","",""
"animation","141","168337","0.0-5.0-2.68","6105338a15c74e8435e95c71","bdp_cybrbll","Tue Mar 28 2023 15:02:52 GMT-0400 (Eastern Daylight Time)","435873","1","3","","","","","","","","","","157","","","","3","2","[{""stimulus"":""img/3to2/1.png"",""time"":107},{""stimulus"":""img/3to2/2.png"",""time"":210},{""stimulus"":""img/3to2/3.png"",""time"":306},{""stimulus"":""img/3to2/4.png"",""time"":402},{""stimulus"":""img/3to2/5.png"",""time"":503},{""stimulus"":""img/3to2/6.png"",""time"":600},{""stimulus"":""img/3to2/7.png"",""time"":705},{""stimulus"":""img/3to2/8.png"",""time"":802},{""stimulus"":""img/3to2/9.png"",""time"":898},{""stimulus"":""img/3to2/10.png"",""time"":1002},{""stimulus"":""img/3to2/11.png"",""time"":1094},{""stimulus"":""img/3to2/12.png"",""time"":1194}]","[]"
"image-keyboard-response","142","168483","0.0-5.0-1.69","6105338a15c74e8435e95c71","bdp_cybrbll","Tue Mar 28 2023 15:02:52 GMT-0400 (Eastern Daylight Time)","435873","1","3","","145","","","","choice","","img/2to1/1.png","1","156","544","0.5","0.5","2","1","",""
"animation","143","169781","0.0-5.0-2.69","6105338a15c74e8435e95c71","bdp_cybrbll","Tue Mar 28 2023 15:02:52 GMT-0400 (Eastern Daylight Time)","435873","1","3","","","","","","","","","","156","","","","2","1","[{""stimulus"":""img/2to1/1.png"",""time"":106},{""stimulus"":""img/2to1/2.png"",""time"":207},{""stimulus"":""img/2to1/3.png"",""time"":304},{""stimulus"":""img/2to1/4.png"",""time"":402},{""stimulus"":""img/2to1/5.png"",""time"":502},{""stimulus"":""img/2to1/6.png"",""time"":602},{""stimulus"":""img/2to1/7.png"",""time"":705},{""stimulus"":""img/2to1/8.png"",""time"":798},{""stimulus"":""img/2to1/9.png"",""time"":894},{""stimulus"":""img/2to1/10.png"",""time"":1002},{""stimulus"":""img/2to1/11.png"",""time"":1096},{""stimulus"":""img/2to1/12.png"",""time"":1194}]","[]"
"image-keyboard-response","144","170301","0.0-5.0-1.70","6105338a15c74e8435e95c71","bdp_cybrbll","Tue Mar 28 2023 15:02:52 GMT-0400 (Eastern Daylight Time)","435873","1","3","","null","","","","observe","","img/1to3/1.png","null","155","511","0.5","0.5","1","2","",""
"animation","145","171593","0.0-5.0-2.70","6105338a15c74e8435e95c71","bdp_cybrbll","Tue Mar 28 2023 15:02:52 GMT-0400 (Eastern Daylight Time)","435873","1","3","","","","","","","","","","155","","","","1","2","[{""stimulus"":""img/1to2/1.png"",""time"":112},{""stimulus"":""img/1to2/2.png"",""time"":207},{""stimulus"":""img/1to2/3.png"",""time"":304},{""stimulus"":""img/1to2/4.png"",""time"":408},{""stimulus"":""img/1to2/5.png"",""time"":504},{""stimulus"":""img/1to2/6.png"",""time"":596},{""stimulus"":""img/1to2/7.png"",""time"":700},{""stimulus"":""img/1to2/8.png"",""time"":800},{""stimulus"":""img/1to2/9.png"",""time"":904},{""stimulus"":""img/1to2/10.png"",""time"":997},{""stimulus"":""img/1to2/11.png"",""time"":1096},{""stimulus"":""img/1to2/12.png"",""time"":1200}]","[]"
"image-keyboard-response","146","171689","0.0-5.0-1.71","6105338a15c74e8435e95c71","bdp_cybrbll","Tue Mar 28 2023 15:02:52 GMT-0400 (Eastern Daylight Time)","435873","1","3","","95","","","","choice","","img/2to1/1.png","2","154","372","0.5","0.5","2","3","",""
"animation","147","172989","0.0-5.0-2.71","6105338a15c74e8435e95c71","bdp_cybrbll","Tue Mar 28 2023 15:02:52 GMT-0400 (Eastern Daylight Time)","435873","1","3","","","","","","","","","","154","","","","2","3","[{""stimulus"":""img/2to3/1.png"",""time"":104},{""stimulus"":""img/2to3/2.png"",""time"":200},{""stimulus"":""img/2to3/3.png"",""time"":305},{""stimulus"":""img/2to3/4.png"",""time"":400},{""stimulus"":""img/2to3/5.png"",""time"":504},{""stimulus"":""img/2to3/6.png"",""time"":600},{""stimulus"":""img/2to3/7.png"",""time"":700},{""stimulus"":""img/2to3/8.png"",""time"":804},{""stimulus"":""img/2to3/9.png"",""time"":900},{""stimulus"":""img/2to3/10.png"",""time"":992},{""stimulus"":""img/2to3/11.png"",""time"":1100},{""stimulus"":""img/2to3/12.png"",""time"":1192}]","[]"
"image-keyboard-response","148","173365","0.0-5.0-1.72","6105338a15c74e8435e95c71","bdp_cybrbll","Tue Mar 28 2023 15:02:52 GMT-0400 (Eastern Daylight Time)","435873","1","3","","null","","","","observe","","img/3to2/1.png","null","153","363","0.5","0.5","3","2","",""
"animation","149","174657","0.0-5.0-2.72","6105338a15c74e8435e95c71","bdp_cybrbll","Tue Mar 28 2023 15:02:52 GMT-0400 (Eastern Daylight Time)","435873","1","3","","","","","","","","","","153","","","","3","2","[{""stimulus"":""img/3to2/1.png"",""time"":113},{""stimulus"":""img/3to2/2.png"",""time"":205},{""stimulus"":""img/3to2/3.png"",""time"":304},{""stimulus"":""img/3to2/4.png"",""time"":405},{""stimulus"":""img/3to2/5.png"",""time"":500},{""stimulus"":""img/3to2/6.png"",""time"":596},{""stimulus"":""img/3to2/7.png"",""time"":700},{""stimulus"":""img/3to2/8.png"",""time"":796},{""stimulus"":""img/3to2/9.png"",""time"":904},{""stimulus"":""img/3to2/10.png"",""time"":1000},{""stimulus"":""img/3to2/11.png"",""time"":1096},{""stimulus"":""img/3to2/12.png"",""time"":1200}]","[]"
"image-keyboard-response","150","175231","0.0-5.0-1.73","6105338a15c74e8435e95c71","bdp_cybrbll","Tue Mar 28 2023 15:02:52 GMT-0400 (Eastern Daylight Time)","435873","1","3","","573","","","","choice","","img/2to1/1.png","1","152","414","0.5","0.5","2","1","",""
"animation","151","176525","0.0-5.0-2.73","6105338a15c74e8435e95c71","bdp_cybrbll","Tue Mar 28 2023 15:02:52 GMT-0400 (Eastern Daylight Time)","435873","1","3","","","","","","","","","","152","","","","2","1","[{""stimulus"":""img/2to1/1.png"",""time"":103},{""stimulus"":""img/2to1/2.png"",""time"":205},{""stimulus"":""img/2to1/3.png"",""time"":309},{""stimulus"":""img/2to1/4.png"",""time"":401},{""stimulus"":""img/2to1/5.png"",""time"":497},{""stimulus"":""img/2to1/6.png"",""time"":603},{""stimulus"":""img/2to1/7.png"",""time"":701},{""stimulus"":""img/2to1/8.png"",""time"":805},{""stimulus"":""img/2to1/9.png"",""time"":901},{""stimulus"":""img/2to1/10.png"",""time"":998},{""stimulus"":""img/2to1/11.png"",""time"":1101},{""stimulus"":""img/2to1/12.png"",""time"":1197}]","[]"
"image-keyboard-response","152","176721","0.0-5.0-1.74","6105338a15c74e8435e95c71","bdp_cybrbll","Tue Mar 28 2023 15:02:52 GMT-0400 (Eastern Daylight Time)","435873","1","3","","null","","","","observe","","img/1to3/1.png","null","151","188","0.5","0.5","1","3","",""
"animation","153","178021","0.0-5.0-2.74","6105338a15c74e8435e95c71","bdp_cybrbll","Tue Mar 28 2023 15:02:52 GMT-0400 (Eastern Daylight Time)","435873","1","3","","","","","","","","","","151","","","","1","3","[{""stimulus"":""img/1to3/1.png"",""time"":104},{""stimulus"":""img/1to3/2.png"",""time"":204},{""stimulus"":""img/1to3/3.png"",""time"":308},{""stimulus"":""img/1to3/4.png"",""time"":402},{""stimulus"":""img/1to3/5.png"",""time"":508},{""stimulus"":""img/1to3/6.png"",""time"":600},{""stimulus"":""img/1to3/7.png"",""time"":700},{""stimulus"":""img/1to3/8.png"",""time"":802},{""stimulus"":""img/1to3/9.png"",""time"":896},{""stimulus"":""img/1to3/10.png"",""time"":996},{""stimulus"":""img/1to3/11.png"",""time"":1100},{""stimulus"":""img/1to3/12.png"",""time"":1196}]","[]"
"image-keyboard-response","154","178233","0.0-5.0-1.75","6105338a15c74e8435e95c71","bdp_cybrbll","Tue Mar 28 2023 15:02:52 GMT-0400 (Eastern Daylight Time)","435873","1","3","","null","","","","observe","","img/3to2/1.png","null","150","209","0.5","0.5","3","2","",""
"animation","155","179533","0.0-5.0-2.75","6105338a15c74e8435e95c71","bdp_cybrbll","Tue Mar 28 2023 15:02:52 GMT-0400 (Eastern Daylight Time)","435873","1","3","","","","","","","","","","150","","","","3","2","[{""stimulus"":""img/3to2/1.png"",""time"":108},{""stimulus"":""img/3to2/2.png"",""time"":200},{""stimulus"":""img/3to2/3.png"",""time"":308},{""stimulus"":""img/3to2/4.png"",""time"":400},{""stimulus"":""img/3to2/5.png"",""time"":506},{""stimulus"":""img/3to2/6.png"",""time"":600},{""stimulus"":""img/3to2/7.png"",""time"":695},{""stimulus"":""img/3to2/8.png"",""time"":804},{""stimulus"":""img/3to2/9.png"",""time"":900},{""stimulus"":""img/3to2/10.png"",""time"":992},{""stimulus"":""img/3to2/11.png"",""time"":1097},{""stimulus"":""img/3to2/12.png"",""time"":1196}]","[]"
"image-keyboard-response","156","179699","0.0-5.0-1.76","6105338a15c74e8435e95c71","bdp_cybrbll","Tue Mar 28 2023 15:02:52 GMT-0400 (Eastern Daylight Time)","435873","1","3","","165","","","","choice","","img/2to1/1.png","2","149","776","0.5","0.1","2","3","",""
"animation","157","180993","0.0-5.0-2.76","6105338a15c74e8435e95c71","bdp_cybrbll","Tue Mar 28 2023 15:02:52 GMT-0400 (Eastern Daylight Time)","435873","1","3","","","","","","","","","","149","","","","2","3","[{""stimulus"":""img/2to3/1.png"",""time"":101},{""stimulus"":""img/2to3/2.png"",""time"":205},{""stimulus"":""img/2to3/3.png"",""time"":301},{""stimulus"":""img/2to3/4.png"",""time"":409},{""stimulus"":""img/2to3/5.png"",""time"":502},{""stimulus"":""img/2to3/6.png"",""time"":601},{""stimulus"":""img/2to3/7.png"",""time"":705},{""stimulus"":""img/2to3/8.png"",""time"":797},{""stimulus"":""img/2to3/9.png"",""time"":897},{""stimulus"":""img/2to3/10.png"",""time"":1001},{""stimulus"":""img/2to3/11.png"",""time"":1096},{""stimulus"":""img/2to3/12.png"",""time"":1197}]","[]"
"image-keyboard-response","158","181301","0.0-5.0-1.77","6105338a15c74e8435e95c71","bdp_cybrbll","Tue Mar 28 2023 15:02:52 GMT-0400 (Eastern Daylight Time)","435873","1","3","","null","","","","observe","","img/3to2/1.png","null","148","300","0.5","0.1","3","1","",""
"animation","159","182597","0.0-5.0-2.77","6105338a15c74e8435e95c71","bdp_cybrbll","Tue Mar 28 2023 15:02:52 GMT-0400 (Eastern Daylight Time)","435873","1","3","","","","","","","","","","148","","","","3","1","[{""stimulus"":""img/3to1/1.png"",""time"":108},{""stimulus"":""img/3to1/2.png"",""time"":208},{""stimulus"":""img/3to1/3.png"",""time"":299},{""stimulus"":""img/3to1/4.png"",""time"":408},{""stimulus"":""img/3to1/5.png"",""time"":504},{""stimulus"":""img/3to1/6.png"",""time"":600},{""stimulus"":""img/3to1/7.png"",""time"":700},{""stimulus"":""img/3to1/8.png"",""time"":800},{""stimulus"":""img/3to1/9.png"",""time"":904},{""stimulus"":""img/3to1/10.png"",""time"":996},{""stimulus"":""img/3to1/11.png"",""time"":1096},{""stimulus"":""img/3to1/12.png"",""time"":1200}]","[]"
"image-keyboard-response","160","182893","0.0-5.0-1.78","6105338a15c74e8435e95c71","bdp_cybrbll","Tue Mar 28 2023 15:02:52 GMT-0400 (Eastern Daylight Time)","435873","1","3","","null","","","","observe","","img/1to3/1.png","null","147","284","0.5","0.1","1","3","",""
"animation","161","184184","0.0-5.0-2.78","6105338a15c74e8435e95c71","bdp_cybrbll","Tue Mar 28 2023 15:02:52 GMT-0400 (Eastern Daylight Time)","435873","1","3","","","","","","","","","","147","","","","1","3","[{""stimulus"":""img/1to3/1.png"",""time"":108},{""stimulus"":""img/1to3/2.png"",""time"":208},{""stimulus"":""img/1to3/3.png"",""time"":301},{""stimulus"":""img/1to3/4.png"",""time"":408},{""stimulus"":""img/1to3/5.png"",""time"":504},{""stimulus"":""img/1to3/6.png"",""time"":600},{""stimulus"":""img/1to3/7.png"",""time"":704},{""stimulus"":""img/1to3/8.png"",""time"":800},{""stimulus"":""img/1to3/9.png"",""time"":904},{""stimulus"":""img/1to3/10.png"",""time"":995},{""stimulus"":""img/1to3/11.png"",""time"":1092},{""stimulus"":""img/1to3/12.png"",""time"":1200}]","[]"
"image-keyboard-response","162","184949","0.0-5.0-1.79","6105338a15c74e8435e95c71","bdp_cybrbll","Tue Mar 28 2023 15:02:52 GMT-0400 (Eastern Daylight Time)","435873","1","3","","null","","","","observe","","img/3to2/1.png","null","146","756","0.5","0.1","3","1","",""
"animation","163","186242","0.0-5.0-2.79","6105338a15c74e8435e95c71","bdp_cybrbll","Tue Mar 28 2023 15:02:52 GMT-0400 (Eastern Daylight Time)","435873","1","3","","","","","","","","","","146","","","","3","1","[{""stimulus"":""img/3to1/1.png"",""time"":112},{""stimulus"":""img/3to1/2.png"",""time"":206},{""stimulus"":""img/3to1/3.png"",""time"":300},{""stimulus"":""img/3to1/4.png"",""time"":408},{""stimulus"":""img/3to1/5.png"",""time"":504},{""stimulus"":""img/3to1/6.png"",""time"":595},{""stimulus"":""img/3to1/7.png"",""time"":704},{""stimulus"":""img/3to1/8.png"",""time"":795},{""stimulus"":""img/3to1/9.png"",""time"":903},{""stimulus"":""img/3to1/10.png"",""time"":1000},{""stimulus"":""img/3to1/11.png"",""time"":1092},{""stimulus"":""img/3to1/12.png"",""time"":1196}]","[]"
"image-keyboard-response","164","186444","0.0-5.0-1.80","6105338a15c74e8435e95c71","bdp_cybrbll","Tue Mar 28 2023 15:02:52 GMT-0400 (Eastern Daylight Time)","435873","1","3","","null","","","","observe","","img/1to3/1.png","null","145","191","0.5","0.1","1","3","",""
"animation","165","187738","0.0-5.0-2.80","6105338a15c74e8435e95c71","bdp_cybrbll","Tue Mar 28 2023 15:02:52 GMT-0400 (Eastern Daylight Time)","435873","1","3","","","","","","","","","","145","","","","1","3","[{""stimulus"":""img/1to3/1.png"",""time"":108},{""stimulus"":""img/1to3/2.png"",""time"":205},{""stimulus"":""img/1to3/3.png"",""time"":299},{""stimulus"":""img/1to3/4.png"",""time"":400},{""stimulus"":""img/1to3/5.png"",""time"":504},{""stimulus"":""img/1to3/6.png"",""time"":596},{""stimulus"":""img/1to3/7.png"",""time"":704},{""stimulus"":""img/1to3/8.png"",""time"":795},{""stimulus"":""img/1to3/9.png"",""time"":904},{""stimulus"":""img/1to3/10.png"",""time"":995},{""stimulus"":""img/1to3/11.png"",""time"":1096},{""stimulus"":""img/1to3/12.png"",""time"":1197}]","[]"
"image-keyboard-response","166","189312","0.0-5.0-1.81","6105338a15c74e8435e95c71","bdp_cybrbll","Tue Mar 28 2023 15:02:52 GMT-0400 (Eastern Daylight Time)","435873","1","3","","null","","","","observe","","img/3to2/1.png","null","144","1567","0.5","0.1","3","1","",""
"animation","167","190613","0.0-5.0-2.81","6105338a15c74e8435e95c71","bdp_cybrbll","Tue Mar 28 2023 15:02:52 GMT-0400 (Eastern Daylight Time)","435873","1","3","","","","","","","","","","144","","","","3","1","[{""stimulus"":""img/3to1/1.png"",""time"":104},{""stimulus"":""img/3to1/2.png"",""time"":199},{""stimulus"":""img/3to1/3.png"",""time"":304},{""stimulus"":""img/3to1/4.png"",""time"":404},{""stimulus"":""img/3to1/5.png"",""time"":503},{""stimulus"":""img/3to1/6.png"",""time"":602},{""stimulus"":""img/3to1/7.png"",""time"":697},{""stimulus"":""img/3to1/8.png"",""time"":800},{""stimulus"":""img/3to1/9.png"",""time"":896},{""stimulus"":""img/3to1/10.png"",""time"":995},{""stimulus"":""img/3to1/11.png"",""time"":1100},{""stimulus"":""img/3to1/12.png"",""time"":1192}]","[]"
"image-keyboard-response","168","190821","0.0-5.0-1.82","6105338a15c74e8435e95c71","bdp_cybrbll","Tue Mar 28 2023 15:02:52 GMT-0400 (Eastern Daylight Time)","435873","1","3","","null","","","","observe","","img/1to3/1.png","null","143","194","0.5","0.1","1","2","",""
"animation","169","192117","0.0-5.0-2.82","6105338a15c74e8435e95c71","bdp_cybrbll","Tue Mar 28 2023 15:02:52 GMT-0400 (Eastern Daylight Time)","435873","1","3","","","","","","","","","","143","","","","1","2","[{""stimulus"":""img/1to2/1.png"",""time"":112},{""stimulus"":""img/1to2/2.png"",""time"":204},{""stimulus"":""img/1to2/3.png"",""time"":303},{""stimulus"":""img/1to2/4.png"",""time"":404},{""stimulus"":""img/1to2/5.png"",""time"":504},{""stimulus"":""img/1to2/6.png"",""time"":595},{""stimulus"":""img/1to2/7.png"",""time"":701},{""stimulus"":""img/1to2/8.png"",""time"":797},{""stimulus"":""img/1to2/9.png"",""time"":900},{""stimulus"":""img/1to2/10.png"",""time"":1000},{""stimulus"":""img/1to2/11.png"",""time"":1092},{""stimulus"":""img/1to2/12.png"",""time"":1196}]","[]"
"image-keyboard-response","170","192399","0.0-5.0-1.83","6105338a15c74e8435e95c71","bdp_cybrbll","Tue Mar 28 2023 15:02:52 GMT-0400 (Eastern Daylight Time)","435873","1","3","","281","","","","choice","","img/2to1/1.png","2","142","274","0.5","0.1","2","3","",""
"animation","171","193693","0.0-5.0-2.83","6105338a15c74e8435e95c71","bdp_cybrbll","Tue Mar 28 2023 15:02:52 GMT-0400 (Eastern Daylight Time)","435873","1","3","","","","","","","","","","142","","","","2","3","[{""stimulus"":""img/2to3/1.png"",""time"":107},{""stimulus"":""img/2to3/2.png"",""time"":202},{""stimulus"":""img/2to3/3.png"",""time"":306},{""stimulus"":""img/2to3/4.png"",""time"":402},{""stimulus"":""img/2to3/5.png"",""time"":502},{""stimulus"":""img/2to3/6.png"",""time"":606},{""stimulus"":""img/2to3/7.png"",""time"":702},{""stimulus"":""img/2to3/8.png"",""time"":794},{""stimulus"":""img/2to3/9.png"",""time"":898},{""stimulus"":""img/2to3/10.png"",""time"":998},{""stimulus"":""img/2to3/11.png"",""time"":1102},{""stimulus"":""img/2to3/12.png"",""time"":1198}]","[]"
"image-keyboard-response","172","193924","0.0-5.0-1.84","6105338a15c74e8435e95c71","bdp_cybrbll","Tue Mar 28 2023 15:02:52 GMT-0400 (Eastern Daylight Time)","435873","1","3","","null","","","","observe","","img/3to2/1.png","null","141","218","0.5","0.1","3","1","",""
"animation","173","195221","0.0-5.0-2.84","6105338a15c74e8435e95c71","bdp_cybrbll","Tue Mar 28 2023 15:02:52 GMT-0400 (Eastern Daylight Time)","435873","1","3","","","","","","","","","","141","","","","3","1","[{""stimulus"":""img/3to1/1.png"",""time"":112},{""stimulus"":""img/3to1/2.png"",""time"":204},{""stimulus"":""img/3to1/3.png"",""time"":304},{""stimulus"":""img/3to1/4.png"",""time"":404},{""stimulus"":""img/3to1/5.png"",""time"":504},{""stimulus"":""img/3to1/6.png"",""time"":595},{""stimulus"":""img/3to1/7.png"",""time"":704},{""stimulus"":""img/3to1/8.png"",""time"":796},{""stimulus"":""img/3to1/9.png"",""time"":904},{""stimulus"":""img/3to1/10.png"",""time"":998},{""stimulus"":""img/3to1/11.png"",""time"":1096},{""stimulus"":""img/3to1/12.png"",""time"":1200}]","[]"
"image-keyboard-response","174","195532","0.0-5.0-1.85","6105338a15c74e8435e95c71","bdp_cybrbll","Tue Mar 28 2023 15:02:52 GMT-0400 (Eastern Daylight Time)","435873","1","3","","null","","","","observe","","img/1to3/1.png","null","140","304","0.5","0.1","1","2","",""
"animation","175","196828","0.0-5.0-2.85","6105338a15c74e8435e95c71","bdp_cybrbll","Tue Mar 28 2023 15:02:52 GMT-0400 (Eastern Daylight Time)","435873","1","3","","","","","","","","","","140","","","","1","2","[{""stimulus"":""img/1to2/1.png"",""time"":102},{""stimulus"":""img/1to2/2.png"",""time"":208},{""stimulus"":""img/1to2/3.png"",""time"":304},{""stimulus"":""img/1to2/4.png"",""time"":404},{""stimulus"":""img/1to2/5.png"",""time"":501},{""stimulus"":""img/1to2/6.png"",""time"":601},{""stimulus"":""img/1to2/7.png"",""time"":705},{""stimulus"":""img/1to2/8.png"",""time"":801},{""stimulus"":""img/1to2/9.png"",""time"":893},{""stimulus"":""img/1to2/10.png"",""time"":1001},{""stimulus"":""img/1to2/11.png"",""time"":1097},{""stimulus"":""img/1to2/12.png"",""time"":1201}]","[]"
"image-keyboard-response","176","197142","0.0-5.0-1.86","6105338a15c74e8435e95c71","bdp_cybrbll","Tue Mar 28 2023 15:02:52 GMT-0400 (Eastern Daylight Time)","435873","1","3","","313","","","","choice","","img/2to1/1.png","2","139","1199","0.5","0.1","2","3","",""
"animation","177","198432","0.0-5.0-2.86","6105338a15c74e8435e95c71","bdp_cybrbll","Tue Mar 28 2023 15:02:52 GMT-0400 (Eastern Daylight Time)","435873","1","3","","","","","","","","","","139","","","","2","3","[{""stimulus"":""img/2to3/1.png"",""time"":110},{""stimulus"":""img/2to3/2.png"",""time"":205},{""stimulus"":""img/2to3/3.png"",""time"":306},{""stimulus"":""img/2to3/4.png"",""time"":406},{""stimulus"":""img/2to3/5.png"",""time"":497},{""stimulus"":""img/2to3/6.png"",""time"":606},{""stimulus"":""img/2to3/7.png"",""time"":697},{""stimulus"":""img/2to3/8.png"",""time"":798},{""stimulus"":""img/2to3/9.png"",""time"":902},{""stimulus"":""img/2to3/10.png"",""time"":998},{""stimulus"":""img/2to3/11.png"",""time"":1102},{""stimulus"":""img/2to3/12.png"",""time"":1198}]","[]"
"image-keyboard-response","178","199072","0.0-5.0-1.87","6105338a15c74e8435e95c71","bdp_cybrbll","Tue Mar 28 2023 15:02:52 GMT-0400 (Eastern Daylight Time)","435873","1","3","","null","","","","observe","","img/3to2/1.png","null","138","636","0.5","0.1","3","1","",""
"animation","179","200369","0.0-5.0-2.87","6105338a15c74e8435e95c71","bdp_cybrbll","Tue Mar 28 2023 15:02:52 GMT-0400 (Eastern Daylight Time)","435873","1","3","","","","","","","","","","138","","","","3","1","[{""stimulus"":""img/3to1/1.png"",""time"":108},{""stimulus"":""img/3to1/2.png"",""time"":204},{""stimulus"":""img/3to1/3.png"",""time"":308},{""stimulus"":""img/3to1/4.png"",""time"":399},{""stimulus"":""img/3to1/5.png"",""time"":508},{""stimulus"":""img/3to1/6.png"",""time"":600},{""stimulus"":""img/3to1/7.png"",""time"":696},{""stimulus"":""img/3to1/8.png"",""time"":804},{""stimulus"":""img/3to1/9.png"",""time"":900},{""stimulus"":""img/3to1/10.png"",""time"":996},{""stimulus"":""img/3to1/11.png"",""time"":1100},{""stimulus"":""img/3to1/12.png"",""time"":1191}]","[]"
"image-keyboard-response","180","201060","0.0-5.0-1.88","6105338a15c74e8435e95c71","bdp_cybrbll","Tue Mar 28 2023 15:02:52 GMT-0400 (Eastern Daylight Time)","435873","1","3","","null","","","","observe","","img/1to3/1.png","null","137","682","0.5","0.1","1","2","",""
"animation","181","202352","0.0-5.0-2.88","6105338a15c74e8435e95c71","bdp_cybrbll","Tue Mar 28 2023 15:02:52 GMT-0400 (Eastern Daylight Time)","435873","1","3","","","","","","","","","","137","","","","1","2","[{""stimulus"":""img/1to2/1.png"",""time"":112},{""stimulus"":""img/1to2/2.png"",""time"":204},{""stimulus"":""img/1to2/3.png"",""time"":304},{""stimulus"":""img/1to2/4.png"",""time"":407},{""stimulus"":""img/1to2/5.png"",""time"":504},{""stimulus"":""img/1to2/6.png"",""time"":596},{""stimulus"":""img/1to2/7.png"",""time"":700},{""stimulus"":""img/1to2/8.png"",""time"":800},{""stimulus"":""img/1to2/9.png"",""time"":900},{""stimulus"":""img/1to2/10.png"",""time"":999},{""stimulus"":""img/1to2/11.png"",""time"":1091},{""stimulus"":""img/1to2/12.png"",""time"":1199}]","[]"
"image-keyboard-response","182","202575","0.0-5.0-1.89","6105338a15c74e8435e95c71","bdp_cybrbll","Tue Mar 28 2023 15:02:52 GMT-0400 (Eastern Daylight Time)","435873","1","3","","221","","","","choice","","img/2to1/1.png","2","136","747","0.5","0.1","2","3","",""
"animation","183","203868","0.0-5.0-2.89","6105338a15c74e8435e95c71","bdp_cybrbll","Tue Mar 28 2023 15:02:52 GMT-0400 (Eastern Daylight Time)","435873","1","3","","","","","","","","","","136","","","","2","3","[{""stimulus"":""img/2to3/1.png"",""time"":110},{""stimulus"":""img/2to3/2.png"",""time"":202},{""stimulus"":""img/2to3/3.png"",""time"":310},{""stimulus"":""img/2to3/4.png"",""time"":406},{""stimulus"":""img/2to3/5.png"",""time"":502},{""stimulus"":""img/2to3/6.png"",""time"":606},{""stimulus"":""img/2to3/7.png"",""time"":699},{""stimulus"":""img/2to3/8.png"",""time"":806},{""stimulus"":""img/2to3/9.png"",""time"":902},{""stimulus"":""img/2to3/10.png"",""time"":998},{""stimulus"":""img/2to3/11.png"",""time"":1090},{""stimulus"":""img/2to3/12.png"",""time"":1196}]","[]"
"image-keyboard-response","184","204380","0.0-5.0-1.90","6105338a15c74e8435e95c71","bdp_cybrbll","Tue Mar 28 2023 15:02:52 GMT-0400 (Eastern Daylight Time)","435873","1","3","","null","","","","observe","","img/3to2/1.png","null","135","502","0.5","0.1","3","1","",""
"animation","185","205676","0.0-5.0-2.90","6105338a15c74e8435e95c71","bdp_cybrbll","Tue Mar 28 2023 15:02:52 GMT-0400 (Eastern Daylight Time)","435873","1","3","","","","","","","","","","135","","","","3","1","[{""stimulus"":""img/3to1/1.png"",""time"":112},{""stimulus"":""img/3to1/2.png"",""time"":204},{""stimulus"":""img/3to1/3.png"",""time"":304},{""stimulus"":""img/3to1/4.png"",""time"":408},{""stimulus"":""img/3to1/5.png"",""time"":499},{""stimulus"":""img/3to1/6.png"",""time"":600},{""stimulus"":""img/3to1/7.png"",""time"":699},{""stimulus"":""img/3to1/8.png"",""time"":797},{""stimulus"":""img/3to1/9.png"",""time"":904},{""stimulus"":""img/3to1/10.png"",""time"":1000},{""stimulus"":""img/3to1/11.png"",""time"":1091},{""stimulus"":""img/3to1/12.png"",""time"":1200}]","[]"
"image-keyboard-response","186","207508","0.0-5.0-1.91","6105338a15c74e8435e95c71","bdp_cybrbll","Tue Mar 28 2023 15:02:52 GMT-0400 (Eastern Daylight Time)","435873","1","3","","null","","","","observe","","img/1to3/1.png","null","134","1818","0.5","0.1","1","2","",""
"animation","187","208800","0.0-5.0-2.91","6105338a15c74e8435e95c71","bdp_cybrbll","Tue Mar 28 2023 15:02:52 GMT-0400 (Eastern Daylight Time)","435873","1","3","","","","","","","","","","134","","","","1","2","[{""stimulus"":""img/1to2/1.png"",""time"":112},{""stimulus"":""img/1to2/2.png"",""time"":208},{""stimulus"":""img/1to2/3.png"",""time"":301},{""stimulus"":""img/1to2/4.png"",""time"":406},{""stimulus"":""img/1to2/5.png"",""time"":504},{""stimulus"":""img/1to2/6.png"",""time"":595},{""stimulus"":""img/1to2/7.png"",""time"":699},{""stimulus"":""img/1to2/8.png"",""time"":797},{""stimulus"":""img/1to2/9.png"",""time"":904},{""stimulus"":""img/1to2/10.png"",""time"":999},{""stimulus"":""img/1to2/11.png"",""time"":1095},{""stimulus"":""img/1to2/12.png"",""time"":1200}]","[]"
"image-keyboard-response","188","208998","0.0-5.0-1.92","6105338a15c74e8435e95c71","bdp_cybrbll","Tue Mar 28 2023 15:02:52 GMT-0400 (Eastern Daylight Time)","435873","1","3","","197","","","","choice","","img/2to1/1.png","2","133","902","0.5","0.1","2","3","",""
"animation","189","210288","0.0-5.0-2.92","6105338a15c74e8435e95c71","bdp_cybrbll","Tue Mar 28 2023 15:02:52 GMT-0400 (Eastern Daylight Time)","435873","1","3","","","","","","","","","","133","","","","2","3","[{""stimulus"":""img/2to3/1.png"",""time"":101},{""stimulus"":""img/2to3/2.png"",""time"":206},{""stimulus"":""img/2to3/3.png"",""time"":311},{""stimulus"":""img/2to3/4.png"",""time"":403},{""stimulus"":""img/2to3/5.png"",""time"":502},{""stimulus"":""img/2to3/6.png"",""time"":607},{""stimulus"":""img/2to3/7.png"",""time"":695},{""stimulus"":""img/2to3/8.png"",""time"":799},{""stimulus"":""img/2to3/9.png"",""time"":903},{""stimulus"":""img/2to3/10.png"",""time"":998},{""stimulus"":""img/2to3/11.png"",""time"":1099},{""stimulus"":""img/2to3/12.png"",""time"":1199}]","[]"
"image-keyboard-response","190","211092","0.0-5.0-1.93","6105338a15c74e8435e95c71","bdp_cybrbll","Tue Mar 28 2023 15:02:52 GMT-0400 (Eastern Daylight Time)","435873","1","3","","null","","","","observe","","img/3to2/1.png","null","132","795","0.5","0.1","3","1","",""
