"trial_type","trial_index","time_elapsed","internal_node_id","subject_id","task","startTime","totalTime","fairPartner","unfairPartner","view_history","rt","event","trial","time","trialtype","success","stimulus","key_press","throwsLeft","rtDur","pFair","pUnfair","holder","receiver","animation_sequence","responses"
"pavlovia","0","4","0.0-0.0","5d42abf3c9acd700010c41df","bdp_cybrbll","Tue Mar 28 2023 14:56:18 GMT-0500 (Central Daylight Time)","416297","1","3","","","","","","","","","","","","","","","","",""
"instructions","1","2127","0.0-1.0","5d42abf3c9acd700010c41df","bdp_cybrbll","Tue Mar 28 2023 14:56:18 GMT-0500 (Central Daylight Time)","416297","1","3","[{""page_index"":0,""viewing_time"":2123}]","2123","","","","","","","","","","","","","","",""
"","","","","5d42abf3c9acd700010c41df","bdp_cybrbll","Tue Mar 28 2023 14:56:18 GMT-0500 (Central Daylight Time)","416297","1","3","","","fullscreenenter","2","5181","fullscreenenter","","","","","","","","","","",""
"fullscreen","2","6165","0.0-2.0","5d42abf3c9acd700010c41df","bdp_cybrbll","Tue Mar 28 2023 14:56:18 GMT-0500 (Central Daylight Time)","416297","1","3","","","","","","","true","","","","","","","","","",""
"instructions","3","28304","0.0-4.0","5d42abf3c9acd700010c41df","bdp_cybrbll","Tue Mar 28 2023 14:56:18 GMT-0500 (Central Daylight Time)","416297","1","3","[{""page_index"":0,""viewing_time"":22138}]","22138","","","","","","","","","","","","","","",""
"image-keyboard-response","4","29383","0.0-5.0-1.0","5d42abf3c9acd700010c41df","bdp_cybrbll","Tue Mar 28 2023 14:56:18 GMT-0500 (Central Daylight Time)","416297","1","3","","1077","","","","choice","","img/2to1/1.png","2","225","1094","0.5","0.5","2","3","",""
"animation","5","30672","0.0-5.0-2.0","5d42abf3c9acd700010c41df","bdp_cybrbll","Tue Mar 28 2023 14:56:18 GMT-0500 (Central Daylight Time)","416297","1","3","","","","","","","","","","225","","","","2","3","[{""stimulus"":""img/2to3/1.png"",""time"":101},{""stimulus"":""img/2to3/2.png"",""time"":200},{""stimulus"":""img/2to3/3.png"",""time"":298},{""stimulus"":""img/2to3/4.png"",""time"":397},{""stimulus"":""img/2to3/5.png"",""time"":497},{""stimulus"":""img/2to3/6.png"",""time"":596},{""stimulus"":""img/2to3/7.png"",""time"":694},{""stimulus"":""img/2to3/8.png"",""time"":794},{""stimulus"":""img/2to3/9.png"",""time"":894},{""stimulus"":""img/2to3/10.png"",""time"":991},{""stimulus"":""img/2to3/11.png"",""time"":1091},{""stimulus"":""img/2to3/12.png"",""time"":1189}]","[]"
"image-keyboard-response","6","31771","0.0-5.0-1.1","5d42abf3c9acd700010c41df","bdp_cybrbll","Tue Mar 28 2023 14:56:18 GMT-0500 (Central Daylight Time)","416297","1","3","","null","","","","observe","","img/3to2/1.png","null","224","1097","0.5","0.5","3","1","",""
"animation","7","33059","0.0-5.0-2.1","5d42abf3c9acd700010c41df","bdp_cybrbll","Tue Mar 28 2023 14:56:18 GMT-0500 (Central Daylight Time)","416297","1","3","","","","","","","","","","224","","","","3","1","[{""stimulus"":""img/3to1/1.png"",""time"":99},{""stimulus"":""img/3to1/2.png"",""time"":199},{""stimulus"":""img/3to1/3.png"",""time"":298},{""stimulus"":""img/3to1/4.png"",""time"":397},{""stimulus"":""img/3to1/5.png"",""time"":495},{""stimulus"":""img/3to1/6.png"",""time"":594},{""stimulus"":""img/3to1/7.png"",""time"":694},{""stimulus"":""img/3to1/8.png"",""time"":792},{""stimulus"":""img/3to1/9.png"",""time"":892},{""stimulus"":""img/3to1/10.png"",""time"":991},{""stimulus"":""img/3to1/11.png"",""time"":1089},{""stimulus"":""img/3to1/12.png"",""time"":1188}]","[]"
"image-keyboard-response","8","33380","0.0-5.0-1.2","5d42abf3c9acd700010c41df","bdp_cybrbll","Tue Mar 28 2023 14:56:18 GMT-0500 (Central Daylight Time)","416297","1","3","","null","","","","observe","","img/1to3/1.png","null","223","319","0.5","0.5","1","2","",""
"animation","9","34669","0.0-5.0-2.2","5d42abf3c9acd700010c41df","bdp_cybrbll","Tue Mar 28 2023 14:56:18 GMT-0500 (Central Daylight Time)","416297","1","3","","","","","","","","","","223","","","","1","2","[{""stimulus"":""img/1to2/1.png"",""time"":100},{""stimulus"":""img/1to2/2.png"",""time"":199},{""stimulus"":""img/1to2/3.png"",""time"":298},{""stimulus"":""img/1to2/4.png"",""time"":397},{""stimulus"":""img/1to2/5.png"",""time"":496},{""stimulus"":""img/1to2/6.png"",""time"":595},{""stimulus"":""img/1to2/7.png"",""time"":694},{""stimulus"":""img/1to2/8.png"",""time"":793},{""stimulus"":""img/1to2/9.png"",""time"":892},{""stimulus"":""img/1to2/10.png"",""time"":991},{""stimulus"":""img/1to2/11.png"",""time"":1090},{""stimulus"":""img/1to2/12.png"",""time"":1189}]","[]"
"image-keyboard-response","10","34739","0.0-5.0-1.3","5d42abf3c9acd700010c41df","bdp_cybrbll","Tue Mar 28 2023 14:56:18 GMT-0500 (Central Daylight Time)","416297","1","3","","69","","","","choice","","img/2to1/1.png","2","222","919","0.5","0.5","2","3","",""
"animation","11","36027","0.0-5.0-2.3","5d42abf3c9acd700010c41df","bdp_cybrbll","Tue Mar 28 2023 14:56:18 GMT-0500 (Central Daylight Time)","416297","1","3","","","","","","","","","","222","","","","2","3","[{""stimulus"":""img/2to3/1.png"",""time"":100},{""stimulus"":""img/2to3/2.png"",""time"":199},{""stimulus"":""img/2to3/3.png"",""time"":298},{""stimulus"":""img/2to3/4.png"",""time"":397},{""stimulus"":""img/2to3/5.png"",""time"":496},{""stimulus"":""img/2to3/6.png"",""time"":595},{""stimulus"":""img/2to3/7.png"",""time"":694},{""stimulus"":""img/2to3/8.png"",""time"":793},{""stimulus"":""img/2to3/9.png"",""time"":892},{""stimulus"":""img/2to3/10.png"",""time"":992},{""stimulus"":""img/2to3/11.png"",""time"":1090},{""stimulus"":""img/2to3/12.png"",""time"":1190}]","[]"
"image-keyboard-response","12","36790","0.0-5.0-1.4","5d42abf3c9acd700010c41df","bdp_cybrbll","Tue Mar 28 2023 14:56:18 GMT-0500 (Central Daylight Time)","416297","1","3","","null","","","","observe","","img/3to2/1.png","null","221","761","0.5","0.5","3","1","",""
"animation","13","38079","0.0-5.0-2.4","5d42abf3c9acd700010c41df","bdp_cybrbll","Tue Mar 28 2023 14:56:18 GMT-0500 (Central Daylight Time)","416297","1","3","","","","","","","","","","221","","","","3","1","[{""stimulus"":""img/3to1/1.png"",""time"":100},{""stimulus"":""img/3to1/2.png"",""time"":199},{""stimulus"":""img/3to1/3.png"",""time"":298},{""stimulus"":""img/3to1/4.png"",""time"":397},{""stimulus"":""img/3to1/5.png"",""time"":496},{""stimulus"":""img/3to1/6.png"",""time"":595},{""stimulus"":""img/3to1/7.png"",""time"":694},{""stimulus"":""img/3to1/8.png"",""time"":793},{""stimulus"":""img/3to1/9.png"",""time"":891},{""stimulus"":""img/3to1/10.png"",""time"":992},{""stimulus"":""img/3to1/11.png"",""time"":1090},{""stimulus"":""img/3to1/12.png"",""time"":1189}]","[]"
"image-keyboard-response","14","39082","0.0-5.0-1.5","5d42abf3c9acd700010c41df","bdp_cybrbll","Tue Mar 28 2023 14:56:18 GMT-0500 (Central Daylight Time)","416297","1","3","","null","","","","observe","","img/1to3/1.png","null","220","1001","0.5","0.5","1","3","",""
"animation","15","40370","0.0-5.0-2.5","5d42abf3c9acd700010c41df","bdp_cybrbll","Tue Mar 28 2023 14:56:18 GMT-0500 (Central Daylight Time)","416297","1","3","","","","","","","","","","220","","","","1","3","[{""stimulus"":""img/1to3/1.png"",""time"":100},{""stimulus"":""img/1to3/2.png"",""time"":198},{""stimulus"":""img/1to3/3.png"",""time"":298},{""stimulus"":""img/1to3/4.png"",""time"":397},{""stimulus"":""img/1to3/5.png"",""time"":497},{""stimulus"":""img/1to3/6.png"",""time"":594},{""stimulus"":""img/1to3/7.png"",""time"":694},{""stimulus"":""img/1to3/8.png"",""time"":793},{""stimulus"":""img/1to3/9.png"",""time"":892},{""stimulus"":""img/1to3/10.png"",""time"":991},{""stimulus"":""img/1to3/11.png"",""time"":1090},{""stimulus"":""img/1to3/12.png"",""time"":1190}]","[]"
"image-keyboard-response","16","40750","0.0-5.0-1.6","5d42abf3c9acd700010c41df","bdp_cybrbll","Tue Mar 28 2023 14:56:18 GMT-0500 (Central Daylight Time)","416297","1","3","","null","","","","observe","","img/3to2/1.png","null","219","379","0.5","0.5","3","1","",""
"animation","17","42038","0.0-5.0-2.6","5d42abf3c9acd700010c41df","bdp_cybrbll","Tue Mar 28 2023 14:56:18 GMT-0500 (Central Daylight Time)","416297","1","3","","","","","","","","","","219","","","","3","1","[{""stimulus"":""img/3to1/1.png"",""time"":101},{""stimulus"":""img/3to1/2.png"",""time"":199},{""stimulus"":""img/3to1/3.png"",""time"":299},{""stimulus"":""img/3to1/4.png"",""time"":397},{""stimulus"":""img/3to1/5.png"",""time"":496},{""stimulus"":""img/3to1/6.png"",""time"":596},{""stimulus"":""img/3to1/7.png"",""time"":694},{""stimulus"":""img/3to1/8.png"",""time"":793},{""stimulus"":""img/3to1/9.png"",""time"":893},{""stimulus"":""img/3to1/10.png"",""time"":992},{""stimulus"":""img/3to1/11.png"",""time"":1091},{""stimulus"":""img/3to1/12.png"",""time"":1189}]","[]"
"image-keyboard-response","18","42303","0.0-5.0-1.7","5d42abf3c9acd700010c41df","bdp_cybrbll","Tue Mar 28 2023 14:56:18 GMT-0500 (Central Daylight Time)","416297","1","3","","null","","","","observe","","img/1to3/1.png","null","218","263","0.5","0.5","1","2","",""
"animation","19","43591","0.0-5.0-2.7","5d42abf3c9acd700010c41df","bdp_cybrbll","Tue Mar 28 2023 14:56:18 GMT-0500 (Central Daylight Time)","416297","1","3","","","","","","","","","","218","","","","1","2","[{""stimulus"":""img/1to2/1.png"",""time"":100},{""stimulus"":""img/1to2/2.png"",""time"":200},{""stimulus"":""img/1to2/3.png"",""time"":298},{""stimulus"":""img/1to2/4.png"",""time"":397},{""stimulus"":""img/1to2/5.png"",""time"":497},{""stimulus"":""img/1to2/6.png"",""time"":596},{""stimulus"":""img/1to2/7.png"",""time"":695},{""stimulus"":""img/1to2/8.png"",""time"":793},{""stimulus"":""img/1to2/9.png"",""time"":892},{""stimulus"":""img/1to2/10.png"",""time"":992},{""stimulus"":""img/1to2/11.png"",""time"":1090},{""stimulus"":""img/1to2/12.png"",""time"":1204}]","[]"
"image-keyboard-response","20","43685","0.0-5.0-1.8","5d42abf3c9acd700010c41df","bdp_cybrbll","Tue Mar 28 2023 14:56:18 GMT-0500 (Central Daylight Time)","416297","1","3","","93","","","","choice","","img/2to1/1.png","2","217","234","0.5","0.5","2","3","",""
"animation","21","44973","0.0-5.0-2.8","5d42abf3c9acd700010c41df","bdp_cybrbll","Tue Mar 28 2023 14:56:18 GMT-0500 (Central Daylight Time)","416297","1","3","","","","","","","","","","217","","","","2","3","[{""stimulus"":""img/2to3/1.png"",""time"":101},{""stimulus"":""img/2to3/2.png"",""time"":199},{""stimulus"":""img/2to3/3.png"",""time"":299},{""stimulus"":""img/2to3/4.png"",""time"":397},{""stimulus"":""img/2to3/5.png"",""time"":496},{""stimulus"":""img/2to3/6.png"",""time"":596},{""stimulus"":""img/2to3/7.png"",""time"":695},{""stimulus"":""img/2to3/8.png"",""time"":794},{""stimulus"":""img/2to3/9.png"",""time"":893},{""stimulus"":""img/2to3/10.png"",""time"":991},{""stimulus"":""img/2to3/11.png"",""time"":1091},{""stimulus"":""img/2to3/12.png"",""time"":1190}]","[]"
"image-keyboard-response","22","45310","0.0-5.0-1.9","5d42abf3c9acd700010c41df","bdp_cybrbll","Tue Mar 28 2023 14:56:18 GMT-0500 (Central Daylight Time)","416297","1","3","","null","","","","observe","","img/3to2/1.png","null","216","335","0.5","0.5","3","2","",""
"animation","23","46598","0.0-5.0-2.9","5d42abf3c9acd700010c41df","bdp_cybrbll","Tue Mar 28 2023 14:56:18 GMT-0500 (Central Daylight Time)","416297","1","3","","","","","","","","","","216","","","","3","2","[{""stimulus"":""img/3to2/1.png"",""time"":100},{""stimulus"":""img/3to2/2.png"",""time"":200},{""stimulus"":""img/3to2/3.png"",""time"":298},{""stimulus"":""img/3to2/4.png"",""time"":397},{""stimulus"":""img/3to2/5.png"",""time"":497},{""stimulus"":""img/3to2/6.png"",""time"":595},{""stimulus"":""img/3to2/7.png"",""time"":694},{""stimulus"":""img/3to2/8.png"",""time"":793},{""stimulus"":""img/3to2/9.png"",""time"":892},{""stimulus"":""img/3to2/10.png"",""time"":991},{""stimulus"":""img/3to2/11.png"",""time"":1090},{""stimulus"":""img/3to2/12.png"",""time"":1189}]","[]"
"image-keyboard-response","24","46815","0.0-5.0-1.10","5d42abf3c9acd700010c41df","bdp_cybrbll","Tue Mar 28 2023 14:56:18 GMT-0500 (Central Daylight Time)","416297","1","3","","216","","","","choice","","img/2to1/1.png","1","215","502","0.5","0.5","2","1","",""
"animation","25","48103","0.0-5.0-2.10","5d42abf3c9acd700010c41df","bdp_cybrbll","Tue Mar 28 2023 14:56:18 GMT-0500 (Central Daylight Time)","416297","1","3","","","","","","","","","","215","","","","2","1","[{""stimulus"":""img/2to1/1.png"",""time"":100},{""stimulus"":""img/2to1/2.png"",""time"":200},{""stimulus"":""img/2to1/3.png"",""time"":298},{""stimulus"":""img/2to1/4.png"",""time"":398},{""stimulus"":""img/2to1/5.png"",""time"":497},{""stimulus"":""img/2to1/6.png"",""time"":596},{""stimulus"":""img/2to1/7.png"",""time"":694},{""stimulus"":""img/2to1/8.png"",""time"":793},{""stimulus"":""img/2to1/9.png"",""time"":893},{""stimulus"":""img/2to1/10.png"",""time"":992},{""stimulus"":""img/2to1/11.png"",""time"":1091},{""stimulus"":""img/2to1/12.png"",""time"":1190}]","[]"
"image-keyboard-response","26","48454","0.0-5.0-1.11","5d42abf3c9acd700010c41df","bdp_cybrbll","Tue Mar 28 2023 14:56:18 GMT-0500 (Central Daylight Time)","416297","1","3","","null","","","","observe","","img/1to3/1.png","null","214","349","0.5","0.5","1","2","",""
"animation","27","49742","0.0-5.0-2.11","5d42abf3c9acd700010c41df","bdp_cybrbll","Tue Mar 28 2023 14:56:18 GMT-0500 (Central Daylight Time)","416297","1","3","","","","","","","","","","214","","","","1","2","[{""stimulus"":""img/1to2/1.png"",""time"":100},{""stimulus"":""img/1to2/2.png"",""time"":199},{""stimulus"":""img/1to2/3.png"",""time"":297},{""stimulus"":""img/1to2/4.png"",""time"":397},{""stimulus"":""img/1to2/5.png"",""time"":495},{""stimulus"":""img/1to2/6.png"",""time"":594},{""stimulus"":""img/1to2/7.png"",""time"":693},{""stimulus"":""img/1to2/8.png"",""time"":793},{""stimulus"":""img/1to2/9.png"",""time"":892},{""stimulus"":""img/1to2/10.png"",""time"":991},{""stimulus"":""img/1to2/11.png"",""time"":1090},{""stimulus"":""img/1to2/12.png"",""time"":1189}]","[]"
"image-keyboard-response","28","49820","0.0-5.0-1.12","5d42abf3c9acd700010c41df","bdp_cybrbll","Tue Mar 28 2023 14:56:18 GMT-0500 (Central Daylight Time)","416297","1","3","","76","","","","choice","","img/2to1/1.png","2","213","197","0.5","0.5","2","3","",""
"animation","29","51109","0.0-5.0-2.12","5d42abf3c9acd700010c41df","bdp_cybrbll","Tue Mar 28 2023 14:56:18 GMT-0500 (Central Daylight Time)","416297","1","3","","","","","","","","","","213","","","","2","3","[{""stimulus"":""img/2to3/1.png"",""time"":111},{""stimulus"":""img/2to3/2.png"",""time"":200},{""stimulus"":""img/2to3/3.png"",""time"":299},{""stimulus"":""img/2to3/4.png"",""time"":397},{""stimulus"":""img/2to3/5.png"",""time"":496},{""stimulus"":""img/2to3/6.png"",""time"":596},{""stimulus"":""img/2to3/7.png"",""time"":694},{""stimulus"":""img/2to3/8.png"",""time"":793},{""stimulus"":""img/2to3/9.png"",""time"":892},{""stimulus"":""img/2to3/10.png"",""time"":991},{""stimulus"":""img/2to3/11.png"",""time"":1090},{""stimulus"":""img/2to3/12.png"",""time"":1189}]","[]"
"image-keyboard-response","30","51414","0.0-5.0-1.13","5d42abf3c9acd700010c41df","bdp_cybrbll","Tue Mar 28 2023 14:56:18 GMT-0500 (Central Daylight Time)","416297","1","3","","null","","","","observe","","img/3to2/1.png","null","212","303","0.5","0.5","3","2","",""
"animation","31","52702","0.0-5.0-2.13","5d42abf3c9acd700010c41df","bdp_cybrbll","Tue Mar 28 2023 14:56:18 GMT-0500 (Central Daylight Time)","416297","1","3","","","","","","","","","","212","","","","3","2","[{""stimulus"":""img/3to2/1.png"",""time"":101},{""stimulus"":""img/3to2/2.png"",""time"":199},{""stimulus"":""img/3to2/3.png"",""time"":298},{""stimulus"":""img/3to2/4.png"",""time"":398},{""stimulus"":""img/3to2/5.png"",""time"":496},{""stimulus"":""img/3to2/6.png"",""time"":595},{""stimulus"":""img/3to2/7.png"",""time"":695},{""stimulus"":""img/3to2/8.png"",""time"":794},{""stimulus"":""img/3to2/9.png"",""time"":892},{""stimulus"":""img/3to2/10.png"",""time"":991},{""stimulus"":""img/3to2/11.png"",""time"":1091},{""stimulus"":""img/3to2/12.png"",""time"":1190}]","[]"
"image-keyboard-response","32","52765","0.0-5.0-1.14","5d42abf3c9acd700010c41df","bdp_cybrbll","Tue Mar 28 2023 14:56:18 GMT-0500 (Central Daylight Time)","416297","1","3","","62","","","","choice","","img/2to1/1.png","2","211","436","0.5","0.5","2","3","",""
"animation","33","54052","0.0-5.0-2.14","5d42abf3c9acd700010c41df","bdp_cybrbll","Tue Mar 28 2023 14:56:18 GMT-0500 (Central Daylight Time)","416297","1","3","","","","","","","","","","211","","","","2","3","[{""stimulus"":""img/2to3/1.png"",""time"":100},{""stimulus"":""img/2to3/2.png"",""time"":199},{""stimulus"":""img/2to3/3.png"",""time"":298},{""stimulus"":""img/2to3/4.png"",""time"":397},{""stimulus"":""img/2to3/5.png"",""time"":496},{""stimulus"":""img/2to3/6.png"",""time"":595},{""stimulus"":""img/2to3/7.png"",""time"":694},{""stimulus"":""img/2to3/8.png"",""time"":793},{""stimulus"":""img/2to3/9.png"",""time"":892},{""stimulus"":""img/2to3/10.png"",""time"":991},{""stimulus"":""img/2to3/11.png"",""time"":1090},{""stimulus"":""img/2to3/12.png"",""time"":1189}]","[]"
"image-keyboard-response","34","54222","0.0-5.0-1.15","5d42abf3c9acd700010c41df","bdp_cybrbll","Tue Mar 28 2023 14:56:18 GMT-0500 (Central Daylight Time)","416297","1","3","","null","","","","observe","","img/3to2/1.png","null","210","167","0.5","0.5","3","2","",""
"animation","35","55509","0.0-5.0-2.15","5d42abf3c9acd700010c41df","bdp_cybrbll","Tue Mar 28 2023 14:56:18 GMT-0500 (Central Daylight Time)","416297","1","3","","","","","","","","","","210","","","","3","2","[{""stimulus"":""img/3to2/1.png"",""time"":100},{""stimulus"":""img/3to2/2.png"",""time"":199},{""stimulus"":""img/3to2/3.png"",""time"":298},{""stimulus"":""img/3to2/4.png"",""time"":397},{""stimulus"":""img/3to2/5.png"",""time"":497},{""stimulus"":""img/3to2/6.png"",""time"":596},{""stimulus"":""img/3to2/7.png"",""time"":694},{""stimulus"":""img/3to2/8.png"",""time"":792},{""stimulus"":""img/3to2/9.png"",""time"":892},{""stimulus"":""img/3to2/10.png"",""time"":992},{""stimulus"":""img/3to2/11.png"",""time"":1089},{""stimulus"":""img/3to2/12.png"",""time"":1189}]","[]"
"image-keyboard-response","36","55686","0.0-5.0-1.16","5d42abf3c9acd700010c41df","bdp_cybrbll","Tue Mar 28 2023 14:56:18 GMT-0500 (Central Daylight Time)","416297","1","3","","176","","","","choice","","img/2to1/1.png","2","209","369","0.5","0.5","2","3","",""
"animation","37","56974","0.0-5.0-2.16","5d42abf3c9acd700010c41df","bdp_cybrbll","Tue Mar 28 2023 14:56:18 GMT-0500 (Central Daylight Time)","416297","1","3","","","","","","","","","","209","","","","2","3","[{""stimulus"":""img/2to3/1.png"",""time"":100},{""stimulus"":""img/2to3/2.png"",""time"":198},{""stimulus"":""img/2to3/3.png"",""time"":298},{""stimulus"":""img/2to3/4.png"",""time"":398},{""stimulus"":""img/2to3/5.png"",""time"":497},{""stimulus"":""img/2to3/6.png"",""time"":596},{""stimulus"":""img/2to3/7.png"",""time"":695},{""stimulus"":""img/2to3/8.png"",""time"":793},{""stimulus"":""img/2to3/9.png"",""time"":893},{""stimulus"":""img/2to3/10.png"",""time"":991},{""stimulus"":""img/2to3/11.png"",""time"":1091},{""stimulus"":""img/2to3/12.png"",""time"":1189}]","[]"
"image-keyboard-response","38","57683","0.0-5.0-1.17","5d42abf3c9acd700010c41df","bdp_cybrbll","Tue Mar 28 2023 14:56:18 GMT-0500 (Central Daylight Time)","416297","1","3","","null","","","","observe","","img/3to2/1.png","null","208","708","0.5","0.5","3","1","",""
"animation","39","58972","0.0-5.0-2.17","5d42abf3c9acd700010c41df","bdp_cybrbll","Tue Mar 28 2023 14:56:18 GMT-0500 (Central Daylight Time)","416297","1","3","","","","","","","","","","208","","","","3","1","[{""stimulus"":""img/3to1/1.png"",""time"":99},{""stimulus"":""img/3to1/2.png"",""time"":198},{""stimulus"":""img/3to1/3.png"",""time"":298},{""stimulus"":""img/3to1/4.png"",""time"":397},{""stimulus"":""img/3to1/5.png"",""time"":496},{""stimulus"":""img/3to1/6.png"",""time"":595},{""stimulus"":""img/3to1/7.png"",""time"":693},{""stimulus"":""img/3to1/8.png"",""time"":793},{""stimulus"":""img/3to1/9.png"",""time"":892},{""stimulus"":""img/3to1/10.png"",""time"":990},{""stimulus"":""img/3to1/11.png"",""time"":1089},{""stimulus"":""img/3to1/12.png"",""time"":1188}]","[]"
"image-keyboard-response","40","59308","0.0-5.0-1.18","5d42abf3c9acd700010c41df","bdp_cybrbll","Tue Mar 28 2023 14:56:18 GMT-0500 (Central Daylight Time)","416297","1","3","","null","","","","observe","","img/1to3/1.png","null","207","335","0.5","0.5","1","2","",""
"animation","41","60596","0.0-5.0-2.18","5d42abf3c9acd700010c41df","bdp_cybrbll","Tue Mar 28 2023 14:56:18 GMT-0500 (Central Daylight Time)","416297","1","3","","","","","","","","","","207","","","","1","2","[{""stimulus"":""img/1to2/1.png"",""time"":100},{""stimulus"":""img/1to2/2.png"",""time"":200},{""stimulus"":""img/1to2/3.png"",""time"":298},{""stimulus"":""img/1to2/4.png"",""time"":396},{""stimulus"":""img/1to2/5.png"",""time"":496},{""stimulus"":""img/1to2/6.png"",""time"":594},{""stimulus"":""img/1to2/7.png"",""time"":695},{""stimulus"":""img/1to2/8.png"",""time"":792},{""stimulus"":""img/1to2/9.png"",""time"":892},{""stimulus"":""img/1to2/10.png"",""time"":992},{""stimulus"":""img/1to2/11.png"",""time"":1090},{""stimulus"":""img/1to2/12.png"",""time"":1190}]","[]"
"image-keyboard-response","42","60724","0.0-5.0-1.19","5d42abf3c9acd700010c41df","bdp_cybrbll","Tue Mar 28 2023 14:56:18 GMT-0500 (Central Daylight Time)","416297","1","3","","128","","","","choice","","img/2to1/1.png","2","206","270","0.5","0.5","2","3","",""
"animation","43","62013","0.0-5.0-2.19","5d42abf3c9acd700010c41df","bdp_cybrbll","Tue Mar 28 2023 14:56:18 GMT-0500 (Central Daylight Time)","416297","1","3","","","","","","","","","","206","","","","2","3","[{""stimulus"":""img/2to3/1.png"",""time"":100},{""stimulus"":""img/2to3/2.png"",""time"":199},{""stimulus"":""img/2to3/3.png"",""time"":303},{""stimulus"":""img/2to3/4.png"",""time"":396},{""stimulus"":""img/2to3/5.png"",""time"":495},{""stimulus"":""img/2to3/6.png"",""time"":595},{""stimulus"":""img/2to3/7.png"",""time"":694},{""stimulus"":""img/2to3/8.png"",""time"":792},{""stimulus"":""img/2to3/9.png"",""time"":891},{""stimulus"":""img/2to3/10.png"",""time"":991},{""stimulus"":""img/2to3/11.png"",""time"":1103},{""stimulus"":""img/2to3/12.png"",""time"":1188}]","[]"
"image-keyboard-response","44","62634","0.0-5.0-1.20","5d42abf3c9acd700010c41df","bdp_cybrbll","Tue Mar 28 2023 14:56:18 GMT-0500 (Central Daylight Time)","416297","1","3","","null","","","","observe","","img/3to2/1.png","null","205","620","0.5","0.5","3","1","",""
"animation","45","63922","0.0-5.0-2.20","5d42abf3c9acd700010c41df","bdp_cybrbll","Tue Mar 28 2023 14:56:18 GMT-0500 (Central Daylight Time)","416297","1","3","","","","","","","","","","205","","","","3","1","[{""stimulus"":""img/3to1/1.png"",""time"":103},{""stimulus"":""img/3to1/2.png"",""time"":198},{""stimulus"":""img/3to1/3.png"",""time"":297},{""stimulus"":""img/3to1/4.png"",""time"":397},{""stimulus"":""img/3to1/5.png"",""time"":496},{""stimulus"":""img/3to1/6.png"",""time"":596},{""stimulus"":""img/3to1/7.png"",""time"":694},{""stimulus"":""img/3to1/8.png"",""time"":792},{""stimulus"":""img/3to1/9.png"",""time"":893},{""stimulus"":""img/3to1/10.png"",""time"":991},{""stimulus"":""img/3to1/11.png"",""time"":1092},{""stimulus"":""img/3to1/12.png"",""time"":1189}]","[]"
"image-keyboard-response","46","64327","0.0-5.0-1.21","5d42abf3c9acd700010c41df","bdp_cybrbll","Tue Mar 28 2023 14:56:18 GMT-0500 (Central Daylight Time)","416297","1","3","","null","","","","observe","","img/1to3/1.png","null","204","402","0.5","0.5","1","2","",""
"animation","47","65615","0.0-5.0-2.21","5d42abf3c9acd700010c41df","bdp_cybrbll","Tue Mar 28 2023 14:56:18 GMT-0500 (Central Daylight Time)","416297","1","3","","","","","","","","","","204","","","","1","2","[{""stimulus"":""img/1to2/1.png"",""time"":100},{""stimulus"":""img/1to2/2.png"",""time"":199},{""stimulus"":""img/1to2/3.png"",""time"":299},{""stimulus"":""img/1to2/4.png"",""time"":397},{""stimulus"":""img/1to2/5.png"",""time"":496},{""stimulus"":""img/1to2/6.png"",""time"":595},{""stimulus"":""img/1to2/7.png"",""time"":694},{""stimulus"":""img/1to2/8.png"",""time"":793},{""stimulus"":""img/1to2/9.png"",""time"":892},{""stimulus"":""img/1to2/10.png"",""time"":992},{""stimulus"":""img/1to2/11.png"",""time"":1090},{""stimulus"":""img/1to2/12.png"",""time"":1189}]","[]"
"image-keyboard-response","48","65840","0.0-5.0-1.22","5d42abf3c9acd700010c41df","bdp_cybrbll","Tue Mar 28 2023 14:56:18 GMT-0500 (Central Daylight Time)","416297","1","3","","225","","","","choice","","img/2to1/1.png","2","203","529","0.5","0.5","2","3","",""
"animation","49","67128","0.0-5.0-2.22","5d42abf3c9acd700010c41df","bdp_cybrbll","Tue Mar 28 2023 14:56:18 GMT-0500 (Central Daylight Time)","416297","1","3","","","","","","","","","","203","","","","2","3","[{""stimulus"":""img/2to3/1.png"",""time"":100},{""stimulus"":""img/2to3/2.png"",""time"":200},{""stimulus"":""img/2to3/3.png"",""time"":298},{""stimulus"":""img/2to3/4.png"",""time"":397},{""stimulus"":""img/2to3/5.png"",""time"":497},{""stimulus"":""img/2to3/6.png"",""time"":595},{""stimulus"":""img/2to3/7.png"",""time"":694},{""stimulus"":""img/2to3/8.png"",""time"":793},{""stimulus"":""img/2to3/9.png"",""time"":892},{""stimulus"":""img/2to3/10.png"",""time"":991},{""stimulus"":""img/2to3/11.png"",""time"":1090},{""stimulus"":""img/2to3/12.png"",""time"":1190}]","[]"
"image-keyboard-response","50","67545","0.0-5.0-1.23","5d42abf3c9acd700010c41df","bdp_cybrbll","Tue Mar 28 2023 14:56:18 GMT-0500 (Central Daylight Time)","416297","1","3","","null","","","","observe","","img/3to2/1.png","null","202","416","0.5","0.5","3","2","",""
"animation","51","68833","0.0-5.0-2.23","5d42abf3c9acd700010c41df","bdp_cybrbll","Tue Mar 28 2023 14:56:18 GMT-0500 (Central Daylight Time)","416297","1","3","","","","","","","","","","202","","","","3","2","[{""stimulus"":""img/3to2/1.png"",""time"":100},{""stimulus"":""img/3to2/2.png"",""time"":199},{""stimulus"":""img/3to2/3.png"",""time"":298},{""stimulus"":""img/3to2/4.png"",""time"":397},{""stimulus"":""img/3to2/5.png"",""time"":496},{""stimulus"":""img/3to2/6.png"",""time"":595},{""stimulus"":""img/3to2/7.png"",""time"":697},{""stimulus"":""img/3to2/8.png"",""time"":805},{""stimulus"":""img/3to2/9.png"",""time"":892},{""stimulus"":""img/3to2/10.png"",""time"":991},{""stimulus"":""img/3to2/11.png"",""time"":1089},{""stimulus"":""img/3to2/12.png"",""time"":1188}]","[]"
"image-keyboard-response","52","68897","0.0-5.0-1.24","5d42abf3c9acd700010c41df","bdp_cybrbll","Tue Mar 28 2023 14:56:18 GMT-0500 (Central Daylight Time)","416297","1","3","","63","","","","choice","","img/2to1/1.png","1","201","472","0.5","0.5","2","1","",""
"animation","53","70186","0.0-5.0-2.24","5d42abf3c9acd700010c41df","bdp_cybrbll","Tue Mar 28 2023 14:56:18 GMT-0500 (Central Daylight Time)","416297","1","3","","","","","","","","","","201","","","","2","1","[{""stimulus"":""img/2to1/1.png"",""time"":100},{""stimulus"":""img/2to1/2.png"",""time"":199},{""stimulus"":""img/2to1/3.png"",""time"":299},{""stimulus"":""img/2to1/4.png"",""time"":397},{""stimulus"":""img/2to1/5.png"",""time"":496},{""stimulus"":""img/2to1/6.png"",""time"":595},{""stimulus"":""img/2to1/7.png"",""time"":693},{""stimulus"":""img/2to1/8.png"",""time"":793},{""stimulus"":""img/2to1/9.png"",""time"":891},{""stimulus"":""img/2to1/10.png"",""time"":990},{""stimulus"":""img/2to1/11.png"",""time"":1090},{""stimulus"":""img/2to1/12.png"",""time"":1190}]","[]"
"image-keyboard-response","54","71162","0.0-5.0-1.25","5d42abf3c9acd700010c41df","bdp_cybrbll","Tue Mar 28 2023 14:56:18 GMT-0500 (Central Daylight Time)","416297","1","3","","null","","","","observe","","img/1to3/1.png","null","200","974","0.5","0.5","1","2","",""
"animation","55","72449","0.0-5.0-2.25","5d42abf3c9acd700010c41df","bdp_cybrbll","Tue Mar 28 2023 14:56:18 GMT-0500 (Central Daylight Time)","416297","1","3","","","","","","","","","","200","","","","1","2","[{""stimulus"":""img/1to2/1.png"",""time"":100},{""stimulus"":""img/1to2/2.png"",""time"":199},{""stimulus"":""img/1to2/3.png"",""time"":298},{""stimulus"":""img/1to2/4.png"",""time"":397},{""stimulus"":""img/1to2/5.png"",""time"":497},{""stimulus"":""img/1to2/6.png"",""time"":595},{""stimulus"":""img/1to2/7.png"",""time"":695},{""stimulus"":""img/1to2/8.png"",""time"":793},{""stimulus"":""img/1to2/9.png"",""time"":892},{""stimulus"":""img/1to2/10.png"",""time"":991},{""stimulus"":""img/1to2/11.png"",""time"":1090},{""stimulus"":""img/1to2/12.png"",""time"":1189}]","[]"
"image-keyboard-response","56","72831","0.0-5.0-1.26","5d42abf3c9acd700010c41df","bdp_cybrbll","Tue Mar 28 2023 14:56:18 GMT-0500 (Central Daylight Time)","416297","1","3","","381","","","","choice","","img/2to1/1.png","2","199","254","0.5","0.5","2","3","",""
"animation","57","74119","0.0-5.0-2.26","5d42abf3c9acd700010c41df","bdp_cybrbll","Tue Mar 28 2023 14:56:18 GMT-0500 (Central Daylight Time)","416297","1","3","","","","","","","","","","199","","","","2","3","[{""stimulus"":""img/2to3/1.png"",""time"":101},{""stimulus"":""img/2to3/2.png"",""time"":200},{""stimulus"":""img/2to3/3.png"",""time"":298},{""stimulus"":""img/2to3/4.png"",""time"":397},{""stimulus"":""img/2to3/5.png"",""time"":497},{""stimulus"":""img/2to3/6.png"",""time"":595},{""stimulus"":""img/2to3/7.png"",""time"":694},{""stimulus"":""img/2to3/8.png"",""time"":793},{""stimulus"":""img/2to3/9.png"",""time"":892},{""stimulus"":""img/2to3/10.png"",""time"":991},{""stimulus"":""img/2to3/11.png"",""time"":1090},{""stimulus"":""img/2to3/12.png"",""time"":1189}]","[]"
"image-keyboard-response","58","74749","0.0-5.0-1.27","5d42abf3c9acd700010c41df","bdp_cybrbll","Tue Mar 28 2023 14:56:18 GMT-0500 (Central Daylight Time)","416297","1","3","","null","","","","observe","","img/3to2/1.png","null","198","628","0.5","0.5","3","2","",""
"animation","59","76036","0.0-5.0-2.27","5d42abf3c9acd700010c41df","bdp_cybrbll","Tue Mar 28 2023 14:56:18 GMT-0500 (Central Daylight Time)","416297","1","3","","","","","","","","","","198","","","","3","2","[{""stimulus"":""img/3to2/1.png"",""time"":101},{""stimulus"":""img/3to2/2.png"",""time"":199},{""stimulus"":""img/3to2/3.png"",""time"":298},{""stimulus"":""img/3to2/4.png"",""time"":397},{""stimulus"":""img/3to2/5.png"",""time"":495},{""stimulus"":""img/3to2/6.png"",""time"":594},{""stimulus"":""img/3to2/7.png"",""time"":694},{""stimulus"":""img/3to2/8.png"",""time"":792},{""stimulus"":""img/3to2/9.png"",""time"":892},{""stimulus"":""img/3to2/10.png"",""time"":991},{""stimulus"":""img/3to2/11.png"",""time"":1101},{""stimulus"":""img/3to2/12.png"",""time"":1188}]","[]"
"image-keyboard-response","60","76279","0.0-5.0-1.28","5d42abf3c9acd700010c41df","bdp_cybrbll","Tue Mar 28 2023 14:56:18 GMT-0500 (Central Daylight Time)","416297","1","3","","242","","","","choice","","img/2to1/1.png","1","197","715","0.5","0.5","2","1","",""
"animation","61","77568","0.0-5.0-2.28","5d42abf3c9acd700010c41df","bdp_cybrbll","Tue Mar 28 2023 14:56:18 GMT-0500 (Central Daylight Time)","416297","1","3","","","","","","","","","","197","","","","2","1","[{""stimulus"":""img/2to1/1.png"",""time"":100},{""stimulus"":""img/2to1/2.png"",""time"":200},{""stimulus"":""img/2to1/3.png"",""time"":299},{""stimulus"":""img/2to1/4.png"",""time"":397},{""stimulus"":""img/2to1/5.png"",""time"":496},{""stimulus"":""img/2to1/6.png"",""time"":596},{""stimulus"":""img/2to1/7.png"",""time"":694},{""stimulus"":""img/2to1/8.png"",""time"":794},{""stimulus"":""img/2to1/9.png"",""time"":892},{""stimulus"":""img/2to1/10.png"",""time"":991},{""stimulus"":""img/2to1/11.png"",""time"":1091},{""stimulus"":""img/2to1/12.png"",""time"":1189}]","[]"
"image-keyboard-response","62","77785","0.0-5.0-1.29","5d42abf3c9acd700010c41df","bdp_cybrbll","Tue Mar 28 2023 14:56:18 GMT-0500 (Central Daylight Time)","416297","1","3","","null","","","","observe","","img/1to3/1.png","null","196","216","0.5","0.5","1","3","",""
"animation","63","79073","0.0-5.0-2.29","5d42abf3c9acd700010c41df","bdp_cybrbll","Tue Mar 28 2023 14:56:18 GMT-0500 (Central Daylight Time)","416297","1","3","","","","","","","","","","196","","","","1","3","[{""stimulus"":""img/1to3/1.png"",""time"":100},{""stimulus"":""img/1to3/2.png"",""time"":200},{""stimulus"":""img/1to3/3.png"",""time"":298},{""stimulus"":""img/1to3/4.png"",""time"":397},{""stimulus"":""img/1to3/5.png"",""time"":497},{""stimulus"":""img/1to3/6.png"",""time"":595},{""stimulus"":""img/1to3/7.png"",""time"":694},{""stimulus"":""img/1to3/8.png"",""time"":793},{""stimulus"":""img/1to3/9.png"",""time"":893},{""stimulus"":""img/1to3/10.png"",""time"":991},{""stimulus"":""img/1to3/11.png"",""time"":1090},{""stimulus"":""img/1to3/12.png"",""time"":1190}]","[]"
"image-keyboard-response","64","79422","0.0-5.0-1.30","5d42abf3c9acd700010c41df","bdp_cybrbll","Tue Mar 28 2023 14:56:18 GMT-0500 (Central Daylight Time)","416297","1","3","","null","","","","observe","","img/3to2/1.png","null","195","346","0.5","0.5","3","1","",""
"animation","65","80710","0.0-5.0-2.30","5d42abf3c9acd700010c41df","bdp_cybrbll","Tue Mar 28 2023 14:56:18 GMT-0500 (Central Daylight Time)","416297","1","3","","","","","","","","","","195","","","","3","1","[{""stimulus"":""img/3to1/1.png"",""time"":100},{""stimulus"":""img/3to1/2.png"",""time"":200},{""stimulus"":""img/3to1/3.png"",""time"":298},{""stimulus"":""img/3to1/4.png"",""time"":396},{""stimulus"":""img/3to1/5.png"",""time"":509},{""stimulus"":""img/3to1/6.png"",""time"":595},{""stimulus"":""img/3to1/7.png"",""time"":694},{""stimulus"":""img/3to1/8.png"",""time"":793},{""stimulus"":""img/3to1/9.png"",""time"":892},{""stimulus"":""img/3to1/10.png"",""time"":991},{""stimulus"":""img/3to1/11.png"",""time"":1091},{""stimulus"":""img/3to1/12.png"",""time"":1189}]","[]"
"image-keyboard-response","66","81699","0.0-5.0-1.31","5d42abf3c9acd700010c41df","bdp_cybrbll","Tue Mar 28 2023 14:56:18 GMT-0500 (Central Daylight Time)","416297","1","3","","null","","","","observe","","img/1to3/1.png","null","194","987","0.5","0.5","1","2","",""
"animation","67","82987","0.0-5.0-2.31","5d42abf3c9acd700010c41df","bdp_cybrbll","Tue Mar 28 2023 14:56:18 GMT-0500 (Central Daylight Time)","416297","1","3","","","","","","","","","","194","","","","1","2","[{""stimulus"":""img/1to2/1.png"",""time"":100},{""stimulus"":""img/1to2/2.png"",""time"":199},{""stimulus"":""img/1to2/3.png"",""time"":297},{""stimulus"":""img/1to2/4.png"",""time"":396},{""stimulus"":""img/1to2/5.png"",""time"":495},{""stimulus"":""img/1to2/6.png"",""time"":594},{""stimulus"":""img/1to2/7.png"",""time"":693},{""stimulus"":""img/1to2/8.png"",""time"":792},{""stimulus"":""img/1to2/9.png"",""time"":891},{""stimulus"":""img/1to2/10.png"",""time"":991},{""stimulus"":""img/1to2/11.png"",""time"":1089},{""stimulus"":""img/1to2/12.png"",""time"":1189}]","[]"
"image-keyboard-response","68","83355","0.0-5.0-1.32","5d42abf3c9acd700010c41df","bdp_cybrbll","Tue Mar 28 2023 14:56:18 GMT-0500 (Central Daylight Time)","416297","1","3","","367","","","","choice","","img/2to1/1.png","1","193","836","0.5","0.5","2","1","",""
"animation","69","84642","0.0-5.0-2.32","5d42abf3c9acd700010c41df","bdp_cybrbll","Tue Mar 28 2023 14:56:18 GMT-0500 (Central Daylight Time)","416297","1","3","","","","","","","","","","193","","","","2","1","[{""stimulus"":""img/2to1/1.png"",""time"":100},{""stimulus"":""img/2to1/2.png"",""time"":199},{""stimulus"":""img/2to1/3.png"",""time"":297},{""stimulus"":""img/2to1/4.png"",""time"":396},{""stimulus"":""img/2to1/5.png"",""time"":496},{""stimulus"":""img/2to1/6.png"",""time"":594},{""stimulus"":""img/2to1/7.png"",""time"":695},{""stimulus"":""img/2to1/8.png"",""time"":795},{""stimulus"":""img/2to1/9.png"",""time"":893},{""stimulus"":""img/2to1/10.png"",""time"":991},{""stimulus"":""img/2to1/11.png"",""time"":1090},{""stimulus"":""img/2to1/12.png"",""time"":1189}]","[]"
"image-keyboard-response","70","85029","0.0-5.0-1.33","5d42abf3c9acd700010c41df","bdp_cybrbll","Tue Mar 28 2023 14:56:18 GMT-0500 (Central Daylight Time)","416297","1","3","","null","","","","observe","","img/1to3/1.png","null","192","385","0.5","0.5","1","2","",""
"animation","71","86317","0.0-5.0-2.33","5d42abf3c9acd700010c41df","bdp_cybrbll","Tue Mar 28 2023 14:56:18 GMT-0500 (Central Daylight Time)","416297","1","3","","","","","","","","","","192","","","","1","2","[{""stimulus"":""img/1to2/1.png"",""time"":100},{""stimulus"":""img/1to2/2.png"",""time"":199},{""stimulus"":""img/1to2/3.png"",""time"":297},{""stimulus"":""img/1to2/4.png"",""time"":398},{""stimulus"":""img/1to2/5.png"",""time"":496},{""stimulus"":""img/1to2/6.png"",""time"":596},{""stimulus"":""img/1to2/7.png"",""time"":695},{""stimulus"":""img/1to2/8.png"",""time"":793},{""stimulus"":""img/1to2/9.png"",""time"":892},{""stimulus"":""img/1to2/10.png"",""time"":991},{""stimulus"":""img/1to2/11.png"",""time"":1090},{""stimulus"":""img/1to2/12.png"",""time"":1189}]","[]"
"image-keyboard-response","72","86381","0.0-5.0-1.34","5d42abf3c9acd700010c41df","bdp_cybrbll","Tue Mar 28 2023 14:56:18 GMT-0500 (Central Daylight Time)","416297","1","3","","64","","","","choice","","img/2to1/1.png","1","191","256","0.5","0.5","2","1","",""
"animation","73","87669","0.0-5.0-2.34","5d42abf3c9acd700010c41df","bdp_cybrbll","Tue Mar 28 2023 14:56:18 GMT-0500 (Central Daylight Time)","416297","1","3","","","","","","","","","","191","","","","2","1","[{""stimulus"":""img/2to1/1.png"",""time"":100},{""stimulus"":""img/2to1/2.png"",""time"":199},{""stimulus"":""img/2to1/3.png"",""time"":298},{""stimulus"":""img/2to1/4.png"",""time"":397},{""stimulus"":""img/2to1/5.png"",""time"":496},{""stimulus"":""img/2to1/6.png"",""time"":595},{""stimulus"":""img/2to1/7.png"",""time"":694},{""stimulus"":""img/2to1/8.png"",""time"":793},{""stimulus"":""img/2to1/9.png"",""time"":892},{""stimulus"":""img/2to1/10.png"",""time"":991},{""stimulus"":""img/2to1/11.png"",""time"":1090},{""stimulus"":""img/2to1/12.png"",""time"":1189}]","[]"
"image-keyboard-response","74","88033","0.0-5.0-1.35","5d42abf3c9acd700010c41df","bdp_cybrbll","Tue Mar 28 2023 14:56:18 GMT-0500 (Central Daylight Time)","416297","1","3","","null","","","","observe","","img/1to3/1.png","null","190","362","0.5","0.5","1","3","",""
"animation","75","89321","0.0-5.0-2.35","5d42abf3c9acd700010c41df","bdp_cybrbll","Tue Mar 28 2023 14:56:18 GMT-0500 (Central Daylight Time)","416297","1","3","","","","","","","","","","190","","","","1","3","[{""stimulus"":""img/1to3/1.png"",""time"":100},{""stimulus"":""img/1to3/2.png"",""time"":199},{""stimulus"":""img/1to3/3.png"",""time"":298},{""stimulus"":""img/1to3/4.png"",""time"":397},{""stimulus"":""img/1to3/5.png"",""time"":496},{""stimulus"":""img/1to3/6.png"",""time"":595},{""stimulus"":""img/1to3/7.png"",""time"":694},{""stimulus"":""img/1to3/8.png"",""time"":793},{""stimulus"":""img/1to3/9.png"",""time"":893},{""stimulus"":""img/1to3/10.png"",""time"":992},{""stimulus"":""img/1to3/11.png"",""time"":1090},{""stimulus"":""img/1to3/12.png"",""time"":1189}]","[]"
"image-keyboard-response","76","89632","0.0-5.0-1.36","5d42abf3c9acd700010c41df","bdp_cybrbll","Tue Mar 28 2023 14:56:18 GMT-0500 (Central Daylight Time)","416297","1","3","","null","","","","observe","","img/3to2/1.png","null","189","310","0.5","0.5","3","1","",""
"animation","77","90920","0.0-5.0-2.36","5d42abf3c9acd700010c41df","bdp_cybrbll","Tue Mar 28 2023 14:56:18 GMT-0500 (Central Daylight Time)","416297","1","3","","","","","","","","","","189","","","","3","1","[{""stimulus"":""img/3to1/1.png"",""time"":100},{""stimulus"":""img/3to1/2.png"",""time"":199},{""stimulus"":""img/3to1/3.png"",""time"":299},{""stimulus"":""img/3to1/4.png"",""time"":397},{""stimulus"":""img/3to1/5.png"",""time"":496},{""stimulus"":""img/3to1/6.png"",""time"":596},{""stimulus"":""img/3to1/7.png"",""time"":694},{""stimulus"":""img/3to1/8.png"",""time"":793},{""stimulus"":""img/3to1/9.png"",""time"":893},{""stimulus"":""img/3to1/10.png"",""time"":992},{""stimulus"":""img/3to1/11.png"",""time"":1091},{""stimulus"":""img/3to1/12.png"",""time"":1190}]","[]"
"image-keyboard-response","78","91385","0.0-5.0-1.37","5d42abf3c9acd700010c41df","bdp_cybrbll","Tue Mar 28 2023 14:56:18 GMT-0500 (Central Daylight Time)","416297","1","3","","null","","","","observe","","img/1to3/1.png","null","188","463","0.5","0.5","1","2","",""
"animation","79","92673","0.0-5.0-2.37","5d42abf3c9acd700010c41df","bdp_cybrbll","Tue Mar 28 2023 14:56:18 GMT-0500 (Central Daylight Time)","416297","1","3","","","","","","","","","","188","","","","1","2","[{""stimulus"":""img/1to2/1.png"",""time"":101},{""stimulus"":""img/1to2/2.png"",""time"":200},{""stimulus"":""img/1to2/3.png"",""time"":298},{""stimulus"":""img/1to2/4.png"",""time"":397},{""stimulus"":""img/1to2/5.png"",""time"":496},{""stimulus"":""img/1to2/6.png"",""time"":595},{""stimulus"":""img/1to2/7.png"",""time"":695},{""stimulus"":""img/1to2/8.png"",""time"":793},{""stimulus"":""img/1to2/9.png"",""time"":892},{""stimulus"":""img/1to2/10.png"",""time"":1002},{""stimulus"":""img/1to2/11.png"",""time"":1090},{""stimulus"":""img/1to2/12.png"",""time"":1190}]","[]"
"image-keyboard-response","80","93128","0.0-5.0-1.38","5d42abf3c9acd700010c41df","bdp_cybrbll","Tue Mar 28 2023 14:56:18 GMT-0500 (Central Daylight Time)","416297","1","3","","454","","","","choice","","img/2to1/1.png","1","187","787","0.5","0.5","2","1","",""
"animation","81","94417","0.0-5.0-2.38","5d42abf3c9acd700010c41df","bdp_cybrbll","Tue Mar 28 2023 14:56:18 GMT-0500 (Central Daylight Time)","416297","1","3","","","","","","","","","","187","","","","2","1","[{""stimulus"":""img/2to1/1.png"",""time"":100},{""stimulus"":""img/2to1/2.png"",""time"":199},{""stimulus"":""img/2to1/3.png"",""time"":299},{""stimulus"":""img/2to1/4.png"",""time"":396},{""stimulus"":""img/2to1/5.png"",""time"":496},{""stimulus"":""img/2to1/6.png"",""time"":594},{""stimulus"":""img/2to1/7.png"",""time"":693},{""stimulus"":""img/2to1/8.png"",""time"":793},{""stimulus"":""img/2to1/9.png"",""time"":892},{""stimulus"":""img/2to1/10.png"",""time"":991},{""stimulus"":""img/2to1/11.png"",""time"":1090},{""stimulus"":""img/2to1/12.png"",""time"":1189}]","[]"
"image-keyboard-response","82","94770","0.0-5.0-1.39","5d42abf3c9acd700010c41df","bdp_cybrbll","Tue Mar 28 2023 14:56:18 GMT-0500 (Central Daylight Time)","416297","1","3","","null","","","","observe","","img/1to3/1.png","null","186","351","0.5","0.5","1","3","",""
"animation","83","96058","0.0-5.0-2.39","5d42abf3c9acd700010c41df","bdp_cybrbll","Tue Mar 28 2023 14:56:18 GMT-0500 (Central Daylight Time)","416297","1","3","","","","","","","","","","186","","","","1","3","[{""stimulus"":""img/1to3/1.png"",""time"":100},{""stimulus"":""img/1to3/2.png"",""time"":199},{""stimulus"":""img/1to3/3.png"",""time"":298},{""stimulus"":""img/1to3/4.png"",""time"":396},{""stimulus"":""img/1to3/5.png"",""time"":496},{""stimulus"":""img/1to3/6.png"",""time"":595},{""stimulus"":""img/1to3/7.png"",""time"":694},{""stimulus"":""img/1to3/8.png"",""time"":793},{""stimulus"":""img/1to3/9.png"",""time"":891},{""stimulus"":""img/1to3/10.png"",""time"":991},{""stimulus"":""img/1to3/11.png"",""time"":1103},{""stimulus"":""img/1to3/12.png"",""time"":1189}]","[]"
"image-keyboard-response","84","96476","0.0-5.0-1.40","5d42abf3c9acd700010c41df","bdp_cybrbll","Tue Mar 28 2023 14:56:18 GMT-0500 (Central Daylight Time)","416297","1","3","","null","","","","observe","","img/3to2/1.png","null","185","416","0.5","0.5","3","1","",""
"animation","85","97764","0.0-5.0-2.40","5d42abf3c9acd700010c41df","bdp_cybrbll","Tue Mar 28 2023 14:56:18 GMT-0500 (Central Daylight Time)","416297","1","3","","","","","","","","","","185","","","","3","1","[{""stimulus"":""img/3to1/1.png"",""time"":101},{""stimulus"":""img/3to1/2.png"",""time"":199},{""stimulus"":""img/3to1/3.png"",""time"":299},{""stimulus"":""img/3to1/4.png"",""time"":398},{""stimulus"":""img/3to1/5.png"",""time"":497},{""stimulus"":""img/3to1/6.png"",""time"":596},{""stimulus"":""img/3to1/7.png"",""time"":694},{""stimulus"":""img/3to1/8.png"",""time"":798},{""stimulus"":""img/3to1/9.png"",""time"":892},{""stimulus"":""img/3to1/10.png"",""time"":992},{""stimulus"":""img/3to1/11.png"",""time"":1090},{""stimulus"":""img/3to1/12.png"",""time"":1190}]","[]"
"image-keyboard-response","86","98853","0.0-5.0-1.41","5d42abf3c9acd700010c41df","bdp_cybrbll","Tue Mar 28 2023 14:56:18 GMT-0500 (Central Daylight Time)","416297","1","3","","null","","","","observe","","img/1to3/1.png","null","184","1088","0.5","0.5","1","2","",""
"animation","87","100141","0.0-5.0-2.41","5d42abf3c9acd700010c41df","bdp_cybrbll","Tue Mar 28 2023 14:56:18 GMT-0500 (Central Daylight Time)","416297","1","3","","","","","","","","","","184","","","","1","2","[{""stimulus"":""img/1to2/1.png"",""time"":101},{""stimulus"":""img/1to2/2.png"",""time"":199},{""stimulus"":""img/1to2/3.png"",""time"":298},{""stimulus"":""img/1to2/4.png"",""time"":397},{""stimulus"":""img/1to2/5.png"",""time"":497},{""stimulus"":""img/1to2/6.png"",""time"":595},{""stimulus"":""img/1to2/7.png"",""time"":694},{""stimulus"":""img/1to2/8.png"",""time"":793},{""stimulus"":""img/1to2/9.png"",""time"":893},{""stimulus"":""img/1to2/10.png"",""time"":992},{""stimulus"":""img/1to2/11.png"",""time"":1090},{""stimulus"":""img/1to2/12.png"",""time"":1189}]","[]"
"image-keyboard-response","88","100191","0.0-5.0-1.42","5d42abf3c9acd700010c41df","bdp_cybrbll","Tue Mar 28 2023 14:56:18 GMT-0500 (Central Daylight Time)","416297","1","3","","49","","","","choice","","img/2to1/1.png","2","183","392","0.5","0.5","2","3","",""
"animation","89","101478","0.0-5.0-2.42","5d42abf3c9acd700010c41df","bdp_cybrbll","Tue Mar 28 2023 14:56:18 GMT-0500 (Central Daylight Time)","416297","1","3","","","","","","","","","","183","","","","2","3","[{""stimulus"":""img/2to3/1.png"",""time"":101},{""stimulus"":""img/2to3/2.png"",""time"":199},{""stimulus"":""img/2to3/3.png"",""time"":298},{""stimulus"":""img/2to3/4.png"",""time"":398},{""stimulus"":""img/2to3/5.png"",""time"":496},{""stimulus"":""img/2to3/6.png"",""time"":596},{""stimulus"":""img/2to3/7.png"",""time"":695},{""stimulus"":""img/2to3/8.png"",""time"":793},{""stimulus"":""img/2to3/9.png"",""time"":892},{""stimulus"":""img/2to3/10.png"",""time"":991},{""stimulus"":""img/2to3/11.png"",""time"":1090},{""stimulus"":""img/2to3/12.png"",""time"":1189}]","[]"
"image-keyboard-response","90","101985","0.0-5.0-1.43","5d42abf3c9acd700010c41df","bdp_cybrbll","Tue Mar 28 2023 14:56:18 GMT-0500 (Central Daylight Time)","416297","1","3","","null","","","","observe","","img/3to2/1.png","null","182","506","0.5","0.5","3","1","",""
"animation","91","103273","0.0-5.0-2.43","5d42abf3c9acd700010c41df","bdp_cybrbll","Tue Mar 28 2023 14:56:18 GMT-0500 (Central Daylight Time)","416297","1","3","","","","","","","","","","182","","","","3","1","[{""stimulus"":""img/3to1/1.png"",""time"":100},{""stimulus"":""img/3to1/2.png"",""time"":200},{""stimulus"":""img/3to1/3.png"",""time"":298},{""stimulus"":""img/3to1/4.png"",""time"":397},{""stimulus"":""img/3to1/5.png"",""time"":496},{""stimulus"":""img/3to1/6.png"",""time"":596},{""stimulus"":""img/3to1/7.png"",""time"":694},{""stimulus"":""img/3to1/8.png"",""time"":794},{""stimulus"":""img/3to1/9.png"",""time"":894},{""stimulus"":""img/3to1/10.png"",""time"":992},{""stimulus"":""img/3to1/11.png"",""time"":1091},{""stimulus"":""img/3to1/12.png"",""time"":1189}]","[]"
"image-keyboard-response","92","103581","0.0-5.0-1.44","5d42abf3c9acd700010c41df","bdp_cybrbll","Tue Mar 28 2023 14:56:18 GMT-0500 (Central Daylight Time)","416297","1","3","","null","","","","observe","","img/1to3/1.png","null","181","306","0.5","0.5","1","2","",""
"animation","93","104869","0.0-5.0-2.44","5d42abf3c9acd700010c41df","bdp_cybrbll","Tue Mar 28 2023 14:56:18 GMT-0500 (Central Daylight Time)","416297","1","3","","","","","","","","","","181","","","","1","2","[{""stimulus"":""img/1to2/1.png"",""time"":100},{""stimulus"":""img/1to2/2.png"",""time"":199},{""stimulus"":""img/1to2/3.png"",""time"":298},{""stimulus"":""img/1to2/4.png"",""time"":397},{""stimulus"":""img/1to2/5.png"",""time"":497},{""stimulus"":""img/1to2/6.png"",""time"":595},{""stimulus"":""img/1to2/7.png"",""time"":695},{""stimulus"":""img/1to2/8.png"",""time"":794},{""stimulus"":""img/1to2/9.png"",""time"":892},{""stimulus"":""img/1to2/10.png"",""time"":991},{""stimulus"":""img/1to2/11.png"",""time"":1090},{""stimulus"":""img/1to2/12.png"",""time"":1189}]","[]"
"image-keyboard-response","94","105073","0.0-5.0-1.45","5d42abf3c9acd700010c41df","bdp_cybrbll","Tue Mar 28 2023 14:56:18 GMT-0500 (Central Daylight Time)","416297","1","3","","204","","","","choice","","img/2to1/1.png","2","180","911","0.5","0.5","2","3","",""
"animation","95","106361","0.0-5.0-2.45","5d42abf3c9acd700010c41df","bdp_cybrbll","Tue Mar 28 2023 14:56:18 GMT-0500 (Central Daylight Time)","416297","1","3","","","","","","","","","","180","","","","2","3","[{""stimulus"":""img/2to3/1.png"",""time"":100},{""stimulus"":""img/2to3/2.png"",""time"":199},{""stimulus"":""img/2to3/3.png"",""time"":298},{""stimulus"":""img/2to3/4.png"",""time"":397},{""stimulus"":""img/2to3/5.png"",""time"":496},{""stimulus"":""img/2to3/6.png"",""time"":595},{""stimulus"":""img/2to3/7.png"",""time"":694},{""stimulus"":""img/2to3/8.png"",""time"":793},{""stimulus"":""img/2to3/9.png"",""time"":891},{""stimulus"":""img/2to3/10.png"",""time"":992},{""stimulus"":""img/2to3/11.png"",""time"":1090},{""stimulus"":""img/2to3/12.png"",""time"":1189}]","[]"
"image-keyboard-response","96","106990","0.0-5.0-1.46","5d42abf3c9acd700010c41df","bdp_cybrbll","Tue Mar 28 2023 14:56:18 GMT-0500 (Central Daylight Time)","416297","1","3","","null","","","","observe","","img/3to2/1.png","null","179","627","0.5","0.5","3","2","",""
"animation","97","108278","0.0-5.0-2.46","5d42abf3c9acd700010c41df","bdp_cybrbll","Tue Mar 28 2023 14:56:18 GMT-0500 (Central Daylight Time)","416297","1","3","","","","","","","","","","179","","","","3","2","[{""stimulus"":""img/3to2/1.png"",""time"":100},{""stimulus"":""img/3to2/2.png"",""time"":199},{""stimulus"":""img/3to2/3.png"",""time"":298},{""stimulus"":""img/3to2/4.png"",""time"":396},{""stimulus"":""img/3to2/5.png"",""time"":496},{""stimulus"":""img/3to2/6.png"",""time"":595},{""stimulus"":""img/3to2/7.png"",""time"":694},{""stimulus"":""img/3to2/8.png"",""time"":793},{""stimulus"":""img/3to2/9.png"",""time"":892},{""stimulus"":""img/3to2/10.png"",""time"":992},{""stimulus"":""img/3to2/11.png"",""time"":1090},{""stimulus"":""img/3to2/12.png"",""time"":1189}]","[]"
"image-keyboard-response","98","109012","0.0-5.0-1.47","5d42abf3c9acd700010c41df","bdp_cybrbll","Tue Mar 28 2023 14:56:18 GMT-0500 (Central Daylight Time)","416297","1","3","","734","","","","choice","","img/2to1/1.png","2","178","440","0.5","0.5","2","3","",""
"animation","99","110300","0.0-5.0-2.47","5d42abf3c9acd700010c41df","bdp_cybrbll","Tue Mar 28 2023 14:56:18 GMT-0500 (Central Daylight Time)","416297","1","3","","","","","","","","","","178","","","","2","3","[{""stimulus"":""img/2to3/1.png"",""time"":100},{""stimulus"":""img/2to3/2.png"",""time"":200},{""stimulus"":""img/2to3/3.png"",""time"":298},{""stimulus"":""img/2to3/4.png"",""time"":397},{""stimulus"":""img/2to3/5.png"",""time"":497},{""stimulus"":""img/2to3/6.png"",""time"":596},{""stimulus"":""img/2to3/7.png"",""time"":694},{""stimulus"":""img/2to3/8.png"",""time"":794},{""stimulus"":""img/2to3/9.png"",""time"":892},{""stimulus"":""img/2to3/10.png"",""time"":991},{""stimulus"":""img/2to3/11.png"",""time"":1090},{""stimulus"":""img/2to3/12.png"",""time"":1189}]","[]"
"image-keyboard-response","100","110591","0.0-5.0-1.48","5d42abf3c9acd700010c41df","bdp_cybrbll","Tue Mar 28 2023 14:56:18 GMT-0500 (Central Daylight Time)","416297","1","3","","null","","","","observe","","img/3to2/1.png","null","177","290","0.5","0.5","3","2","",""
"animation","101","111878","0.0-5.0-2.48","5d42abf3c9acd700010c41df","bdp_cybrbll","Tue Mar 28 2023 14:56:18 GMT-0500 (Central Daylight Time)","416297","1","3","","","","","","","","","","177","","","","3","2","[{""stimulus"":""img/3to2/1.png"",""time"":99},{""stimulus"":""img/3to2/2.png"",""time"":199},{""stimulus"":""img/3to2/3.png"",""time"":298},{""stimulus"":""img/3to2/4.png"",""time"":397},{""stimulus"":""img/3to2/5.png"",""time"":496},{""stimulus"":""img/3to2/6.png"",""time"":595},{""stimulus"":""img/3to2/7.png"",""time"":693},{""stimulus"":""img/3to2/8.png"",""time"":793},{""stimulus"":""img/3to2/9.png"",""time"":891},{""stimulus"":""img/3to2/10.png"",""time"":991},{""stimulus"":""img/3to2/11.png"",""time"":1091},{""stimulus"":""img/3to2/12.png"",""time"":1189}]","[]"
"image-keyboard-response","102","112123","0.0-5.0-1.49","5d42abf3c9acd700010c41df","bdp_cybrbll","Tue Mar 28 2023 14:56:18 GMT-0500 (Central Daylight Time)","416297","1","3","","244","","","","choice","","img/2to1/1.png","1","176","354","0.5","0.5","2","1","",""
"animation","103","113411","0.0-5.0-2.49","5d42abf3c9acd700010c41df","bdp_cybrbll","Tue Mar 28 2023 14:56:18 GMT-0500 (Central Daylight Time)","416297","1","3","","","","","","","","","","176","","","","2","1","[{""stimulus"":""img/2to1/1.png"",""time"":100},{""stimulus"":""img/2to1/2.png"",""time"":199},{""stimulus"":""img/2to1/3.png"",""time"":298},{""stimulus"":""img/2to1/4.png"",""time"":399},{""stimulus"":""img/2to1/5.png"",""time"":496},{""stimulus"":""img/2to1/6.png"",""time"":596},{""stimulus"":""img/2to1/7.png"",""time"":695},{""stimulus"":""img/2to1/8.png"",""time"":792},{""stimulus"":""img/2to1/9.png"",""time"":892},{""stimulus"":""img/2to1/10.png"",""time"":991},{""stimulus"":""img/2to1/11.png"",""time"":1091},{""stimulus"":""img/2to1/12.png"",""time"":1189}]","[]"
"image-keyboard-response","104","113635","0.0-5.0-1.50","5d42abf3c9acd700010c41df","bdp_cybrbll","Tue Mar 28 2023 14:56:18 GMT-0500 (Central Daylight Time)","416297","1","3","","null","","","","observe","","img/1to3/1.png","null","175","222","0.5","0.5","1","2","",""
"animation","105","114923","0.0-5.0-2.50","5d42abf3c9acd700010c41df","bdp_cybrbll","Tue Mar 28 2023 14:56:18 GMT-0500 (Central Daylight Time)","416297","1","3","","","","","","","","","","175","","","","1","2","[{""stimulus"":""img/1to2/1.png"",""time"":101},{""stimulus"":""img/1to2/2.png"",""time"":200},{""stimulus"":""img/1to2/3.png"",""time"":299},{""stimulus"":""img/1to2/4.png"",""time"":397},{""stimulus"":""img/1to2/5.png"",""time"":497},{""stimulus"":""img/1to2/6.png"",""time"":596},{""stimulus"":""img/1to2/7.png"",""time"":694},{""stimulus"":""img/1to2/8.png"",""time"":794},{""stimulus"":""img/1to2/9.png"",""time"":892},{""stimulus"":""img/1to2/10.png"",""time"":992},{""stimulus"":""img/1to2/11.png"",""time"":1090},{""stimulus"":""img/1to2/12.png"",""time"":1190}]","[]"
"image-keyboard-response","106","114952","0.0-5.0-1.51","5d42abf3c9acd700010c41df","bdp_cybrbll","Tue Mar 28 2023 14:56:18 GMT-0500 (Central Daylight Time)","416297","1","3","","28","","","","choice","","img/2to1/1.png","2","174","638","0.5","0.5","2","3","",""
"animation","107","116240","0.0-5.0-2.51","5d42abf3c9acd700010c41df","bdp_cybrbll","Tue Mar 28 2023 14:56:18 GMT-0500 (Central Daylight Time)","416297","1","3","","","","","","","","","","174","","","","2","3","[{""stimulus"":""img/2to3/1.png"",""time"":100},{""stimulus"":""img/2to3/2.png"",""time"":199},{""stimulus"":""img/2to3/3.png"",""time"":297},{""stimulus"":""img/2to3/4.png"",""time"":397},{""stimulus"":""img/2to3/5.png"",""time"":496},{""stimulus"":""img/2to3/6.png"",""time"":595},{""stimulus"":""img/2to3/7.png"",""time"":693},{""stimulus"":""img/2to3/8.png"",""time"":792},{""stimulus"":""img/2to3/9.png"",""time"":891},{""stimulus"":""img/2to3/10.png"",""time"":990},{""stimulus"":""img/2to3/11.png"",""time"":1090},{""stimulus"":""img/2to3/12.png"",""time"":1188}]","[]"
"image-keyboard-response","108","116448","0.0-5.0-1.52","5d42abf3c9acd700010c41df","bdp_cybrbll","Tue Mar 28 2023 14:56:18 GMT-0500 (Central Daylight Time)","416297","1","3","","null","","","","observe","","img/3to2/1.png","null","173","206","0.5","0.5","3","2","",""
"animation","109","117736","0.0-5.0-2.52","5d42abf3c9acd700010c41df","bdp_cybrbll","Tue Mar 28 2023 14:56:18 GMT-0500 (Central Daylight Time)","416297","1","3","","","","","","","","","","173","","","","3","2","[{""stimulus"":""img/3to2/1.png"",""time"":100},{""stimulus"":""img/3to2/2.png"",""time"":199},{""stimulus"":""img/3to2/3.png"",""time"":298},{""stimulus"":""img/3to2/4.png"",""time"":397},{""stimulus"":""img/3to2/5.png"",""time"":496},{""stimulus"":""img/3to2/6.png"",""time"":595},{""stimulus"":""img/3to2/7.png"",""time"":694},{""stimulus"":""img/3to2/8.png"",""time"":793},{""stimulus"":""img/3to2/9.png"",""time"":892},{""stimulus"":""img/3to2/10.png"",""time"":991},{""stimulus"":""img/3to2/11.png"",""time"":1090},{""stimulus"":""img/3to2/12.png"",""time"":1189}]","[]"
"image-keyboard-response","110","118085","0.0-5.0-1.53","5d42abf3c9acd700010c41df","bdp_cybrbll","Tue Mar 28 2023 14:56:18 GMT-0500 (Central Daylight Time)","416297","1","3","","348","","","","choice","","img/2to1/1.png","2","172","391","0.5","0.5","2","3","",""
"animation","111","119374","0.0-5.0-2.53","5d42abf3c9acd700010c41df","bdp_cybrbll","Tue Mar 28 2023 14:56:18 GMT-0500 (Central Daylight Time)","416297","1","3","","","","","","","","","","172","","","","2","3","[{""stimulus"":""img/2to3/1.png"",""time"":100},{""stimulus"":""img/2to3/2.png"",""time"":199},{""stimulus"":""img/2to3/3.png"",""time"":298},{""stimulus"":""img/2to3/4.png"",""time"":396},{""stimulus"":""img/2to3/5.png"",""time"":496},{""stimulus"":""img/2to3/6.png"",""time"":595},{""stimulus"":""img/2to3/7.png"",""time"":693},{""stimulus"":""img/2to3/8.png"",""time"":793},{""stimulus"":""img/2to3/9.png"",""time"":892},{""stimulus"":""img/2to3/10.png"",""time"":991},{""stimulus"":""img/2to3/11.png"",""time"":1090},{""stimulus"":""img/2to3/12.png"",""time"":1189}]","[]"
"image-keyboard-response","112","119623","0.0-5.0-1.54","5d42abf3c9acd700010c41df","bdp_cybrbll","Tue Mar 28 2023 14:56:18 GMT-0500 (Central Daylight Time)","416297","1","3","","null","","","","observe","","img/3to2/1.png","null","171","248","0.5","0.5","3","1","",""
"animation","113","120911","0.0-5.0-2.54","5d42abf3c9acd700010c41df","bdp_cybrbll","Tue Mar 28 2023 14:56:18 GMT-0500 (Central Daylight Time)","416297","1","3","","","","","","","","","","171","","","","3","1","[{""stimulus"":""img/3to1/1.png"",""time"":101},{""stimulus"":""img/3to1/2.png"",""time"":199},{""stimulus"":""img/3to1/3.png"",""time"":299},{""stimulus"":""img/3to1/4.png"",""time"":398},{""stimulus"":""img/3to1/5.png"",""time"":498},{""stimulus"":""img/3to1/6.png"",""time"":595},{""stimulus"":""img/3to1/7.png"",""time"":695},{""stimulus"":""img/3to1/8.png"",""time"":793},{""stimulus"":""img/3to1/9.png"",""time"":892},{""stimulus"":""img/3to1/10.png"",""time"":991},{""stimulus"":""img/3to1/11.png"",""time"":1090},{""stimulus"":""img/3to1/12.png"",""time"":1190}]","[]"
"image-keyboard-response","114","121203","0.0-5.0-1.55","5d42abf3c9acd700010c41df","bdp_cybrbll","Tue Mar 28 2023 14:56:18 GMT-0500 (Central Daylight Time)","416297","1","3","","null","","","","observe","","img/1to3/1.png","null","170","291","0.5","0.5","1","3","",""
"animation","115","122491","0.0-5.0-2.55","5d42abf3c9acd700010c41df","bdp_cybrbll","Tue Mar 28 2023 14:56:18 GMT-0500 (Central Daylight Time)","416297","1","3","","","","","","","","","","170","","","","1","3","[{""stimulus"":""img/1to3/1.png"",""time"":101},{""stimulus"":""img/1to3/2.png"",""time"":199},{""stimulus"":""img/1to3/3.png"",""time"":298},{""stimulus"":""img/1to3/4.png"",""time"":397},{""stimulus"":""img/1to3/5.png"",""time"":496},{""stimulus"":""img/1to3/6.png"",""time"":596},{""stimulus"":""img/1to3/7.png"",""time"":694},{""stimulus"":""img/1to3/8.png"",""time"":793},{""stimulus"":""img/1to3/9.png"",""time"":892},{""stimulus"":""img/1to3/10.png"",""time"":992},{""stimulus"":""img/1to3/11.png"",""time"":1090},{""stimulus"":""img/1to3/12.png"",""time"":1189}]","[]"
"image-keyboard-response","116","122773","0.0-5.0-1.56","5d42abf3c9acd700010c41df","bdp_cybrbll","Tue Mar 28 2023 14:56:18 GMT-0500 (Central Daylight Time)","416297","1","3","","null","","","","observe","","img/3to2/1.png","null","169","281","0.5","0.5","3","1","",""
"animation","117","124061","0.0-5.0-2.56","5d42abf3c9acd700010c41df","bdp_cybrbll","Tue Mar 28 2023 14:56:18 GMT-0500 (Central Daylight Time)","416297","1","3","","","","","","","","","","169","","","","3","1","[{""stimulus"":""img/3to1/1.png"",""time"":101},{""stimulus"":""img/3to1/2.png"",""time"":199},{""stimulus"":""img/3to1/3.png"",""time"":299},{""stimulus"":""img/3to1/4.png"",""time"":397},{""stimulus"":""img/3to1/5.png"",""time"":496},{""stimulus"":""img/3to1/6.png"",""time"":596},{""stimulus"":""img/3to1/7.png"",""time"":695},{""stimulus"":""img/3to1/8.png"",""time"":794},{""stimulus"":""img/3to1/9.png"",""time"":892},{""stimulus"":""img/3to1/10.png"",""time"":991},{""stimulus"":""img/3to1/11.png"",""time"":1092},{""stimulus"":""img/3to1/12.png"",""time"":1190}]","[]"
"image-keyboard-response","118","124573","0.0-5.0-1.57","5d42abf3c9acd700010c41df","bdp_cybrbll","Tue Mar 28 2023 14:56:18 GMT-0500 (Central Daylight Time)","416297","1","3","","null","","","","observe","","img/1to3/1.png","null","168","510","0.5","0.5","1","3","",""
"animation","119","125861","0.0-5.0-2.57","5d42abf3c9acd700010c41df","bdp_cybrbll","Tue Mar 28 2023 14:56:18 GMT-0500 (Central Daylight Time)","416297","1","3","","","","","","","","","","168","","","","1","3","[{""stimulus"":""img/1to3/1.png"",""time"":100},{""stimulus"":""img/1to3/2.png"",""time"":199},{""stimulus"":""img/1to3/3.png"",""time"":297},{""stimulus"":""img/1to3/4.png"",""time"":397},{""stimulus"":""img/1to3/5.png"",""time"":495},{""stimulus"":""img/1to3/6.png"",""time"":595},{""stimulus"":""img/1to3/7.png"",""time"":694},{""stimulus"":""img/1to3/8.png"",""time"":793},{""stimulus"":""img/1to3/9.png"",""time"":892},{""stimulus"":""img/1to3/10.png"",""time"":990},{""stimulus"":""img/1to3/11.png"",""time"":1089},{""stimulus"":""img/1to3/12.png"",""time"":1189}]","[]"
"image-keyboard-response","120","126373","0.0-5.0-1.58","5d42abf3c9acd700010c41df","bdp_cybrbll","Tue Mar 28 2023 14:56:18 GMT-0500 (Central Daylight Time)","416297","1","3","","null","","","","observe","","img/3to2/1.png","null","167","511","0.5","0.5","3","2","",""
"animation","121","127661","0.0-5.0-2.58","5d42abf3c9acd700010c41df","bdp_cybrbll","Tue Mar 28 2023 14:56:18 GMT-0500 (Central Daylight Time)","416297","1","3","","","","","","","","","","167","","","","3","2","[{""stimulus"":""img/3to2/1.png"",""time"":100},{""stimulus"":""img/3to2/2.png"",""time"":199},{""stimulus"":""img/3to2/3.png"",""time"":297},{""stimulus"":""img/3to2/4.png"",""time"":397},{""stimulus"":""img/3to2/5.png"",""time"":495},{""stimulus"":""img/3to2/6.png"",""time"":595},{""stimulus"":""img/3to2/7.png"",""time"":706},{""stimulus"":""img/3to2/8.png"",""time"":792},{""stimulus"":""img/3to2/9.png"",""time"":891},{""stimulus"":""img/3to2/10.png"",""time"":991},{""stimulus"":""img/3to2/11.png"",""time"":1089},{""stimulus"":""img/3to2/12.png"",""time"":1188}]","[]"
"image-keyboard-response","122","127963","0.0-5.0-1.59","5d42abf3c9acd700010c41df","bdp_cybrbll","Tue Mar 28 2023 14:56:18 GMT-0500 (Central Daylight Time)","416297","1","3","","302","","","","choice","","img/2to1/1.png","1","166","248","0.5","0.5","2","1","",""
"animation","123","129251","0.0-5.0-2.59","5d42abf3c9acd700010c41df","bdp_cybrbll","Tue Mar 28 2023 14:56:18 GMT-0500 (Central Daylight Time)","416297","1","3","","","","","","","","","","166","","","","2","1","[{""stimulus"":""img/2to1/1.png"",""time"":100},{""stimulus"":""img/2to1/2.png"",""time"":200},{""stimulus"":""img/2to1/3.png"",""time"":299},{""stimulus"":""img/2to1/4.png"",""time"":399},{""stimulus"":""img/2to1/5.png"",""time"":496},{""stimulus"":""img/2to1/6.png"",""time"":595},{""stimulus"":""img/2to1/7.png"",""time"":695},{""stimulus"":""img/2to1/8.png"",""time"":793},{""stimulus"":""img/2to1/9.png"",""time"":893},{""stimulus"":""img/2to1/10.png"",""time"":991},{""stimulus"":""img/2to1/11.png"",""time"":1091},{""stimulus"":""img/2to1/12.png"",""time"":1189}]","[]"
"image-keyboard-response","124","129897","0.0-5.0-1.60","5d42abf3c9acd700010c41df","bdp_cybrbll","Tue Mar 28 2023 14:56:18 GMT-0500 (Central Daylight Time)","416297","1","3","","null","","","","observe","","img/1to3/1.png","null","165","644","0.5","0.5","1","2","",""
"animation","125","131184","0.0-5.0-2.60","5d42abf3c9acd700010c41df","bdp_cybrbll","Tue Mar 28 2023 14:56:18 GMT-0500 (Central Daylight Time)","416297","1","3","","","","","","","","","","165","","","","1","2","[{""stimulus"":""img/1to2/1.png"",""time"":101},{""stimulus"":""img/1to2/2.png"",""time"":199},{""stimulus"":""img/1to2/3.png"",""time"":298},{""stimulus"":""img/1to2/4.png"",""time"":397},{""stimulus"":""img/1to2/5.png"",""time"":496},{""stimulus"":""img/1to2/6.png"",""time"":595},{""stimulus"":""img/1to2/7.png"",""time"":694},{""stimulus"":""img/1to2/8.png"",""time"":794},{""stimulus"":""img/1to2/9.png"",""time"":893},{""stimulus"":""img/1to2/10.png"",""time"":992},{""stimulus"":""img/1to2/11.png"",""time"":1091},{""stimulus"":""img/1to2/12.png"",""time"":1190}]","[]"
"image-keyboard-response","126","131388","0.0-5.0-1.61","5d42abf3c9acd700010c41df","bdp_cybrbll","Tue Mar 28 2023 14:56:18 GMT-0500 (Central Daylight Time)","416297","1","3","","203","","","","choice","","img/2to1/1.png","1","164","668","0.5","0.5","2","1","",""
"animation","127","132676","0.0-5.0-2.61","5d42abf3c9acd700010c41df","bdp_cybrbll","Tue Mar 28 2023 14:56:18 GMT-0500 (Central Daylight Time)","416297","1","3","","","","","","","","","","164","","","","2","1","[{""stimulus"":""img/2to1/1.png"",""time"":100},{""stimulus"":""img/2to1/2.png"",""time"":200},{""stimulus"":""img/2to1/3.png"",""time"":298},{""stimulus"":""img/2to1/4.png"",""time"":397},{""stimulus"":""img/2to1/5.png"",""time"":496},{""stimulus"":""img/2to1/6.png"",""time"":595},{""stimulus"":""img/2to1/7.png"",""time"":694},{""stimulus"":""img/2to1/8.png"",""time"":793},{""stimulus"":""img/2to1/9.png"",""time"":893},{""stimulus"":""img/2to1/10.png"",""time"":991},{""stimulus"":""img/2to1/11.png"",""time"":1090},{""stimulus"":""img/2to1/12.png"",""time"":1190}]","[]"
"image-keyboard-response","128","134150","0.0-5.0-1.62","5d42abf3c9acd700010c41df","bdp_cybrbll","Tue Mar 28 2023 14:56:18 GMT-0500 (Central Daylight Time)","416297","1","3","","null","","","","observe","","img/1to3/1.png","null","163","1472","0.5","0.5","1","2","",""
"animation","129","135438","0.0-5.0-2.62","5d42abf3c9acd700010c41df","bdp_cybrbll","Tue Mar 28 2023 14:56:18 GMT-0500 (Central Daylight Time)","416297","1","3","","","","","","","","","","163","","","","1","2","[{""stimulus"":""img/1to2/1.png"",""time"":100},{""stimulus"":""img/1to2/2.png"",""time"":200},{""stimulus"":""img/1to2/3.png"",""time"":297},{""stimulus"":""img/1to2/4.png"",""time"":397},{""stimulus"":""img/1to2/5.png"",""time"":495},{""stimulus"":""img/1to2/6.png"",""time"":595},{""stimulus"":""img/1to2/7.png"",""time"":694},{""stimulus"":""img/1to2/8.png"",""time"":792},{""stimulus"":""img/1to2/9.png"",""time"":892},{""stimulus"":""img/1to2/10.png"",""time"":991},{""stimulus"":""img/1to2/11.png"",""time"":1090},{""stimulus"":""img/1to2/12.png"",""time"":1188}]","[]"
"image-keyboard-response","130","135559","0.0-5.0-1.63","5d42abf3c9acd700010c41df","bdp_cybrbll","Tue Mar 28 2023 14:56:18 GMT-0500 (Central Daylight Time)","416297","1","3","","120","","","","choice","","img/2to1/1.png","2","162","317","0.5","0.5","2","3","",""
"animation","131","136848","0.0-5.0-2.63","5d42abf3c9acd700010c41df","bdp_cybrbll","Tue Mar 28 2023 14:56:18 GMT-0500 (Central Daylight Time)","416297","1","3","","","","","","","","","","162","","","","2","3","[{""stimulus"":""img/2to3/1.png"",""time"":101},{""stimulus"":""img/2to3/2.png"",""time"":199},{""stimulus"":""img/2to3/3.png"",""time"":298},{""stimulus"":""img/2to3/4.png"",""time"":397},{""stimulus"":""img/2to3/5.png"",""time"":497},{""stimulus"":""img/2to3/6.png"",""time"":595},{""stimulus"":""img/2to3/7.png"",""time"":694},{""stimulus"":""img/2to3/8.png"",""time"":793},{""stimulus"":""img/2to3/9.png"",""time"":892},{""stimulus"":""img/2to3/10.png"",""time"":991},{""stimulus"":""img/2to3/11.png"",""time"":1090},{""stimulus"":""img/2to3/12.png"",""time"":1190}]","[]"
"image-keyboard-response","132","137204","0.0-5.0-1.64","5d42abf3c9acd700010c41df","bdp_cybrbll","Tue Mar 28 2023 14:56:18 GMT-0500 (Central Daylight Time)","416297","1","3","","null","","","","observe","","img/3to2/1.png","null","161","355","0.5","0.5","3","2","",""
"animation","133","138492","0.0-5.0-2.64","5d42abf3c9acd700010c41df","bdp_cybrbll","Tue Mar 28 2023 14:56:18 GMT-0500 (Central Daylight Time)","416297","1","3","","","","","","","","","","161","","","","3","2","[{""stimulus"":""img/3to2/1.png"",""time"":101},{""stimulus"":""img/3to2/2.png"",""time"":199},{""stimulus"":""img/3to2/3.png"",""time"":298},{""stimulus"":""img/3to2/4.png"",""time"":397},{""stimulus"":""img/3to2/5.png"",""time"":496},{""stimulus"":""img/3to2/6.png"",""time"":595},{""stimulus"":""img/3to2/7.png"",""time"":694},{""stimulus"":""img/3to2/8.png"",""time"":793},{""stimulus"":""img/3to2/9.png"",""time"":892},{""stimulus"":""img/3to2/10.png"",""time"":991},{""stimulus"":""img/3to2/11.png"",""time"":1090},{""stimulus"":""img/3to2/12.png"",""time"":1189}]","[]"
"image-keyboard-response","134","138589","0.0-5.0-1.65","5d42abf3c9acd700010c41df","bdp_cybrbll","Tue Mar 28 2023 14:56:18 GMT-0500 (Central Daylight Time)","416297","1","3","","96","","","","choice","","img/2to1/1.png","1","160","403","0.5","0.5","2","1","",""
"animation","135","139877","0.0-5.0-2.65","5d42abf3c9acd700010c41df","bdp_cybrbll","Tue Mar 28 2023 14:56:18 GMT-0500 (Central Daylight Time)","416297","1","3","","","","","","","","","","160","","","","2","1","[{""stimulus"":""img/2to1/1.png"",""time"":100},{""stimulus"":""img/2to1/2.png"",""time"":199},{""stimulus"":""img/2to1/3.png"",""time"":299},{""stimulus"":""img/2to1/4.png"",""time"":397},{""stimulus"":""img/2to1/5.png"",""time"":496},{""stimulus"":""img/2to1/6.png"",""time"":595},{""stimulus"":""img/2to1/7.png"",""time"":695},{""stimulus"":""img/2to1/8.png"",""time"":794},{""stimulus"":""img/2to1/9.png"",""time"":892},{""stimulus"":""img/2to1/10.png"",""time"":992},{""stimulus"":""img/2to1/11.png"",""time"":1090},{""stimulus"":""img/2to1/12.png"",""time"":1189}]","[]"
"image-keyboard-response","136","140124","0.0-5.0-1.66","5d42abf3c9acd700010c41df","bdp_cybrbll","Tue Mar 28 2023 14:56:18 GMT-0500 (Central Daylight Time)","416297","1","3","","null","","","","observe","","img/1to3/1.png","null","159","245","0.5","0.5","1","3","",""
"animation","137","141412","0.0-5.0-2.66","5d42abf3c9acd700010c41df","bdp_cybrbll","Tue Mar 28 2023 14:56:18 GMT-0500 (Central Daylight Time)","416297","1","3","","","","","","","","","","159","","","","1","3","[{""stimulus"":""img/1to3/1.png"",""time"":101},{""stimulus"":""img/1to3/2.png"",""time"":199},{""stimulus"":""img/1to3/3.png"",""time"":298},{""stimulus"":""img/1to3/4.png"",""time"":397},{""stimulus"":""img/1to3/5.png"",""time"":496},{""stimulus"":""img/1to3/6.png"",""time"":595},{""stimulus"":""img/1to3/7.png"",""time"":694},{""stimulus"":""img/1to3/8.png"",""time"":794},{""stimulus"":""img/1to3/9.png"",""time"":892},{""stimulus"":""img/1to3/10.png"",""time"":991},{""stimulus"":""img/1to3/11.png"",""time"":1090},{""stimulus"":""img/1to3/12.png"",""time"":1189}]","[]"
"image-keyboard-response","138","141723","0.0-5.0-1.67","5d42abf3c9acd700010c41df","bdp_cybrbll","Tue Mar 28 2023 14:56:18 GMT-0500 (Central Daylight Time)","416297","1","3","","null","","","","observe","","img/3to2/1.png","null","158","309","0.5","0.5","3","2","",""
"animation","139","143011","0.0-5.0-2.67","5d42abf3c9acd700010c41df","bdp_cybrbll","Tue Mar 28 2023 14:56:18 GMT-0500 (Central Daylight Time)","416297","1","3","","","","","","","","","","158","","","","3","2","[{""stimulus"":""img/3to2/1.png"",""time"":101},{""stimulus"":""img/3to2/2.png"",""time"":199},{""stimulus"":""img/3to2/3.png"",""time"":298},{""stimulus"":""img/3to2/4.png"",""time"":397},{""stimulus"":""img/3to2/5.png"",""time"":497},{""stimulus"":""img/3to2/6.png"",""time"":596},{""stimulus"":""img/3to2/7.png"",""time"":695},{""stimulus"":""img/3to2/8.png"",""time"":793},{""stimulus"":""img/3to2/9.png"",""time"":893},{""stimulus"":""img/3to2/10.png"",""time"":992},{""stimulus"":""img/3to2/11.png"",""time"":1090},{""stimulus"":""img/3to2/12.png"",""time"":1189}]","[]"
"image-keyboard-response","140","143204","0.0-5.0-1.68","5d42abf3c9acd700010c41df","bdp_cybrbll","Tue Mar 28 2023 14:56:18 GMT-0500 (Central Daylight Time)","416297","1","3","","192","","","","choice","","img/2to1/1.png","2","157","892","0.5","0.5","2","3","",""
"animation","141","144492","0.0-5.0-2.68","5d42abf3c9acd700010c41df","bdp_cybrbll","Tue Mar 28 2023 14:56:18 GMT-0500 (Central Daylight Time)","416297","1","3","","","","","","","","","","157","","","","2","3","[{""stimulus"":""img/2to3/1.png"",""time"":101},{""stimulus"":""img/2to3/2.png"",""time"":199},{""stimulus"":""img/2to3/3.png"",""time"":299},{""stimulus"":""img/2to3/4.png"",""time"":397},{""stimulus"":""img/2to3/5.png"",""time"":496},{""stimulus"":""img/2to3/6.png"",""time"":595},{""stimulus"":""img/2to3/7.png"",""time"":695},{""stimulus"":""img/2to3/8.png"",""time"":793},{""stimulus"":""img/2to3/9.png"",""time"":892},{""stimulus"":""img/2to3/10.png"",""time"":991},{""stimulus"":""img/2to3/11.png"",""time"":1091},{""stimulus"":""img/2to3/12.png"",""time"":1189}]","[]"
"image-keyboard-response","142","145078","0.0-5.0-1.69","5d42abf3c9acd700010c41df","bdp_cybrbll","Tue Mar 28 2023 14:56:18 GMT-0500 (Central Daylight Time)","416297","1","3","","null","","","","observe","","img/3to2/1.png","null","156","584","0.5","0.5","3","1","",""
"animation","143","146366","0.0-5.0-2.69","5d42abf3c9acd700010c41df","bdp_cybrbll","Tue Mar 28 2023 14:56:18 GMT-0500 (Central Daylight Time)","416297","1","3","","","","","","","","","","156","","","","3","1","[{""stimulus"":""img/3to1/1.png"",""time"":100},{""stimulus"":""img/3to1/2.png"",""time"":200},{""stimulus"":""img/3to1/3.png"",""time"":298},{""stimulus"":""img/3to1/4.png"",""time"":396},{""stimulus"":""img/3to1/5.png"",""time"":496},{""stimulus"":""img/3to1/6.png"",""time"":595},{""stimulus"":""img/3to1/7.png"",""time"":694},{""stimulus"":""img/3to1/8.png"",""time"":793},{""stimulus"":""img/3to1/9.png"",""time"":893},{""stimulus"":""img/3to1/10.png"",""time"":991},{""stimulus"":""img/3to1/11.png"",""time"":1090},{""stimulus"":""img/3to1/12.png"",""time"":1189}]","[]"
"image-keyboard-response","144","146839","0.0-5.0-1.70","5d42abf3c9acd700010c41df","bdp_cybrbll","Tue Mar 28 2023 14:56:18 GMT-0500 (Central Daylight Time)","416297","1","3","","null","","","","observe","","img/1to3/1.png","null","155","472","0.5","0.5","1","3","",""
"animation","145","148126","0.0-5.0-2.70","5d42abf3c9acd700010c41df","bdp_cybrbll","Tue Mar 28 2023 14:56:18 GMT-0500 (Central Daylight Time)","416297","1","3","","","","","","","","","","155","","","","1","3","[{""stimulus"":""img/1to3/1.png"",""time"":101},{""stimulus"":""img/1to3/2.png"",""time"":199},{""stimulus"":""img/1to3/3.png"",""time"":298},{""stimulus"":""img/1to3/4.png"",""time"":397},{""stimulus"":""img/1to3/5.png"",""time"":496},{""stimulus"":""img/1to3/6.png"",""time"":595},{""stimulus"":""img/1to3/7.png"",""time"":695},{""stimulus"":""img/1to3/8.png"",""time"":793},{""stimulus"":""img/1to3/9.png"",""time"":893},{""stimulus"":""img/1to3/10.png"",""time"":991},{""stimulus"":""img/1to3/11.png"",""time"":1090},{""stimulus"":""img/1to3/12.png"",""time"":1189}]","[]"
"image-keyboard-response","146","148591","0.0-5.0-1.71","5d42abf3c9acd700010c41df","bdp_cybrbll","Tue Mar 28 2023 14:56:18 GMT-0500 (Central Daylight Time)","416297","1","3","","null","","","","observe","","img/3to2/1.png","null","154","463","0.5","0.5","3","2","",""
"animation","147","149879","0.0-5.0-2.71","5d42abf3c9acd700010c41df","bdp_cybrbll","Tue Mar 28 2023 14:56:18 GMT-0500 (Central Daylight Time)","416297","1","3","","","","","","","","","","154","","","","3","2","[{""stimulus"":""img/3to2/1.png"",""time"":101},{""stimulus"":""img/3to2/2.png"",""time"":199},{""stimulus"":""img/3to2/3.png"",""time"":298},{""stimulus"":""img/3to2/4.png"",""time"":398},{""stimulus"":""img/3to2/5.png"",""time"":497},{""stimulus"":""img/3to2/6.png"",""time"":595},{""stimulus"":""img/3to2/7.png"",""time"":695},{""stimulus"":""img/3to2/8.png"",""time"":793},{""stimulus"":""img/3to2/9.png"",""time"":892},{""stimulus"":""img/3to2/10.png"",""time"":991},{""stimulus"":""img/3to2/11.png"",""time"":1090},{""stimulus"":""img/3to2/12.png"",""time"":1190}]","[]"
"image-keyboard-response","148","150253","0.0-5.0-1.72","5d42abf3c9acd700010c41df","bdp_cybrbll","Tue Mar 28 2023 14:56:18 GMT-0500 (Central Daylight Time)","416297","1","3","","373","","","","choice","","img/2to1/1.png","2","153","359","0.5","0.5","2","3","",""
"animation","149","151541","0.0-5.0-2.72","5d42abf3c9acd700010c41df","bdp_cybrbll","Tue Mar 28 2023 14:56:18 GMT-0500 (Central Daylight Time)","416297","1","3","","","","","","","","","","153","","","","2","3","[{""stimulus"":""img/2to3/1.png"",""time"":100},{""stimulus"":""img/2to3/2.png"",""time"":199},{""stimulus"":""img/2to3/3.png"",""time"":297},{""stimulus"":""img/2to3/4.png"",""time"":396},{""stimulus"":""img/2to3/5.png"",""time"":495},{""stimulus"":""img/2to3/6.png"",""time"":594},{""stimulus"":""img/2to3/7.png"",""time"":694},{""stimulus"":""img/2to3/8.png"",""time"":793},{""stimulus"":""img/2to3/9.png"",""time"":891},{""stimulus"":""img/2to3/10.png"",""time"":991},{""stimulus"":""img/2to3/11.png"",""time"":1090},{""stimulus"":""img/2to3/12.png"",""time"":1188}]","[]"
"image-keyboard-response","150","151840","0.0-5.0-1.73","5d42abf3c9acd700010c41df","bdp_cybrbll","Tue Mar 28 2023 14:56:18 GMT-0500 (Central Daylight Time)","416297","1","3","","null","","","","observe","","img/3to2/1.png","null","152","298","0.5","0.5","3","2","",""
"animation","151","153129","0.0-5.0-2.73","5d42abf3c9acd700010c41df","bdp_cybrbll","Tue Mar 28 2023 14:56:18 GMT-0500 (Central Daylight Time)","416297","1","3","","","","","","","","","","152","","","","3","2","[{""stimulus"":""img/3to2/1.png"",""time"":100},{""stimulus"":""img/3to2/2.png"",""time"":198},{""stimulus"":""img/3to2/3.png"",""time"":298},{""stimulus"":""img/3to2/4.png"",""time"":397},{""stimulus"":""img/3to2/5.png"",""time"":497},{""stimulus"":""img/3to2/6.png"",""time"":595},{""stimulus"":""img/3to2/7.png"",""time"":694},{""stimulus"":""img/3to2/8.png"",""time"":793},{""stimulus"":""img/3to2/9.png"",""time"":891},{""stimulus"":""img/3to2/10.png"",""time"":992},{""stimulus"":""img/3to2/11.png"",""time"":1089},{""stimulus"":""img/3to2/12.png"",""time"":1189}]","[]"
"image-keyboard-response","152","153130","0.0-5.0-1.74","5d42abf3c9acd700010c41df","bdp_cybrbll","Tue Mar 28 2023 14:56:18 GMT-0500 (Central Daylight Time)","416297","1","3","","0","","","","choice","","img/2to1/1.png","1","151","402","0.5","0.5","2","1","",""
"animation","153","154419","0.0-5.0-2.74","5d42abf3c9acd700010c41df","bdp_cybrbll","Tue Mar 28 2023 14:56:18 GMT-0500 (Central Daylight Time)","416297","1","3","","","","","","","","","","151","","","","2","1","[{""stimulus"":""img/2to1/1.png"",""time"":101},{""stimulus"":""img/2to1/2.png"",""time"":200},{""stimulus"":""img/2to1/3.png"",""time"":298},{""stimulus"":""img/2to1/4.png"",""time"":397},{""stimulus"":""img/2to1/5.png"",""time"":495},{""stimulus"":""img/2to1/6.png"",""time"":595},{""stimulus"":""img/2to1/7.png"",""time"":695},{""stimulus"":""img/2to1/8.png"",""time"":793},{""stimulus"":""img/2to1/9.png"",""time"":893},{""stimulus"":""img/2to1/10.png"",""time"":991},{""stimulus"":""img/2to1/11.png"",""time"":1090},{""stimulus"":""img/2to1/12.png"",""time"":1189}]","[]"
"image-keyboard-response","154","154754","0.0-5.0-1.75","5d42abf3c9acd700010c41df","bdp_cybrbll","Tue Mar 28 2023 14:56:18 GMT-0500 (Central Daylight Time)","416297","1","3","","null","","","","observe","","img/1to3/1.png","null","150","325","0.5","0.5","1","3","",""
"animation","155","156041","0.0-5.0-2.75","5d42abf3c9acd700010c41df","bdp_cybrbll","Tue Mar 28 2023 14:56:18 GMT-0500 (Central Daylight Time)","416297","1","3","","","","","","","","","","150","","","","1","3","[{""stimulus"":""img/1to3/1.png"",""time"":99},{""stimulus"":""img/1to3/2.png"",""time"":199},{""stimulus"":""img/1to3/3.png"",""time"":298},{""stimulus"":""img/1to3/4.png"",""time"":410},{""stimulus"":""img/1to3/5.png"",""time"":496},{""stimulus"":""img/1to3/6.png"",""time"":595},{""stimulus"":""img/1to3/7.png"",""time"":702},{""stimulus"":""img/1to3/8.png"",""time"":793},{""stimulus"":""img/1to3/9.png"",""time"":892},{""stimulus"":""img/1to3/10.png"",""time"":991},{""stimulus"":""img/1to3/11.png"",""time"":1090},{""stimulus"":""img/1to3/12.png"",""time"":1189}]","[]"
"image-keyboard-response","156","156618","0.0-5.0-1.76","5d42abf3c9acd700010c41df","bdp_cybrbll","Tue Mar 28 2023 14:56:18 GMT-0500 (Central Daylight Time)","416297","1","3","","null","","","","observe","","img/3to2/1.png","null","149","575","0.5","0.1","3","1","",""
"animation","157","157907","0.0-5.0-2.76","5d42abf3c9acd700010c41df","bdp_cybrbll","Tue Mar 28 2023 14:56:18 GMT-0500 (Central Daylight Time)","416297","1","3","","","","","","","","","","149","","","","3","1","[{""stimulus"":""img/3to1/1.png"",""time"":100},{""stimulus"":""img/3to1/2.png"",""time"":199},{""stimulus"":""img/3to1/3.png"",""time"":298},{""stimulus"":""img/3to1/4.png"",""time"":396},{""stimulus"":""img/3to1/5.png"",""time"":496},{""stimulus"":""img/3to1/6.png"",""time"":595},{""stimulus"":""img/3to1/7.png"",""time"":694},{""stimulus"":""img/3to1/8.png"",""time"":793},{""stimulus"":""img/3to1/9.png"",""time"":892},{""stimulus"":""img/3to1/10.png"",""time"":990},{""stimulus"":""img/3to1/11.png"",""time"":1090},{""stimulus"":""img/3to1/12.png"",""time"":1188}]","[]"
"image-keyboard-response","158","158161","0.0-5.0-1.77","5d42abf3c9acd700010c41df","bdp_cybrbll","Tue Mar 28 2023 14:56:18 GMT-0500 (Central Daylight Time)","416297","1","3","","null","","","","observe","","img/1to3/1.png","null","148","253","0.5","0.1","1","2","",""
"animation","159","159450","0.0-5.0-2.77","5d42abf3c9acd700010c41df","bdp_cybrbll","Tue Mar 28 2023 14:56:18 GMT-0500 (Central Daylight Time)","416297","1","3","","","","","","","","","","148","","","","1","2","[{""stimulus"":""img/1to2/1.png"",""time"":101},{""stimulus"":""img/1to2/2.png"",""time"":200},{""stimulus"":""img/1to2/3.png"",""time"":299},{""stimulus"":""img/1to2/4.png"",""time"":398},{""stimulus"":""img/1to2/5.png"",""time"":496},{""stimulus"":""img/1to2/6.png"",""time"":595},{""stimulus"":""img/1to2/7.png"",""time"":695},{""stimulus"":""img/1to2/8.png"",""time"":793},{""stimulus"":""img/1to2/9.png"",""time"":893},{""stimulus"":""img/1to2/10.png"",""time"":991},{""stimulus"":""img/1to2/11.png"",""time"":1091},{""stimulus"":""img/1to2/12.png"",""time"":1189}]","[]"
"image-keyboard-response","160","159515","0.0-5.0-1.78","5d42abf3c9acd700010c41df","bdp_cybrbll","Tue Mar 28 2023 14:56:18 GMT-0500 (Central Daylight Time)","416297","1","3","","64","","","","choice","","img/2to1/1.png","1","147","527","0.5","0.1","2","1","",""
"animation","161","160803","0.0-5.0-2.78","5d42abf3c9acd700010c41df","bdp_cybrbll","Tue Mar 28 2023 14:56:18 GMT-0500 (Central Daylight Time)","416297","1","3","","","","","","","","","","147","","","","2","1","[{""stimulus"":""img/2to1/1.png"",""time"":100},{""stimulus"":""img/2to1/2.png"",""time"":199},{""stimulus"":""img/2to1/3.png"",""time"":299},{""stimulus"":""img/2to1/4.png"",""time"":397},{""stimulus"":""img/2to1/5.png"",""time"":496},{""stimulus"":""img/2to1/6.png"",""time"":595},{""stimulus"":""img/2to1/7.png"",""time"":695},{""stimulus"":""img/2to1/8.png"",""time"":793},{""stimulus"":""img/2to1/9.png"",""time"":892},{""stimulus"":""img/2to1/10.png"",""time"":991},{""stimulus"":""img/2to1/11.png"",""time"":1090},{""stimulus"":""img/2to1/12.png"",""time"":1189}]","[]"
"image-keyboard-response","162","161228","0.0-5.0-1.79","5d42abf3c9acd700010c41df","bdp_cybrbll","Tue Mar 28 2023 14:56:18 GMT-0500 (Central Daylight Time)","416297","1","3","","null","","","","observe","","img/1to3/1.png","null","146","422","0.5","0.1","1","3","",""
"animation","163","162516","0.0-5.0-2.79","5d42abf3c9acd700010c41df","bdp_cybrbll","Tue Mar 28 2023 14:56:18 GMT-0500 (Central Daylight Time)","416297","1","3","","","","","","","","","","146","","","","1","3","[{""stimulus"":""img/1to3/1.png"",""time"":100},{""stimulus"":""img/1to3/2.png"",""time"":199},{""stimulus"":""img/1to3/3.png"",""time"":298},{""stimulus"":""img/1to3/4.png"",""time"":397},{""stimulus"":""img/1to3/5.png"",""time"":496},{""stimulus"":""img/1to3/6.png"",""time"":594},{""stimulus"":""img/1to3/7.png"",""time"":694},{""stimulus"":""img/1to3/8.png"",""time"":793},{""stimulus"":""img/1to3/9.png"",""time"":892},{""stimulus"":""img/1to3/10.png"",""time"":990},{""stimulus"":""img/1to3/11.png"",""time"":1090},{""stimulus"":""img/1to3/12.png"",""time"":1188}]","[]"
"image-keyboard-response","164","162826","0.0-5.0-1.80","5d42abf3c9acd700010c41df","bdp_cybrbll","Tue Mar 28 2023 14:56:18 GMT-0500 (Central Daylight Time)","416297","1","3","","null","","","","observe","","img/3to2/1.png","null","145","305","0.5","0.1","3","1","",""
"animation","165","164114","0.0-5.0-2.80","5d42abf3c9acd700010c41df","bdp_cybrbll","Tue Mar 28 2023 14:56:18 GMT-0500 (Central Daylight Time)","416297","1","3","","","","","","","","","","145","","","","3","1","[{""stimulus"":""img/3to1/1.png"",""time"":102},{""stimulus"":""img/3to1/2.png"",""time"":199},{""stimulus"":""img/3to1/3.png"",""time"":298},{""stimulus"":""img/3to1/4.png"",""time"":399},{""stimulus"":""img/3to1/5.png"",""time"":496},{""stimulus"":""img/3to1/6.png"",""time"":595},{""stimulus"":""img/3to1/7.png"",""time"":695},{""stimulus"":""img/3to1/8.png"",""time"":794},{""stimulus"":""img/3to1/9.png"",""time"":892},{""stimulus"":""img/3to1/10.png"",""time"":992},{""stimulus"":""img/3to1/11.png"",""time"":1091},{""stimulus"":""img/3to1/12.png"",""time"":1190}]","[]"
"image-keyboard-response","166","164891","0.0-5.0-1.81","5d42abf3c9acd700010c41df","bdp_cybrbll","Tue Mar 28 2023 14:56:18 GMT-0500 (Central Daylight Time)","416297","1","3","","null","","","","observe","","img/1to3/1.png","null","144","776","0.5","0.1","1","2","",""
"animation","167","166179","0.0-5.0-2.81","5d42abf3c9acd700010c41df","bdp_cybrbll","Tue Mar 28 2023 14:56:18 GMT-0500 (Central Daylight Time)","416297","1","3","","","","","","","","","","144","","","","1","2","[{""stimulus"":""img/1to2/1.png"",""time"":101},{""stimulus"":""img/1to2/2.png"",""time"":199},{""stimulus"":""img/1to2/3.png"",""time"":298},{""stimulus"":""img/1to2/4.png"",""time"":398},{""stimulus"":""img/1to2/5.png"",""time"":497},{""stimulus"":""img/1to2/6.png"",""time"":595},{""stimulus"":""img/1to2/7.png"",""time"":694},{""stimulus"":""img/1to2/8.png"",""time"":794},{""stimulus"":""img/1to2/9.png"",""time"":892},{""stimulus"":""img/1to2/10.png"",""time"":991},{""stimulus"":""img/1to2/11.png"",""time"":1090},{""stimulus"":""img/1to2/12.png"",""time"":1190}]","[]"
"image-keyboard-response","168","166291","0.0-5.0-1.82","5d42abf3c9acd700010c41df","bdp_cybrbll","Tue Mar 28 2023 14:56:18 GMT-0500 (Central Daylight Time)","416297","1","3","","112","","","","choice","","img/2to1/1.png","2","143","1150","0.5","0.1","2","3","",""
"animation","169","167578","0.0-5.0-2.82","5d42abf3c9acd700010c41df","bdp_cybrbll","Tue Mar 28 2023 14:56:18 GMT-0500 (Central Daylight Time)","416297","1","3","","","","","","","","","","143","","","","2","3","[{""stimulus"":""img/2to3/1.png"",""time"":100},{""stimulus"":""img/2to3/2.png"",""time"":205},{""stimulus"":""img/2to3/3.png"",""time"":299},{""stimulus"":""img/2to3/4.png"",""time"":397},{""stimulus"":""img/2to3/5.png"",""time"":496},{""stimulus"":""img/2to3/6.png"",""time"":595},{""stimulus"":""img/2to3/7.png"",""time"":694},{""stimulus"":""img/2to3/8.png"",""time"":794},{""stimulus"":""img/2to3/9.png"",""time"":891},{""stimulus"":""img/2to3/10.png"",""time"":991},{""stimulus"":""img/2to3/11.png"",""time"":1090},{""stimulus"":""img/2to3/12.png"",""time"":1188}]","[]"
"image-keyboard-response","170","167871","0.0-5.0-1.83","5d42abf3c9acd700010c41df","bdp_cybrbll","Tue Mar 28 2023 14:56:18 GMT-0500 (Central Daylight Time)","416297","1","3","","null","","","","observe","","img/3to2/1.png","null","142","291","0.5","0.1","3","1","",""
"animation","171","169158","0.0-5.0-2.83","5d42abf3c9acd700010c41df","bdp_cybrbll","Tue Mar 28 2023 14:56:18 GMT-0500 (Central Daylight Time)","416297","1","3","","","","","","","","","","142","","","","3","1","[{""stimulus"":""img/3to1/1.png"",""time"":101},{""stimulus"":""img/3to1/2.png"",""time"":200},{""stimulus"":""img/3to1/3.png"",""time"":299},{""stimulus"":""img/3to1/4.png"",""time"":397},{""stimulus"":""img/3to1/5.png"",""time"":496},{""stimulus"":""img/3to1/6.png"",""time"":595},{""stimulus"":""img/3to1/7.png"",""time"":694},{""stimulus"":""img/3to1/8.png"",""time"":793},{""stimulus"":""img/3to1/9.png"",""time"":892},{""stimulus"":""img/3to1/10.png"",""time"":991},{""stimulus"":""img/3to1/11.png"",""time"":1090},{""stimulus"":""img/3to1/12.png"",""time"":1188}]","[]"
"image-keyboard-response","172","169458","0.0-5.0-1.84","5d42abf3c9acd700010c41df","bdp_cybrbll","Tue Mar 28 2023 14:56:18 GMT-0500 (Central Daylight Time)","416297","1","3","","null","","","","observe","","img/1to3/1.png","null","141","298","0.5","0.1","1","3","",""
"animation","173","170746","0.0-5.0-2.84","5d42abf3c9acd700010c41df","bdp_cybrbll","Tue Mar 28 2023 14:56:18 GMT-0500 (Central Daylight Time)","416297","1","3","","","","","","","","","","141","","","","1","3","[{""stimulus"":""img/1to3/1.png"",""time"":102},{""stimulus"":""img/1to3/2.png"",""time"":199},{""stimulus"":""img/1to3/3.png"",""time"":299},{""stimulus"":""img/1to3/4.png"",""time"":398},{""stimulus"":""img/1to3/5.png"",""time"":495},{""stimulus"":""img/1to3/6.png"",""time"":595},{""stimulus"":""img/1to3/7.png"",""time"":694},{""stimulus"":""img/1to3/8.png"",""time"":793},{""stimulus"":""img/1to3/9.png"",""time"":892},{""stimulus"":""img/1to3/10.png"",""time"":991},{""stimulus"":""img/1to3/11.png"",""time"":1091},{""stimulus"":""img/1to3/12.png"",""time"":1189}]","[]"
"image-keyboard-response","174","171057","0.0-5.0-1.85","5d42abf3c9acd700010c41df","bdp_cybrbll","Tue Mar 28 2023 14:56:18 GMT-0500 (Central Daylight Time)","416297","1","3","","null","","","","observe","","img/3to2/1.png","null","140","309","0.5","0.1","3","1","",""
"animation","175","172345","0.0-5.0-2.85","5d42abf3c9acd700010c41df","bdp_cybrbll","Tue Mar 28 2023 14:56:18 GMT-0500 (Central Daylight Time)","416297","1","3","","","","","","","","","","140","","","","3","1","[{""stimulus"":""img/3to1/1.png"",""time"":101},{""stimulus"":""img/3to1/2.png"",""time"":199},{""stimulus"":""img/3to1/3.png"",""time"":298},{""stimulus"":""img/3to1/4.png"",""time"":398},{""stimulus"":""img/3to1/5.png"",""time"":496},{""stimulus"":""img/3to1/6.png"",""time"":596},{""stimulus"":""img/3to1/7.png"",""time"":694},{""stimulus"":""img/3to1/8.png"",""time"":793},{""stimulus"":""img/3to1/9.png"",""time"":892},{""stimulus"":""img/3to1/10.png"",""time"":992},{""stimulus"":""img/3to1/11.png"",""time"":1105},{""stimulus"":""img/3to1/12.png"",""time"":1189}]","[]"
"image-keyboard-response","176","172569","0.0-5.0-1.86","5d42abf3c9acd700010c41df","bdp_cybrbll","Tue Mar 28 2023 14:56:18 GMT-0500 (Central Daylight Time)","416297","1","3","","null","","","","observe","","img/1to3/1.png","null","139","222","0.5","0.1","1","3","",""
"animation","177","173857","0.0-5.0-2.86","5d42abf3c9acd700010c41df","bdp_cybrbll","Tue Mar 28 2023 14:56:18 GMT-0500 (Central Daylight Time)","416297","1","3","","","","","","","","","","139","","","","1","3","[{""stimulus"":""img/1to3/1.png"",""time"":100},{""stimulus"":""img/1to3/2.png"",""time"":200},{""stimulus"":""img/1to3/3.png"",""time"":299},{""stimulus"":""img/1to3/4.png"",""time"":398},{""stimulus"":""img/1to3/5.png"",""time"":496},{""stimulus"":""img/1to3/6.png"",""time"":596},{""stimulus"":""img/1to3/7.png"",""time"":696},{""stimulus"":""img/1to3/8.png"",""time"":794},{""stimulus"":""img/1to3/9.png"",""time"":893},{""stimulus"":""img/1to3/10.png"",""time"":991},{""stimulus"":""img/1to3/11.png"",""time"":1090},{""stimulus"":""img/1to3/12.png"",""time"":1189}]","[]"
"image-keyboard-response","178","174300","0.0-5.0-1.87","5d42abf3c9acd700010c41df","bdp_cybrbll","Tue Mar 28 2023 14:56:18 GMT-0500 (Central Daylight Time)","416297","1","3","","null","","","","observe","","img/3to2/1.png","null","138","442","0.5","0.1","3","1","",""
"animation","179","175589","0.0-5.0-2.87","5d42abf3c9acd700010c41df","bdp_cybrbll","Tue Mar 28 2023 14:56:18 GMT-0500 (Central Daylight Time)","416297","1","3","","","","","","","","","","138","","","","3","1","[{""stimulus"":""img/3to1/1.png"",""time"":100},{""stimulus"":""img/3to1/2.png"",""time"":199},{""stimulus"":""img/3to1/3.png"",""time"":298},{""stimulus"":""img/3to1/4.png"",""time"":398},{""stimulus"":""img/3to1/5.png"",""time"":495},{""stimulus"":""img/3to1/6.png"",""time"":595},{""stimulus"":""img/3to1/7.png"",""time"":693},{""stimulus"":""img/3to1/8.png"",""time"":793},{""stimulus"":""img/3to1/9.png"",""time"":891},{""stimulus"":""img/3to1/10.png"",""time"":991},{""stimulus"":""img/3to1/11.png"",""time"":1089},{""stimulus"":""img/3to1/12.png"",""time"":1188}]","[]"
"image-keyboard-response","180","176086","0.0-5.0-1.88","5d42abf3c9acd700010c41df","bdp_cybrbll","Tue Mar 28 2023 14:56:18 GMT-0500 (Central Daylight Time)","416297","1","3","","null","","","","observe","","img/1to3/1.png","null","137","496","0.5","0.1","1","2","",""
"animation","181","177374","0.0-5.0-2.88","5d42abf3c9acd700010c41df","bdp_cybrbll","Tue Mar 28 2023 14:56:18 GMT-0500 (Central Daylight Time)","416297","1","3","","","","","","","","","","137","","","","1","2","[{""stimulus"":""img/1to2/1.png"",""time"":100},{""stimulus"":""img/1to2/2.png"",""time"":199},{""stimulus"":""img/1to2/3.png"",""time"":298},{""stimulus"":""img/1to2/4.png"",""time"":397},{""stimulus"":""img/1to2/5.png"",""time"":496},{""stimulus"":""img/1to2/6.png"",""time"":596},{""stimulus"":""img/1to2/7.png"",""time"":694},{""stimulus"":""img/1to2/8.png"",""time"":792},{""stimulus"":""img/1to2/9.png"",""time"":892},{""stimulus"":""img/1to2/10.png"",""time"":991},{""stimulus"":""img/1to2/11.png"",""time"":1090},{""stimulus"":""img/1to2/12.png"",""time"":1188}]","[]"
"image-keyboard-response","182","177581","0.0-5.0-1.89","5d42abf3c9acd700010c41df","bdp_cybrbll","Tue Mar 28 2023 14:56:18 GMT-0500 (Central Daylight Time)","416297","1","3","","206","","","","choice","","img/2to1/1.png","1","136","393","0.5","0.1","2","1","",""
"animation","183","178869","0.0-5.0-2.89","5d42abf3c9acd700010c41df","bdp_cybrbll","Tue Mar 28 2023 14:56:18 GMT-0500 (Central Daylight Time)","416297","1","3","","","","","","","","","","136","","","","2","1","[{""stimulus"":""img/2to1/1.png"",""time"":101},{""stimulus"":""img/2to1/2.png"",""time"":199},{""stimulus"":""img/2to1/3.png"",""time"":298},{""stimulus"":""img/2to1/4.png"",""time"":397},{""stimulus"":""img/2to1/5.png"",""time"":496},{""stimulus"":""img/2to1/6.png"",""time"":594},{""stimulus"":""img/2to1/7.png"",""time"":693},{""stimulus"":""img/2to1/8.png"",""time"":793},{""stimulus"":""img/2to1/9.png"",""time"":893},{""stimulus"":""img/2to1/10.png"",""time"":991},{""stimulus"":""img/2to1/11.png"",""time"":1090},{""stimulus"":""img/2to1/12.png"",""time"":1189}]","[]"
"image-keyboard-response","184","179652","0.0-5.0-1.90","5d42abf3c9acd700010c41df","bdp_cybrbll","Tue Mar 28 2023 14:56:18 GMT-0500 (Central Daylight Time)","416297","1","3","","null","","","","observe","","img/1to3/1.png","null","135","779","0.5","0.1","1","3","",""
"animation","185","180941","0.0-5.0-2.90","5d42abf3c9acd700010c41df","bdp_cybrbll","Tue Mar 28 2023 14:56:18 GMT-0500 (Central Daylight Time)","416297","1","3","","","","","","","","","","135","","","","1","3","[{""stimulus"":""img/1to3/1.png"",""time"":101},{""stimulus"":""img/1to3/2.png"",""time"":200},{""stimulus"":""img/1to3/3.png"",""time"":299},{""stimulus"":""img/1to3/4.png"",""time"":398},{""stimulus"":""img/1to3/5.png"",""time"":497},{""stimulus"":""img/1to3/6.png"",""time"":596},{""stimulus"":""img/1to3/7.png"",""time"":694},{""stimulus"":""img/1to3/8.png"",""time"":794},{""stimulus"":""img/1to3/9.png"",""time"":892},{""stimulus"":""img/1to3/10.png"",""time"":992},{""stimulus"":""img/1to3/11.png"",""time"":1090},{""stimulus"":""img/1to3/12.png"",""time"":1189}]","[]"
"image-keyboard-response","186","182502","0.0-5.0-1.91","5d42abf3c9acd700010c41df","bdp_cybrbll","Tue Mar 28 2023 14:56:18 GMT-0500 (Central Daylight Time)","416297","1","3","","null","","","","observe","","img/3to2/1.png","null","134","1560","0.5","0.1","3","1","",""
"animation","187","183790","0.0-5.0-2.91","5d42abf3c9acd700010c41df","bdp_cybrbll","Tue Mar 28 2023 14:56:18 GMT-0500 (Central Daylight Time)","416297","1","3","","","","","","","","","","134","","","","3","1","[{""stimulus"":""img/3to1/1.png"",""time"":100},{""stimulus"":""img/3to1/2.png"",""time"":198},{""stimulus"":""img/3to1/3.png"",""time"":298},{""stimulus"":""img/3to1/4.png"",""time"":396},{""stimulus"":""img/3to1/5.png"",""time"":496},{""stimulus"":""img/3to1/6.png"",""time"":595},{""stimulus"":""img/3to1/7.png"",""time"":695},{""stimulus"":""img/3to1/8.png"",""time"":792},{""stimulus"":""img/3to1/9.png"",""time"":892},{""stimulus"":""img/3to1/10.png"",""time"":990},{""stimulus"":""img/3to1/11.png"",""time"":1090},{""stimulus"":""img/3to1/12.png"",""time"":1188}]","[]"
"image-keyboard-response","188","184511","0.0-5.0-1.92","5d42abf3c9acd700010c41df","bdp_cybrbll","Tue Mar 28 2023 14:56:18 GMT-0500 (Central Daylight Time)","416297","1","3","","null","","","","observe","","img/1to3/1.png","null","133","720","0.5","0.1","1","3","",""
"animation","189","185798","0.0-5.0-2.92","5d42abf3c9acd700010c41df","bdp_cybrbll","Tue Mar 28 2023 14:56:18 GMT-0500 (Central Daylight Time)","416297","1","3","","","","","","","","","","133","","","","1","3","[{""stimulus"":""img/1to3/1.png"",""time"":101},{""stimulus"":""img/1to3/2.png"",""time"":198},{""stimulus"":""img/1to3/3.png"",""time"":298},{""stimulus"":""img/1to3/4.png"",""time"":397},{""stimulus"":""img/1to3/5.png"",""time"":496},{""stimulus"":""img/1to3/6.png"",""time"":595},{""stimulus"":""img/1to3/7.png"",""time"":694},{""stimulus"":""img/1to3/8.png"",""time"":792},{""stimulus"":""img/1to3/9.png"",""time"":891},{""stimulus"":""img/1to3/10.png"",""time"":990},{""stimulus"":""img/1to3/11.png"",""time"":1089},{""stimulus"":""img/1to3/12.png"",""time"":1189}]","[]"
"image-keyboard-response","190","186232","0.0-5.0-1.93","5d42abf3c9acd700010c41df","bdp_cybrbll","Tue Mar 28 2023 14:56:18 GMT-0500 (Central Daylight Time)","416297","1","3","","null","","","","observe","","img/3to2/1.png","null","132","433","0.5","0.1","3","1","",""
