"trial_type","trial_index","time_elapsed","internal_node_id","subject_id","task","startTime","totalTime","fairPartner","unfairPartner","view_history","rt","event","trial","time","trialtype","success","stimulus","key_press","throwsLeft","rtDur","pFair","pUnfair","holder","receiver","animation_sequence","responses"
"pavlovia","0","2","0.0-0.0","6400de8f305c51d03c2a9a0e","bdp_cybrbll","Sat Mar 25 2023 16:23:19 GMT-0400 (Eastern Daylight Time)","459305","3","1","","","","","","","","","","","","","","","","",""
"instructions","1","9218","0.0-1.0","6400de8f305c51d03c2a9a0e","bdp_cybrbll","Sat Mar 25 2023 16:23:19 GMT-0400 (Eastern Daylight Time)","459305","3","1","[{""page_index"":0,""viewing_time"":9216}]","9216","","","","","","","","","","","","","","",""
"","","","","6400de8f305c51d03c2a9a0e","bdp_cybrbll","Sat Mar 25 2023 16:23:19 GMT-0400 (Eastern Daylight Time)","459305","3","1","","","fullscreenenter","2","12304","fullscreenenter","","","","","","","","","","",""
"fullscreen","2","13304","0.0-2.0","6400de8f305c51d03c2a9a0e","bdp_cybrbll","Sat Mar 25 2023 16:23:19 GMT-0400 (Eastern Daylight Time)","459305","3","1","","","","","","","true","","","","","","","","","",""
"instructions","3","49244","0.0-4.0","6400de8f305c51d03c2a9a0e","bdp_cybrbll","Sat Mar 25 2023 16:23:19 GMT-0400 (Eastern Daylight Time)","459305","3","1","[{""page_index"":0,""viewing_time"":35940}]","35940","","","","","","","","","","","","","","",""
"image-keyboard-response","4","50480","0.0-5.0-1.0","6400de8f305c51d03c2a9a0e","bdp_cybrbll","Sat Mar 25 2023 16:23:19 GMT-0400 (Eastern Daylight Time)","459305","3","1","","1236","","","","choice","","img/2to1/1.png","1","225","923","0.5","0.5","2","1","",""
"animation","5","51773","0.0-5.0-2.0","6400de8f305c51d03c2a9a0e","bdp_cybrbll","Sat Mar 25 2023 16:23:19 GMT-0400 (Eastern Daylight Time)","459305","3","1","","","","","","","","","","225","","","","2","1","[{""stimulus"":""img/2to1/1.png"",""time"":111},{""stimulus"":""img/2to1/2.png"",""time"":204},{""stimulus"":""img/2to1/3.png"",""time"":298},{""stimulus"":""img/2to1/4.png"",""time"":406},{""stimulus"":""img/2to1/5.png"",""time"":496},{""stimulus"":""img/2to1/6.png"",""time"":605},{""stimulus"":""img/2to1/7.png"",""time"":699},{""stimulus"":""img/2to1/8.png"",""time"":807},{""stimulus"":""img/2to1/9.png"",""time"":891},{""stimulus"":""img/2to1/10.png"",""time"":993},{""stimulus"":""img/2to1/11.png"",""time"":1105},{""stimulus"":""img/2to1/12.png"",""time"":1189}]","[]"
"image-keyboard-response","6","52194","0.0-5.0-1.1","6400de8f305c51d03c2a9a0e","bdp_cybrbll","Sat Mar 25 2023 16:23:19 GMT-0400 (Eastern Daylight Time)","459305","3","1","","null","","","","observe","","img/1to3/1.png","null","224","416","0.5","0.5","1","2","",""
"animation","7","53493","0.0-5.0-2.1","6400de8f305c51d03c2a9a0e","bdp_cybrbll","Sat Mar 25 2023 16:23:19 GMT-0400 (Eastern Daylight Time)","459305","3","1","","","","","","","","","","224","","","","1","2","[{""stimulus"":""img/1to2/1.png"",""time"":110},{""stimulus"":""img/1to2/2.png"",""time"":210},{""stimulus"":""img/1to2/3.png"",""time"":303},{""stimulus"":""img/1to2/4.png"",""time"":397},{""stimulus"":""img/1to2/5.png"",""time"":505},{""stimulus"":""img/1to2/6.png"",""time"":599},{""stimulus"":""img/1to2/7.png"",""time"":708},{""stimulus"":""img/1to2/8.png"",""time"":801},{""stimulus"":""img/1to2/9.png"",""time"":892},{""stimulus"":""img/1to2/10.png"",""time"":992},{""stimulus"":""img/1to2/11.png"",""time"":1097},{""stimulus"":""img/1to2/12.png"",""time"":1191}]","[]"
"image-keyboard-response","8","53569","0.0-5.0-1.2","6400de8f305c51d03c2a9a0e","bdp_cybrbll","Sat Mar 25 2023 16:23:19 GMT-0400 (Eastern Daylight Time)","459305","3","1","","76","","","","choice","","img/2to1/1.png","2","223","239","0.5","0.5","2","3","",""
"animation","9","54868","0.0-5.0-2.2","6400de8f305c51d03c2a9a0e","bdp_cybrbll","Sat Mar 25 2023 16:23:19 GMT-0400 (Eastern Daylight Time)","459305","3","1","","","","","","","","","","223","","","","2","3","[{""stimulus"":""img/2to3/1.png"",""time"":113},{""stimulus"":""img/2to3/2.png"",""time"":205},{""stimulus"":""img/2to3/3.png"",""time"":300},{""stimulus"":""img/2to3/4.png"",""time"":410},{""stimulus"":""img/2to3/5.png"",""time"":503},{""stimulus"":""img/2to3/6.png"",""time"":610},{""stimulus"":""img/2to3/7.png"",""time"":704},{""stimulus"":""img/2to3/8.png"",""time"":793},{""stimulus"":""img/2to3/9.png"",""time"":893},{""stimulus"":""img/2to3/10.png"",""time"":1003},{""stimulus"":""img/2to3/11.png"",""time"":1096},{""stimulus"":""img/2to3/12.png"",""time"":1190}]","[]"
"image-keyboard-response","10","55371","0.0-5.0-1.3","6400de8f305c51d03c2a9a0e","bdp_cybrbll","Sat Mar 25 2023 16:23:19 GMT-0400 (Eastern Daylight Time)","459305","3","1","","null","","","","observe","","img/3to2/1.png","null","222","499","0.5","0.5","3","1","",""
"animation","11","56665","0.0-5.0-2.3","6400de8f305c51d03c2a9a0e","bdp_cybrbll","Sat Mar 25 2023 16:23:19 GMT-0400 (Eastern Daylight Time)","459305","3","1","","","","","","","","","","222","","","","3","1","[{""stimulus"":""img/3to1/1.png"",""time"":109},{""stimulus"":""img/3to1/2.png"",""time"":205},{""stimulus"":""img/3to1/3.png"",""time"":307},{""stimulus"":""img/3to1/4.png"",""time"":401},{""stimulus"":""img/3to1/5.png"",""time"":497},{""stimulus"":""img/3to1/6.png"",""time"":594},{""stimulus"":""img/3to1/7.png"",""time"":703},{""stimulus"":""img/3to1/8.png"",""time"":795},{""stimulus"":""img/3to1/9.png"",""time"":891},{""stimulus"":""img/3to1/10.png"",""time"":997},{""stimulus"":""img/3to1/11.png"",""time"":1091},{""stimulus"":""img/3to1/12.png"",""time"":1201}]","[]"
"image-keyboard-response","12","57871","0.0-5.0-1.4","6400de8f305c51d03c2a9a0e","bdp_cybrbll","Sat Mar 25 2023 16:23:19 GMT-0400 (Eastern Daylight Time)","459305","3","1","","null","","","","observe","","img/1to3/1.png","null","221","1204","0.5","0.5","1","2","",""
"animation","13","59159","0.0-5.0-2.4","6400de8f305c51d03c2a9a0e","bdp_cybrbll","Sat Mar 25 2023 16:23:19 GMT-0400 (Eastern Daylight Time)","459305","3","1","","","","","","","","","","221","","","","1","2","[{""stimulus"":""img/1to2/1.png"",""time"":111},{""stimulus"":""img/1to2/2.png"",""time"":205},{""stimulus"":""img/1to2/3.png"",""time"":298},{""stimulus"":""img/1to2/4.png"",""time"":408},{""stimulus"":""img/1to2/5.png"",""time"":500},{""stimulus"":""img/1to2/6.png"",""time"":594},{""stimulus"":""img/1to2/7.png"",""time"":703},{""stimulus"":""img/1to2/8.png"",""time"":798},{""stimulus"":""img/1to2/9.png"",""time"":891},{""stimulus"":""img/1to2/10.png"",""time"":996},{""stimulus"":""img/1to2/11.png"",""time"":1093},{""stimulus"":""img/1to2/12.png"",""time"":1203}]","[]"
"image-keyboard-response","14","59636","0.0-5.0-1.5","6400de8f305c51d03c2a9a0e","bdp_cybrbll","Sat Mar 25 2023 16:23:19 GMT-0400 (Eastern Daylight Time)","459305","3","1","","476","","","","choice","","img/2to1/1.png","2","220","489","0.5","0.5","2","3","",""
"animation","15","60937","0.0-5.0-2.5","6400de8f305c51d03c2a9a0e","bdp_cybrbll","Sat Mar 25 2023 16:23:19 GMT-0400 (Eastern Daylight Time)","459305","3","1","","","","","","","","","","220","","","","2","3","[{""stimulus"":""img/2to3/1.png"",""time"":110},{""stimulus"":""img/2to3/2.png"",""time"":204},{""stimulus"":""img/2to3/3.png"",""time"":313},{""stimulus"":""img/2to3/4.png"",""time"":406},{""stimulus"":""img/2to3/5.png"",""time"":501},{""stimulus"":""img/2to3/6.png"",""time"":609},{""stimulus"":""img/2to3/7.png"",""time"":703},{""stimulus"":""img/2to3/8.png"",""time"":796},{""stimulus"":""img/2to3/9.png"",""time"":906},{""stimulus"":""img/2to3/10.png"",""time"":1000},{""stimulus"":""img/2to3/11.png"",""time"":1096},{""stimulus"":""img/2to3/12.png"",""time"":1189}]","[]"
"image-keyboard-response","16","61485","0.0-5.0-1.6","6400de8f305c51d03c2a9a0e","bdp_cybrbll","Sat Mar 25 2023 16:23:19 GMT-0400 (Eastern Daylight Time)","459305","3","1","","null","","","","observe","","img/3to2/1.png","null","219","538","0.5","0.5","3","2","",""
"animation","17","62773","0.0-5.0-2.6","6400de8f305c51d03c2a9a0e","bdp_cybrbll","Sat Mar 25 2023 16:23:19 GMT-0400 (Eastern Daylight Time)","459305","3","1","","","","","","","","","","219","","","","3","2","[{""stimulus"":""img/3to2/1.png"",""time"":109},{""stimulus"":""img/3to2/2.png"",""time"":203},{""stimulus"":""img/3to2/3.png"",""time"":298},{""stimulus"":""img/3to2/4.png"",""time"":403},{""stimulus"":""img/3to2/5.png"",""time"":511},{""stimulus"":""img/3to2/6.png"",""time"":605},{""stimulus"":""img/3to2/7.png"",""time"":694},{""stimulus"":""img/3to2/8.png"",""time"":808},{""stimulus"":""img/3to2/9.png"",""time"":901},{""stimulus"":""img/3to2/10.png"",""time"":994},{""stimulus"":""img/3to2/11.png"",""time"":1102},{""stimulus"":""img/3to2/12.png"",""time"":1196}]","[]"
"image-keyboard-response","18","63128","0.0-5.0-1.7","6400de8f305c51d03c2a9a0e","bdp_cybrbll","Sat Mar 25 2023 16:23:19 GMT-0400 (Eastern Daylight Time)","459305","3","1","","355","","","","choice","","img/2to1/1.png","1","218","1189","0.5","0.5","2","1","",""
"animation","19","64425","0.0-5.0-2.7","6400de8f305c51d03c2a9a0e","bdp_cybrbll","Sat Mar 25 2023 16:23:19 GMT-0400 (Eastern Daylight Time)","459305","3","1","","","","","","","","","","218","","","","2","1","[{""stimulus"":""img/2to1/1.png"",""time"":110},{""stimulus"":""img/2to1/2.png"",""time"":203},{""stimulus"":""img/2to1/3.png"",""time"":313},{""stimulus"":""img/2to1/4.png"",""time"":397},{""stimulus"":""img/2to1/5.png"",""time"":501},{""stimulus"":""img/2to1/6.png"",""time"":610},{""stimulus"":""img/2to1/7.png"",""time"":703},{""stimulus"":""img/2to1/8.png"",""time"":796},{""stimulus"":""img/2to1/9.png"",""time"":892},{""stimulus"":""img/2to1/10.png"",""time"":999},{""stimulus"":""img/2to1/11.png"",""time"":1091},{""stimulus"":""img/2to1/12.png"",""time"":1204}]","[]"
"image-keyboard-response","20","65147","0.0-5.0-1.8","6400de8f305c51d03c2a9a0e","bdp_cybrbll","Sat Mar 25 2023 16:23:19 GMT-0400 (Eastern Daylight Time)","459305","3","1","","null","","","","observe","","img/1to3/1.png","null","217","707","0.5","0.5","1","2","",""
"animation","21","66445","0.0-5.0-2.8","6400de8f305c51d03c2a9a0e","bdp_cybrbll","Sat Mar 25 2023 16:23:19 GMT-0400 (Eastern Daylight Time)","459305","3","1","","","","","","","","","","217","","","","1","2","[{""stimulus"":""img/1to2/1.png"",""time"":109},{""stimulus"":""img/1to2/2.png"",""time"":203},{""stimulus"":""img/1to2/3.png"",""time"":313},{""stimulus"":""img/1to2/4.png"",""time"":397},{""stimulus"":""img/1to2/5.png"",""time"":500},{""stimulus"":""img/1to2/6.png"",""time"":609},{""stimulus"":""img/1to2/7.png"",""time"":703},{""stimulus"":""img/1to2/8.png"",""time"":793},{""stimulus"":""img/1to2/9.png"",""time"":892},{""stimulus"":""img/1to2/10.png"",""time"":1002},{""stimulus"":""img/1to2/11.png"",""time"":1095},{""stimulus"":""img/1to2/12.png"",""time"":1190}]","[]"
"image-keyboard-response","22","66686","0.0-5.0-1.9","6400de8f305c51d03c2a9a0e","bdp_cybrbll","Sat Mar 25 2023 16:23:19 GMT-0400 (Eastern Daylight Time)","459305","3","1","","240","","","","choice","","img/2to1/1.png","2","216","197","0.5","0.5","2","3","",""
"animation","23","67989","0.0-5.0-2.9","6400de8f305c51d03c2a9a0e","bdp_cybrbll","Sat Mar 25 2023 16:23:19 GMT-0400 (Eastern Daylight Time)","459305","3","1","","","","","","","","","","216","","","","2","3","[{""stimulus"":""img/2to3/1.png"",""time"":103},{""stimulus"":""img/2to3/2.png"",""time"":212},{""stimulus"":""img/2to3/3.png"",""time"":304},{""stimulus"":""img/2to3/4.png"",""time"":399},{""stimulus"":""img/2to3/5.png"",""time"":507},{""stimulus"":""img/2to3/6.png"",""time"":600},{""stimulus"":""img/2to3/7.png"",""time"":708},{""stimulus"":""img/2to3/8.png"",""time"":803},{""stimulus"":""img/2to3/9.png"",""time"":896},{""stimulus"":""img/2to3/10.png"",""time"":1005},{""stimulus"":""img/2to3/11.png"",""time"":1100},{""stimulus"":""img/2to3/12.png"",""time"":1194}]","[]"
"image-keyboard-response","24","68286","0.0-5.0-1.10","6400de8f305c51d03c2a9a0e","bdp_cybrbll","Sat Mar 25 2023 16:23:19 GMT-0400 (Eastern Daylight Time)","459305","3","1","","null","","","","observe","","img/3to2/1.png","null","215","292","0.5","0.5","3","2","",""
"animation","25","69582","0.0-5.0-2.10","6400de8f305c51d03c2a9a0e","bdp_cybrbll","Sat Mar 25 2023 16:23:19 GMT-0400 (Eastern Daylight Time)","459305","3","1","","","","","","","","","","215","","","","3","2","[{""stimulus"":""img/3to2/1.png"",""time"":111},{""stimulus"":""img/3to2/2.png"",""time"":205},{""stimulus"":""img/3to2/3.png"",""time"":298},{""stimulus"":""img/3to2/4.png"",""time"":397},{""stimulus"":""img/3to2/5.png"",""time"":496},{""stimulus"":""img/3to2/6.png"",""time"":595},{""stimulus"":""img/3to2/7.png"",""time"":695},{""stimulus"":""img/3to2/8.png"",""time"":793},{""stimulus"":""img/3to2/9.png"",""time"":908},{""stimulus"":""img/3to2/10.png"",""time"":1001},{""stimulus"":""img/3to2/11.png"",""time"":1095},{""stimulus"":""img/3to2/12.png"",""time"":1189}]","[]"
"image-keyboard-response","26","70329","0.0-5.0-1.11","6400de8f305c51d03c2a9a0e","bdp_cybrbll","Sat Mar 25 2023 16:23:19 GMT-0400 (Eastern Daylight Time)","459305","3","1","","747","","","","choice","","img/2to1/1.png","1","214","404","0.5","0.5","2","1","",""
"animation","27","71627","0.0-5.0-2.11","6400de8f305c51d03c2a9a0e","bdp_cybrbll","Sat Mar 25 2023 16:23:19 GMT-0400 (Eastern Daylight Time)","459305","3","1","","","","","","","","","","214","","","","2","1","[{""stimulus"":""img/2to1/1.png"",""time"":111},{""stimulus"":""img/2to1/2.png"",""time"":204},{""stimulus"":""img/2to1/3.png"",""time"":299},{""stimulus"":""img/2to1/4.png"",""time"":407},{""stimulus"":""img/2to1/5.png"",""time"":500},{""stimulus"":""img/2to1/6.png"",""time"":596},{""stimulus"":""img/2to1/7.png"",""time"":694},{""stimulus"":""img/2to1/8.png"",""time"":795},{""stimulus"":""img/2to1/9.png"",""time"":892},{""stimulus"":""img/2to1/10.png"",""time"":998},{""stimulus"":""img/2to1/11.png"",""time"":1092},{""stimulus"":""img/2to1/12.png"",""time"":1203}]","[]"
"image-keyboard-response","28","71830","0.0-5.0-1.12","6400de8f305c51d03c2a9a0e","bdp_cybrbll","Sat Mar 25 2023 16:23:19 GMT-0400 (Eastern Daylight Time)","459305","3","1","","null","","","","observe","","img/1to3/1.png","null","213","188","0.5","0.5","1","2","",""
"animation","29","73127","0.0-5.0-2.12","6400de8f305c51d03c2a9a0e","bdp_cybrbll","Sat Mar 25 2023 16:23:19 GMT-0400 (Eastern Daylight Time)","459305","3","1","","","","","","","","","","213","","","","1","2","[{""stimulus"":""img/1to2/1.png"",""time"":110},{""stimulus"":""img/1to2/2.png"",""time"":204},{""stimulus"":""img/1to2/3.png"",""time"":312},{""stimulus"":""img/1to2/4.png"",""time"":405},{""stimulus"":""img/1to2/5.png"",""time"":498},{""stimulus"":""img/1to2/6.png"",""time"":608},{""stimulus"":""img/1to2/7.png"",""time"":703},{""stimulus"":""img/1to2/8.png"",""time"":792},{""stimulus"":""img/1to2/9.png"",""time"":905},{""stimulus"":""img/1to2/10.png"",""time"":990},{""stimulus"":""img/1to2/11.png"",""time"":1093},{""stimulus"":""img/1to2/12.png"",""time"":1188}]","[]"
"image-keyboard-response","30","73309","0.0-5.0-1.13","6400de8f305c51d03c2a9a0e","bdp_cybrbll","Sat Mar 25 2023 16:23:19 GMT-0400 (Eastern Daylight Time)","459305","3","1","","182","","","","choice","","img/2to1/1.png","2","212","415","0.5","0.5","2","3","",""
"animation","31","74605","0.0-5.0-2.13","6400de8f305c51d03c2a9a0e","bdp_cybrbll","Sat Mar 25 2023 16:23:19 GMT-0400 (Eastern Daylight Time)","459305","3","1","","","","","","","","","","212","","","","2","3","[{""stimulus"":""img/2to3/1.png"",""time"":100},{""stimulus"":""img/2to3/2.png"",""time"":209},{""stimulus"":""img/2to3/3.png"",""time"":301},{""stimulus"":""img/2to3/4.png"",""time"":410},{""stimulus"":""img/2to3/5.png"",""time"":504},{""stimulus"":""img/2to3/6.png"",""time"":598},{""stimulus"":""img/2to3/7.png"",""time"":709},{""stimulus"":""img/2to3/8.png"",""time"":801},{""stimulus"":""img/2to3/9.png"",""time"":893},{""stimulus"":""img/2to3/10.png"",""time"":1001},{""stimulus"":""img/2to3/11.png"",""time"":1094},{""stimulus"":""img/2to3/12.png"",""time"":1189}]","[]"
"image-keyboard-response","32","74988","0.0-5.0-1.14","6400de8f305c51d03c2a9a0e","bdp_cybrbll","Sat Mar 25 2023 16:23:19 GMT-0400 (Eastern Daylight Time)","459305","3","1","","null","","","","observe","","img/3to2/1.png","null","211","368","0.5","0.5","3","1","",""
"animation","33","76281","0.0-5.0-2.14","6400de8f305c51d03c2a9a0e","bdp_cybrbll","Sat Mar 25 2023 16:23:19 GMT-0400 (Eastern Daylight Time)","459305","3","1","","","","","","","","","","211","","","","3","1","[{""stimulus"":""img/3to1/1.png"",""time"":110},{""stimulus"":""img/3to1/2.png"",""time"":205},{""stimulus"":""img/3to1/3.png"",""time"":313},{""stimulus"":""img/3to1/4.png"",""time"":407},{""stimulus"":""img/3to1/5.png"",""time"":500},{""stimulus"":""img/3to1/6.png"",""time"":609},{""stimulus"":""img/3to1/7.png"",""time"":694},{""stimulus"":""img/3to1/8.png"",""time"":794},{""stimulus"":""img/3to1/9.png"",""time"":905},{""stimulus"":""img/3to1/10.png"",""time"":998},{""stimulus"":""img/3to1/11.png"",""time"":1106},{""stimulus"":""img/3to1/12.png"",""time"":1199}]","[]"
"image-keyboard-response","34","77467","0.0-5.0-1.15","6400de8f305c51d03c2a9a0e","bdp_cybrbll","Sat Mar 25 2023 16:23:19 GMT-0400 (Eastern Daylight Time)","459305","3","1","","null","","","","observe","","img/1to3/1.png","null","210","1177","0.5","0.5","1","3","",""
"animation","35","78756","0.0-5.0-2.15","6400de8f305c51d03c2a9a0e","bdp_cybrbll","Sat Mar 25 2023 16:23:19 GMT-0400 (Eastern Daylight Time)","459305","3","1","","","","","","","","","","210","","","","1","3","[{""stimulus"":""img/1to3/1.png"",""time"":111},{""stimulus"":""img/1to3/2.png"",""time"":205},{""stimulus"":""img/1to3/3.png"",""time"":299},{""stimulus"":""img/1to3/4.png"",""time"":408},{""stimulus"":""img/1to3/5.png"",""time"":500},{""stimulus"":""img/1to3/6.png"",""time"":610},{""stimulus"":""img/1to3/7.png"",""time"":703},{""stimulus"":""img/1to3/8.png"",""time"":797},{""stimulus"":""img/1to3/9.png"",""time"":906},{""stimulus"":""img/1to3/10.png"",""time"":998},{""stimulus"":""img/1to3/11.png"",""time"":1092},{""stimulus"":""img/1to3/12.png"",""time"":1201}]","[]"
"image-keyboard-response","36","79773","0.0-5.0-1.16","6400de8f305c51d03c2a9a0e","bdp_cybrbll","Sat Mar 25 2023 16:23:19 GMT-0400 (Eastern Daylight Time)","459305","3","1","","null","","","","observe","","img/3to2/1.png","null","209","1004","0.5","0.5","3","2","",""
"animation","37","81073","0.0-5.0-2.16","6400de8f305c51d03c2a9a0e","bdp_cybrbll","Sat Mar 25 2023 16:23:19 GMT-0400 (Eastern Daylight Time)","459305","3","1","","","","","","","","","","209","","","","3","2","[{""stimulus"":""img/3to2/1.png"",""time"":111},{""stimulus"":""img/3to2/2.png"",""time"":207},{""stimulus"":""img/3to2/3.png"",""time"":303},{""stimulus"":""img/3to2/4.png"",""time"":398},{""stimulus"":""img/3to2/5.png"",""time"":506},{""stimulus"":""img/3to2/6.png"",""time"":601},{""stimulus"":""img/3to2/7.png"",""time"":694},{""stimulus"":""img/3to2/8.png"",""time"":802},{""stimulus"":""img/3to2/9.png"",""time"":892},{""stimulus"":""img/3to2/10.png"",""time"":1005},{""stimulus"":""img/3to2/11.png"",""time"":1098},{""stimulus"":""img/3to2/12.png"",""time"":1191}]","[]"
"image-keyboard-response","38","81111","0.0-5.0-1.17","6400de8f305c51d03c2a9a0e","bdp_cybrbll","Sat Mar 25 2023 16:23:19 GMT-0400 (Eastern Daylight Time)","459305","3","1","","38","","","","choice","","img/2to1/1.png","1","208","348","0.5","0.5","2","1","",""
"animation","39","82409","0.0-5.0-2.17","6400de8f305c51d03c2a9a0e","bdp_cybrbll","Sat Mar 25 2023 16:23:19 GMT-0400 (Eastern Daylight Time)","459305","3","1","","","","","","","","","","208","","","","2","1","[{""stimulus"":""img/2to1/1.png"",""time"":101},{""stimulus"":""img/2to1/2.png"",""time"":209},{""stimulus"":""img/2to1/3.png"",""time"":298},{""stimulus"":""img/2to1/4.png"",""time"":397},{""stimulus"":""img/2to1/5.png"",""time"":506},{""stimulus"":""img/2to1/6.png"",""time"":600},{""stimulus"":""img/2to1/7.png"",""time"":709},{""stimulus"":""img/2to1/8.png"",""time"":802},{""stimulus"":""img/2to1/9.png"",""time"":896},{""stimulus"":""img/2to1/10.png"",""time"":1004},{""stimulus"":""img/2to1/11.png"",""time"":1097},{""stimulus"":""img/2to1/12.png"",""time"":1190}]","[]"
"image-keyboard-response","40","82662","0.0-5.0-1.18","6400de8f305c51d03c2a9a0e","bdp_cybrbll","Sat Mar 25 2023 16:23:19 GMT-0400 (Eastern Daylight Time)","459305","3","1","","null","","","","observe","","img/1to3/1.png","null","207","247","0.5","0.5","1","3","",""
"animation","41","83950","0.0-5.0-2.18","6400de8f305c51d03c2a9a0e","bdp_cybrbll","Sat Mar 25 2023 16:23:19 GMT-0400 (Eastern Daylight Time)","459305","3","1","","","","","","","","","","207","","","","1","3","[{""stimulus"":""img/1to3/1.png"",""time"":111},{""stimulus"":""img/1to3/2.png"",""time"":204},{""stimulus"":""img/1to3/3.png"",""time"":298},{""stimulus"":""img/1to3/4.png"",""time"":406},{""stimulus"":""img/1to3/5.png"",""time"":501},{""stimulus"":""img/1to3/6.png"",""time"":597},{""stimulus"":""img/1to3/7.png"",""time"":707},{""stimulus"":""img/1to3/8.png"",""time"":793},{""stimulus"":""img/1to3/9.png"",""time"":892},{""stimulus"":""img/1to3/10.png"",""time"":1002},{""stimulus"":""img/1to3/11.png"",""time"":1095},{""stimulus"":""img/1to3/12.png"",""time"":1191}]","[]"
"image-keyboard-response","42","84313","0.0-5.0-1.19","6400de8f305c51d03c2a9a0e","bdp_cybrbll","Sat Mar 25 2023 16:23:19 GMT-0400 (Eastern Daylight Time)","459305","3","1","","null","","","","observe","","img/3to2/1.png","null","206","361","0.5","0.5","3","1","",""
"animation","43","85610","0.0-5.0-2.19","6400de8f305c51d03c2a9a0e","bdp_cybrbll","Sat Mar 25 2023 16:23:19 GMT-0400 (Eastern Daylight Time)","459305","3","1","","","","","","","","","","206","","","","3","1","[{""stimulus"":""img/3to1/1.png"",""time"":100},{""stimulus"":""img/3to1/2.png"",""time"":199},{""stimulus"":""img/3to1/3.png"",""time"":298},{""stimulus"":""img/3to1/4.png"",""time"":411},{""stimulus"":""img/3to1/5.png"",""time"":504},{""stimulus"":""img/3to1/6.png"",""time"":597},{""stimulus"":""img/3to1/7.png"",""time"":706},{""stimulus"":""img/3to1/8.png"",""time"":792},{""stimulus"":""img/3to1/9.png"",""time"":893},{""stimulus"":""img/3to1/10.png"",""time"":1001},{""stimulus"":""img/3to1/11.png"",""time"":1096},{""stimulus"":""img/3to1/12.png"",""time"":1190}]","[]"
"image-keyboard-response","44","86015","0.0-5.0-1.20","6400de8f305c51d03c2a9a0e","bdp_cybrbll","Sat Mar 25 2023 16:23:19 GMT-0400 (Eastern Daylight Time)","459305","3","1","","null","","","","observe","","img/1to3/1.png","null","205","394","0.5","0.5","1","2","",""
"animation","45","87305","0.0-5.0-2.20","6400de8f305c51d03c2a9a0e","bdp_cybrbll","Sat Mar 25 2023 16:23:19 GMT-0400 (Eastern Daylight Time)","459305","3","1","","","","","","","","","","205","","","","1","2","[{""stimulus"":""img/1to2/1.png"",""time"":109},{""stimulus"":""img/1to2/2.png"",""time"":203},{""stimulus"":""img/1to2/3.png"",""time"":298},{""stimulus"":""img/1to2/4.png"",""time"":397},{""stimulus"":""img/1to2/5.png"",""time"":507},{""stimulus"":""img/1to2/6.png"",""time"":600},{""stimulus"":""img/1to2/7.png"",""time"":709},{""stimulus"":""img/1to2/8.png"",""time"":804},{""stimulus"":""img/1to2/9.png"",""time"":892},{""stimulus"":""img/1to2/10.png"",""time"":992},{""stimulus"":""img/1to2/11.png"",""time"":1100},{""stimulus"":""img/1to2/12.png"",""time"":1190}]","[]"
"image-keyboard-response","46","87429","0.0-5.0-1.21","6400de8f305c51d03c2a9a0e","bdp_cybrbll","Sat Mar 25 2023 16:23:19 GMT-0400 (Eastern Daylight Time)","459305","3","1","","124","","","","choice","","img/2to1/1.png","2","204","243","0.5","0.5","2","3","",""
"animation","47","88726","0.0-5.0-2.21","6400de8f305c51d03c2a9a0e","bdp_cybrbll","Sat Mar 25 2023 16:23:19 GMT-0400 (Eastern Daylight Time)","459305","3","1","","","","","","","","","","204","","","","2","3","[{""stimulus"":""img/2to3/1.png"",""time"":111},{""stimulus"":""img/2to3/2.png"",""time"":205},{""stimulus"":""img/2to3/3.png"",""time"":299},{""stimulus"":""img/2to3/4.png"",""time"":408},{""stimulus"":""img/2to3/5.png"",""time"":501},{""stimulus"":""img/2to3/6.png"",""time"":595},{""stimulus"":""img/2to3/7.png"",""time"":702},{""stimulus"":""img/2to3/8.png"",""time"":797},{""stimulus"":""img/2to3/9.png"",""time"":893},{""stimulus"":""img/2to3/10.png"",""time"":993},{""stimulus"":""img/2to3/11.png"",""time"":1091},{""stimulus"":""img/2to3/12.png"",""time"":1204}]","[]"
"image-keyboard-response","48","89115","0.0-5.0-1.22","6400de8f305c51d03c2a9a0e","bdp_cybrbll","Sat Mar 25 2023 16:23:19 GMT-0400 (Eastern Daylight Time)","459305","3","1","","null","","","","observe","","img/3to2/1.png","null","203","388","0.5","0.5","3","2","",""
"animation","49","90402","0.0-5.0-2.22","6400de8f305c51d03c2a9a0e","bdp_cybrbll","Sat Mar 25 2023 16:23:19 GMT-0400 (Eastern Daylight Time)","459305","3","1","","","","","","","","","","203","","","","3","2","[{""stimulus"":""img/3to2/1.png"",""time"":114},{""stimulus"":""img/3to2/2.png"",""time"":208},{""stimulus"":""img/3to2/3.png"",""time"":299},{""stimulus"":""img/3to2/4.png"",""time"":397},{""stimulus"":""img/3to2/5.png"",""time"":505},{""stimulus"":""img/3to2/6.png"",""time"":599},{""stimulus"":""img/3to2/7.png"",""time"":694},{""stimulus"":""img/3to2/8.png"",""time"":800},{""stimulus"":""img/3to2/9.png"",""time"":894},{""stimulus"":""img/3to2/10.png"",""time"":1003},{""stimulus"":""img/3to2/11.png"",""time"":1095},{""stimulus"":""img/3to2/12.png"",""time"":1189}]","[]"
"image-keyboard-response","50","90517","0.0-5.0-1.23","6400de8f305c51d03c2a9a0e","bdp_cybrbll","Sat Mar 25 2023 16:23:19 GMT-0400 (Eastern Daylight Time)","459305","3","1","","114","","","","choice","","img/2to1/1.png","1","202","388","0.5","0.5","2","1","",""
"animation","51","91817","0.0-5.0-2.23","6400de8f305c51d03c2a9a0e","bdp_cybrbll","Sat Mar 25 2023 16:23:19 GMT-0400 (Eastern Daylight Time)","459305","3","1","","","","","","","","","","202","","","","2","1","[{""stimulus"":""img/2to1/1.png"",""time"":114},{""stimulus"":""img/2to1/2.png"",""time"":206},{""stimulus"":""img/2to1/3.png"",""time"":301},{""stimulus"":""img/2to1/4.png"",""time"":408},{""stimulus"":""img/2to1/5.png"",""time"":500},{""stimulus"":""img/2to1/6.png"",""time"":609},{""stimulus"":""img/2to1/7.png"",""time"":694},{""stimulus"":""img/2to1/8.png"",""time"":798},{""stimulus"":""img/2to1/9.png"",""time"":892},{""stimulus"":""img/2to1/10.png"",""time"":1005},{""stimulus"":""img/2to1/11.png"",""time"":1099},{""stimulus"":""img/2to1/12.png"",""time"":1192}]","[]"
"image-keyboard-response","52","92569","0.0-5.0-1.24","6400de8f305c51d03c2a9a0e","bdp_cybrbll","Sat Mar 25 2023 16:23:19 GMT-0400 (Eastern Daylight Time)","459305","3","1","","null","","","","observe","","img/1to3/1.png","null","201","747","0.5","0.5","1","3","",""
"animation","53","93867","0.0-5.0-2.24","6400de8f305c51d03c2a9a0e","bdp_cybrbll","Sat Mar 25 2023 16:23:19 GMT-0400 (Eastern Daylight Time)","459305","3","1","","","","","","","","","","201","","","","1","3","[{""stimulus"":""img/1to3/1.png"",""time"":111},{""stimulus"":""img/1to3/2.png"",""time"":204},{""stimulus"":""img/1to3/3.png"",""time"":298},{""stimulus"":""img/1to3/4.png"",""time"":407},{""stimulus"":""img/1to3/5.png"",""time"":500},{""stimulus"":""img/1to3/6.png"",""time"":611},{""stimulus"":""img/1to3/7.png"",""time"":706},{""stimulus"":""img/1to3/8.png"",""time"":801},{""stimulus"":""img/1to3/9.png"",""time"":894},{""stimulus"":""img/1to3/10.png"",""time"":1003},{""stimulus"":""img/1to3/11.png"",""time"":1090},{""stimulus"":""img/1to3/12.png"",""time"":1204}]","[]"
"image-keyboard-response","54","94508","0.0-5.0-1.25","6400de8f305c51d03c2a9a0e","bdp_cybrbll","Sat Mar 25 2023 16:23:19 GMT-0400 (Eastern Daylight Time)","459305","3","1","","null","","","","observe","","img/3to2/1.png","null","200","640","0.5","0.5","3","2","",""
"animation","55","95809","0.0-5.0-2.25","6400de8f305c51d03c2a9a0e","bdp_cybrbll","Sat Mar 25 2023 16:23:19 GMT-0400 (Eastern Daylight Time)","459305","3","1","","","","","","","","","","200","","","","3","2","[{""stimulus"":""img/3to2/1.png"",""time"":108},{""stimulus"":""img/3to2/2.png"",""time"":202},{""stimulus"":""img/3to2/3.png"",""time"":297},{""stimulus"":""img/3to2/4.png"",""time"":405},{""stimulus"":""img/3to2/5.png"",""time"":498},{""stimulus"":""img/3to2/6.png"",""time"":608},{""stimulus"":""img/3to2/7.png"",""time"":702},{""stimulus"":""img/3to2/8.png"",""time"":793},{""stimulus"":""img/3to2/9.png"",""time"":907},{""stimulus"":""img/3to2/10.png"",""time"":990},{""stimulus"":""img/3to2/11.png"",""time"":1096},{""stimulus"":""img/3to2/12.png"",""time"":1189}]","[]"
"image-keyboard-response","56","96371","0.0-5.0-1.26","6400de8f305c51d03c2a9a0e","bdp_cybrbll","Sat Mar 25 2023 16:23:19 GMT-0400 (Eastern Daylight Time)","459305","3","1","","561","","","","choice","","img/2to1/1.png","1","199","265","0.5","0.5","2","1","",""
"animation","57","97658","0.0-5.0-2.26","6400de8f305c51d03c2a9a0e","bdp_cybrbll","Sat Mar 25 2023 16:23:19 GMT-0400 (Eastern Daylight Time)","459305","3","1","","","","","","","","","","199","","","","2","1","[{""stimulus"":""img/2to1/1.png"",""time"":110},{""stimulus"":""img/2to1/2.png"",""time"":203},{""stimulus"":""img/2to1/3.png"",""time"":314},{""stimulus"":""img/2to1/4.png"",""time"":407},{""stimulus"":""img/2to1/5.png"",""time"":499},{""stimulus"":""img/2to1/6.png"",""time"":607},{""stimulus"":""img/2to1/7.png"",""time"":700},{""stimulus"":""img/2to1/8.png"",""time"":793},{""stimulus"":""img/2to1/9.png"",""time"":903},{""stimulus"":""img/2to1/10.png"",""time"":997},{""stimulus"":""img/2to1/11.png"",""time"":1090},{""stimulus"":""img/2to1/12.png"",""time"":1200}]","[]"
"image-keyboard-response","58","98012","0.0-5.0-1.27","6400de8f305c51d03c2a9a0e","bdp_cybrbll","Sat Mar 25 2023 16:23:19 GMT-0400 (Eastern Daylight Time)","459305","3","1","","null","","","","observe","","img/1to3/1.png","null","198","350","0.5","0.5","1","3","",""
"animation","59","99308","0.0-5.0-2.27","6400de8f305c51d03c2a9a0e","bdp_cybrbll","Sat Mar 25 2023 16:23:19 GMT-0400 (Eastern Daylight Time)","459305","3","1","","","","","","","","","","198","","","","1","3","[{""stimulus"":""img/1to3/1.png"",""time"":109},{""stimulus"":""img/1to3/2.png"",""time"":203},{""stimulus"":""img/1to3/3.png"",""time"":312},{""stimulus"":""img/1to3/4.png"",""time"":406},{""stimulus"":""img/1to3/5.png"",""time"":500},{""stimulus"":""img/1to3/6.png"",""time"":608},{""stimulus"":""img/1to3/7.png"",""time"":702},{""stimulus"":""img/1to3/8.png"",""time"":796},{""stimulus"":""img/1to3/9.png"",""time"":906},{""stimulus"":""img/1to3/10.png"",""time"":992},{""stimulus"":""img/1to3/11.png"",""time"":1089},{""stimulus"":""img/1to3/12.png"",""time"":1203}]","[]"
"image-keyboard-response","60","99732","0.0-5.0-1.28","6400de8f305c51d03c2a9a0e","bdp_cybrbll","Sat Mar 25 2023 16:23:19 GMT-0400 (Eastern Daylight Time)","459305","3","1","","null","","","","observe","","img/3to2/1.png","null","197","412","0.5","0.5","3","2","",""
"animation","61","101029","0.0-5.0-2.28","6400de8f305c51d03c2a9a0e","bdp_cybrbll","Sat Mar 25 2023 16:23:19 GMT-0400 (Eastern Daylight Time)","459305","3","1","","","","","","","","","","197","","","","3","2","[{""stimulus"":""img/3to2/1.png"",""time"":109},{""stimulus"":""img/3to2/2.png"",""time"":203},{""stimulus"":""img/3to2/3.png"",""time"":311},{""stimulus"":""img/3to2/4.png"",""time"":405},{""stimulus"":""img/3to2/5.png"",""time"":498},{""stimulus"":""img/3to2/6.png"",""time"":595},{""stimulus"":""img/3to2/7.png"",""time"":693},{""stimulus"":""img/3to2/8.png"",""time"":795},{""stimulus"":""img/3to2/9.png"",""time"":904},{""stimulus"":""img/3to2/10.png"",""time"":998},{""stimulus"":""img/3to2/11.png"",""time"":1089},{""stimulus"":""img/3to2/12.png"",""time"":1203}]","[]"
"image-keyboard-response","62","101697","0.0-5.0-1.29","6400de8f305c51d03c2a9a0e","bdp_cybrbll","Sat Mar 25 2023 16:23:19 GMT-0400 (Eastern Daylight Time)","459305","3","1","","668","","","","choice","","img/2to1/1.png","2","196","196","0.5","0.5","2","3","",""
"animation","63","102993","0.0-5.0-2.29","6400de8f305c51d03c2a9a0e","bdp_cybrbll","Sat Mar 25 2023 16:23:19 GMT-0400 (Eastern Daylight Time)","459305","3","1","","","","","","","","","","196","","","","2","3","[{""stimulus"":""img/2to3/1.png"",""time"":111},{""stimulus"":""img/2to3/2.png"",""time"":207},{""stimulus"":""img/2to3/3.png"",""time"":301},{""stimulus"":""img/2to3/4.png"",""time"":408},{""stimulus"":""img/2to3/5.png"",""time"":501},{""stimulus"":""img/2to3/6.png"",""time"":610},{""stimulus"":""img/2to3/7.png"",""time"":695},{""stimulus"":""img/2to3/8.png"",""time"":794},{""stimulus"":""img/2to3/9.png"",""time"":907},{""stimulus"":""img/2to3/10.png"",""time"":1000},{""stimulus"":""img/2to3/11.png"",""time"":1093},{""stimulus"":""img/2to3/12.png"",""time"":1203}]","[]"
"image-keyboard-response","64","103462","0.0-5.0-1.30","6400de8f305c51d03c2a9a0e","bdp_cybrbll","Sat Mar 25 2023 16:23:19 GMT-0400 (Eastern Daylight Time)","459305","3","1","","null","","","","observe","","img/3to2/1.png","null","195","467","0.5","0.5","3","2","",""
"animation","65","104758","0.0-5.0-2.30","6400de8f305c51d03c2a9a0e","bdp_cybrbll","Sat Mar 25 2023 16:23:19 GMT-0400 (Eastern Daylight Time)","459305","3","1","","","","","","","","","","195","","","","3","2","[{""stimulus"":""img/3to2/1.png"",""time"":110},{""stimulus"":""img/3to2/2.png"",""time"":204},{""stimulus"":""img/3to2/3.png"",""time"":313},{""stimulus"":""img/3to2/4.png"",""time"":396},{""stimulus"":""img/3to2/5.png"",""time"":500},{""stimulus"":""img/3to2/6.png"",""time"":610},{""stimulus"":""img/3to2/7.png"",""time"":694},{""stimulus"":""img/3to2/8.png"",""time"":793},{""stimulus"":""img/3to2/9.png"",""time"":906},{""stimulus"":""img/3to2/10.png"",""time"":991},{""stimulus"":""img/3to2/11.png"",""time"":1093},{""stimulus"":""img/3to2/12.png"",""time"":1189}]","[]"
"image-keyboard-response","66","105222","0.0-5.0-1.31","6400de8f305c51d03c2a9a0e","bdp_cybrbll","Sat Mar 25 2023 16:23:19 GMT-0400 (Eastern Daylight Time)","459305","3","1","","464","","","","choice","","img/2to1/1.png","1","194","264","0.5","0.5","2","1","",""
"animation","67","106525","0.0-5.0-2.31","6400de8f305c51d03c2a9a0e","bdp_cybrbll","Sat Mar 25 2023 16:23:19 GMT-0400 (Eastern Daylight Time)","459305","3","1","","","","","","","","","","194","","","","2","1","[{""stimulus"":""img/2to1/1.png"",""time"":102},{""stimulus"":""img/2to1/2.png"",""time"":210},{""stimulus"":""img/2to1/3.png"",""time"":305},{""stimulus"":""img/2to1/4.png"",""time"":398},{""stimulus"":""img/2to1/5.png"",""time"":510},{""stimulus"":""img/2to1/6.png"",""time"":602},{""stimulus"":""img/2to1/7.png"",""time"":695},{""stimulus"":""img/2to1/8.png"",""time"":794},{""stimulus"":""img/2to1/9.png"",""time"":898},{""stimulus"":""img/2to1/10.png"",""time"":992},{""stimulus"":""img/2to1/11.png"",""time"":1100},{""stimulus"":""img/2to1/12.png"",""time"":1194}]","[]"
"image-keyboard-response","68","107494","0.0-5.0-1.32","6400de8f305c51d03c2a9a0e","bdp_cybrbll","Sat Mar 25 2023 16:23:19 GMT-0400 (Eastern Daylight Time)","459305","3","1","","null","","","","observe","","img/1to3/1.png","null","193","953","0.5","0.5","1","3","",""
"animation","69","108786","0.0-5.0-2.32","6400de8f305c51d03c2a9a0e","bdp_cybrbll","Sat Mar 25 2023 16:23:19 GMT-0400 (Eastern Daylight Time)","459305","3","1","","","","","","","","","","193","","","","1","3","[{""stimulus"":""img/1to3/1.png"",""time"":108},{""stimulus"":""img/1to3/2.png"",""time"":202},{""stimulus"":""img/1to3/3.png"",""time"":311},{""stimulus"":""img/1to3/4.png"",""time"":406},{""stimulus"":""img/1to3/5.png"",""time"":500},{""stimulus"":""img/1to3/6.png"",""time"":609},{""stimulus"":""img/1to3/7.png"",""time"":702},{""stimulus"":""img/1to3/8.png"",""time"":795},{""stimulus"":""img/1to3/9.png"",""time"":905},{""stimulus"":""img/1to3/10.png"",""time"":990},{""stimulus"":""img/1to3/11.png"",""time"":1092},{""stimulus"":""img/1to3/12.png"",""time"":1200}]","[]"
"image-keyboard-response","70","108990","0.0-5.0-1.33","6400de8f305c51d03c2a9a0e","bdp_cybrbll","Sat Mar 25 2023 16:23:19 GMT-0400 (Eastern Daylight Time)","459305","3","1","","null","","","","observe","","img/3to2/1.png","null","192","192","0.5","0.5","3","1","",""
"animation","71","110277","0.0-5.0-2.33","6400de8f305c51d03c2a9a0e","bdp_cybrbll","Sat Mar 25 2023 16:23:19 GMT-0400 (Eastern Daylight Time)","459305","3","1","","","","","","","","","","192","","","","3","1","[{""stimulus"":""img/3to1/1.png"",""time"":111},{""stimulus"":""img/3to1/2.png"",""time"":205},{""stimulus"":""img/3to1/3.png"",""time"":299},{""stimulus"":""img/3to1/4.png"",""time"":410},{""stimulus"":""img/3to1/5.png"",""time"":503},{""stimulus"":""img/3to1/6.png"",""time"":596},{""stimulus"":""img/3to1/7.png"",""time"":706},{""stimulus"":""img/3to1/8.png"",""time"":800},{""stimulus"":""img/3to1/9.png"",""time"":892},{""stimulus"":""img/3to1/10.png"",""time"":1005},{""stimulus"":""img/3to1/11.png"",""time"":1098},{""stimulus"":""img/3to1/12.png"",""time"":1189}]","[]"
"image-keyboard-response","72","110666","0.0-5.0-1.34","6400de8f305c51d03c2a9a0e","bdp_cybrbll","Sat Mar 25 2023 16:23:19 GMT-0400 (Eastern Daylight Time)","459305","3","1","","null","","","","observe","","img/1to3/1.png","null","191","378","0.5","0.5","1","2","",""
"animation","73","111958","0.0-5.0-2.34","6400de8f305c51d03c2a9a0e","bdp_cybrbll","Sat Mar 25 2023 16:23:19 GMT-0400 (Eastern Daylight Time)","459305","3","1","","","","","","","","","","191","","","","1","2","[{""stimulus"":""img/1to2/1.png"",""time"":110},{""stimulus"":""img/1to2/2.png"",""time"":203},{""stimulus"":""img/1to2/3.png"",""time"":313},{""stimulus"":""img/1to2/4.png"",""time"":407},{""stimulus"":""img/1to2/5.png"",""time"":499},{""stimulus"":""img/1to2/6.png"",""time"":607},{""stimulus"":""img/1to2/7.png"",""time"":701},{""stimulus"":""img/1to2/8.png"",""time"":793},{""stimulus"":""img/1to2/9.png"",""time"":903},{""stimulus"":""img/1to2/10.png"",""time"":992},{""stimulus"":""img/1to2/11.png"",""time"":1104},{""stimulus"":""img/1to2/12.png"",""time"":1197}]","[]"
"image-keyboard-response","74","112793","0.0-5.0-1.35","6400de8f305c51d03c2a9a0e","bdp_cybrbll","Sat Mar 25 2023 16:23:19 GMT-0400 (Eastern Daylight Time)","459305","3","1","","833","","","","choice","","img/2to1/1.png","1","190","463","0.5","0.5","2","1","",""
"animation","75","114081","0.0-5.0-2.35","6400de8f305c51d03c2a9a0e","bdp_cybrbll","Sat Mar 25 2023 16:23:19 GMT-0400 (Eastern Daylight Time)","459305","3","1","","","","","","","","","","190","","","","2","1","[{""stimulus"":""img/2to1/1.png"",""time"":109},{""stimulus"":""img/2to1/2.png"",""time"":202},{""stimulus"":""img/2to1/3.png"",""time"":313},{""stimulus"":""img/2to1/4.png"",""time"":397},{""stimulus"":""img/2to1/5.png"",""time"":502},{""stimulus"":""img/2to1/6.png"",""time"":595},{""stimulus"":""img/2to1/7.png"",""time"":694},{""stimulus"":""img/2to1/8.png"",""time"":800},{""stimulus"":""img/2to1/9.png"",""time"":894},{""stimulus"":""img/2to1/10.png"",""time"":1004},{""stimulus"":""img/2to1/11.png"",""time"":1089},{""stimulus"":""img/2to1/12.png"",""time"":1192}]","[]"
"image-keyboard-response","76","114826","0.0-5.0-1.36","6400de8f305c51d03c2a9a0e","bdp_cybrbll","Sat Mar 25 2023 16:23:19 GMT-0400 (Eastern Daylight Time)","459305","3","1","","null","","","","observe","","img/1to3/1.png","null","189","736","0.5","0.5","1","2","",""
"animation","77","116127","0.0-5.0-2.36","6400de8f305c51d03c2a9a0e","bdp_cybrbll","Sat Mar 25 2023 16:23:19 GMT-0400 (Eastern Daylight Time)","459305","3","1","","","","","","","","","","189","","","","1","2","[{""stimulus"":""img/1to2/1.png"",""time"":111},{""stimulus"":""img/1to2/2.png"",""time"":199},{""stimulus"":""img/1to2/3.png"",""time"":313},{""stimulus"":""img/1to2/4.png"",""time"":397},{""stimulus"":""img/1to2/5.png"",""time"":500},{""stimulus"":""img/1to2/6.png"",""time"":596},{""stimulus"":""img/1to2/7.png"",""time"":694},{""stimulus"":""img/1to2/8.png"",""time"":795},{""stimulus"":""img/1to2/9.png"",""time"":905},{""stimulus"":""img/1to2/10.png"",""time"":999},{""stimulus"":""img/1to2/11.png"",""time"":1092},{""stimulus"":""img/1to2/12.png"",""time"":1189}]","[]"
"image-keyboard-response","78","116230","0.0-5.0-1.37","6400de8f305c51d03c2a9a0e","bdp_cybrbll","Sat Mar 25 2023 16:23:19 GMT-0400 (Eastern Daylight Time)","459305","3","1","","102","","","","choice","","img/2to1/1.png","2","188","331","0.5","0.5","2","3","",""
"animation","79","117518","0.0-5.0-2.37","6400de8f305c51d03c2a9a0e","bdp_cybrbll","Sat Mar 25 2023 16:23:19 GMT-0400 (Eastern Daylight Time)","459305","3","1","","","","","","","","","","188","","","","2","3","[{""stimulus"":""img/2to3/1.png"",""time"":101},{""stimulus"":""img/2to3/2.png"",""time"":211},{""stimulus"":""img/2to3/3.png"",""time"":305},{""stimulus"":""img/2to3/4.png"",""time"":399},{""stimulus"":""img/2to3/5.png"",""time"":496},{""stimulus"":""img/2to3/6.png"",""time"":602},{""stimulus"":""img/2to3/7.png"",""time"":695},{""stimulus"":""img/2to3/8.png"",""time"":803},{""stimulus"":""img/2to3/9.png"",""time"":897},{""stimulus"":""img/2to3/10.png"",""time"":990},{""stimulus"":""img/2to3/11.png"",""time"":1100},{""stimulus"":""img/2to3/12.png"",""time"":1195}]","[]"
"image-keyboard-response","80","118619","0.0-5.0-1.38","6400de8f305c51d03c2a9a0e","bdp_cybrbll","Sat Mar 25 2023 16:23:19 GMT-0400 (Eastern Daylight Time)","459305","3","1","","null","","","","observe","","img/3to2/1.png","null","187","1097","0.5","0.5","3","2","",""
"animation","81","119916","0.0-5.0-2.38","6400de8f305c51d03c2a9a0e","bdp_cybrbll","Sat Mar 25 2023 16:23:19 GMT-0400 (Eastern Daylight Time)","459305","3","1","","","","","","","","","","187","","","","3","2","[{""stimulus"":""img/3to2/1.png"",""time"":110},{""stimulus"":""img/3to2/2.png"",""time"":207},{""stimulus"":""img/3to2/3.png"",""time"":298},{""stimulus"":""img/3to2/4.png"",""time"":397},{""stimulus"":""img/3to2/5.png"",""time"":504},{""stimulus"":""img/3to2/6.png"",""time"":594},{""stimulus"":""img/3to2/7.png"",""time"":694},{""stimulus"":""img/3to2/8.png"",""time"":801},{""stimulus"":""img/3to2/9.png"",""time"":894},{""stimulus"":""img/3to2/10.png"",""time"":1003},{""stimulus"":""img/3to2/11.png"",""time"":1090},{""stimulus"":""img/3to2/12.png"",""time"":1189}]","[]"
"image-keyboard-response","82","120541","0.0-5.0-1.39","6400de8f305c51d03c2a9a0e","bdp_cybrbll","Sat Mar 25 2023 16:23:19 GMT-0400 (Eastern Daylight Time)","459305","3","1","","625","","","","choice","","img/2to1/1.png","1","186","675","0.5","0.5","2","1","",""
"animation","83","121840","0.0-5.0-2.39","6400de8f305c51d03c2a9a0e","bdp_cybrbll","Sat Mar 25 2023 16:23:19 GMT-0400 (Eastern Daylight Time)","459305","3","1","","","","","","","","","","186","","","","2","1","[{""stimulus"":""img/2to1/1.png"",""time"":113},{""stimulus"":""img/2to1/2.png"",""time"":206},{""stimulus"":""img/2to1/3.png"",""time"":301},{""stimulus"":""img/2to1/4.png"",""time"":396},{""stimulus"":""img/2to1/5.png"",""time"":503},{""stimulus"":""img/2to1/6.png"",""time"":596},{""stimulus"":""img/2to1/7.png"",""time"":704},{""stimulus"":""img/2to1/8.png"",""time"":798},{""stimulus"":""img/2to1/9.png"",""time"":891},{""stimulus"":""img/2to1/10.png"",""time"":1001},{""stimulus"":""img/2to1/11.png"",""time"":1095},{""stimulus"":""img/2to1/12.png"",""time"":1189}]","[]"
"image-keyboard-response","84","122726","0.0-5.0-1.40","6400de8f305c51d03c2a9a0e","bdp_cybrbll","Sat Mar 25 2023 16:23:19 GMT-0400 (Eastern Daylight Time)","459305","3","1","","null","","","","observe","","img/1to3/1.png","null","185","880","0.5","0.5","1","3","",""
"animation","85","124014","0.0-5.0-2.40","6400de8f305c51d03c2a9a0e","bdp_cybrbll","Sat Mar 25 2023 16:23:19 GMT-0400 (Eastern Daylight Time)","459305","3","1","","","","","","","","","","185","","","","1","3","[{""stimulus"":""img/1to3/1.png"",""time"":110},{""stimulus"":""img/1to3/2.png"",""time"":199},{""stimulus"":""img/1to3/3.png"",""time"":298},{""stimulus"":""img/1to3/4.png"",""time"":403},{""stimulus"":""img/1to3/5.png"",""time"":498},{""stimulus"":""img/1to3/6.png"",""time"":607},{""stimulus"":""img/1to3/7.png"",""time"":700},{""stimulus"":""img/1to3/8.png"",""time"":808},{""stimulus"":""img/1to3/9.png"",""time"":901},{""stimulus"":""img/1to3/10.png"",""time"":996},{""stimulus"":""img/1to3/11.png"",""time"":1091},{""stimulus"":""img/1to3/12.png"",""time"":1198}]","[]"
"image-keyboard-response","86","124517","0.0-5.0-1.41","6400de8f305c51d03c2a9a0e","bdp_cybrbll","Sat Mar 25 2023 16:23:19 GMT-0400 (Eastern Daylight Time)","459305","3","1","","null","","","","observe","","img/3to2/1.png","null","184","493","0.5","0.5","3","2","",""
"animation","87","125805","0.0-5.0-2.41","6400de8f305c51d03c2a9a0e","bdp_cybrbll","Sat Mar 25 2023 16:23:19 GMT-0400 (Eastern Daylight Time)","459305","3","1","","","","","","","","","","184","","","","3","2","[{""stimulus"":""img/3to2/1.png"",""time"":110},{""stimulus"":""img/3to2/2.png"",""time"":202},{""stimulus"":""img/3to2/3.png"",""time"":299},{""stimulus"":""img/3to2/4.png"",""time"":407},{""stimulus"":""img/3to2/5.png"",""time"":500},{""stimulus"":""img/3to2/6.png"",""time"":608},{""stimulus"":""img/3to2/7.png"",""time"":702},{""stimulus"":""img/3to2/8.png"",""time"":795},{""stimulus"":""img/3to2/9.png"",""time"":903},{""stimulus"":""img/3to2/10.png"",""time"":998},{""stimulus"":""img/3to2/11.png"",""time"":1090},{""stimulus"":""img/3to2/12.png"",""time"":1201}]","[]"
"image-keyboard-response","88","126613","0.0-5.0-1.42","6400de8f305c51d03c2a9a0e","bdp_cybrbll","Sat Mar 25 2023 16:23:19 GMT-0400 (Eastern Daylight Time)","459305","3","1","","807","","","","choice","","img/2to1/1.png","2","183","255","0.5","0.5","2","3","",""
"animation","89","127902","0.0-5.0-2.42","6400de8f305c51d03c2a9a0e","bdp_cybrbll","Sat Mar 25 2023 16:23:19 GMT-0400 (Eastern Daylight Time)","459305","3","1","","","","","","","","","","183","","","","2","3","[{""stimulus"":""img/2to3/1.png"",""time"":104},{""stimulus"":""img/2to3/2.png"",""time"":199},{""stimulus"":""img/2to3/3.png"",""time"":308},{""stimulus"":""img/2to3/4.png"",""time"":402},{""stimulus"":""img/2to3/5.png"",""time"":510},{""stimulus"":""img/2to3/6.png"",""time"":595},{""stimulus"":""img/2to3/7.png"",""time"":694},{""stimulus"":""img/2to3/8.png"",""time"":793},{""stimulus"":""img/2to3/9.png"",""time"":892},{""stimulus"":""img/2to3/10.png"",""time"":991},{""stimulus"":""img/2to3/11.png"",""time"":1103},{""stimulus"":""img/2to3/12.png"",""time"":1196}]","[]"
"image-keyboard-response","90","128574","0.0-5.0-1.43","6400de8f305c51d03c2a9a0e","bdp_cybrbll","Sat Mar 25 2023 16:23:19 GMT-0400 (Eastern Daylight Time)","459305","3","1","","null","","","","observe","","img/3to2/1.png","null","182","660","0.5","0.5","3","1","",""
"animation","91","129870","0.0-5.0-2.43","6400de8f305c51d03c2a9a0e","bdp_cybrbll","Sat Mar 25 2023 16:23:19 GMT-0400 (Eastern Daylight Time)","459305","3","1","","","","","","","","","","182","","","","3","1","[{""stimulus"":""img/3to1/1.png"",""time"":109},{""stimulus"":""img/3to1/2.png"",""time"":202},{""stimulus"":""img/3to1/3.png"",""time"":310},{""stimulus"":""img/3to1/4.png"",""time"":403},{""stimulus"":""img/3to1/5.png"",""time"":497},{""stimulus"":""img/3to1/6.png"",""time"":607},{""stimulus"":""img/3to1/7.png"",""time"":694},{""stimulus"":""img/3to1/8.png"",""time"":795},{""stimulus"":""img/3to1/9.png"",""time"":904},{""stimulus"":""img/3to1/10.png"",""time"":998},{""stimulus"":""img/3to1/11.png"",""time"":1092},{""stimulus"":""img/3to1/12.png"",""time"":1201}]","[]"
"image-keyboard-response","92","130245","0.0-5.0-1.44","6400de8f305c51d03c2a9a0e","bdp_cybrbll","Sat Mar 25 2023 16:23:19 GMT-0400 (Eastern Daylight Time)","459305","3","1","","null","","","","observe","","img/1to3/1.png","null","181","359","0.5","0.5","1","2","",""
"animation","93","131541","0.0-5.0-2.44","6400de8f305c51d03c2a9a0e","bdp_cybrbll","Sat Mar 25 2023 16:23:19 GMT-0400 (Eastern Daylight Time)","459305","3","1","","","","","","","","","","181","","","","1","2","[{""stimulus"":""img/1to2/1.png"",""time"":109},{""stimulus"":""img/1to2/2.png"",""time"":204},{""stimulus"":""img/1to2/3.png"",""time"":299},{""stimulus"":""img/1to2/4.png"",""time"":397},{""stimulus"":""img/1to2/5.png"",""time"":502},{""stimulus"":""img/1to2/6.png"",""time"":596},{""stimulus"":""img/1to2/7.png"",""time"":703},{""stimulus"":""img/1to2/8.png"",""time"":792},{""stimulus"":""img/1to2/9.png"",""time"":893},{""stimulus"":""img/1to2/10.png"",""time"":1000},{""stimulus"":""img/1to2/11.png"",""time"":1093},{""stimulus"":""img/1to2/12.png"",""time"":1202}]","[]"
"image-keyboard-response","94","131798","0.0-5.0-1.45","6400de8f305c51d03c2a9a0e","bdp_cybrbll","Sat Mar 25 2023 16:23:19 GMT-0400 (Eastern Daylight Time)","459305","3","1","","257","","","","choice","","img/2to1/1.png","2","180","246","0.5","0.5","2","3","",""
"animation","95","133086","0.0-5.0-2.45","6400de8f305c51d03c2a9a0e","bdp_cybrbll","Sat Mar 25 2023 16:23:19 GMT-0400 (Eastern Daylight Time)","459305","3","1","","","","","","","","","","180","","","","2","3","[{""stimulus"":""img/2to3/1.png"",""time"":103},{""stimulus"":""img/2to3/2.png"",""time"":213},{""stimulus"":""img/2to3/3.png"",""time"":308},{""stimulus"":""img/2to3/4.png"",""time"":397},{""stimulus"":""img/2to3/5.png"",""time"":496},{""stimulus"":""img/2to3/6.png"",""time"":605},{""stimulus"":""img/2to3/7.png"",""time"":696},{""stimulus"":""img/2to3/8.png"",""time"":792},{""stimulus"":""img/2to3/9.png"",""time"":899},{""stimulus"":""img/2to3/10.png"",""time"":993},{""stimulus"":""img/2to3/11.png"",""time"":1104},{""stimulus"":""img/2to3/12.png"",""time"":1197}]","[]"
"image-keyboard-response","96","133291","0.0-5.0-1.46","6400de8f305c51d03c2a9a0e","bdp_cybrbll","Sat Mar 25 2023 16:23:19 GMT-0400 (Eastern Daylight Time)","459305","3","1","","null","","","","observe","","img/3to2/1.png","null","179","191","0.5","0.5","3","2","",""
"animation","97","134584","0.0-5.0-2.46","6400de8f305c51d03c2a9a0e","bdp_cybrbll","Sat Mar 25 2023 16:23:19 GMT-0400 (Eastern Daylight Time)","459305","3","1","","","","","","","","","","179","","","","3","2","[{""stimulus"":""img/3to2/1.png"",""time"":111},{""stimulus"":""img/3to2/2.png"",""time"":204},{""stimulus"":""img/3to2/3.png"",""time"":300},{""stimulus"":""img/3to2/4.png"",""time"":407},{""stimulus"":""img/3to2/5.png"",""time"":501},{""stimulus"":""img/3to2/6.png"",""time"":595},{""stimulus"":""img/3to2/7.png"",""time"":704},{""stimulus"":""img/3to2/8.png"",""time"":798},{""stimulus"":""img/3to2/9.png"",""time"":893},{""stimulus"":""img/3to2/10.png"",""time"":991},{""stimulus"":""img/3to2/11.png"",""time"":1090},{""stimulus"":""img/3to2/12.png"",""time"":1201}]","[]"
"image-keyboard-response","98","135321","0.0-5.0-1.47","6400de8f305c51d03c2a9a0e","bdp_cybrbll","Sat Mar 25 2023 16:23:19 GMT-0400 (Eastern Daylight Time)","459305","3","1","","737","","","","choice","","img/2to1/1.png","1","178","392","0.5","0.5","2","1","",""
"animation","99","136614","0.0-5.0-2.47","6400de8f305c51d03c2a9a0e","bdp_cybrbll","Sat Mar 25 2023 16:23:19 GMT-0400 (Eastern Daylight Time)","459305","3","1","","","","","","","","","","178","","","","2","1","[{""stimulus"":""img/2to1/1.png"",""time"":105},{""stimulus"":""img/2to1/2.png"",""time"":200},{""stimulus"":""img/2to1/3.png"",""time"":299},{""stimulus"":""img/2to1/4.png"",""time"":408},{""stimulus"":""img/2to1/5.png"",""time"":501},{""stimulus"":""img/2to1/6.png"",""time"":610},{""stimulus"":""img/2to1/7.png"",""time"":703},{""stimulus"":""img/2to1/8.png"",""time"":797},{""stimulus"":""img/2to1/9.png"",""time"":905},{""stimulus"":""img/2to1/10.png"",""time"":998},{""stimulus"":""img/2to1/11.png"",""time"":1091},{""stimulus"":""img/2to1/12.png"",""time"":1200}]","[]"
"image-keyboard-response","100","136913","0.0-5.0-1.48","6400de8f305c51d03c2a9a0e","bdp_cybrbll","Sat Mar 25 2023 16:23:19 GMT-0400 (Eastern Daylight Time)","459305","3","1","","null","","","","observe","","img/1to3/1.png","null","177","289","0.5","0.5","1","3","",""
"animation","101","138201","0.0-5.0-2.48","6400de8f305c51d03c2a9a0e","bdp_cybrbll","Sat Mar 25 2023 16:23:19 GMT-0400 (Eastern Daylight Time)","459305","3","1","","","","","","","","","","177","","","","1","3","[{""stimulus"":""img/1to3/1.png"",""time"":111},{""stimulus"":""img/1to3/2.png"",""time"":204},{""stimulus"":""img/1to3/3.png"",""time"":313},{""stimulus"":""img/1to3/4.png"",""time"":407},{""stimulus"":""img/1to3/5.png"",""time"":499},{""stimulus"":""img/1to3/6.png"",""time"":607},{""stimulus"":""img/1to3/7.png"",""time"":702},{""stimulus"":""img/1to3/8.png"",""time"":796},{""stimulus"":""img/1to3/9.png"",""time"":905},{""stimulus"":""img/1to3/10.png"",""time"":1000},{""stimulus"":""img/1to3/11.png"",""time"":1095},{""stimulus"":""img/1to3/12.png"",""time"":1203}]","[]"
"image-keyboard-response","102","138474","0.0-5.0-1.49","6400de8f305c51d03c2a9a0e","bdp_cybrbll","Sat Mar 25 2023 16:23:19 GMT-0400 (Eastern Daylight Time)","459305","3","1","","null","","","","observe","","img/3to2/1.png","null","176","265","0.5","0.5","3","1","",""
"animation","103","139765","0.0-5.0-2.49","6400de8f305c51d03c2a9a0e","bdp_cybrbll","Sat Mar 25 2023 16:23:19 GMT-0400 (Eastern Daylight Time)","459305","3","1","","","","","","","","","","176","","","","3","1","[{""stimulus"":""img/3to1/1.png"",""time"":110},{""stimulus"":""img/3to1/2.png"",""time"":199},{""stimulus"":""img/3to1/3.png"",""time"":311},{""stimulus"":""img/3to1/4.png"",""time"":397},{""stimulus"":""img/3to1/5.png"",""time"":511},{""stimulus"":""img/3to1/6.png"",""time"":595},{""stimulus"":""img/3to1/7.png"",""time"":699},{""stimulus"":""img/3to1/8.png"",""time"":808},{""stimulus"":""img/3to1/9.png"",""time"":903},{""stimulus"":""img/3to1/10.png"",""time"":996},{""stimulus"":""img/3to1/11.png"",""time"":1105},{""stimulus"":""img/3to1/12.png"",""time"":1190}]","[]"
"image-keyboard-response","104","140093","0.0-5.0-1.50","6400de8f305c51d03c2a9a0e","bdp_cybrbll","Sat Mar 25 2023 16:23:19 GMT-0400 (Eastern Daylight Time)","459305","3","1","","null","","","","observe","","img/1to3/1.png","null","175","325","0.5","0.5","1","2","",""
"animation","105","141389","0.0-5.0-2.50","6400de8f305c51d03c2a9a0e","bdp_cybrbll","Sat Mar 25 2023 16:23:19 GMT-0400 (Eastern Daylight Time)","459305","3","1","","","","","","","","","","175","","","","1","2","[{""stimulus"":""img/1to2/1.png"",""time"":110},{""stimulus"":""img/1to2/2.png"",""time"":204},{""stimulus"":""img/1to2/3.png"",""time"":312},{""stimulus"":""img/1to2/4.png"",""time"":398},{""stimulus"":""img/1to2/5.png"",""time"":499},{""stimulus"":""img/1to2/6.png"",""time"":608},{""stimulus"":""img/1to2/7.png"",""time"":701},{""stimulus"":""img/1to2/8.png"",""time"":795},{""stimulus"":""img/1to2/9.png"",""time"":904},{""stimulus"":""img/1to2/10.png"",""time"":998},{""stimulus"":""img/1to2/11.png"",""time"":1094},{""stimulus"":""img/1to2/12.png"",""time"":1202}]","[]"
"image-keyboard-response","106","141644","0.0-5.0-1.51","6400de8f305c51d03c2a9a0e","bdp_cybrbll","Sat Mar 25 2023 16:23:19 GMT-0400 (Eastern Daylight Time)","459305","3","1","","254","","","","choice","","img/2to1/1.png","2","174","372","0.5","0.5","2","3","",""
"animation","107","142931","0.0-5.0-2.51","6400de8f305c51d03c2a9a0e","bdp_cybrbll","Sat Mar 25 2023 16:23:19 GMT-0400 (Eastern Daylight Time)","459305","3","1","","","","","","","","","","174","","","","2","3","[{""stimulus"":""img/2to3/1.png"",""time"":104},{""stimulus"":""img/2to3/2.png"",""time"":213},{""stimulus"":""img/2to3/3.png"",""time"":307},{""stimulus"":""img/2to3/4.png"",""time"":401},{""stimulus"":""img/2to3/5.png"",""time"":511},{""stimulus"":""img/2to3/6.png"",""time"":604},{""stimulus"":""img/2to3/7.png"",""time"":697},{""stimulus"":""img/2to3/8.png"",""time"":794},{""stimulus"":""img/2to3/9.png"",""time"":892},{""stimulus"":""img/2to3/10.png"",""time"":992},{""stimulus"":""img/2to3/11.png"",""time"":1101},{""stimulus"":""img/2to3/12.png"",""time"":1189}]","[]"
"image-keyboard-response","108","143122","0.0-5.0-1.52","6400de8f305c51d03c2a9a0e","bdp_cybrbll","Sat Mar 25 2023 16:23:19 GMT-0400 (Eastern Daylight Time)","459305","3","1","","null","","","","observe","","img/3to2/1.png","null","173","177","0.5","0.5","3","2","",""
"animation","109","144418","0.0-5.0-2.52","6400de8f305c51d03c2a9a0e","bdp_cybrbll","Sat Mar 25 2023 16:23:19 GMT-0400 (Eastern Daylight Time)","459305","3","1","","","","","","","","","","173","","","","3","2","[{""stimulus"":""img/3to2/1.png"",""time"":109},{""stimulus"":""img/3to2/2.png"",""time"":204},{""stimulus"":""img/3to2/3.png"",""time"":298},{""stimulus"":""img/3to2/4.png"",""time"":396},{""stimulus"":""img/3to2/5.png"",""time"":500},{""stimulus"":""img/3to2/6.png"",""time"":594},{""stimulus"":""img/3to2/7.png"",""time"":693},{""stimulus"":""img/3to2/8.png"",""time"":793},{""stimulus"":""img/3to2/9.png"",""time"":906},{""stimulus"":""img/3to2/10.png"",""time"":1002},{""stimulus"":""img/3to2/11.png"",""time"":1095},{""stimulus"":""img/3to2/12.png"",""time"":1202}]","[]"
"image-keyboard-response","110","144800","0.0-5.0-1.53","6400de8f305c51d03c2a9a0e","bdp_cybrbll","Sat Mar 25 2023 16:23:19 GMT-0400 (Eastern Daylight Time)","459305","3","1","","381","","","","choice","","img/2to1/1.png","1","172","673","0.5","0.5","2","1","",""
"animation","111","146096","0.0-5.0-2.53","6400de8f305c51d03c2a9a0e","bdp_cybrbll","Sat Mar 25 2023 16:23:19 GMT-0400 (Eastern Daylight Time)","459305","3","1","","","","","","","","","","172","","","","2","1","[{""stimulus"":""img/2to1/1.png"",""time"":105},{""stimulus"":""img/2to1/2.png"",""time"":200},{""stimulus"":""img/2to1/3.png"",""time"":310},{""stimulus"":""img/2to1/4.png"",""time"":397},{""stimulus"":""img/2to1/5.png"",""time"":496},{""stimulus"":""img/2to1/6.png"",""time"":608},{""stimulus"":""img/2to1/7.png"",""time"":702},{""stimulus"":""img/2to1/8.png"",""time"":793},{""stimulus"":""img/2to1/9.png"",""time"":905},{""stimulus"":""img/2to1/10.png"",""time"":998},{""stimulus"":""img/2to1/11.png"",""time"":1093},{""stimulus"":""img/2to1/12.png"",""time"":1202}]","[]"
"image-keyboard-response","112","146893","0.0-5.0-1.54","6400de8f305c51d03c2a9a0e","bdp_cybrbll","Sat Mar 25 2023 16:23:19 GMT-0400 (Eastern Daylight Time)","459305","3","1","","null","","","","observe","","img/1to3/1.png","null","171","795","0.5","0.5","1","3","",""
"animation","113","148192","0.0-5.0-2.54","6400de8f305c51d03c2a9a0e","bdp_cybrbll","Sat Mar 25 2023 16:23:19 GMT-0400 (Eastern Daylight Time)","459305","3","1","","","","","","","","","","171","","","","1","3","[{""stimulus"":""img/1to3/1.png"",""time"":112},{""stimulus"":""img/1to3/2.png"",""time"":209},{""stimulus"":""img/1to3/3.png"",""time"":302},{""stimulus"":""img/1to3/4.png"",""time"":411},{""stimulus"":""img/1to3/5.png"",""time"":496},{""stimulus"":""img/1to3/6.png"",""time"":598},{""stimulus"":""img/1to3/7.png"",""time"":694},{""stimulus"":""img/1to3/8.png"",""time"":802},{""stimulus"":""img/1to3/9.png"",""time"":895},{""stimulus"":""img/1to3/10.png"",""time"":991},{""stimulus"":""img/1to3/11.png"",""time"":1097},{""stimulus"":""img/1to3/12.png"",""time"":1190}]","[]"
"image-keyboard-response","114","148775","0.0-5.0-1.55","6400de8f305c51d03c2a9a0e","bdp_cybrbll","Sat Mar 25 2023 16:23:19 GMT-0400 (Eastern Daylight Time)","459305","3","1","","null","","","","observe","","img/3to2/1.png","null","170","582","0.5","0.5","3","1","",""
"animation","115","150068","0.0-5.0-2.55","6400de8f305c51d03c2a9a0e","bdp_cybrbll","Sat Mar 25 2023 16:23:19 GMT-0400 (Eastern Daylight Time)","459305","3","1","","","","","","","","","","170","","","","3","1","[{""stimulus"":""img/3to1/1.png"",""time"":106},{""stimulus"":""img/3to1/2.png"",""time"":215},{""stimulus"":""img/3to1/3.png"",""time"":308},{""stimulus"":""img/3to1/4.png"",""time"":402},{""stimulus"":""img/3to1/5.png"",""time"":511},{""stimulus"":""img/3to1/6.png"",""time"":604},{""stimulus"":""img/3to1/7.png"",""time"":698},{""stimulus"":""img/3to1/8.png"",""time"":808},{""stimulus"":""img/3to1/9.png"",""time"":893},{""stimulus"":""img/3to1/10.png"",""time"":995},{""stimulus"":""img/3to1/11.png"",""time"":1090},{""stimulus"":""img/3to1/12.png"",""time"":1198}]","[]"
"image-keyboard-response","116","150394","0.0-5.0-1.56","6400de8f305c51d03c2a9a0e","bdp_cybrbll","Sat Mar 25 2023 16:23:19 GMT-0400 (Eastern Daylight Time)","459305","3","1","","null","","","","observe","","img/1to3/1.png","null","169","325","0.5","0.5","1","3","",""
"animation","117","151689","0.0-5.0-2.56","6400de8f305c51d03c2a9a0e","bdp_cybrbll","Sat Mar 25 2023 16:23:19 GMT-0400 (Eastern Daylight Time)","459305","3","1","","","","","","","","","","169","","","","1","3","[{""stimulus"":""img/1to3/1.png"",""time"":109},{""stimulus"":""img/1to3/2.png"",""time"":203},{""stimulus"":""img/1to3/3.png"",""time"":298},{""stimulus"":""img/1to3/4.png"",""time"":404},{""stimulus"":""img/1to3/5.png"",""time"":496},{""stimulus"":""img/1to3/6.png"",""time"":595},{""stimulus"":""img/1to3/7.png"",""time"":703},{""stimulus"":""img/1to3/8.png"",""time"":796},{""stimulus"":""img/1to3/9.png"",""time"":905},{""stimulus"":""img/1to3/10.png"",""time"":999},{""stimulus"":""img/1to3/11.png"",""time"":1090},{""stimulus"":""img/1to3/12.png"",""time"":1200}]","[]"
"image-keyboard-response","118","152285","0.0-5.0-1.57","6400de8f305c51d03c2a9a0e","bdp_cybrbll","Sat Mar 25 2023 16:23:19 GMT-0400 (Eastern Daylight Time)","459305","3","1","","null","","","","observe","","img/3to2/1.png","null","168","591","0.5","0.5","3","2","",""
"animation","119","153574","0.0-5.0-2.57","6400de8f305c51d03c2a9a0e","bdp_cybrbll","Sat Mar 25 2023 16:23:19 GMT-0400 (Eastern Daylight Time)","459305","3","1","","","","","","","","","","168","","","","3","2","[{""stimulus"":""img/3to2/1.png"",""time"":110},{""stimulus"":""img/3to2/2.png"",""time"":203},{""stimulus"":""img/3to2/3.png"",""time"":299},{""stimulus"":""img/3to2/4.png"",""time"":397},{""stimulus"":""img/3to2/5.png"",""time"":509},{""stimulus"":""img/3to2/6.png"",""time"":605},{""stimulus"":""img/3to2/7.png"",""time"":698},{""stimulus"":""img/3to2/8.png"",""time"":808},{""stimulus"":""img/3to2/9.png"",""time"":901},{""stimulus"":""img/3to2/10.png"",""time"":993},{""stimulus"":""img/3to2/11.png"",""time"":1102},{""stimulus"":""img/3to2/12.png"",""time"":1197}]","[]"
"image-keyboard-response","120","153614","0.0-5.0-1.58","6400de8f305c51d03c2a9a0e","bdp_cybrbll","Sat Mar 25 2023 16:23:19 GMT-0400 (Eastern Daylight Time)","459305","3","1","","39","","","","choice","","img/2to1/1.png","2","167","358","0.5","0.5","2","3","",""
"animation","121","154915","0.0-5.0-2.58","6400de8f305c51d03c2a9a0e","bdp_cybrbll","Sat Mar 25 2023 16:23:19 GMT-0400 (Eastern Daylight Time)","459305","3","1","","","","","","","","","","167","","","","2","3","[{""stimulus"":""img/2to3/1.png"",""time"":100},{""stimulus"":""img/2to3/2.png"",""time"":209},{""stimulus"":""img/2to3/3.png"",""time"":303},{""stimulus"":""img/2to3/4.png"",""time"":398},{""stimulus"":""img/2to3/5.png"",""time"":508},{""stimulus"":""img/2to3/6.png"",""time"":595},{""stimulus"":""img/2to3/7.png"",""time"":709},{""stimulus"":""img/2to3/8.png"",""time"":804},{""stimulus"":""img/2to3/9.png"",""time"":898},{""stimulus"":""img/2to3/10.png"",""time"":991},{""stimulus"":""img/2to3/11.png"",""time"":1100},{""stimulus"":""img/2to3/12.png"",""time"":1193}]","[]"
"image-keyboard-response","122","155307","0.0-5.0-1.59","6400de8f305c51d03c2a9a0e","bdp_cybrbll","Sat Mar 25 2023 16:23:19 GMT-0400 (Eastern Daylight Time)","459305","3","1","","null","","","","observe","","img/3to2/1.png","null","166","376","0.5","0.5","3","2","",""
"animation","123","156595","0.0-5.0-2.59","6400de8f305c51d03c2a9a0e","bdp_cybrbll","Sat Mar 25 2023 16:23:19 GMT-0400 (Eastern Daylight Time)","459305","3","1","","","","","","","","","","166","","","","3","2","[{""stimulus"":""img/3to2/1.png"",""time"":110},{""stimulus"":""img/3to2/2.png"",""time"":200},{""stimulus"":""img/3to2/3.png"",""time"":313},{""stimulus"":""img/3to2/4.png"",""time"":406},{""stimulus"":""img/3to2/5.png"",""time"":499},{""stimulus"":""img/3to2/6.png"",""time"":610},{""stimulus"":""img/3to2/7.png"",""time"":694},{""stimulus"":""img/3to2/8.png"",""time"":796},{""stimulus"":""img/3to2/9.png"",""time"":892},{""stimulus"":""img/3to2/10.png"",""time"":992},{""stimulus"":""img/3to2/11.png"",""time"":1093},{""stimulus"":""img/3to2/12.png"",""time"":1202}]","[]"
"image-keyboard-response","124","157512","0.0-5.0-1.60","6400de8f305c51d03c2a9a0e","bdp_cybrbll","Sat Mar 25 2023 16:23:19 GMT-0400 (Eastern Daylight Time)","459305","3","1","","916","","","","choice","","img/2to1/1.png","1","165","488","0.5","0.5","2","1","",""
"animation","125","158809","0.0-5.0-2.60","6400de8f305c51d03c2a9a0e","bdp_cybrbll","Sat Mar 25 2023 16:23:19 GMT-0400 (Eastern Daylight Time)","459305","3","1","","","","","","","","","","165","","","","2","1","[{""stimulus"":""img/2to1/1.png"",""time"":101},{""stimulus"":""img/2to1/2.png"",""time"":208},{""stimulus"":""img/2to1/3.png"",""time"":300},{""stimulus"":""img/2to1/4.png"",""time"":410},{""stimulus"":""img/2to1/5.png"",""time"":496},{""stimulus"":""img/2to1/6.png"",""time"":595},{""stimulus"":""img/2to1/7.png"",""time"":693},{""stimulus"":""img/2to1/8.png"",""time"":798},{""stimulus"":""img/2to1/9.png"",""time"":892},{""stimulus"":""img/2to1/10.png"",""time"":1002},{""stimulus"":""img/2to1/11.png"",""time"":1096},{""stimulus"":""img/2to1/12.png"",""time"":1190}]","[]"
"image-keyboard-response","126","159104","0.0-5.0-1.61","6400de8f305c51d03c2a9a0e","bdp_cybrbll","Sat Mar 25 2023 16:23:19 GMT-0400 (Eastern Daylight Time)","459305","3","1","","null","","","","observe","","img/1to3/1.png","null","164","279","0.5","0.5","1","2","",""
"animation","127","160402","0.0-5.0-2.61","6400de8f305c51d03c2a9a0e","bdp_cybrbll","Sat Mar 25 2023 16:23:19 GMT-0400 (Eastern Daylight Time)","459305","3","1","","","","","","","","","","164","","","","1","2","[{""stimulus"":""img/1to2/1.png"",""time"":110},{""stimulus"":""img/1to2/2.png"",""time"":205},{""stimulus"":""img/1to2/3.png"",""time"":299},{""stimulus"":""img/1to2/4.png"",""time"":408},{""stimulus"":""img/1to2/5.png"",""time"":501},{""stimulus"":""img/1to2/6.png"",""time"":610},{""stimulus"":""img/1to2/7.png"",""time"":694},{""stimulus"":""img/1to2/8.png"",""time"":798},{""stimulus"":""img/1to2/9.png"",""time"":906},{""stimulus"":""img/1to2/10.png"",""time"":1000},{""stimulus"":""img/1to2/11.png"",""time"":1093},{""stimulus"":""img/1to2/12.png"",""time"":1203}]","[]"
"image-keyboard-response","128","160756","0.0-5.0-1.62","6400de8f305c51d03c2a9a0e","bdp_cybrbll","Sat Mar 25 2023 16:23:19 GMT-0400 (Eastern Daylight Time)","459305","3","1","","354","","","","choice","","img/2to1/1.png","2","163","366","0.5","0.5","2","3","",""
"animation","129","162058","0.0-5.0-2.62","6400de8f305c51d03c2a9a0e","bdp_cybrbll","Sat Mar 25 2023 16:23:19 GMT-0400 (Eastern Daylight Time)","459305","3","1","","","","","","","","","","163","","","","2","3","[{""stimulus"":""img/2to3/1.png"",""time"":114},{""stimulus"":""img/2to3/2.png"",""time"":199},{""stimulus"":""img/2to3/3.png"",""time"":302},{""stimulus"":""img/2to3/4.png"",""time"":398},{""stimulus"":""img/2to3/5.png"",""time"":505},{""stimulus"":""img/2to3/6.png"",""time"":595},{""stimulus"":""img/2to3/7.png"",""time"":694},{""stimulus"":""img/2to3/8.png"",""time"":803},{""stimulus"":""img/2to3/9.png"",""time"":898},{""stimulus"":""img/2to3/10.png"",""time"":1007},{""stimulus"":""img/2to3/11.png"",""time"":1101},{""stimulus"":""img/2to3/12.png"",""time"":1193}]","[]"
"image-keyboard-response","130","162654","0.0-5.0-1.63","6400de8f305c51d03c2a9a0e","bdp_cybrbll","Sat Mar 25 2023 16:23:19 GMT-0400 (Eastern Daylight Time)","459305","3","1","","null","","","","observe","","img/3to2/1.png","null","162","579","0.5","0.5","3","1","",""
"animation","131","163947","0.0-5.0-2.63","6400de8f305c51d03c2a9a0e","bdp_cybrbll","Sat Mar 25 2023 16:23:19 GMT-0400 (Eastern Daylight Time)","459305","3","1","","","","","","","","","","162","","","","3","1","[{""stimulus"":""img/3to1/1.png"",""time"":109},{""stimulus"":""img/3to1/2.png"",""time"":200},{""stimulus"":""img/3to1/3.png"",""time"":312},{""stimulus"":""img/3to1/4.png"",""time"":405},{""stimulus"":""img/3to1/5.png"",""time"":497},{""stimulus"":""img/3to1/6.png"",""time"":608},{""stimulus"":""img/3to1/7.png"",""time"":702},{""stimulus"":""img/3to1/8.png"",""time"":796},{""stimulus"":""img/3to1/9.png"",""time"":905},{""stimulus"":""img/3to1/10.png"",""time"":991},{""stimulus"":""img/3to1/11.png"",""time"":1091},{""stimulus"":""img/3to1/12.png"",""time"":1200}]","[]"
"image-keyboard-response","132","164258","0.0-5.0-1.64","6400de8f305c51d03c2a9a0e","bdp_cybrbll","Sat Mar 25 2023 16:23:19 GMT-0400 (Eastern Daylight Time)","459305","3","1","","null","","","","observe","","img/1to3/1.png","null","161","301","0.5","0.5","1","3","",""
"animation","133","165547","0.0-5.0-2.64","6400de8f305c51d03c2a9a0e","bdp_cybrbll","Sat Mar 25 2023 16:23:19 GMT-0400 (Eastern Daylight Time)","459305","3","1","","","","","","","","","","161","","","","1","3","[{""stimulus"":""img/1to3/1.png"",""time"":111},{""stimulus"":""img/1to3/2.png"",""time"":205},{""stimulus"":""img/1to3/3.png"",""time"":299},{""stimulus"":""img/1to3/4.png"",""time"":411},{""stimulus"":""img/1to3/5.png"",""time"":505},{""stimulus"":""img/1to3/6.png"",""time"":598},{""stimulus"":""img/1to3/7.png"",""time"":695},{""stimulus"":""img/1to3/8.png"",""time"":793},{""stimulus"":""img/1to3/9.png"",""time"":896},{""stimulus"":""img/1to3/10.png"",""time"":1005},{""stimulus"":""img/1to3/11.png"",""time"":1099},{""stimulus"":""img/1to3/12.png"",""time"":1189}]","[]"
"image-keyboard-response","134","166044","0.0-5.0-1.65","6400de8f305c51d03c2a9a0e","bdp_cybrbll","Sat Mar 25 2023 16:23:19 GMT-0400 (Eastern Daylight Time)","459305","3","1","","null","","","","observe","","img/3to2/1.png","null","160","495","0.5","0.5","3","1","",""
"animation","135","167342","0.0-5.0-2.65","6400de8f305c51d03c2a9a0e","bdp_cybrbll","Sat Mar 25 2023 16:23:19 GMT-0400 (Eastern Daylight Time)","459305","3","1","","","","","","","","","","160","","","","3","1","[{""stimulus"":""img/3to1/1.png"",""time"":110},{""stimulus"":""img/3to1/2.png"",""time"":204},{""stimulus"":""img/3to1/3.png"",""time"":312},{""stimulus"":""img/3to1/4.png"",""time"":405},{""stimulus"":""img/3to1/5.png"",""time"":499},{""stimulus"":""img/3to1/6.png"",""time"":595},{""stimulus"":""img/3to1/7.png"",""time"":701},{""stimulus"":""img/3to1/8.png"",""time"":795},{""stimulus"":""img/3to1/9.png"",""time"":905},{""stimulus"":""img/3to1/10.png"",""time"":1000},{""stimulus"":""img/3to1/11.png"",""time"":1093},{""stimulus"":""img/3to1/12.png"",""time"":1203}]","[]"
"image-keyboard-response","136","167825","0.0-5.0-1.66","6400de8f305c51d03c2a9a0e","bdp_cybrbll","Sat Mar 25 2023 16:23:19 GMT-0400 (Eastern Daylight Time)","459305","3","1","","null","","","","observe","","img/1to3/1.png","null","159","468","0.5","0.5","1","3","",""
"animation","137","169120","0.0-5.0-2.66","6400de8f305c51d03c2a9a0e","bdp_cybrbll","Sat Mar 25 2023 16:23:19 GMT-0400 (Eastern Daylight Time)","459305","3","1","","","","","","","","","","159","","","","1","3","[{""stimulus"":""img/1to3/1.png"",""time"":108},{""stimulus"":""img/1to3/2.png"",""time"":203},{""stimulus"":""img/1to3/3.png"",""time"":297},{""stimulus"":""img/1to3/4.png"",""time"":406},{""stimulus"":""img/1to3/5.png"",""time"":500},{""stimulus"":""img/1to3/6.png"",""time"":608},{""stimulus"":""img/1to3/7.png"",""time"":693},{""stimulus"":""img/1to3/8.png"",""time"":795},{""stimulus"":""img/1to3/9.png"",""time"":903},{""stimulus"":""img/1to3/10.png"",""time"":998},{""stimulus"":""img/1to3/11.png"",""time"":1090},{""stimulus"":""img/1to3/12.png"",""time"":1201}]","[]"
"image-keyboard-response","138","169351","0.0-5.0-1.67","6400de8f305c51d03c2a9a0e","bdp_cybrbll","Sat Mar 25 2023 16:23:19 GMT-0400 (Eastern Daylight Time)","459305","3","1","","null","","","","observe","","img/3to2/1.png","null","158","228","0.5","0.5","3","1","",""
"animation","139","170638","0.0-5.0-2.67","6400de8f305c51d03c2a9a0e","bdp_cybrbll","Sat Mar 25 2023 16:23:19 GMT-0400 (Eastern Daylight Time)","459305","3","1","","","","","","","","","","158","","","","3","1","[{""stimulus"":""img/3to1/1.png"",""time"":110},{""stimulus"":""img/3to1/2.png"",""time"":199},{""stimulus"":""img/3to1/3.png"",""time"":298},{""stimulus"":""img/3to1/4.png"",""time"":404},{""stimulus"":""img/3to1/5.png"",""time"":497},{""stimulus"":""img/3to1/6.png"",""time"":594},{""stimulus"":""img/3to1/7.png"",""time"":693},{""stimulus"":""img/3to1/8.png"",""time"":794},{""stimulus"":""img/3to1/9.png"",""time"":905},{""stimulus"":""img/3to1/10.png"",""time"":998},{""stimulus"":""img/3to1/11.png"",""time"":1090},{""stimulus"":""img/3to1/12.png"",""time"":1198}]","[]"
"image-keyboard-response","140","171223","0.0-5.0-1.68","6400de8f305c51d03c2a9a0e","bdp_cybrbll","Sat Mar 25 2023 16:23:19 GMT-0400 (Eastern Daylight Time)","459305","3","1","","null","","","","observe","","img/1to3/1.png","null","157","581","0.5","0.5","1","3","",""
"animation","141","172518","0.0-5.0-2.68","6400de8f305c51d03c2a9a0e","bdp_cybrbll","Sat Mar 25 2023 16:23:19 GMT-0400 (Eastern Daylight Time)","459305","3","1","","","","","","","","","","157","","","","1","3","[{""stimulus"":""img/1to3/1.png"",""time"":110},{""stimulus"":""img/1to3/2.png"",""time"":202},{""stimulus"":""img/1to3/3.png"",""time"":311},{""stimulus"":""img/1to3/4.png"",""time"":406},{""stimulus"":""img/1to3/5.png"",""time"":499},{""stimulus"":""img/1to3/6.png"",""time"":609},{""stimulus"":""img/1to3/7.png"",""time"":695},{""stimulus"":""img/1to3/8.png"",""time"":797},{""stimulus"":""img/1to3/9.png"",""time"":906},{""stimulus"":""img/1to3/10.png"",""time"":991},{""stimulus"":""img/1to3/11.png"",""time"":1092},{""stimulus"":""img/1to3/12.png"",""time"":1189}]","[]"
"image-keyboard-response","142","172981","0.0-5.0-1.69","6400de8f305c51d03c2a9a0e","bdp_cybrbll","Sat Mar 25 2023 16:23:19 GMT-0400 (Eastern Daylight Time)","459305","3","1","","null","","","","observe","","img/3to2/1.png","null","156","463","0.5","0.5","3","2","",""
"animation","143","174269","0.0-5.0-2.69","6400de8f305c51d03c2a9a0e","bdp_cybrbll","Sat Mar 25 2023 16:23:19 GMT-0400 (Eastern Daylight Time)","459305","3","1","","","","","","","","","","156","","","","3","2","[{""stimulus"":""img/3to2/1.png"",""time"":100},{""stimulus"":""img/3to2/2.png"",""time"":208},{""stimulus"":""img/3to2/3.png"",""time"":300},{""stimulus"":""img/3to2/4.png"",""time"":409},{""stimulus"":""img/3to2/5.png"",""time"":503},{""stimulus"":""img/3to2/6.png"",""time"":598},{""stimulus"":""img/3to2/7.png"",""time"":706},{""stimulus"":""img/3to2/8.png"",""time"":800},{""stimulus"":""img/3to2/9.png"",""time"":894},{""stimulus"":""img/3to2/10.png"",""time"":989},{""stimulus"":""img/3to2/11.png"",""time"":1089},{""stimulus"":""img/3to2/12.png"",""time"":1189}]","[]"
"image-keyboard-response","144","174514","0.0-5.0-1.70","6400de8f305c51d03c2a9a0e","bdp_cybrbll","Sat Mar 25 2023 16:23:19 GMT-0400 (Eastern Daylight Time)","459305","3","1","","245","","","","choice","","img/2to1/1.png","2","155","390","0.5","0.5","2","3","",""
"animation","145","175808","0.0-5.0-2.70","6400de8f305c51d03c2a9a0e","bdp_cybrbll","Sat Mar 25 2023 16:23:19 GMT-0400 (Eastern Daylight Time)","459305","3","1","","","","","","","","","","155","","","","2","3","[{""stimulus"":""img/2to3/1.png"",""time"":105},{""stimulus"":""img/2to3/2.png"",""time"":199},{""stimulus"":""img/2to3/3.png"",""time"":307},{""stimulus"":""img/2to3/4.png"",""time"":401},{""stimulus"":""img/2to3/5.png"",""time"":509},{""stimulus"":""img/2to3/6.png"",""time"":595},{""stimulus"":""img/2to3/7.png"",""time"":695},{""stimulus"":""img/2to3/8.png"",""time"":794},{""stimulus"":""img/2to3/9.png"",""time"":899},{""stimulus"":""img/2to3/10.png"",""time"":997},{""stimulus"":""img/2to3/11.png"",""time"":1091},{""stimulus"":""img/2to3/12.png"",""time"":1190}]","[]"
"image-keyboard-response","146","177079","0.0-5.0-1.71","6400de8f305c51d03c2a9a0e","bdp_cybrbll","Sat Mar 25 2023 16:23:19 GMT-0400 (Eastern Daylight Time)","459305","3","1","","null","","","","observe","","img/3to2/1.png","null","154","1268","0.5","0.5","3","2","",""
"animation","147","178374","0.0-5.0-2.71","6400de8f305c51d03c2a9a0e","bdp_cybrbll","Sat Mar 25 2023 16:23:19 GMT-0400 (Eastern Daylight Time)","459305","3","1","","","","","","","","","","154","","","","3","2","[{""stimulus"":""img/3to2/1.png"",""time"":110},{""stimulus"":""img/3to2/2.png"",""time"":198},{""stimulus"":""img/3to2/3.png"",""time"":298},{""stimulus"":""img/3to2/4.png"",""time"":403},{""stimulus"":""img/3to2/5.png"",""time"":498},{""stimulus"":""img/3to2/6.png"",""time"":608},{""stimulus"":""img/3to2/7.png"",""time"":694},{""stimulus"":""img/3to2/8.png"",""time"":792},{""stimulus"":""img/3to2/9.png"",""time"":902},{""stimulus"":""img/3to2/10.png"",""time"":992},{""stimulus"":""img/3to2/11.png"",""time"":1090},{""stimulus"":""img/3to2/12.png"",""time"":1196}]","[]"
"image-keyboard-response","148","178803","0.0-5.0-1.72","6400de8f305c51d03c2a9a0e","bdp_cybrbll","Sat Mar 25 2023 16:23:19 GMT-0400 (Eastern Daylight Time)","459305","3","1","","429","","","","choice","","img/2to1/1.png","1","153","410","0.5","0.5","2","1","",""
"animation","149","180092","0.0-5.0-2.72","6400de8f305c51d03c2a9a0e","bdp_cybrbll","Sat Mar 25 2023 16:23:19 GMT-0400 (Eastern Daylight Time)","459305","3","1","","","","","","","","","","153","","","","2","1","[{""stimulus"":""img/2to1/1.png"",""time"":114},{""stimulus"":""img/2to1/2.png"",""time"":207},{""stimulus"":""img/2to1/3.png"",""time"":298},{""stimulus"":""img/2to1/4.png"",""time"":408},{""stimulus"":""img/2to1/5.png"",""time"":496},{""stimulus"":""img/2to1/6.png"",""time"":595},{""stimulus"":""img/2to1/7.png"",""time"":694},{""stimulus"":""img/2to1/8.png"",""time"":798},{""stimulus"":""img/2to1/9.png"",""time"":892},{""stimulus"":""img/2to1/10.png"",""time"":991},{""stimulus"":""img/2to1/11.png"",""time"":1090},{""stimulus"":""img/2to1/12.png"",""time"":1190}]","[]"
"image-keyboard-response","150","180532","0.0-5.0-1.73","6400de8f305c51d03c2a9a0e","bdp_cybrbll","Sat Mar 25 2023 16:23:19 GMT-0400 (Eastern Daylight Time)","459305","3","1","","null","","","","observe","","img/1to3/1.png","null","152","433","0.5","0.5","1","2","",""
"animation","151","181828","0.0-5.0-2.73","6400de8f305c51d03c2a9a0e","bdp_cybrbll","Sat Mar 25 2023 16:23:19 GMT-0400 (Eastern Daylight Time)","459305","3","1","","","","","","","","","","152","","","","1","2","[{""stimulus"":""img/1to2/1.png"",""time"":110},{""stimulus"":""img/1to2/2.png"",""time"":203},{""stimulus"":""img/1to2/3.png"",""time"":298},{""stimulus"":""img/1to2/4.png"",""time"":396},{""stimulus"":""img/1to2/5.png"",""time"":497},{""stimulus"":""img/1to2/6.png"",""time"":594},{""stimulus"":""img/1to2/7.png"",""time"":701},{""stimulus"":""img/1to2/8.png"",""time"":795},{""stimulus"":""img/1to2/9.png"",""time"":905},{""stimulus"":""img/1to2/10.png"",""time"":999},{""stimulus"":""img/1to2/11.png"",""time"":1093},{""stimulus"":""img/1to2/12.png"",""time"":1188}]","[]"
"image-keyboard-response","152","182225","0.0-5.0-1.74","6400de8f305c51d03c2a9a0e","bdp_cybrbll","Sat Mar 25 2023 16:23:19 GMT-0400 (Eastern Daylight Time)","459305","3","1","","397","","","","choice","","img/2to1/1.png","1","151","162","0.5","0.5","2","1","",""
"animation","153","183524","0.0-5.0-2.74","6400de8f305c51d03c2a9a0e","bdp_cybrbll","Sat Mar 25 2023 16:23:19 GMT-0400 (Eastern Daylight Time)","459305","3","1","","","","","","","","","","151","","","","2","1","[{""stimulus"":""img/2to1/1.png"",""time"":115},{""stimulus"":""img/2to1/2.png"",""time"":207},{""stimulus"":""img/2to1/3.png"",""time"":299},{""stimulus"":""img/2to1/4.png"",""time"":411},{""stimulus"":""img/2to1/5.png"",""time"":496},{""stimulus"":""img/2to1/6.png"",""time"":599},{""stimulus"":""img/2to1/7.png"",""time"":694},{""stimulus"":""img/2to1/8.png"",""time"":801},{""stimulus"":""img/2to1/9.png"",""time"":892},{""stimulus"":""img/2to1/10.png"",""time"":990},{""stimulus"":""img/2to1/11.png"",""time"":1096},{""stimulus"":""img/2to1/12.png"",""time"":1204}]","[]"
"image-keyboard-response","154","184333","0.0-5.0-1.75","6400de8f305c51d03c2a9a0e","bdp_cybrbll","Sat Mar 25 2023 16:23:19 GMT-0400 (Eastern Daylight Time)","459305","3","1","","null","","","","observe","","img/1to3/1.png","null","150","795","0.5","0.5","1","3","",""
"animation","155","185625","0.0-5.0-2.75","6400de8f305c51d03c2a9a0e","bdp_cybrbll","Sat Mar 25 2023 16:23:19 GMT-0400 (Eastern Daylight Time)","459305","3","1","","","","","","","","","","150","","","","1","3","[{""stimulus"":""img/1to3/1.png"",""time"":109},{""stimulus"":""img/1to3/2.png"",""time"":202},{""stimulus"":""img/1to3/3.png"",""time"":312},{""stimulus"":""img/1to3/4.png"",""time"":406},{""stimulus"":""img/1to3/5.png"",""time"":499},{""stimulus"":""img/1to3/6.png"",""time"":607},{""stimulus"":""img/1to3/7.png"",""time"":701},{""stimulus"":""img/1to3/8.png"",""time"":793},{""stimulus"":""img/1to3/9.png"",""time"":902},{""stimulus"":""img/1to3/10.png"",""time"":994},{""stimulus"":""img/1to3/11.png"",""time"":1090},{""stimulus"":""img/1to3/12.png"",""time"":1198}]","[]"
"image-keyboard-response","156","186471","0.0-5.0-1.76","6400de8f305c51d03c2a9a0e","bdp_cybrbll","Sat Mar 25 2023 16:23:19 GMT-0400 (Eastern Daylight Time)","459305","3","1","","null","","","","observe","","img/3to2/1.png","null","149","843","0.5","0.1","3","1","",""
"animation","157","187769","0.0-5.0-2.76","6400de8f305c51d03c2a9a0e","bdp_cybrbll","Sat Mar 25 2023 16:23:19 GMT-0400 (Eastern Daylight Time)","459305","3","1","","","","","","","","","","149","","","","3","1","[{""stimulus"":""img/3to1/1.png"",""time"":111},{""stimulus"":""img/3to1/2.png"",""time"":200},{""stimulus"":""img/3to1/3.png"",""time"":298},{""stimulus"":""img/3to1/4.png"",""time"":408},{""stimulus"":""img/3to1/5.png"",""time"":501},{""stimulus"":""img/3to1/6.png"",""time"":596},{""stimulus"":""img/3to1/7.png"",""time"":705},{""stimulus"":""img/3to1/8.png"",""time"":798},{""stimulus"":""img/3to1/9.png"",""time"":892},{""stimulus"":""img/3to1/10.png"",""time"":1001},{""stimulus"":""img/3to1/11.png"",""time"":1096},{""stimulus"":""img/3to1/12.png"",""time"":1189}]","[]"
"image-keyboard-response","158","187958","0.0-5.0-1.77","6400de8f305c51d03c2a9a0e","bdp_cybrbll","Sat Mar 25 2023 16:23:19 GMT-0400 (Eastern Daylight Time)","459305","3","1","","null","","","","observe","","img/1to3/1.png","null","148","188","0.5","0.1","1","3","",""
"animation","159","189248","0.0-5.0-2.77","6400de8f305c51d03c2a9a0e","bdp_cybrbll","Sat Mar 25 2023 16:23:19 GMT-0400 (Eastern Daylight Time)","459305","3","1","","","","","","","","","","148","","","","1","3","[{""stimulus"":""img/1to3/1.png"",""time"":110},{""stimulus"":""img/1to3/2.png"",""time"":202},{""stimulus"":""img/1to3/3.png"",""time"":299},{""stimulus"":""img/1to3/4.png"",""time"":403},{""stimulus"":""img/1to3/5.png"",""time"":496},{""stimulus"":""img/1to3/6.png"",""time"":605},{""stimulus"":""img/1to3/7.png"",""time"":699},{""stimulus"":""img/1to3/8.png"",""time"":794},{""stimulus"":""img/1to3/9.png"",""time"":902},{""stimulus"":""img/1to3/10.png"",""time"":995},{""stimulus"":""img/1to3/11.png"",""time"":1104},{""stimulus"":""img/1to3/12.png"",""time"":1189}]","[]"
"image-keyboard-response","160","189871","0.0-5.0-1.78","6400de8f305c51d03c2a9a0e","bdp_cybrbll","Sat Mar 25 2023 16:23:19 GMT-0400 (Eastern Daylight Time)","459305","3","1","","null","","","","observe","","img/3to2/1.png","null","147","610","0.5","0.1","3","2","",""
"animation","161","191169","0.0-5.0-2.78","6400de8f305c51d03c2a9a0e","bdp_cybrbll","Sat Mar 25 2023 16:23:19 GMT-0400 (Eastern Daylight Time)","459305","3","1","","","","","","","","","","147","","","","3","2","[{""stimulus"":""img/3to2/1.png"",""time"":109},{""stimulus"":""img/3to2/2.png"",""time"":202},{""stimulus"":""img/3to2/3.png"",""time"":312},{""stimulus"":""img/3to2/4.png"",""time"":406},{""stimulus"":""img/3to2/5.png"",""time"":505},{""stimulus"":""img/3to2/6.png"",""time"":597},{""stimulus"":""img/3to2/7.png"",""time"":693},{""stimulus"":""img/3to2/8.png"",""time"":792},{""stimulus"":""img/3to2/9.png"",""time"":892},{""stimulus"":""img/3to2/10.png"",""time"":1003},{""stimulus"":""img/3to2/11.png"",""time"":1090},{""stimulus"":""img/3to2/12.png"",""time"":1189}]","[]"
"image-keyboard-response","162","193520","0.0-5.0-1.79","6400de8f305c51d03c2a9a0e","bdp_cybrbll","Sat Mar 25 2023 16:23:19 GMT-0400 (Eastern Daylight Time)","459305","3","1","","2350","","","","choice","","img/2to1/1.png","2","146","321","0.5","0.1","2","3","",""
"animation","163","194814","0.0-5.0-2.79","6400de8f305c51d03c2a9a0e","bdp_cybrbll","Sat Mar 25 2023 16:23:19 GMT-0400 (Eastern Daylight Time)","459305","3","1","","","","","","","","","","146","","","","2","3","[{""stimulus"":""img/2to3/1.png"",""time"":105},{""stimulus"":""img/2to3/2.png"",""time"":199},{""stimulus"":""img/2to3/3.png"",""time"":310},{""stimulus"":""img/2to3/4.png"",""time"":397},{""stimulus"":""img/2to3/5.png"",""time"":498},{""stimulus"":""img/2to3/6.png"",""time"":596},{""stimulus"":""img/2to3/7.png"",""time"":701},{""stimulus"":""img/2to3/8.png"",""time"":793},{""stimulus"":""img/2to3/9.png"",""time"":904},{""stimulus"":""img/2to3/10.png"",""time"":997},{""stimulus"":""img/2to3/11.png"",""time"":1091},{""stimulus"":""img/2to3/12.png"",""time"":1202}]","[]"
"image-keyboard-response","164","195658","0.0-5.0-1.80","6400de8f305c51d03c2a9a0e","bdp_cybrbll","Sat Mar 25 2023 16:23:19 GMT-0400 (Eastern Daylight Time)","459305","3","1","","null","","","","observe","","img/3to2/1.png","null","145","835","0.5","0.1","3","1","",""
"animation","165","196952","0.0-5.0-2.80","6400de8f305c51d03c2a9a0e","bdp_cybrbll","Sat Mar 25 2023 16:23:19 GMT-0400 (Eastern Daylight Time)","459305","3","1","","","","","","","","","","145","","","","3","1","[{""stimulus"":""img/3to1/1.png"",""time"":110},{""stimulus"":""img/3to1/2.png"",""time"":203},{""stimulus"":""img/3to1/3.png"",""time"":309},{""stimulus"":""img/3to1/4.png"",""time"":401},{""stimulus"":""img/3to1/5.png"",""time"":496},{""stimulus"":""img/3to1/6.png"",""time"":605},{""stimulus"":""img/3to1/7.png"",""time"":693},{""stimulus"":""img/3to1/8.png"",""time"":792},{""stimulus"":""img/3to1/9.png"",""time"":903},{""stimulus"":""img/3to1/10.png"",""time"":997},{""stimulus"":""img/3to1/11.png"",""time"":1089},{""stimulus"":""img/3to1/12.png"",""time"":1189}]","[]"
"image-keyboard-response","166","197559","0.0-5.0-1.81","6400de8f305c51d03c2a9a0e","bdp_cybrbll","Sat Mar 25 2023 16:23:19 GMT-0400 (Eastern Daylight Time)","459305","3","1","","null","","","","observe","","img/1to3/1.png","null","144","605","0.5","0.1","1","3","",""
"animation","167","198853","0.0-5.0-2.81","6400de8f305c51d03c2a9a0e","bdp_cybrbll","Sat Mar 25 2023 16:23:19 GMT-0400 (Eastern Daylight Time)","459305","3","1","","","","","","","","","","144","","","","1","3","[{""stimulus"":""img/1to3/1.png"",""time"":110},{""stimulus"":""img/1to3/2.png"",""time"":199},{""stimulus"":""img/1to3/3.png"",""time"":311},{""stimulus"":""img/1to3/4.png"",""time"":397},{""stimulus"":""img/1to3/5.png"",""time"":496},{""stimulus"":""img/1to3/6.png"",""time"":608},{""stimulus"":""img/1to3/7.png"",""time"":693},{""stimulus"":""img/1to3/8.png"",""time"":796},{""stimulus"":""img/1to3/9.png"",""time"":905},{""stimulus"":""img/1to3/10.png"",""time"":998},{""stimulus"":""img/1to3/11.png"",""time"":1090},{""stimulus"":""img/1to3/12.png"",""time"":1199}]","[]"
"image-keyboard-response","168","199092","0.0-5.0-1.82","6400de8f305c51d03c2a9a0e","bdp_cybrbll","Sat Mar 25 2023 16:23:19 GMT-0400 (Eastern Daylight Time)","459305","3","1","","null","","","","observe","","img/3to2/1.png","null","143","238","0.5","0.1","3","1","",""
"animation","169","200395","0.0-5.0-2.82","6400de8f305c51d03c2a9a0e","bdp_cybrbll","Sat Mar 25 2023 16:23:19 GMT-0400 (Eastern Daylight Time)","459305","3","1","","","","","","","","","","143","","","","3","1","[{""stimulus"":""img/3to1/1.png"",""time"":105},{""stimulus"":""img/3to1/2.png"",""time"":200},{""stimulus"":""img/3to1/3.png"",""time"":308},{""stimulus"":""img/3to1/4.png"",""time"":401},{""stimulus"":""img/3to1/5.png"",""time"":511},{""stimulus"":""img/3to1/6.png"",""time"":605},{""stimulus"":""img/3to1/7.png"",""time"":698},{""stimulus"":""img/3to1/8.png"",""time"":807},{""stimulus"":""img/3to1/9.png"",""time"":901},{""stimulus"":""img/3to1/10.png"",""time"":995},{""stimulus"":""img/3to1/11.png"",""time"":1089},{""stimulus"":""img/3to1/12.png"",""time"":1190}]","[]"
"image-keyboard-response","170","200848","0.0-5.0-1.83","6400de8f305c51d03c2a9a0e","bdp_cybrbll","Sat Mar 25 2023 16:23:19 GMT-0400 (Eastern Daylight Time)","459305","3","1","","null","","","","observe","","img/1to3/1.png","null","142","449","0.5","0.1","1","3","",""
"animation","171","202136","0.0-5.0-2.83","6400de8f305c51d03c2a9a0e","bdp_cybrbll","Sat Mar 25 2023 16:23:19 GMT-0400 (Eastern Daylight Time)","459305","3","1","","","","","","","","","","142","","","","1","3","[{""stimulus"":""img/1to3/1.png"",""time"":110},{""stimulus"":""img/1to3/2.png"",""time"":203},{""stimulus"":""img/1to3/3.png"",""time"":310},{""stimulus"":""img/1to3/4.png"",""time"":404},{""stimulus"":""img/1to3/5.png"",""time"":498},{""stimulus"":""img/1to3/6.png"",""time"":609},{""stimulus"":""img/1to3/7.png"",""time"":703},{""stimulus"":""img/1to3/8.png"",""time"":797},{""stimulus"":""img/1to3/9.png"",""time"":907},{""stimulus"":""img/1to3/10.png"",""time"":1000},{""stimulus"":""img/1to3/11.png"",""time"":1094},{""stimulus"":""img/1to3/12.png"",""time"":1203}]","[]"
"image-keyboard-response","172","202838","0.0-5.0-1.84","6400de8f305c51d03c2a9a0e","bdp_cybrbll","Sat Mar 25 2023 16:23:19 GMT-0400 (Eastern Daylight Time)","459305","3","1","","null","","","","observe","","img/3to2/1.png","null","141","686","0.5","0.1","3","1","",""
"animation","173","204131","0.0-5.0-2.84","6400de8f305c51d03c2a9a0e","bdp_cybrbll","Sat Mar 25 2023 16:23:19 GMT-0400 (Eastern Daylight Time)","459305","3","1","","","","","","","","","","141","","","","3","1","[{""stimulus"":""img/3to1/1.png"",""time"":109},{""stimulus"":""img/3to1/2.png"",""time"":199},{""stimulus"":""img/3to1/3.png"",""time"":311},{""stimulus"":""img/3to1/4.png"",""time"":405},{""stimulus"":""img/3to1/5.png"",""time"":497},{""stimulus"":""img/3to1/6.png"",""time"":606},{""stimulus"":""img/3to1/7.png"",""time"":694},{""stimulus"":""img/3to1/8.png"",""time"":793},{""stimulus"":""img/3to1/9.png"",""time"":902},{""stimulus"":""img/3to1/10.png"",""time"":991},{""stimulus"":""img/3to1/11.png"",""time"":1104},{""stimulus"":""img/3to1/12.png"",""time"":1198}]","[]"
"image-keyboard-response","174","204490","0.0-5.0-1.85","6400de8f305c51d03c2a9a0e","bdp_cybrbll","Sat Mar 25 2023 16:23:19 GMT-0400 (Eastern Daylight Time)","459305","3","1","","null","","","","observe","","img/1to3/1.png","null","140","357","0.5","0.1","1","3","",""
"animation","175","205790","0.0-5.0-2.85","6400de8f305c51d03c2a9a0e","bdp_cybrbll","Sat Mar 25 2023 16:23:19 GMT-0400 (Eastern Daylight Time)","459305","3","1","","","","","","","","","","140","","","","1","3","[{""stimulus"":""img/1to3/1.png"",""time"":108},{""stimulus"":""img/1to3/2.png"",""time"":203},{""stimulus"":""img/1to3/3.png"",""time"":312},{""stimulus"":""img/1to3/4.png"",""time"":406},{""stimulus"":""img/1to3/5.png"",""time"":496},{""stimulus"":""img/1to3/6.png"",""time"":595},{""stimulus"":""img/1to3/7.png"",""time"":703},{""stimulus"":""img/1to3/8.png"",""time"":796},{""stimulus"":""img/1to3/9.png"",""time"":892},{""stimulus"":""img/1to3/10.png"",""time"":999},{""stimulus"":""img/1to3/11.png"",""time"":1093},{""stimulus"":""img/1to3/12.png"",""time"":1188}]","[]"
"image-keyboard-response","176","206041","0.0-5.0-1.86","6400de8f305c51d03c2a9a0e","bdp_cybrbll","Sat Mar 25 2023 16:23:19 GMT-0400 (Eastern Daylight Time)","459305","3","1","","null","","","","observe","","img/3to2/1.png","null","139","243","0.5","0.1","3","2","",""
"animation","177","207329","0.0-5.0-2.86","6400de8f305c51d03c2a9a0e","bdp_cybrbll","Sat Mar 25 2023 16:23:19 GMT-0400 (Eastern Daylight Time)","459305","3","1","","","","","","","","","","139","","","","3","2","[{""stimulus"":""img/3to2/1.png"",""time"":111},{""stimulus"":""img/3to2/2.png"",""time"":204},{""stimulus"":""img/3to2/3.png"",""time"":298},{""stimulus"":""img/3to2/4.png"",""time"":408},{""stimulus"":""img/3to2/5.png"",""time"":496},{""stimulus"":""img/3to2/6.png"",""time"":610},{""stimulus"":""img/3to2/7.png"",""time"":703},{""stimulus"":""img/3to2/8.png"",""time"":796},{""stimulus"":""img/3to2/9.png"",""time"":892},{""stimulus"":""img/3to2/10.png"",""time"":1000},{""stimulus"":""img/3to2/11.png"",""time"":1090},{""stimulus"":""img/3to2/12.png"",""time"":1202}]","[]"
"image-keyboard-response","178","208375","0.0-5.0-1.87","6400de8f305c51d03c2a9a0e","bdp_cybrbll","Sat Mar 25 2023 16:23:19 GMT-0400 (Eastern Daylight Time)","459305","3","1","","1046","","","","choice","","img/2to1/1.png","1","138","469","0.5","0.1","2","1","",""
"animation","179","209668","0.0-5.0-2.87","6400de8f305c51d03c2a9a0e","bdp_cybrbll","Sat Mar 25 2023 16:23:19 GMT-0400 (Eastern Daylight Time)","459305","3","1","","","","","","","","","","138","","","","2","1","[{""stimulus"":""img/2to1/1.png"",""time"":109},{""stimulus"":""img/2to1/2.png"",""time"":201},{""stimulus"":""img/2to1/3.png"",""time"":298},{""stimulus"":""img/2to1/4.png"",""time"":402},{""stimulus"":""img/2to1/5.png"",""time"":497},{""stimulus"":""img/2to1/6.png"",""time"":606},{""stimulus"":""img/2to1/7.png"",""time"":700},{""stimulus"":""img/2to1/8.png"",""time"":793},{""stimulus"":""img/2to1/9.png"",""time"":892},{""stimulus"":""img/2to1/10.png"",""time"":991},{""stimulus"":""img/2to1/11.png"",""time"":1104},{""stimulus"":""img/2to1/12.png"",""time"":1189}]","[]"
"image-keyboard-response","180","210028","0.0-5.0-1.88","6400de8f305c51d03c2a9a0e","bdp_cybrbll","Sat Mar 25 2023 16:23:19 GMT-0400 (Eastern Daylight Time)","459305","3","1","","null","","","","observe","","img/1to3/1.png","null","137","351","0.5","0.1","1","3","",""
"animation","181","211325","0.0-5.0-2.88","6400de8f305c51d03c2a9a0e","bdp_cybrbll","Sat Mar 25 2023 16:23:19 GMT-0400 (Eastern Daylight Time)","459305","3","1","","","","","","","","","","137","","","","1","3","[{""stimulus"":""img/1to3/1.png"",""time"":109},{""stimulus"":""img/1to3/2.png"",""time"":202},{""stimulus"":""img/1to3/3.png"",""time"":297},{""stimulus"":""img/1to3/4.png"",""time"":403},{""stimulus"":""img/1to3/5.png"",""time"":495},{""stimulus"":""img/1to3/6.png"",""time"":608},{""stimulus"":""img/1to3/7.png"",""time"":704},{""stimulus"":""img/1to3/8.png"",""time"":797},{""stimulus"":""img/1to3/9.png"",""time"":891},{""stimulus"":""img/1to3/10.png"",""time"":998},{""stimulus"":""img/1to3/11.png"",""time"":1089},{""stimulus"":""img/1to3/12.png"",""time"":1203}]","[]"
"image-keyboard-response","182","211669","0.0-5.0-1.89","6400de8f305c51d03c2a9a0e","bdp_cybrbll","Sat Mar 25 2023 16:23:19 GMT-0400 (Eastern Daylight Time)","459305","3","1","","null","","","","observe","","img/3to2/1.png","null","136","335","0.5","0.1","3","1","",""
"animation","183","212961","0.0-5.0-2.89","6400de8f305c51d03c2a9a0e","bdp_cybrbll","Sat Mar 25 2023 16:23:19 GMT-0400 (Eastern Daylight Time)","459305","3","1","","","","","","","","","","136","","","","3","1","[{""stimulus"":""img/3to1/1.png"",""time"":110},{""stimulus"":""img/3to1/2.png"",""time"":203},{""stimulus"":""img/3to1/3.png"",""time"":299},{""stimulus"":""img/3to1/4.png"",""time"":406},{""stimulus"":""img/3to1/5.png"",""time"":498},{""stimulus"":""img/3to1/6.png"",""time"":607},{""stimulus"":""img/3to1/7.png"",""time"":701},{""stimulus"":""img/3to1/8.png"",""time"":793},{""stimulus"":""img/3to1/9.png"",""time"":903},{""stimulus"":""img/3to1/10.png"",""time"":996},{""stimulus"":""img/3to1/11.png"",""time"":1091},{""stimulus"":""img/3to1/12.png"",""time"":1200}]","[]"
"image-keyboard-response","184","213307","0.0-5.0-1.90","6400de8f305c51d03c2a9a0e","bdp_cybrbll","Sat Mar 25 2023 16:23:19 GMT-0400 (Eastern Daylight Time)","459305","3","1","","null","","","","observe","","img/1to3/1.png","null","135","329","0.5","0.1","1","3","",""
"animation","185","214608","0.0-5.0-2.90","6400de8f305c51d03c2a9a0e","bdp_cybrbll","Sat Mar 25 2023 16:23:19 GMT-0400 (Eastern Daylight Time)","459305","3","1","","","","","","","","","","135","","","","1","3","[{""stimulus"":""img/1to3/1.png"",""time"":110},{""stimulus"":""img/1to3/2.png"",""time"":204},{""stimulus"":""img/1to3/3.png"",""time"":314},{""stimulus"":""img/1to3/4.png"",""time"":407},{""stimulus"":""img/1to3/5.png"",""time"":500},{""stimulus"":""img/1to3/6.png"",""time"":594},{""stimulus"":""img/1to3/7.png"",""time"":694},{""stimulus"":""img/1to3/8.png"",""time"":797},{""stimulus"":""img/1to3/9.png"",""time"":905},{""stimulus"":""img/1to3/10.png"",""time"":1000},{""stimulus"":""img/1to3/11.png"",""time"":1094},{""stimulus"":""img/1to3/12.png"",""time"":1202}]","[]"
"image-keyboard-response","186","214904","0.0-5.0-1.91","6400de8f305c51d03c2a9a0e","bdp_cybrbll","Sat Mar 25 2023 16:23:19 GMT-0400 (Eastern Daylight Time)","459305","3","1","","null","","","","observe","","img/3to2/1.png","null","134","285","0.5","0.1","3","1","",""
"animation","187","216192","0.0-5.0-2.91","6400de8f305c51d03c2a9a0e","bdp_cybrbll","Sat Mar 25 2023 16:23:19 GMT-0400 (Eastern Daylight Time)","459305","3","1","","","","","","","","","","134","","","","3","1","[{""stimulus"":""img/3to1/1.png"",""time"":111},{""stimulus"":""img/3to1/2.png"",""time"":204},{""stimulus"":""img/3to1/3.png"",""time"":313},{""stimulus"":""img/3to1/4.png"",""time"":407},{""stimulus"":""img/3to1/5.png"",""time"":500},{""stimulus"":""img/3to1/6.png"",""time"":594},{""stimulus"":""img/3to1/7.png"",""time"":704},{""stimulus"":""img/3to1/8.png"",""time"":796},{""stimulus"":""img/3to1/9.png"",""time"":905},{""stimulus"":""img/3to1/10.png"",""time"":1000},{""stimulus"":""img/3to1/11.png"",""time"":1090},{""stimulus"":""img/3to1/12.png"",""time"":1202}]","[]"
"image-keyboard-response","188","216389","0.0-5.0-1.92","6400de8f305c51d03c2a9a0e","bdp_cybrbll","Sat Mar 25 2023 16:23:19 GMT-0400 (Eastern Daylight Time)","459305","3","1","","null","","","","observe","","img/1to3/1.png","null","133","191","0.5","0.1","1","3","",""
"animation","189","217691","0.0-5.0-2.92","6400de8f305c51d03c2a9a0e","bdp_cybrbll","Sat Mar 25 2023 16:23:19 GMT-0400 (Eastern Daylight Time)","459305","3","1","","","","","","","","","","133","","","","1","3","[{""stimulus"":""img/1to3/1.png"",""time"":108},{""stimulus"":""img/1to3/2.png"",""time"":202},{""stimulus"":""img/1to3/3.png"",""time"":311},{""stimulus"":""img/1to3/4.png"",""time"":396},{""stimulus"":""img/1to3/5.png"",""time"":499},{""stimulus"":""img/1to3/6.png"",""time"":594},{""stimulus"":""img/1to3/7.png"",""time"":701},{""stimulus"":""img/1to3/8.png"",""time"":793},{""stimulus"":""img/1to3/9.png"",""time"":892},{""stimulus"":""img/1to3/10.png"",""time"":1004},{""stimulus"":""img/1to3/11.png"",""time"":1098},{""stimulus"":""img/1to3/12.png"",""time"":1189}]","[]"
"image-keyboard-response","190","218237","0.0-5.0-1.93","6400de8f305c51d03c2a9a0e","bdp_cybrbll","Sat Mar 25 2023 16:23:19 GMT-0400 (Eastern Daylight Time)","459305","3","1","","null","","","","observe","","img/3to2/1.png","null","132","542","0.5","0.1","3","1","",""
